time,seconds_elapsed,z,y,x
1761818006693216300,0.10121630859375,0.03382759168744087,0.35097169876098633,0.0061000315472483635
1761818006703144200,0.111144287109375,0.03299902006983757,0.4362545907497406,-0.05918437987565994
1761818006713073400,0.121073486328125,0.03792506828904152,0.47905850410461426,-0.09513092786073685
1761818006723001600,0.131001708984375,0.04123790189623833,0.47859659790992737,-0.09734809398651123
1761818006732930300,0.140930419921875,0.041701558977365494,0.43544620275497437,-0.06679817289113998
1761818006742858500,0.1508583984375,0.03648356348276138,0.34814852476119995,-0.02218484692275524
1761818006752787500,0.160787353515625,0.026400834321975708,0.23551678657531738,0.019385498017072678
1761818006762715400,0.17071533203125,0.011491062119603157,0.09480907768011093,0.04553082212805748
1761818006772644600,0.18064453125,-0.007176098879426718,-0.045355748385190964,0.05479170009493828
1761818006782572500,0.190572509765625,-0.01812554895877838,-0.17358046770095825,0.04910697042942047
1761818006792501500,0.20050146484375,-0.0249155443161726,-0.26564353704452515,0.031310394406318665
1761818006802429400,0.210429443359375,-0.02902846783399582,-0.330741286277771,0.0029924223199486732
1761818006812357400,0.220357421875,-0.027806876227259636,-0.3468534052371979,-0.026049882173538208
1761818006822286300,0.230286376953125,-0.020364735275506973,-0.3307538628578186,-0.05127371847629547
1761818006832214300,0.24021435546875,-0.021874748170375824,-0.276437371969223,-0.06741300225257874
1761818006842143500,0.2501435546875,-0.014838803559541702,-0.1899968683719635,-0.06940282136201859
1761818006852071400,0.260071533203125,-0.011206250637769699,-0.08219903707504272,-0.047130804508924484
1761818006862000400,0.27000048828125,-0.001894308370538056,0.03053111955523491,-0.014482839964330196
1761818006871928600,0.279928466796875,0.0026671537198126316,0.13852576911449432,0.018610665574669838
1761818006881857300,0.289857177734375,0.008751336485147476,0.21513870358467102,0.04652499407529831
1761818006891785500,0.299785400390625,0.01506036426872015,0.2573700547218323,0.05891348421573639
1761818006901714400,0.30971435546875,0.015252980403602123,0.25142714381217957,0.05340397357940674
1761818006911642400,0.319642333984375,0.014682264998555183,0.21310371160507202,0.03905113413929939
1761818006921571600,0.329571533203125,0.00983591377735138,0.14300179481506348,0.015083788894116879
1761818006931500500,0.33950048828125,0.008511790074408054,0.06287739425897598,-0.009133399464190006
1761818006941429500,0.349429443359375,-0.0010866426164284348,-0.02696090377867222,-0.026932911947369576
1761818006951357400,0.359357421875,-0.003187343943864107,-0.10292037576436996,-0.03249519318342209
1761818006961285400,0.369285400390625,-0.008777187205851078,-0.16315390169620514,-0.0325724333524704
1761818006971214300,0.37921435546875,-0.014097916893661022,-0.19616937637329102,-0.02302233874797821
1761818006981142300,0.389142333984375,-0.016073312610387802,-0.2006458044052124,-0.011215425096452236
1761818006991071200,0.3990712890625,-0.018238462507724762,-0.18174535036087036,0.0005701277405023575
1761818007000999400,0.40899951171875,-0.016553817316889763,-0.13288536667823792,0.013579608872532845
1761818007010928400,0.418928466796875,-0.012971066869795322,-0.07112080603837967,0.017666229978203773
1761818007020856300,0.428856201171875,-0.008313202299177647,-0.0014715229626744986,0.017932478338479996
1761818007030785300,0.438785400390625,0.00025525150704197586,0.05692867189645767,0.013438661582767963
1761818007040713200,0.448713134765625,0.005176180973649025,0.11059271544218063,0.00420184712857008
1761818007050642200,0.45864208984375,0.011287069879472256,0.14702528715133667,-0.0031665866263210773
1761818007060570400,0.4685703125,0.012877440080046654,0.12763595581054688,0.012399018742144108
1761818007070499300,0.478499267578125,-0.0301176980137825,-0.10052904486656189,0.1987220197916031
1761818007080427500,0.488427490234375,-0.05083523318171501,-0.04228958114981651,0.4254133999347687
1761818007090355500,0.49835546875,0.005593422334641218,0.41287022829055786,0.5714640617370605
1761818007100284400,0.508284423828125,0.0738547071814537,0.28585848212242126,0.47782689332962036
1761818007110212400,0.51821240234375,0.10092654079198837,-0.05975617095828056,0.26456549763679504
1761818007120141300,0.528141357421875,0.09734252840280533,-0.12338056415319443,0.047434497624635696
1761818007130069200,0.5380693359375,0.0760904997587204,0.04347819834947586,-0.12474179267883301
1761818007139998500,0.54799853515625,0.03360109403729439,0.266872376203537,-0.22440475225448608
1761818007149926400,0.557926513671875,-0.01380903273820877,0.4383400082588196,-0.2068081796169281
1761818007159855400,0.56785546875,-0.0683053657412529,0.4219057559967041,-0.08627406507730484
1761818007169783300,0.577783203125,-0.07547859102487564,0.23733188211917877,0.028443193063139915
1761818007179712300,0.587712158203125,-0.022861121222376823,0.03910091891884804,0.11319532990455627
1761818007189640200,0.59764013671875,0.022086646407842636,-0.14681755006313324,0.15981930494308472
1761818007199569200,0.607569091796875,0.036255139857530594,-0.27485477924346924,0.16729332506656647
1761818007209497300,0.617497314453125,0.05963023751974106,-0.2780945301055908,0.15624307096004486
1761818007219425500,0.627425537109375,0.07768746465444565,-0.17695322632789612,0.12578870356082916
1761818007229354500,0.6373544921875,0.05862828716635704,-0.035164397209882736,0.10336782038211823
1761818007239282400,0.647282470703125,0.022402586415410042,0.12462363392114639,0.09678603708744049
1761818007249211400,0.65721142578125,-0.0028577635530382395,0.30057334899902344,0.10187453776597977
1761818007259139300,0.667139404296875,-0.01857968419790268,0.5234480500221252,0.10499421507120132
1761818007269068300,0.677068359375,-0.040507618337869644,0.7589114308357239,0.10510127246379852
1761818007278996200,0.686996337890625,-0.0990799218416214,0.9222486019134521,0.11212778091430664
1761818007288925400,0.696925537109375,-0.19816361367702484,0.9642322659492493,0.1042243242263794
1761818007298853400,0.706853271484375,-0.30701038241386414,0.9186239838600159,0.10459058731794357
1761818007308782300,0.7167822265625,-0.3952643573284149,0.7618873715400696,0.13543292880058289
1761818007318710300,0.726710205078125,-0.43840864300727844,0.5951176285743713,0.17529071867465973
1761818007328639200,0.73663916015625,-0.44771692156791687,0.4705014228820801,0.19735261797904968
1761818007338567200,0.746567138671875,-0.42244505882263184,0.4691246449947357,0.1837230622768402
1761818007348496400,0.756496337890625,-0.3480965197086334,0.5691055655479431,0.14071300625801086
1761818007358424300,0.76642431640625,-0.25717586278915405,0.7353414297103882,0.07628800719976425
1761818007368353300,0.776353271484375,-0.15182974934577942,0.8966874480247498,0.006125166080892086
1761818007378281500,0.786281494140625,-0.11031652241945267,1.0077863931655884,-0.05537912994623184
1761818007388209400,0.79620947265625,-0.09867744147777557,0.9721071720123291,-0.15575553476810455
1761818007398138400,0.806138427734375,-0.04957994073629379,0.710918664932251,-0.260633260011673
1761818007408066300,0.81606640625,0.09220196306705475,0.23830768465995789,-0.3336060047149658
1761818007417995500,0.82599560546875,0.31067490577697754,-0.3197958469390869,-0.35996654629707336
1761818007427923500,0.83592333984375,0.5623231530189514,-0.9224010109901428,-0.3363858759403229
1761818007437852400,0.845852294921875,0.8627004623413086,-1.3845752477645874,-0.277705579996109
1761818007447780400,0.8557802734375,1.1213715076446533,-1.527156114578247,-0.20890337228775024
1761818007457709300,0.865709228515625,1.2827812433242798,-1.3870011568069458,-0.13956092298030853
1761818007467637200,0.87563720703125,1.4208199977874756,-1.114427089691162,-0.10346443206071854
1761818007477566200,0.885566162109375,1.597074270248413,-0.937743067741394,-0.0733618214726448
1761818007487494100,0.895494140625,1.7248886823654175,-0.8256583213806152,-0.005554283037781715
1761818007497423400,0.90542333984375,1.7875980138778687,-0.6492842435836792,0.09657766669988632
1761818007507351300,0.915351318359375,1.8221948146820068,-0.4400274455547333,0.17699900269508362
1761818007517280300,0.9252802734375,1.7729854583740234,-0.20872388780117035,0.20018653571605682
1761818007527208400,0.93520849609375,1.5766412019729614,-0.0008287412929348648,0.1788032203912735
1761818007537137200,0.94513720703125,1.160597801208496,0.12176813930273056,0.12409797310829163
1761818007547065300,0.9550654296875,0.5081555247306824,0.22241033613681793,0.033232249319553375
1761818007556994600,0.96499462890625,-0.13946741819381714,0.4163183271884918,-0.07931671291589737
1761818007566922500,0.974922607421875,-0.5957819223403931,0.5943061709403992,-0.1259278953075409
1761818007576850400,0.984850341796875,-0.9702277183532715,0.6288952827453613,-0.06998340040445328
1761818007586779400,0.994779296875,-1.2651965618133545,0.5874506831169128,0.04149545729160309
1761818007596707300,1.004707275390625,-1.5119045972824097,0.49594196677207947,0.150022491812706
1761818007606636300,1.01463623046875,-1.7409803867340088,0.3840463161468506,0.20871323347091675
1761818007616564200,1.024564208984375,-1.9684771299362183,0.31168171763420105,0.1923312544822693
1761818007626493400,1.034493408203125,-2.160594940185547,0.2871260344982147,0.12805001437664032
1761818007636421400,1.04442138671875,-2.1990621089935303,0.3529082238674164,0.042569857090711594
1761818007646350300,1.054350341796875,-2.169703960418701,0.4893909692764282,-0.010066721588373184
1761818007656278300,1.0642783203125,-2.056859016418457,0.538571298122406,0.00159476138651371
1761818007666207200,1.074207275390625,-1.8106918334960938,0.5119860768318176,0.03350209444761276
1761818007676135400,1.084135498046875,-1.3095918893814087,0.40902942419052124,0.057508889585733414
1761818007686064000,1.094064208984375,-0.5139179229736328,0.225236177444458,0.060749154537916183
1761818007695992300,1.103992431640625,0.22691543400287628,-0.21143224835395813,0.056609444320201874
1761818007705921500,1.113921630859375,0.7591226100921631,-0.5871206521987915,-0.000050904229283332825
1761818007715849500,1.123849365234375,1.2932796478271484,-0.7758538126945496,-0.11892614513635635
1761818007725778400,1.1337783203125,1.7640048265457153,-0.810869574546814,-0.22917808592319489
1761818007735706400,1.143706298828125,2.1185710430145264,-0.7065895199775696,-0.311613529920578
1761818007745635300,1.15363525390625,2.327932834625244,-0.4592708349227905,-0.3515516221523285
1761818007755563300,1.163563232421875,2.267301321029663,-0.05705900490283966,-0.26877307891845703
1761818007765492500,1.173492431640625,1.8237038850784302,0.5250933766365051,-0.10174466669559479
1761818007775420400,1.18342041015625,1.0156917572021484,1.1063824892044067,0.05925259366631508
1761818007785349400,1.193349365234375,0.05167191103100777,1.474657416343689,0.16996392607688904
1761818007795277300,1.20327734375,-0.6168724298477173,1.4913039207458496,0.21489658951759338
1761818007805206300,1.213206298828125,-1.23322331905365,1.091610074043274,0.2129969596862793
1761818007815134200,1.22313427734375,-1.6970316171646118,0.43666088581085205,0.20105651021003723
1761818007825062400,1.2330625,-1.8994182348251343,-0.1850559413433075,0.1827632486820221
1761818007834991400,1.242991455078125,-1.843945026397705,-0.6646719574928284,0.18133412301540375
1761818007844919600,1.25291943359375,-1.5968621969223022,-0.8635402917861938,0.1789601743221283
1761818007854848500,1.2628486328125,-1.1198903322219849,-0.7244082689285278,0.15429715812206268
1761818007864776400,1.2727763671875,-0.45365771651268005,-0.5678737759590149,0.1073102131485939
1761818007874705400,1.282705322265625,0.0824100524187088,-0.4677838087081909,0.03703071549534798
1761818007884633300,1.29263330078125,0.4661808907985687,-0.1769905984401703,-0.0888499766588211
1761818007894562300,1.302562255859375,0.7935709357261658,0.040584251284599304,-0.20262445509433746
1761818007904490200,1.312490234375,1.0846166610717773,0.11710245907306671,-0.23022280633449554
1761818007914419500,1.32241943359375,1.2522990703582764,0.18522600829601288,-0.18893791735172272
1761818007924347400,1.332347412109375,1.1793564558029175,0.3411639332771301,-0.17321860790252686
1761818007934276400,1.3422763671875,0.8776228427886963,0.484245240688324,-0.1856716126203537
1761818007944204300,1.352204345703125,0.38501259684562683,0.5927272439002991,-0.17472654581069946
1761818007954133200,1.36213330078125,-0.07056784629821777,0.6104149222373962,-0.1245989203453064
1761818007964061200,1.372061279296875,-0.43495672941207886,0.4554586410522461,0.011309913359582424
1761818007973990100,1.381990234375,-0.733979344367981,0.18983511626720428,0.17146924138069153
1761818007983918000,1.39191796875,-0.8745854496955872,-0.10203056782484055,0.30079445242881775
1761818007993847300,1.401847412109375,-0.8792432546615601,-0.36915186047554016,0.37416234612464905
1761818008003775200,1.411775146484375,-0.7250545024871826,-0.530878484249115,0.35840335488319397
1761818008013704200,1.4217041015625,-0.4965798556804657,-0.5608764886856079,0.2652011215686798
1761818008023632400,1.43163232421875,-0.2762610614299774,-0.48509782552719116,0.13703808188438416
1761818008033561300,1.441561279296875,-0.12040530145168304,-0.2990415692329407,0.013778629712760448
1761818008043489300,1.4514892578125,-0.03802095353603363,-0.10674723982810974,-0.08106239140033722
1761818008053417200,1.461417236328125,0.062259774655103683,-0.006710811052471399,-0.13253359496593475
1761818008063346400,1.471346435546875,0.17474983632564545,0.010132084600627422,-0.1397361010313034
1761818008073275400,1.481275390625,0.2384553849697113,-0.009298673830926418,-0.10778479278087616
1761818008083203300,1.491203369140625,0.23696401715278625,-0.04428382217884064,-0.07939150184392929
1761818008093131300,1.50113134765625,0.21635447442531586,-0.06279444694519043,-0.07665487378835678
1761818008103060200,1.511060302734375,0.22822977602481842,-0.05425421893596649,-0.08073803037405014
1761818008112988200,1.52098828125,0.31606945395469666,-0.05867888405919075,-0.08420019596815109
1761818008122917400,1.53091748046875,0.5007738471031189,-0.13742110133171082,-0.08215701580047607
1761818008132845300,1.54084521484375,0.7435458302497864,-0.26244571805000305,-0.08840151876211166
1761818008142774300,1.550774169921875,0.9654260277748108,-0.34143054485321045,-0.12072829902172089
1761818008152702200,1.5607021484375,1.1346681118011475,-0.29308781027793884,-0.17330248653888702
1761818008162631200,1.570631103515625,1.2096246480941772,-0.1960078477859497,-0.18210476636886597
1761818008172559400,1.580559326171875,1.2098945379257202,-0.11432540416717529,-0.10491286963224411
1761818008182488300,1.59048828125,1.122788429260254,-0.02079145796597004,0.05545390397310257
1761818008192416300,1.600416259765625,0.8549895286560059,0.14774106442928314,0.20129504799842834
1761818008202345500,1.610345458984375,0.35205078125,0.38579490780830383,0.26624131202697754
1761818008212273400,1.6202734375,-0.19108514487743378,0.6388075947761536,0.25465306639671326
1761818008222202400,1.630202392578125,-0.6204745769500732,0.7548574805259705,0.22140218317508698
1761818008232130300,1.64013037109375,-0.9398024678230286,0.7284824848175049,0.18263542652130127
1761818008242059300,1.650059326171875,-1.1430549621582031,0.6356803774833679,0.15051397681236267
1761818008251987200,1.6599873046875,-1.2461439371109009,0.5258122086524963,0.10965213924646378
1761818008261916400,1.66991650390625,-1.2670305967330933,0.4355126619338989,0.03895692527294159
1761818008271844400,1.67984423828125,-1.192192792892456,0.38106614351272583,-0.00043801870197057724
1761818008281773300,1.689773193359375,-1.0770175457000732,0.3045215904712677,0.014477813616394997
1761818008291701200,1.699701171875,-0.9245907068252563,0.19241999089717865,0.057896267622709274
1761818008301629200,1.709629150390625,-0.7369667887687683,0.09427344799041748,0.10033827275037766
1761818008311558100,1.71955810546875,-0.47772422432899475,0.03082999587059021,0.1276245415210724
1761818008321486300,1.729486328125,-0.20047824084758759,-0.09243068844079971,0.12404686212539673
1761818008331415300,1.739415283203125,-0.04001433029770851,-0.24673523008823395,0.0798516571521759
1761818008341343500,1.749343505859375,0.1328200250864029,-0.3250545561313629,-0.0030243187211453915
1761818008351272400,1.7592724609375,0.3457079827785492,-0.32304251194000244,-0.11721275746822357
1761818008361200400,1.769200439453125,0.5722894668579102,-0.3607587218284607,-0.21660804748535156
1761818008371129300,1.77912939453125,0.8203497529029846,-0.4377901554107666,-0.2868277430534363
1761818008381057300,1.789057373046875,1.0770713090896606,-0.48220714926719666,-0.31440556049346924
1761818008390986200,1.798986328125,1.2924425601959229,-0.4823459982872009,-0.30385392904281616
1761818008400914200,1.8089140625,1.4547430276870728,-0.4827769100666046,-0.28104662895202637
1761818008410843400,1.818843505859375,1.571001410484314,-0.42263543605804443,-0.27078917622566223
1761818008420771300,1.828771240234375,1.6451665163040161,-0.2749437093734741,-0.2557854652404785
1761818008430700300,1.8387001953125,1.6538761854171753,-0.10642930865287781,-0.1829194575548172
1761818008440628200,1.848628173828125,1.573730230331421,-0.016307136043906212,-0.05735834687948227
1761818008450557200,1.85855712890625,1.3932759761810303,0.04213832691311836,0.07503663003444672
1761818008460485000,1.868485107421875,1.0706336498260498,0.10970564931631088,0.16605573892593384
1761818008470414300,1.878414306640625,0.5837284922599792,0.15865002572536469,0.20301802456378937
1761818008480342300,1.88834228515625,0.005851631052792072,0.23348775506019592,0.19632290303707123
1761818008490271200,1.898271240234375,-0.4503300189971924,0.23112237453460693,0.16073521971702576
1761818008500199400,1.908199462890625,-0.9026740789413452,0.21286746859550476,0.12960019707679749
1761818008510127400,1.91812744140625,-1.3427449464797974,0.24071840941905975,0.12898702919483185
1761818008520056300,1.928056396484375,-1.6632747650146484,0.36538419127464294,0.15816143155097961
1761818008529984300,1.937984375,-1.8568024635314941,0.45900672674179077,0.19697155058383942
1761818008539913200,1.947913330078125,-1.9255576133728027,0.5137035846710205,0.21063277125358582
1761818008549841400,1.95784130859375,-1.9074019193649292,0.5019251704216003,0.2028781622648239
1761818008559770400,1.967770263671875,-1.7930561304092407,0.4253952205181122,0.17401643097400665
1761818008569698300,1.9776982421875,-1.583075761795044,0.37676700949668884,0.12853151559829712
1761818008579627300,1.987627197265625,-1.312897801399231,0.38638022541999817,0.09830117970705032
1761818008589555200,1.99755517578125,-1.0289055109024048,0.41070806980133057,0.06818768382072449
1761818008599484200,2.007484130859375,-0.686316967010498,0.38574784994125366,0.027326799929142
1761818008609412000,2.017412109375,-0.22258147597312927,0.29652485251426697,-0.0040373848751187325
1761818008619341300,2.02734130859375,0.1095607802271843,0.04472750797867775,-0.02878214791417122
1761818008629269200,2.037269287109375,0.3535301089286804,-0.13455301523208618,-0.09198515117168427
1761818008639198200,2.0471982421875,0.642564058303833,-0.2106240838766098,-0.1867271065711975
1761818008649126400,2.05712646484375,0.9301158785820007,-0.3136923611164093,-0.2483426034450531
1761818008659054300,2.067054443359375,1.214181900024414,-0.42565298080444336,-0.2518603801727295
1761818008668983300,2.0769833984375,1.4862780570983887,-0.46094003319740295,-0.22547556459903717
1761818008678911200,2.0869111328125,1.6946431398391724,-0.44725459814071655,-0.19407609105110168
1761818008688840400,2.09684033203125,1.835280418395996,-0.4456799030303955,-0.1974114626646042
1761818008698768400,2.106768310546875,1.960128903388977,-0.3837246596813202,-0.20586727559566498
1761818008708697300,2.116697265625,2.015653610229492,-0.3128260672092438,-0.19059160351753235
1761818008718625300,2.126625244140625,2.002638339996338,-0.29246246814727783,-0.15452228486537933
1761818008728554200,2.13655419921875,1.9221588373184204,-0.3170340359210968,-0.11348433792591095
1761818008738482200,2.146482177734375,1.7252100706100464,-0.3151583671569824,-0.038655903190374374
1761818008748411100,2.1564111328125,1.4011762142181396,-0.2938482463359833,0.06414393335580826
1761818008758339300,2.16633935546875,0.8910894393920898,-0.21181488037109375,0.15830399096012115
1761818008768268300,2.176268310546875,0.1613537222146988,-0.10185784846544266,0.2178579717874527
1761818008778196200,2.1861962890625,-0.46435487270355225,0.08646784722805023,0.17208728194236755
1761818008788125200,2.196125244140625,-0.9076904058456421,0.256394624710083,0.06934933364391327
1761818008798053400,2.206053466796875,-1.3985871076583862,0.3863973617553711,0.00459909625351429
1761818008807981300,2.215981201171875,-1.921622395515442,0.5844177603721619,0.027500998228788376
1761818008817910300,2.22591015625,-2.163337230682373,0.7976376414299011,0.0996423065662384
1761818008827838200,2.235838134765625,-2.2124905586242676,0.841907799243927,0.1734941303730011
1761818008837767400,2.245767333984375,-2.137603521347046,0.7510660886764526,0.2150234580039978
1761818008847695400,2.2556953125,-1.9516019821166992,0.6282281279563904,0.21799960732460022
1761818008857624300,2.265624267578125,-1.6940926313400269,0.5357829332351685,0.19584770500659943
1761818008867552300,2.27555224609375,-1.4051789045333862,0.46055668592453003,0.1657094955444336
1761818008877481200,2.285481201171875,-1.0479642152786255,0.46031832695007324,0.13060876727104187
1761818008887409200,2.2954091796875,-0.637985110282898,0.4262736439704895,0.08010847866535187
1761818008897338400,2.30533837890625,-0.12559935450553894,0.3063773214817047,0.014131593517959118
1761818008907266300,2.315266357421875,0.24508629739284515,0.12518179416656494,-0.04037634655833244
1761818008917195300,2.3251953125,0.569006085395813,0.015153829008340836,-0.12782523036003113
1761818008927123200,2.335123291015625,0.8871442079544067,-0.11926748603582382,-0.19472764432430267
1761818008937052700,2.345052734375,1.1821534633636475,-0.2731747627258301,-0.20442341268062592
1761818008946980600,2.354980712890625,1.414108395576477,-0.38172459602355957,-0.18479028344154358
1761818008956908800,2.36490869140625,1.5672650337219238,-0.4505060613155365,-0.1864480972290039
1761818008966837800,2.374837646484375,1.6149142980575562,-0.5198019742965698,-0.23073942959308624
1761818008976766000,2.384765869140625,1.589057445526123,-0.5552454590797424,-0.3003949224948883
1761818008986695000,2.39469482421875,1.5279264450073242,-0.4899541735649109,-0.32949554920196533
1761818008996622800,2.404622802734375,1.3882488012313843,-0.43400728702545166,-0.2783242464065552
1761818009006551800,2.4145517578125,1.1618540287017822,-0.43129971623420715,-0.1559741497039795
1761818009016479700,2.424479736328125,0.9081799983978271,-0.445879191160202,-0.0038751615211367607
1761818009026409000,2.434408935546875,0.5919713973999023,-0.414247989654541,0.14144957065582275
1761818009036337000,2.4443369140625,0.15488304197788239,-0.2748991549015045,0.23842404782772064
1761818009046265900,2.454265869140625,-0.2592345178127289,-0.08836252987384796,0.23671619594097137
1761818009056193800,2.46419384765625,-0.6395280361175537,0.0038432939909398556,0.17168952524662018
1761818009066122800,2.474122802734375,-1.0243433713912964,0.1434984654188156,0.12987704575061798
1761818009076050700,2.48405078125,-1.3894039392471313,0.3939855396747589,0.1185423731803894
1761818009085978600,2.493978515625,-1.653865098953247,0.6538796424865723,0.13416443765163422
1761818009095907600,2.503907470703125,-1.811745285987854,0.7776439189910889,0.1529407799243927
1761818009105836000,2.5138359375,-1.8727062940597534,0.7406154870986938,0.1503305584192276
1761818009115764700,2.5237646484375,-1.8346710205078125,0.6258808970451355,0.11324923485517502
1761818009125693000,2.53369287109375,-1.7265565395355225,0.4462476968765259,0.09464343637228012
1761818009135622000,2.543621826171875,-1.569537878036499,0.2538098096847534,0.09701045602560043
1761818009145549800,2.5535498046875,-1.3723021745681763,0.0929846540093422,0.10587270557880402
1761818009155478800,2.563478759765625,-1.1406360864639282,-0.00902479887008667,0.11073032021522522
1761818009165406700,2.57340673828125,-0.8606141805648804,-0.05500959977507591,0.11303705722093582
1761818009175336000,2.5833359375,-0.4856853187084198,-0.0841030403971672,0.12217755615711212
1761818009185263900,2.593263916015625,-0.10753946006298065,-0.22430366277694702,0.11763324588537216
1761818009195191800,2.60319189453125,0.09126737713813782,-0.35028502345085144,0.08119827508926392
1761818009205120800,2.613120849609375,0.26705992221832275,-0.42694011330604553,0.0041057998314499855
1761818009215048700,2.623048583984375,0.47524693608283997,-0.5250642895698547,-0.08631598204374313
1761818009224977700,2.632977783203125,0.7321597337722778,-0.7054445743560791,-0.13042081892490387
1761818009234905600,2.642905517578125,1.0376936197280884,-0.895686149597168,-0.12839600443840027
1761818009244834800,2.652834716796875,1.3358209133148193,-1.0589144229888916,-0.13093550503253937
1761818009254763000,2.662762939453125,1.5617784261703491,-1.236876368522644,-0.15135769546031952
1761818009264691700,2.672691650390625,1.6758451461791992,-1.3213483095169067,-0.18782158195972443
1761818009274620000,2.682619873046875,1.6982735395431519,-1.233022928237915,-0.2162787914276123
1761818009284547800,2.6925478515625,1.6733819246292114,-1.0098278522491455,-0.22605928778648376
1761818009294476800,2.702476806640625,1.5757606029510498,-0.7314718961715698,-0.19379189610481262
1761818009304404700,2.71240478515625,1.4052956104278564,-0.5098962187767029,-0.09858661890029907
1761818009314333700,2.722333740234375,1.1329482793807983,-0.4044453799724579,0.06826893985271454
1761818009324262000,2.732261962890625,0.7342389822006226,-0.27709975838661194,0.2584584653377533
1761818009334190800,2.74219091796875,0.16989034414291382,-0.03558272868394852,0.3590039610862732
1761818009344118800,2.752118896484375,-0.3296979069709778,0.2420235425233841,0.30855461955070496
1761818009354047700,2.7620478515625,-0.7607142925262451,0.33160483837127686,0.15759281814098358
1761818009363975700,2.7719755859375,-1.1713972091674805,0.35218483209609985,0.013217533938586712
1761818009373904600,2.781904541015625,-1.457754373550415,0.4680842459201813,-0.05752214789390564
1761818009383832600,2.79183251953125,-1.5949342250823975,0.6478432416915894,-0.03885834664106369
1761818009393760800,2.8017607421875,-1.6332716941833496,0.7799179553985596,0.02733292430639267
1761818009403690000,2.81168994140625,-1.616808295249939,0.8959751725196838,0.06296050548553467
1761818009413618000,2.821617919921875,-1.5522743463516235,1.0242269039154053,0.07465257495641708
1761818009423547000,2.831546875,-1.4485957622528076,1.139873743057251,0.07391141355037689
1761818009433474800,2.841474853515625,-1.311084508895874,1.2038066387176514,0.06966473907232285
1761818009443403800,2.85140380859375,-1.140049695968628,1.1734298467636108,0.06275110691785812
1761818009453331700,2.861331787109375,-0.922681450843811,1.0367404222488403,0.06477057933807373
1761818009463261000,2.871260986328125,-0.6811760663986206,0.8405511379241943,0.055193983018398285
1761818009473188900,2.88118896484375,-0.38837000727653503,0.5590579509735107,0.03379201889038086
1761818009483116800,2.89111669921875,-0.06189868226647377,0.14037927985191345,0.01684274524450302
1761818009493045800,2.901045654296875,0.14706972241401672,-0.25605836510658264,-0.012180116027593613
1761818009502973700,2.9109736328125,0.331064909696579,-0.5116822719573975,-0.06570643931627274
1761818009512902700,2.920902587890625,0.5335367918014526,-0.664061427116394,-0.11458130180835724
1761818009522830800,2.930830810546875,0.7733014225959778,-0.7354442477226257,-0.12198036909103394
1761818009532759800,2.940759765625,1.036134958267212,-0.7119836807250977,-0.11180335283279419
1761818009542688000,2.95068798828125,1.303364872932434,-0.6524806618690491,-0.10072880983352661
1761818009552617000,2.960616943359375,1.5097092390060425,-0.5994454622268677,-0.12385249882936478
1761818009562545000,2.970544921875,1.628675937652588,-0.573270857334137,-0.1870100498199463
1761818009572472800,2.980472900390625,1.662150502204895,-0.5321120023727417,-0.22388391196727753
1761818009582401800,2.99040185546875,1.6410605907440186,-0.454155832529068,-0.19927309453487396
1761818009592329700,3.000329833984375,1.538970947265625,-0.40515047311782837,-0.13043011724948883
1761818009602258700,3.0102587890625,1.3474316596984863,-0.37967467308044434,-0.021258292719721794
1761818009612187000,3.020186767578125,1.0162923336029053,-0.3920176327228546,0.09932724386453629
1761818009622115800,3.03011572265625,0.46899986267089844,-0.4494357407093048,0.20715084671974182
1761818009632043800,3.040043701171875,-0.18386873602867126,-0.4247322678565979,0.24869297444820404
1761818009641971700,3.0499716796875,-0.707990288734436,-0.3729572594165802,0.21024994552135468
1761818009651900700,3.059900634765625,-1.2102888822555542,-0.3152465522289276,0.17127405107021332
1761818009661828900,3.069828857421875,-1.6443990468978882,-0.19563573598861694,0.14128738641738892
1761818009671757800,3.0797578125,-1.908265233039856,-0.015912313014268875,0.12137973308563232
1761818009681685800,3.089685791015625,-2.0049097537994385,0.11656226962804794,0.11136040091514587
1761818009691615000,3.099614990234375,-2.005195140838623,0.14086733758449554,0.09821051359176636
1761818009701543000,3.10954296875,-1.978142499923706,0.12508083879947662,0.07827925682067871
1761818009711471900,3.119471923828125,-1.942130446434021,0.1150796040892601,0.05377791076898575
1761818009721399800,3.12939990234375,-1.8413981199264526,0.10915248095989227,0.02835690602660179
1761818009731327700,3.13932763671875,-1.670783519744873,0.09343024343252182,0.04061330482363701
1761818009741256700,3.149256591796875,-1.4127018451690674,0.11789672076702118,0.08266995847225189
1761818009751184600,3.1591845703125,-1.0636494159698486,0.10549277812242508,0.14111223816871643
1761818009761113900,3.16911376953125,-0.6500077843666077,0.10137411952018738,0.19953952729701996
1761818009771041800,3.179041748046875,-0.2153618037700653,0.04620061069726944,0.21352218091487885
1761818009780970800,3.188970703125,0.06606367230415344,-0.02350528910756111,0.15317954123020172
1761818009790898700,3.198898681640625,0.2666465938091278,0.05206829681992531,0.03709181398153305
1761818009800827000,3.208826904296875,0.47959214448928833,0.24445639550685883,-0.12267974019050598
1761818009810755800,3.218755859375,0.7279353737831116,0.3698995113372803,-0.28909480571746826
1761818009820683800,3.228683837890625,1.055298089981079,0.3614962697029114,-0.4322320222854614
1761818009830613000,3.238613037109375,1.3838073015213013,0.24220584332942963,-0.49137818813323975
1761818009840541000,3.248541015625,1.592560052871704,0.02236330881714821,-0.41426602005958557
1761818009850470000,3.258469970703125,1.697013258934021,-0.2099311798810959,-0.3178284168243408
1761818009860397800,3.268397705078125,1.7317224740982056,-0.3332538306713104,-0.26558730006217957
1761818009870325800,3.27832568359375,1.7327038049697876,-0.27873653173446655,-0.21737343072891235
1761818009880254700,3.288254638671875,1.6260795593261719,-0.17789830267429352,-0.12878058850765228
1761818009890182700,3.2981826171875,1.3540672063827515,-0.10047435015439987,-0.005417374894022942
1761818009900112000,3.30811181640625,0.8856056928634644,-0.04657992348074913,0.13783133029937744
1761818009910039800,3.318039794921875,0.21272927522659302,0.017968444153666496,0.2116381675004959
1761818009919968800,3.32796875,-0.3738842308521271,0.023649511858820915,0.20408740639686584
1761818009929896700,3.337896728515625,-0.9247094988822937,-0.016861163079738617,0.18706181645393372
1761818009939825400,3.347825439453125,-1.4766514301300049,0.04336695000529289,0.17005784809589386
1761818009949753600,3.357753662109375,-1.867171049118042,0.16842660307884216,0.17924335598945618
1761818009959681500,3.367681640625,-2.024486780166626,0.30371561646461487,0.2109174281358719
1761818009969610500,3.377610595703125,-2.024247407913208,0.3875860273838043,0.2289009541273117
1761818009979538400,3.387538330078125,-1.945224642753601,0.4044223129749298,0.1975812464952469
1761818009989467400,3.39746728515625,-1.8531959056854248,0.3731674551963806,0.14574387669563293
1761818009999395300,3.407395263671875,-1.7257190942764282,0.3949555456638336,0.09400671720504761
1761818010009324300,3.41732421875,-1.5392706394195557,0.4627564251422882,0.08270399272441864
1761818010019252500,3.42725244140625,-1.2869162559509277,0.4526623785495758,0.08240455389022827
1761818010029180400,3.437180419921875,-1.0578542947769165,0.27062758803367615,0.12063530087471008
1761818010039109400,3.447109375,-0.8363632559776306,0.08334080874919891,0.1913081407546997
1761818010049037600,3.45703759765625,-0.5308747291564941,-0.01734239235520363,0.23234745860099792
1761818010058966300,3.46696630859375,-0.18704509735107422,-0.10638448596000671,0.2201233059167862
1761818010068894500,3.47689453125,-0.002613999182358384,-0.15196475386619568,0.14394783973693848
1761818010078823400,3.486823486328125,0.16174012422561646,-0.0795392096042633,-0.007444375194609165
1761818010088751400,3.49675146484375,0.38564297556877136,0.0693589299917221,-0.178636372089386
1761818010098679300,3.50667919921875,0.63001948595047,0.19046276807785034,-0.3330371677875519
1761818010108608500,3.5166083984375,0.8754819631576538,0.2079019397497177,-0.42093318700790405
1761818010118536400,3.526536376953125,1.060512900352478,0.0927642434835434,-0.395494282245636
1761818010128465400,3.53646533203125,1.2186154127120972,-0.13391470909118652,-0.3049263060092926
1761818010138393300,3.546393310546875,1.3651387691497803,-0.38627588748931885,-0.20691612362861633
1761818010148321300,3.5563212890625,1.462600827217102,-0.5799856781959534,-0.11807893961668015
1761818010158250200,3.566250244140625,1.498810887336731,-0.7016704678535461,-0.05764899402856827
1761818010168178400,3.576178466796875,1.4747138023376465,-0.7286884784698486,-0.014368632808327675
1761818010178107400,3.586107421875,1.3641971349716187,-0.6517491340637207,0.007975630462169647
1761818010188035600,3.59603564453125,1.2270257472991943,-0.5215360522270203,0.02224644459784031
1761818010197964500,3.605964599609375,1.0016825199127197,-0.4163192808628082,0.06329794228076935
1761818010207892500,3.615892578125,0.5817108154296875,-0.39612454175949097,0.13413748145103455
1761818010217820400,3.6258203125,-0.026460621505975723,-0.3202624022960663,0.18695957958698273
1761818010227749400,3.635749267578125,-0.6479662656784058,-0.20966662466526031,0.2027239054441452
1761818010237677300,3.64567724609375,-1.2657058238983154,0.03309568017721176,0.1963942050933838
1761818010247606500,3.6556064453125,-1.776838779449463,0.3859592080116272,0.18848487734794617
1761818010257534500,3.665534423828125,-2.0309574604034424,0.6687641739845276,0.16605819761753082
1761818010267463400,3.67546337890625,-2.002648115158081,0.7575545310974121,0.14572229981422424
1761818010277391400,3.685391357421875,-1.798815131187439,0.6971632838249207,0.13525857031345367
1761818010287319300,3.6953193359375,-1.5163476467132568,0.608511745929718,0.1298675388097763
1761818010297248300,3.705248291015625,-1.2621272802352905,0.5937952399253845,0.11582718789577484
1761818010307176400,3.715176513671875,-1.0931071043014526,0.6747159361839294,0.06738321483135223
1761818010317105400,3.72510546875,-0.9708920121192932,0.7745088934898376,0.008020637556910515
1761818010327033600,3.73503369140625,-0.8346654772758484,0.8196369409561157,-0.05741696059703827
1761818010336962600,3.744962646484375,-0.5968834757804871,0.7907140254974365,-0.1390218734741211
1761818010346890500,3.754890380859375,-0.2329675853252411,0.5945668816566467,-0.21707086265087128
1761818010356818400,3.764818359375,0.07938259094953537,0.22957848012447357,-0.2902630865573883
1761818010366747400,3.774747314453125,0.3575577437877655,-0.015079216100275517,-0.3641327917575836
1761818010376675300,3.78467529296875,0.6670874953269958,-0.15791809558868408,-0.407394677400589
1761818010386604300,3.794604248046875,0.9604783654212952,-0.22140918672084808,-0.3728446662425995
1761818010396532500,3.804532470703125,1.2131918668746948,-0.2687004506587982,-0.26628509163856506
1761818010406461400,3.81446142578125,1.3797351121902466,-0.35798317193984985,-0.18441630899906158
1761818010416389400,3.824389404296875,1.5061957836151123,-0.4720191955566406,-0.149359330534935
1761818010426317600,3.834317626953125,1.6177678108215332,-0.5580480694770813,-0.1408957988023758
1761818010436246300,3.844246337890625,1.6812373399734497,-0.64537513256073,-0.12539194524288177
1761818010446174500,3.854174560546875,1.7050838470458984,-0.6888871788978577,-0.11410413682460785
1761818010456103400,3.864103515625,1.7031222581863403,-0.650641143321991,-0.08595149964094162
1761818010466031400,3.87403125,1.6457633972167969,-0.5493052005767822,-0.04402162507176399
1761818010475959600,3.88395947265625,1.5014011859893799,-0.44769027829170227,-0.0038868747651576996
1761818010485888500,3.893888427734375,1.251613736152649,-0.36002644896507263,0.030321430414915085
1761818010495816400,3.90381640625,0.8678945302963257,-0.2802877724170685,0.05729987472295761
1761818010505745400,3.913745361328125,0.2787100672721863,-0.15822657942771912,0.06987905502319336
1761818010515673300,3.92367333984375,-0.2322985976934433,-0.0038347491063177586,0.05455532670021057
1761818010525602300,3.933602294921875,-0.6886733174324036,0.10564061254262924,0.05471671372652054
1761818010535530200,3.9435302734375,-1.1571335792541504,0.19358915090560913,0.08372858911752701
1761818010545458400,3.95345849609375,-1.516111969947815,0.34078073501586914,0.11494829505681992
1761818010555387400,3.963387451171875,-1.6951709985733032,0.5012373924255371,0.14265316724777222
1761818010565315600,3.973315673828125,-1.7155407667160034,0.5384987592697144,0.18162240087985992
1761818010575244500,3.98324462890625,-1.6077780723571777,0.4690500497817993,0.1935247927904129
1761818010585172500,3.99317236328125,-1.4193124771118164,0.3639063239097595,0.19073832035064697
1761818010595100400,4.003100341796875,-1.2442450523376465,0.28839200735092163,0.18245750665664673
1761818010605029400,4.013029296875,-1.1003412008285522,0.28876563906669617,0.15017811954021454
1761818010614957300,4.022957275390625,-0.927367091178894,0.3432914614677429,0.11479145288467407
1761818010624886500,4.032886474609375,-0.7091255784034729,0.3959983289241791,0.06401801854372025
1761818010634814500,4.042814453125,-0.4180879592895508,0.3626196086406708,0.02312159538269043
1761818010644743400,4.052743408203125,-0.1654123216867447,0.23486748337745667,-0.018185630440711975
1761818010654671400,4.06267138671875,0.03646388277411461,0.12447754293680191,-0.07800628244876862
1761818010664599300,4.072599365234375,0.2620205581188202,0.023125626146793365,-0.14814382791519165
1761818010674528300,4.0825283203125,0.4963814914226532,-0.07781384885311127,-0.18829865753650665
1761818010684456400,4.09245654296875,0.792233407497406,-0.21525585651397705,-0.19807513058185577
1761818010694385400,4.102385498046875,1.1029777526855469,-0.39520010352134705,-0.1764628142118454
1761818010704313600,4.112313720703125,1.337713360786438,-0.591597318649292,-0.12207227200269699
1761818010714241500,4.122241455078125,1.456982970237732,-0.7384188175201416,-0.08312495052814484
1761818010724170500,4.13217041015625,1.547606348991394,-0.7664211392402649,-0.09384550899267197
1761818010734098400,4.142098388671875,1.5699653625488281,-0.6978359222412109,-0.12225688993930817
1761818010744027400,4.15202734375,1.5250439643859863,-0.5680078864097595,-0.1489175409078598
1761818010753955300,4.161955322265625,1.431420922279358,-0.4188767671585083,-0.14595717191696167
1761818010763883300,4.17188330078125,1.2725138664245605,-0.25675177574157715,-0.11739024519920349
1761818010773812500,4.1818125,1.0176724195480347,-0.13870149850845337,-0.07604077458381653
1761818010783740400,4.191740478515625,0.6556904911994934,-0.030914321541786194,-0.03490452840924263
1761818010793669400,4.20166943359375,0.1893434375524521,0.13539384305477142,-0.008040779270231724
1761818010803597600,4.21159765625,-0.17307496070861816,0.22698688507080078,0.02594674751162529
1761818010813525500,4.221525390625,-0.5699689388275146,0.2167336642742157,0.0900505930185318
1761818010823454500,4.231454345703125,-1.0655802488327026,0.31011340022087097,0.1614142507314682
1761818010833382400,4.24138232421875,-1.572607398033142,0.471561998128891,0.20614171028137207
1761818010843311400,4.251311279296875,-1.9203195571899414,0.6007139086723328,0.24588140845298767
1761818010853239600,4.261239501953125,-2.0382328033447266,0.572945773601532,0.2800537943840027
1761818010863168500,4.27116845703125,-2.046816349029541,0.3976440131664276,0.2807387709617615
1761818010873096400,4.281096435546875,-1.9686765670776367,0.16932816803455353,0.23610688745975494
1761818010883024400,4.2910244140625,-1.787774682044983,0.05084093287587166,0.16801758110523224
1761818010892953300,4.300953369140625,-1.479546308517456,0.07003951817750931,0.13543909788131714
1761818010902881300,4.31088134765625,-1.0809513330459595,0.13837997615337372,0.13803860545158386
1761818010912810200,4.320810302734375,-0.6228581666946411,0.1684066653251648,0.14807868003845215
1761818010922738400,4.330738525390625,-0.2290099412202835,0.07174057513475418,0.1360345333814621
1761818010932666400,4.340666259765625,0.08084119856357574,0.0037371465004980564,0.07554082572460175
1761818010942595600,4.350595703125,0.35851648449897766,-0.004737831186503172,-0.04622235894203186
1761818010952523500,4.3605234375,0.6326994895935059,-0.027886848896741867,-0.1621163785457611
1761818010962452500,4.370452392578125,0.9215896129608154,-0.135811448097229,-0.23968841135501862
1761818010972380400,4.38038037109375,1.1987415552139282,-0.303915798664093,-0.24640928208827972
1761818010982308400,4.390308349609375,1.4048030376434326,-0.49366524815559387,-0.19797037541866302
1761818010992237300,4.4002373046875,1.5166584253311157,-0.6210883855819702,-0.1427912414073944
1761818011002165200,4.410165283203125,1.5430399179458618,-0.6719464659690857,-0.10579940676689148
1761818011012094500,4.420094482421875,1.4512368440628052,-0.6578197479248047,-0.095655158162117
1761818011022022400,4.4300224609375,1.3220595121383667,-0.6100003719329834,-0.10290101170539856
1761818011031950600,4.43995068359375,1.1840617656707764,-0.5304378271102905,-0.10960077494382858
1761818011041879300,4.44987939453125,1.0087008476257324,-0.42451056838035583,-0.0805739164352417
1761818011051807500,4.459807373046875,0.7629013061523438,-0.32023417949676514,-0.029249269515275955
1761818011061736400,4.469736328125,0.36571720242500305,-0.17738088965415955,0.026629440486431122
1761818011071664400,4.479664306640625,-0.08291219174861908,0.08248989284038544,0.038834381848573685
1761818011081592300,4.48959228515625,-0.48451554775238037,0.2820908725261688,0.03377064689993858
1761818011091521500,4.499521484375,-0.8920437097549438,0.4127187728881836,0.056290846318006516
1761818011101449500,4.509449462890625,-1.3141731023788452,0.5343592166900635,0.09714853018522263
1761818011111378400,4.51937841796875,-1.6629289388656616,0.6396738290786743,0.11069554835557938
1761818011121306400,4.529306396484375,-1.8443639278411865,0.6451224088668823,0.12182676047086716
1761818011131234300,4.539234375,-1.8727855682373047,0.5761492252349854,0.12517784535884857
1761818011141163300,4.549163330078125,-1.7620636224746704,0.4858749806880951,0.1311342716217041
1761818011151091500,4.559091552734375,-1.5526202917099,0.40062105655670166,0.16119523346424103
1761818011161020400,4.5690205078125,-1.3283336162567139,0.3632747530937195,0.2280949056148529
1761818011170948600,4.578948486328125,-1.1374287605285645,0.41832154989242554,0.2799573540687561
1761818011180876500,4.58887646484375,-0.9914206862449646,0.5104277729988098,0.2833384871482849
1761818011190805500,4.598805419921875,-0.829783022403717,0.6419439315795898,0.22228896617889404
1761818011200733400,4.6087333984375,-0.5831402540206909,0.7514824271202087,0.11700621247291565
1761818011210662400,4.618662353515625,-0.2643565535545349,0.6777799129486084,-0.0017226333729922771
1761818011220590300,4.62859033203125,0.0027284082025289536,0.4387180507183075,-0.1421191543340683
1761818011230518300,4.638518310546875,0.23361727595329285,0.2594776153564453,-0.27348339557647705
1761818011240447500,4.648447509765625,0.5653677582740784,0.11774659156799316,-0.37786492705345154
1761818011250375400,4.65837548828125,0.9726893901824951,-0.04076794534921646,-0.4181177020072937
1761818011260304400,4.668304443359375,1.3379532098770142,-0.23260022699832916,-0.39060431718826294
1761818011270232300,4.678232421875,1.5431472063064575,-0.4300345182418823,-0.2860366404056549
1761818011280160500,4.688160400390625,1.5795882940292358,-0.6147862672805786,-0.1653003841638565
1761818011290089500,4.69808935546875,1.5324392318725586,-0.7653118371963501,-0.10710367560386658
1761818011300017400,4.708017333984375,1.4474631547927856,-0.8989428877830505,-0.09526246041059494
1761818011309946600,4.717946533203125,1.382380485534668,-0.965298056602478,-0.11409685760736465
1761818011319874600,4.72787451171875,1.345855474472046,-0.914853036403656,-0.11782421916723251
1761818011329802500,4.737802490234375,1.2921652793884277,-0.8064558506011963,-0.08850716054439545
1761818011339731500,4.7477314453125,1.2153406143188477,-0.6734375953674316,-0.05342826992273331
1761818011349659400,4.757659423828125,1.1127463579177856,-0.49905794858932495,-0.03607422858476639
1761818011359588400,4.76758837890625,0.945059061050415,-0.2868511378765106,-0.012412842363119125
1761818011369516300,4.777516357421875,0.659253716468811,-0.059789106249809265,0.018082208931446075
1761818011379444500,4.787444580078125,0.22434969246387482,0.17962294816970825,0.0680825263261795
1761818011389373200,4.797373291015625,-0.2344721555709839,0.39391210675239563,0.12795326113700867
1761818011399301600,4.807301513671875,-0.77496737241745,0.5239518880844116,0.17197664082050323
1761818011409230600,4.817230712890625,-1.3845192193984985,0.5912289023399353,0.1928686648607254
1761818011419158500,4.827158447265625,-1.9079933166503906,0.6618953347206116,0.1912185698747635
1761818011429086500,4.83708642578125,-2.190051794052124,0.6971024870872498,0.19691655039787292
1761818011439015400,4.847015380859375,-2.253558874130249,0.592864990234375,0.21474801003932953
1761818011448943400,4.856943359375,-2.194512367248535,0.39703869819641113,0.2288476526737213
1761818011458872300,4.866872314453125,-2.010932683944702,0.27736717462539673,0.24311262369155884
1761818011468800300,4.87680029296875,-1.7274868488311768,0.2533246576786041,0.2528156638145447
1761818011478728400,4.886728515625,-1.3684786558151245,0.30108365416526794,0.25101056694984436
1761818011488657400,4.896657470703125,-0.9739078283309937,0.37824153900146484,0.2236473560333252
1761818011498585300,4.90658544921875,-0.5063313245773315,0.4078367054462433,0.16644398868083954
1761818011508513500,4.916513427734375,-0.05898389592766762,0.2813341021537781,0.07395981252193451
1761818011518442500,4.9264423828125,0.25999516248703003,0.14545267820358276,-0.08876518905162811
1761818011528370400,4.936370361328125,0.521396815776825,0.10297007858753204,-0.306404709815979
1761818011538299400,4.94629931640625,0.8144055008888245,0.0739877000451088,-0.49957603216171265
1761818011548227300,4.956227294921875,1.1308019161224365,0.021618515253067017,-0.5889134407043457
1761818011558155500,4.966155517578125,1.403192400932312,-0.09396480023860931,-0.5413842797279358
1761818011568084500,4.97608447265625,1.5416823625564575,-0.3116265833377838,-0.4238262474536896
1761818011578012400,4.986012451171875,1.5164955854415894,-0.573695182800293,-0.27983206510543823
1761818011587941400,4.99594140625,1.4594186544418335,-0.7713347673416138,-0.17198653519153595
1761818011597869300,5.005869384765625,1.4194116592407227,-0.8621453642845154,-0.08816991746425629
1761818011607797500,5.015797607421875,1.3670560121536255,-0.8564496636390686,-0.014443544670939445
1761818011617726200,5.025726318359375,1.3064438104629517,-0.7901172637939453,0.04287301003932953
1761818011627654400,5.035654296875,1.2661954164505005,-0.6879686117172241,0.0666101723909378
1761818011637583600,5.04558349609375,1.2053216695785522,-0.5925859212875366,0.06591375917196274
1761818011647511600,5.055511474609375,1.088478922843933,-0.5411279797554016,0.06584883481264114
1761818011657439500,5.065439453125,0.8792828321456909,-0.44013962149620056,0.06724219769239426
1761818011667368400,5.075368408203125,0.5306954979896545,-0.26675254106521606,0.09351346641778946
1761818011677296400,5.08529638671875,-0.03118436224758625,0.04906800389289856,0.10564177483320236
1761818011687225300,5.095225341796875,-0.6841757297515869,0.36502403020858765,0.08809307217597961
1761818011697153300,5.1051533203125,-1.3564831018447876,0.6162459254264832,0.08550101518630981
1761818011707081200,5.115081298828125,-1.8986449241638184,0.8064531683921814,0.09073910862207413
1761818011717010400,5.125010498046875,-2.1696460247039795,0.8788179159164429,0.1135869026184082
1761818011726938400,5.1349384765625,-2.175497531890869,0.782092809677124,0.17195603251457214
1761818011736866600,5.144866455078125,-2.0271918773651123,0.5390644669532776,0.22770452499389648
1761818011746795500,5.15479541015625,-1.7320201396942139,0.2698694169521332,0.24909166991710663
1761818011756723500,5.164723388671875,-1.325918436050415,0.057089775800704956,0.24553020298480988
1761818011766652400,5.17465234375,-0.9158040285110474,-0.05674389749765396,0.20623897016048431
1761818011776580400,5.184580322265625,-0.5278075337409973,-0.13527226448059082,0.09219121932983398
1761818011786508300,5.19450830078125,-0.20443817973136902,-0.25954338908195496,-0.03737400472164154
1761818011796437500,5.2044375,-0.01527384016662836,-0.3493824899196625,-0.15712995827198029
1761818011806365400,5.214365478515625,0.13668526709079742,-0.3398764729499817,-0.2737921476364136
1761818011816294400,5.22429443359375,0.2831340730190277,-0.2701786160469055,-0.3836318254470825
1761818011826222300,5.234222412109375,0.436947762966156,-0.2014380842447281,-0.4290860593318939
1761818011836150500,5.244150634765625,0.6595390439033508,-0.17514362931251526,-0.394523024559021
1761818011846079200,5.254079345703125,0.9417952299118042,-0.2475852519273758,-0.29677531123161316
1761818011856007400,5.26400732421875,1.2139140367507935,-0.3715481758117676,-0.15942810475826263
1761818011865935400,5.273935302734375,1.4134324789047241,-0.5163607001304626,-0.03455943241715431
1761818011875864600,5.283864501953125,1.5275068283081055,-0.6062604784965515,0.05437656491994858
1761818011885792500,5.29379248046875,1.5912039279937744,-0.6274572014808655,0.07304149866104126
1761818011895721500,5.303721435546875,1.6060899496078491,-0.5828841328620911,0.05619380623102188
1761818011905649400,5.3136494140625,1.5446140766143799,-0.5041454434394836,0.039061881601810455
1761818011915577300,5.323577392578125,1.3866136074066162,-0.40358954668045044,0.0353771336376667
1761818011925506300,5.33350634765625,1.040988564491272,-0.28018540143966675,0.04379852116107941
1761818011935434000,5.34343408203125,0.4757896065711975,-0.14839006960391998,0.025258127599954605
1761818011945363000,5.353363037109375,-0.12078535556793213,0.13416945934295654,-0.03592054173350334
1761818011955291100,5.363291015625,-0.5714931488037109,0.3759690225124359,-0.08654803782701492
1761818011965219000,5.373218994140625,-0.9940096735954285,0.5545668601989746,-0.07163833826780319
1761818011975148000,5.38314794921875,-1.3423768281936646,0.596828281879425,-0.005792208947241306
1761818011985076000,5.393075927734375,-1.5847638845443726,0.5384215116500854,0.09751641005277634
1761818011995004000,5.40300390625,-1.6956003904342651,0.4697878658771515,0.20121803879737854
1761818012004933000,5.41293310546875,-1.6789076328277588,0.38356050848960876,0.2864748239517212
1761818012014861000,5.422861083984375,-1.6286362409591675,0.3606642484664917,0.3377891182899475
1761818012024790000,5.4327900390625,-1.570770263671875,0.3828061819076538,0.32936638593673706
1761818012034718000,5.442718017578125,-1.4800115823745728,0.47081246972084045,0.27960333228111267
1761818012044646100,5.452646240234375,-1.347135066986084,0.5552147030830383,0.19848187267780304
1761818012054574800,5.462574951171875,-1.1720715761184692,0.6006641983985901,0.11503277719020844
1761818012064503000,5.4725029296875,-0.9391596913337708,0.5860891342163086,0.03168372064828873
1761818012074431000,5.482430908203125,-0.6454668045043945,0.5183112025260925,-0.02642165869474411
1761818012084360200,5.492360107421875,-0.28190386295318604,0.3642716407775879,-0.08491723984479904
1761818012094288100,5.5022880859375,0.0032053717877715826,0.18656663596630096,-0.1346922516822815
1761818012104217000,5.512217041015625,0.2196265459060669,0.11554640531539917,-0.21993336081504822
1761818012114145000,5.52214501953125,0.46899670362472534,0.07761020213365555,-0.33382824063301086
1761818012124073000,5.532072998046875,0.7983666062355042,0.01849810965359211,-0.38875436782836914
1761818012134002000,5.542001953125,1.1590062379837036,-0.07680230587720871,-0.3689252734184265
1761818012143929900,5.551929931640625,1.4680843353271484,-0.2463437020778656,-0.30630040168762207
1761818012153858000,5.561858154296875,1.6846390962600708,-0.5078748464584351,-0.2364904135465622
1761818012163787000,5.571787109375,1.770279049873352,-0.754342794418335,-0.14339928328990936
1761818012173715200,5.581715087890625,1.7909106016159058,-0.9328392744064331,-0.05179480090737343
1761818012183644200,5.59164404296875,1.8059278726577759,-1.0171645879745483,0.0008448269218206406
1761818012193572000,5.601572021484375,1.7954211235046387,-0.9856178164482117,0.01690315455198288
1761818012203500000,5.6115,1.7105801105499268,-0.872887134552002,0.024239953607320786
1761818012213429000,5.621428955078125,1.5451325178146362,-0.7127664685249329,0.03406595066189766
1761818012223357000,5.63135693359375,1.2854855060577393,-0.4351012408733368,0.03063952922821045
1761818012233284900,5.641284912109375,0.8591318130493164,-0.15111373364925385,0.00894861575216055
1761818012243214000,5.651214111328125,0.25835368037223816,0.12465213984251022,-0.00764599721878767
1761818012253142000,5.66114208984375,-0.2304343581199646,0.45058417320251465,-0.017649896442890167
1761818012263071000,5.671071044921875,-0.7033870816230774,0.5357158780097961,0.016683494672179222
1761818012272999200,5.680999267578125,-1.2401584386825562,0.4939679503440857,0.0936770811676979
1761818012282927000,5.690927001953125,-1.691193699836731,0.498442679643631,0.13472238183021545
1761818012292856000,5.70085595703125,-1.9363176822662354,0.5219535827636719,0.15682582557201385
1761818012302784000,5.710783935546875,-1.9913033246994019,0.506929337978363,0.19610626995563507
1761818012312712000,5.7207119140625,-1.8879814147949219,0.42779186367988586,0.2492389976978302
1761818012322641200,5.73064111328125,-1.6911636590957642,0.40297138690948486,0.2976032495498657
1761818012332569000,5.740569091796875,-1.484525203704834,0.43432265520095825,0.31282538175582886
1761818012342497000,5.7504970703125,-1.2949472665786743,0.48438912630081177,0.2777493894100189
1761818012352426000,5.760426025390625,-1.084723711013794,0.5534291863441467,0.18865199387073517
1761818012362354000,5.77035400390625,-0.831274151802063,0.6268508434295654,0.08517400175333023
1761818012372283000,5.780282958984375,-0.5420266389846802,0.6535645127296448,-0.0034370929934084415
1761818012382211000,5.790211181640625,-0.23688580095767975,0.5133474469184875,-0.07220382243394852
1761818012392139000,5.800138916015625,-0.05754028633236885,0.2745830714702606,-0.1064094603061676
1761818012402068200,5.810068115234375,0.07603853940963745,0.10469638556241989,-0.15306420624256134
1761818012411996200,5.81999609375,0.255214661359787,0.007208977825939655,-0.20852534472942352
1761818012421924000,5.829924072265625,0.5098850131034851,-0.0788474902510643,-0.252555251121521
1761818012431853000,5.83985302734375,0.8432651162147522,-0.2454303354024887,-0.2603393793106079
1761818012441781000,5.849781005859375,1.195160984992981,-0.4640865921974182,-0.2300521582365036
1761818012451710000,5.8597099609375,1.5082942247390747,-0.7006421089172363,-0.17526666820049286
1761818012461638000,5.869637939453125,1.784045696258545,-0.914151132106781,-0.14144331216812134
1761818012471566000,5.879566162109375,2.0012707710266113,-1.0932270288467407,-0.13038134574890137
1761818012481495000,5.8894951171875,2.150907039642334,-1.1915197372436523,-0.14417952299118042
1761818012491423200,5.89942333984375,2.2176172733306885,-1.1725783348083496,-0.17255763709545135
1761818012501351200,5.90935107421875,2.20466947555542,-1.0077322721481323,-0.20769253373146057
1761818012511280000,5.919280029296875,2.0735604763031006,-0.733306348323822,-0.2266198843717575
1761818012521208000,5.9292080078125,1.8339141607284546,-0.39353588223457336,-0.23325702548027039
1761818012531136000,5.939135986328125,1.5295066833496094,-0.05497594550251961,-0.2129988968372345
1761818012541065000,5.94906494140625,1.1462724208831787,0.2098342478275299,-0.13963107764720917
1761818012550993000,5.958992919921875,0.599486231803894,0.3653911054134369,-0.027845963835716248
1761818012560922000,5.968922119140625,0.020841598510742188,0.5106042623519897,0.10850168019533157
1761818012570850000,5.97885009765625,-0.5096739530563354,0.5958530902862549,0.22577239573001862
1761818012580778200,5.9887783203125,-1.115339756011963,0.7086493968963623,0.2916276752948761
1761818012590707000,5.99870703125,-1.6578727960586548,0.8998542428016663,0.3127737045288086
1761818012600635100,6.00863525390625,-1.988972783088684,1.0902941226959229,0.26475170254707336
1761818012610563000,6.01856298828125,-2.1294023990631104,1.1839427947998047,0.23455756902694702
1761818012620492000,6.028491943359375,-2.139066457748413,1.1428269147872925,0.2117130011320114
1761818012630420000,6.038419921875,-2.0400264263153076,0.9855420589447021,0.17582717537879944
1761818012640348000,6.048347900390625,-1.8464351892471313,0.7763984203338623,0.1396091729402542
1761818012650277000,6.058277099609375,-1.591394305229187,0.552420973777771,0.10329005122184753
1761818012660205000,6.068205078125,-1.309630274772644,0.34865638613700867,0.09545925259590149
1761818012670134000,6.078134033203125,-0.9335507154464722,0.15428106486797333,0.11367740482091904
1761818012680062000,6.08806201171875,-0.4533180594444275,-0.08240648359060287,0.1432865411043167
1761818012689990100,6.097990234375,-0.13914918899536133,-0.3769451677799225,0.16974078118801117
1761818012699919000,6.107919189453125,0.07009197026491165,-0.558471143245697,0.1334296315908432
1761818012709847000,6.117846923828125,0.32460257411003113,-0.6368943452835083,0.031702473759651184
1761818012719775000,6.12777490234375,0.6049303412437439,-0.6777855753898621,-0.09157121926546097
1761818012729704200,6.1377041015625,0.8959909081459045,-0.7404633164405823,-0.17477183043956757
1761818012739632000,6.147632080078125,1.1937527656555176,-0.7856025099754333,-0.21661365032196045
1761818012749560000,6.15756005859375,1.4501742124557495,-0.8196502327919006,-0.22643113136291504
1761818012759489000,6.167489013671875,1.6075538396835327,-0.8482683897018433,-0.2036609947681427
1761818012769417000,6.1774169921875,1.6631699800491333,-0.8956385254859924,-0.20468418300151825
1761818012779345200,6.18734521484375,1.6775044202804565,-0.8699041604995728,-0.22362367808818817
1761818012789273900,6.19727392578125,1.6319475173950195,-0.7000280022621155,-0.22476829588413239
1761818012799202000,6.2072021484375,1.5061445236206055,-0.4632205069065094,-0.16394691169261932
1761818012809130000,6.2171298828125,1.2086856365203857,-0.17463241517543793,-0.056272901594638824
1761818012819059200,6.22705908203125,0.6979396343231201,0.07961847633123398,0.058000072836875916
1761818012828987100,6.236987060546875,-0.0012490763328969479,0.3036923408508301,0.13123008608818054
1761818012838916000,6.246916015625,-0.5420688986778259,0.49144983291625977,0.15679071843624115
1761818012848844000,6.256843994140625,-1.0572742223739624,0.5521624684333801,0.18814358115196228
1761818012858772000,6.26677197265625,-1.530704140663147,0.523985743522644,0.21431957185268402
1761818012868701000,6.276700927734375,-1.8763067722320557,0.4781295657157898,0.23714366555213928
1761818012878628900,6.28662890625,-2.031001329421997,0.38893136382102966,0.23901039361953735
1761818012888557000,6.29655712890625,-1.9731016159057617,0.2819436490535736,0.23314878344535828
1761818012898486000,6.306486083984375,-1.7697811126708984,0.19112345576286316,0.24719932675361633
1761818012908414200,6.316414306640625,-1.4856630563735962,0.14341825246810913,0.2685821056365967
1761818012918342100,6.326342041015625,-1.155037760734558,0.18546628952026367,0.2720605134963989
1761818012928271000,6.33627099609375,-0.7957446575164795,0.2799544334411621,0.24777543544769287
1761818012938200000,6.346199951171875,-0.43239572644233704,0.3476733863353729,0.1838282346725464
1761818012948128000,6.3561279296875,-0.17558366060256958,0.337430864572525,0.09985636919736862
1761818012958057000,6.366056884765625,0.00450089480727911,0.32131123542785645,-0.0165275689214468
1761818012967985200,6.375985107421875,0.21481364965438843,0.28419527411460876,-0.1575414091348648
1761818012977914000,6.3859140625,0.485264390707016,0.20577098429203033,-0.2919215261936188
1761818012987842000,6.395842041015625,0.7977091073989868,0.06191553547978401,-0.3690168559551239
1761818012997770000,6.40577001953125,1.0887885093688965,-0.08648554980754852,-0.3855432868003845
1761818013007699000,6.415698974609375,1.2920869588851929,-0.2058068811893463,-0.35516488552093506
1761818013017627000,6.425626953125,1.3693569898605347,-0.3127647936344147,-0.3077072203159332
1761818013027555000,6.43555517578125,1.3472570180892944,-0.4470224678516388,-0.26885703206062317
1761818013037484000,6.445484130859375,1.248367428779602,-0.5411112308502197,-0.24810492992401123
1761818013047412200,6.455412109375,1.114851951599121,-0.5368006229400635,-0.22174282371997833
1761818013057340200,6.465340087890625,0.9482516646385193,-0.44430699944496155,-0.17697493731975555
1761818013067269000,6.47526904296875,0.7307848930358887,-0.2799646556377411,-0.08510253578424454
1761818013077197000,6.485197021484375,0.45154714584350586,-0.10833514481782913,0.03062388300895691
1761818013087125000,6.495125,0.10666461288928986,0.08788789063692093,0.1194019615650177
1761818013097054000,6.505053955078125,-0.1581057906150818,0.28654876351356506,0.14302761852741241
1761818013106982000,6.51498193359375,-0.400949627161026,0.3765992820262909,0.1695987731218338
1761818013116910000,6.52491015625,-0.6852308511734009,0.4105600416660309,0.20538035035133362
1761818013126839000,6.534839111328125,-0.9625948071479797,0.4386252164840698,0.2090003937482834
1761818013136767200,6.544767333984375,-1.2369492053985596,0.4375239610671997,0.18866291642189026
1761818013146695200,6.554695068359375,-1.4381110668182373,0.38198530673980713,0.16729184985160828
1761818013156624100,6.5646240234375,-1.5276516675949097,0.27990514039993286,0.17536483705043793
1761818013166552000,6.574552001953125,-1.5375436544418335,0.2137700617313385,0.210253044962883
1761818013176480000,6.58447998046875,-1.50273859500885,0.1816943883895874,0.25988808274269104
1761818013186409000,6.594408935546875,-1.3768179416656494,0.21903963387012482,0.2759575843811035
1761818013196337000,6.6043369140625,-1.1873071193695068,0.26517677307128906,0.27895084023475647
1761818013206265000,6.61426513671875,-0.9754161238670349,0.3048453629016876,0.25955504179000854
1761818013216194000,6.624194091796875,-0.7050368189811707,0.32560792565345764,0.22322213649749756
1761818013226122200,6.634122314453125,-0.3869286775588989,0.2906462252140045,0.1686134934425354
1761818013236051200,6.64405126953125,-0.10993300378322601,0.2238083928823471,0.09939530491828918
1761818013245979100,6.653979248046875,0.08338026702404022,0.22124989330768585,-0.006187313236296177
1761818013255907000,6.663906982421875,0.2902331054210663,0.27168965339660645,-0.14415834844112396
1761818013265836000,6.6738359375,0.5789781212806702,0.2588779926300049,-0.28582385182380676
1761818013275764000,6.683763916015625,0.8550444841384888,0.12029106914997101,-0.3624440133571625
1761818013285692000,6.69369189453125,1.0773390531539917,-0.08245059102773666,-0.353104829788208
1761818013295621000,6.70362109375,1.28024160861969,-0.22905845940113068,-0.3094853162765503
1761818013305549000,6.713549072265625,1.3956217765808105,-0.3459283411502838,-0.26241153478622437
1761818013315477200,6.723477294921875,1.4011220932006836,-0.47375768423080444,-0.21860851347446442
1761818013325406000,6.733406005859375,1.3474212884902954,-0.5502787828445435,-0.17229880392551422
1761818013335334100,6.743334228515625,1.252689003944397,-0.5295559763908386,-0.11706197261810303
1761818013345262000,6.753261962890625,1.1217910051345825,-0.43664899468421936,-0.06300486624240875
1761818013355191000,6.76319091796875,0.955678403377533,-0.28867024183273315,-0.022204013541340828
1761818013365119000,6.773118896484375,0.7498692870140076,-0.12929150462150574,0.01382669061422348
1761818013375047000,6.783046875,0.46636638045310974,0.02368713542819023,0.03367551416158676
1761818013384976100,6.79297607421875,0.10333118587732315,0.21016459167003632,0.018890179693698883
1761818013394904000,6.802904052734375,-0.1934678554534912,0.3862683176994324,-0.015604855492711067
1761818013404832000,6.81283203125,-0.5702422857284546,0.5605179071426392,-0.035983361303806305
1761818013414761000,6.822760986328125,-0.9792147874832153,0.7182540893554688,-0.028863180428743362
1761818013424689200,6.832689208984375,-1.3453017473220825,0.827024519443512,0.008898844011127949
1761818013434617000,6.8426171875,-1.5849816799163818,0.8070717453956604,0.07681649178266525
1761818013444546000,6.852546142578125,-1.649911880493164,0.6719484925270081,0.16222406923770905
1761818013454474000,6.862473876953125,-1.5882271528244019,0.5163573026657104,0.24593929946422577
1761818013464402000,6.87240185546875,-1.4458202123641968,0.3807280659675598,0.3023754358291626
1761818013474331100,6.8823310546875,-1.2817918062210083,0.3305463194847107,0.30758580565452576
1761818013484259000,6.892259033203125,-1.0988895893096924,0.3354705274105072,0.2574275732040405
1761818013494187000,6.90218701171875,-0.8664154410362244,0.42118650674819946,0.17001429200172424
1761818013504116000,6.912115966796875,-0.573040783405304,0.4884451627731323,0.08267804980278015
1761818013514044200,6.922044189453125,-0.26596570014953613,0.36187002062797546,0.0071138422936201096
1761818013523972000,6.93197216796875,-0.025828730314970016,0.1421366035938263,-0.06784135848283768
1761818013533901000,6.941901123046875,0.20864902436733246,-0.014077146537601948,-0.17778904736042023
1761818013543829000,6.9518291015625,0.48202118277549744,-0.1779579520225525,-0.28466808795928955
1761818013553757000,6.9617568359375,0.7888985276222229,-0.38849443197250366,-0.3356332778930664
1761818013563686100,6.97168603515625,1.096899390220642,-0.5719171762466431,-0.32054418325424194
1761818013573614000,6.981614013671875,1.3120381832122803,-0.730842649936676,-0.25711825489997864
1761818013583542000,6.9915419921875,1.3805540800094604,-0.893204391002655,-0.18556231260299683
1761818013593471000,7.001470947265625,1.310690999031067,-1.0454806089401245,-0.13798342645168304
1761818013603399000,7.01139892578125,1.2221328020095825,-1.080352544784546,-0.11565761268138885
1761818013613327000,7.0213271484375,1.1174683570861816,-0.9694857001304626,-0.10240277647972107
1761818013623256000,7.031256103515625,1.0016275644302368,-0.7973360419273376,-0.07253995537757874
1761818013633184000,7.04118408203125,0.8644165396690369,-0.6066762804985046,-0.022766608744859695
1761818013643112000,7.05111181640625,0.711601972579956,-0.43175268173217773,0.03667648136615753
1761818013653041200,7.061041259765625,0.547757089138031,-0.2802712619304657,0.0832570344209671
1761818013662969000,7.070968994140625,0.34263646602630615,-0.20178979635238647,0.10973045229911804
1761818013672897000,7.08089697265625,0.08069251477718353,-0.07954366505146027,0.1003936231136322
1761818013682826000,7.090825927734375,-0.12081103771924973,0.07141655683517456,0.06644364446401596
1761818013692754000,7.10075390625,-0.34677034616470337,0.19466426968574524,0.04509356617927551
1761818013702682000,7.11068212890625,-0.60898357629776,0.287960410118103,0.04002450406551361
1761818013712611000,7.120611083984375,-0.8965970873832703,0.36003345251083374,0.04510846734046936
1761818013722539000,7.1305390625,-1.158288836479187,0.42098096013069153,0.06446298956871033
1761818013732467000,7.140467041015625,-1.3427157402038574,0.45692405104637146,0.10263355076313019
1761818013742396200,7.150396240234375,-1.4076262712478638,0.47817501425743103,0.1500370055437088
1761818013752324000,7.160323974609375,-1.3592503070831299,0.49105802178382874,0.19567155838012695
1761818013762252000,7.170251953125,-1.2643235921859741,0.47543802857398987,0.2132050096988678
1761818013772181000,7.180180908203125,-1.130726933479309,0.45063307881355286,0.18815878033638
1761818013782109000,7.19010888671875,-0.9615442752838135,0.4510272443294525,0.15566101670265198
1761818013792037000,7.200037109375,-0.6922966241836548,0.4389156699180603,0.11813122779130936
1761818013801965800,7.2099658203125,-0.29176148772239685,0.34431537985801697,0.05237457901239395
1761818013811894000,7.21989404296875,0.05450186878442764,0.21307756006717682,-0.02089877799153328
1761818013821822000,7.229822021484375,0.3540414273738861,0.08300904929637909,-0.10618571192026138
1761818013831751200,7.239751220703125,0.6830978393554688,-0.06883901357650757,-0.18840762972831726
1761818013841679000,7.24967919921875,1.0071054697036743,-0.21962480247020721,-0.24145327508449554
1761818013851607000,7.25960693359375,1.2348495721817017,-0.35475191473960876,-0.23149383068084717
1761818013861536000,7.269535888671875,1.3461971282958984,-0.48824313282966614,-0.2001497596502304
1761818013871464000,7.2794638671875,1.357140302658081,-0.659961462020874,-0.18073144555091858
1761818013881392000,7.28939208984375,1.334734320640564,-0.826206386089325,-0.17813752591609955
1761818013891320800,7.29932080078125,1.2946311235427856,-0.8935810327529907,-0.16336257755756378
1761818013901249000,7.3092490234375,1.1900091171264648,-0.8872794508934021,-0.12116532772779465
1761818013911177200,7.31917724609375,1.0481171607971191,-0.8024079203605652,-0.06644335389137268
1761818013921106200,7.329106201171875,0.8876025080680847,-0.6210623979568481,-0.019545890390872955
1761818013931034000,7.3390341796875,0.6873369812965393,-0.38247665762901306,0.012737154960632324
1761818013940961300,7.348961181640625,0.4058501720428467,-0.150090292096138,0.07371848821640015
1761818013950890500,7.358890380859375,0.031757794320583344,0.06810743361711502,0.11031894385814667
1761818013960818400,7.368818359375,-0.21539580821990967,0.2467309683561325,0.10057204216718674
1761818013970746600,7.37874658203125,-0.492220014333725,0.3669014275074005,0.08471608906984329
1761818013980675600,7.388675537109375,-0.7902093529701233,0.4455221891403198,0.06515677273273468
1761818013990603500,7.398603515625,-1.061222791671753,0.5102959275245667,0.05458196625113487
1761818014000531500,7.408531494140625,-1.3192393779754639,0.6039747595787048,0.0600971095263958
1761818014010460400,7.41846044921875,-1.496957540512085,0.6822276711463928,0.07482697069644928
1761818014020388400,7.428388427734375,-1.5705007314682007,0.6955584287643433,0.10884912312030792
1761818014030316300,7.43831640625,-1.55544114112854,0.6727640628814697,0.13807767629623413
1761818014040245500,7.44824560546875,-1.479185700416565,0.6319122314453125,0.140109121799469
1761818014050173400,7.45817333984375,-1.3409465551376343,0.55521559715271,0.1152227371931076
1761818014060101600,7.4681015625,-1.138763666152954,0.510234534740448,0.09028596431016922
1761818014070030300,7.4780302734375,-0.8781077861785889,0.5101924538612366,0.07315713912248611
1761818014079958500,7.48795849609375,-0.5501165986061096,0.48679447174072266,0.04867443069815636
1761818014089886500,7.497886474609375,-0.17339450120925903,0.3420761525630951,0.01976574957370758
1761818014099815400,7.5078154296875,0.10140404850244522,0.10765327513217926,-0.030020449310541153
1761818014109743400,7.517743408203125,0.3627111613750458,-0.10605602711439133,-0.11705009639263153
1761818014119671300,7.52767138671875,0.6678451895713806,-0.2840406894683838,-0.21189643442630768
1761818014129600500,7.5376005859375,0.9359566569328308,-0.4058865010738373,-0.26279738545417786
1761818014139528400,7.547528564453125,1.1486295461654663,-0.4639846980571747,-0.2549905776977539
1761818014149456400,7.557456298828125,1.2871830463409424,-0.508101761341095,-0.20685651898384094
1761818014159385300,7.56738525390625,1.3377008438110352,-0.5651434659957886,-0.15747299790382385
1761818014169313500,7.5773134765625,1.2786459922790527,-0.6629937291145325,-0.13272254168987274
1761818014179241500,7.587241455078125,1.2149032354354858,-0.7265428900718689,-0.14517894387245178
1761818014189170400,7.59717041015625,1.1701099872589111,-0.7130833268165588,-0.17670764029026031
1761818014199098400,7.607098388671875,1.1341110467910767,-0.619751513004303,-0.16871123015880585
1761818014209026600,7.617026611328125,1.05548894405365,-0.542625367641449,-0.12047693878412247
1761818014218955500,7.62695556640625,0.9490277171134949,-0.46668219566345215,-0.06815061718225479
1761818014228883500,7.636883544921875,0.8380993604660034,-0.32018840312957764,-0.01938578486442566
1761818014238811400,7.646811279296875,0.6478694677352905,-0.13004720211029053,0.05366925522685051
1761818014248739600,7.656739501953125,0.27647319436073303,0.13140176236629486,0.1287095546722412
1761818014258668500,7.66666845703125,-0.12649396061897278,0.4375350773334503,0.14963027834892273
1761818014268596500,7.676596435546875,-0.5406778454780579,0.6249446868896484,0.15132202208042145
1761818014278524400,7.6865244140625,-0.9963971376419067,0.6936143040657043,0.145192489027977
1761818014288453600,7.69645361328125,-1.3894668817520142,0.6559628248214722,0.11852754652500153
1761818014298381600,7.706381591796875,-1.6189415454864502,0.5320690870285034,0.0910639613866806
1761818014308309500,7.7163095703125,-1.673033356666565,0.4213375747203827,0.08612684160470963
1761818014318238500,7.726238525390625,-1.6091876029968262,0.351639986038208,0.11825202405452728
1761818014328166400,7.73616650390625,-1.4520652294158936,0.3043287396430969,0.16598699986934662
1761818014338094600,7.746094482421875,-1.2381236553192139,0.33985716104507446,0.19802190363407135
1761818014348023300,7.756023193359375,-0.9911041259765625,0.41231635212898254,0.20487502217292786
1761818014357951500,7.765951416015625,-0.7198387980461121,0.4434548318386078,0.1942942887544632
1761818014367879400,7.77587939453125,-0.4273545444011688,0.408450186252594,0.1549825519323349
1761818014377808600,7.78580859375,-0.13298256695270538,0.2880436182022095,0.10268127173185349
1761818014387736600,7.795736572265625,0.07756523042917252,0.11336812376976013,0.05359787866473198
1761818014397664500,7.80566455078125,0.31441184878349304,-0.08771651983261108,-0.015530325472354889
1761818014407593500,7.815593505859375,0.5866034626960754,-0.322834849357605,-0.10420678555965424
1761818014417521400,7.825521484375,0.8388527035713196,-0.5656360387802124,-0.16999858617782593
1761818014427449300,7.835449462890625,1.0330597162246704,-0.7619484066963196,-0.20766852796077728
1761818014437378300,7.84537841796875,1.1590267419815063,-0.8469094038009644,-0.2190316915512085
1761818014447306500,7.855306396484375,1.2331377267837524,-0.8422889709472656,-0.21784137189388275
1761818014457234400,7.865234375,1.2429786920547485,-0.811323881149292,-0.200995534658432
1761818014467163600,7.87516357421875,1.2102638483047485,-0.7584455013275146,-0.191040500998497
1761818014477091600,7.885091552734375,1.1784377098083496,-0.7082089781761169,-0.18461109697818756
1761818014487019500,7.89501953125,1.1605274677276611,-0.6492835879325867,-0.16926705837249756
1761818014496948500,7.904948486328125,1.1494340896606445,-0.5876242518424988,-0.12441596388816833
1761818014506876400,7.91487646484375,1.1019667387008667,-0.5126034021377563,-0.0594685897231102
1761818014516804400,7.924804443359375,1.014755368232727,-0.447427898645401,-0.022813372313976288
1761818014526732500,7.934732666015625,0.9183393716812134,-0.33601775765419006,0.022116681560873985
1761818014536661500,7.94466162109375,0.6933067440986633,-0.2461174577474594,0.1020946055650711
1761818014546589400,7.95458935546875,0.2516821026802063,-0.19684253633022308,0.1564425826072693
1761818014556517400,7.964517333984375,-0.21199101209640503,-0.05652990564703941,0.15751104056835175
1761818014566446600,7.974446533203125,-0.7163007855415344,0.0910927876830101,0.14207129180431366
1761818014576374500,7.98437451171875,-1.2403861284255981,0.24294090270996094,0.11738112568855286
1761818014586302500,7.994302490234375,-1.6403461694717407,0.37425902485847473,0.10391367971897125
1761818014596231400,8.0042314453125,-1.846948266029358,0.45094794034957886,0.09934582561254501
1761818014606159400,8.014159423828126,-1.8727236986160278,0.49599674344062805,0.11105385422706604
1761818014616087600,8.024087646484375,-1.7765580415725708,0.494646281003952,0.14970004558563232
1761818014626016300,8.034016357421875,-1.588378667831421,0.45923370122909546,0.16895844042301178
1761818014635944400,8.0439443359375,-1.3221558332443237,0.4163197875022888,0.1733931452035904
1761818014645872400,8.053872314453125,-0.9982959628105164,0.3208690285682678,0.15912887454032898
1761818014655801600,8.063801513671875,-0.6468705534934998,0.2090197205543518,0.1300056129693985
1761818014665729500,8.0737294921875,-0.29638993740081787,0.11540606617927551,0.09096810221672058
1761818014675657500,8.083657470703125,-0.03315695747733116,-0.0026052575558423996,0.06166081503033638
1761818014685586400,8.09358642578125,0.17367352545261383,-0.0915137305855751,0.019076818600296974
1761818014695514400,8.103514404296876,0.4200609028339386,-0.15713906288146973,-0.06310833245515823
1761818014705442300,8.1134423828125,0.6920362114906311,-0.26098644733428955,-0.15482059121131897
1761818014715371300,8.123371337890624,0.9415727853775024,-0.4200754165649414,-0.19696804881095886
1761818014725299500,8.133299560546876,1.127492070198059,-0.6151150465011597,-0.18662384152412415
1761818014735227400,8.143227294921875,1.25126051902771,-0.7432684898376465,-0.17753739655017853
1761818014745155600,8.153155517578124,1.3182672262191772,-0.7554676532745361,-0.17759235203266144
1761818014755084500,8.16308447265625,1.2968753576278687,-0.7132136821746826,-0.20269078016281128
1761818014765012500,8.173012451171875,1.2268192768096924,-0.6546766757965088,-0.23333173990249634
1761818014774940400,8.1829404296875,1.1518564224243164,-0.5755648612976074,-0.24487602710723877
1761818014784869400,8.192869384765626,1.0539777278900146,-0.4485997259616852,-0.20791566371917725
1761818014794797300,8.20279736328125,0.9106274247169495,-0.31693199276924133,-0.12729886174201965
1761818014804725500,8.2127255859375,0.7117297053337097,-0.20745599269866943,-0.028066571801900864
1761818014814654500,8.222654541015626,0.38858044147491455,-0.12901870906352997,0.08093208074569702
1761818014824582700,8.232582763671875,-0.01675396040081978,-0.008975795470178127,0.18253299593925476
1761818014834510600,8.242510498046874,-0.399920791387558,0.05614115670323372,0.24151456356048584
1761818014844439600,8.252439453125,-0.8336212038993835,0.05365990102291107,0.2509682774543762
1761818014854367500,8.262367431640625,-1.272984504699707,0.08446282893419266,0.21072764694690704
1761818014864295400,8.27229541015625,-1.6121801137924194,0.2126779407262802,0.1543360948562622
1761818014874224400,8.282224365234375,-1.7855165004730225,0.3653164803981781,0.10058604180812836
1761818014884152300,8.29215234375,-1.7782657146453857,0.4599750339984894,0.07591095566749573
1761818014894080500,8.30208056640625,-1.6186963319778442,0.5307664275169373,0.0913999006152153
1761818014904009500,8.312009521484375,-1.353919267654419,0.5974234938621521,0.1282682716846466
1761818014913937700,8.321937744140625,-1.0519230365753174,0.6523551940917969,0.17045514285564423
1761818014923865600,8.331865478515626,-0.7592218518257141,0.6988397240638733,0.17492200434207916
1761818014933794600,8.341794677734375,-0.4837380349636078,0.7140793800354004,0.12735316157341003
1761818014943722500,8.351722412109375,-0.23681101202964783,0.675214409828186,0.04925329238176346
1761818014953650400,8.361650390625,-0.05683193728327751,0.5729056000709534,-0.02379189059138298
1761818014963578600,8.37157861328125,0.10486920922994614,0.45400288701057434,-0.09579317271709442
1761818014973507600,8.381507568359375,0.3012853264808655,0.3029332160949707,-0.18024122714996338
1761818014983435500,8.391435546875,0.5426710844039917,0.11526124179363251,-0.25689011812210083
1761818014993363700,8.40136376953125,0.8302134275436401,-0.08912571519613266,-0.30287036299705505
1761818015003292700,8.411292724609375,1.0868902206420898,-0.2825377583503723,-0.3131076395511627
1761818015013220600,8.421220703125,1.253880500793457,-0.44101154804229736,-0.27911078929901123
1761818015023148500,8.4311484375,1.3329099416732788,-0.5502443909645081,-0.21892406046390533
1761818015033077500,8.441077392578125,1.2969162464141846,-0.6499435901641846,-0.15819865465164185
1761818015043005700,8.451005615234376,1.2042838335037231,-0.7025549411773682,-0.14294129610061646
1761818015052933600,8.46093359375,1.1328613758087158,-0.7016955614089966,-0.17200037837028503
1761818015062862600,8.470862548828125,1.089009404182434,-0.5923494696617126,-0.19282352924346924
1761818015072790500,8.48079052734375,1.0394035577774048,-0.4149456322193146,-0.16066372394561768
1761818015082718700,8.49071875,0.9431018829345703,-0.2963918149471283,-0.07837789505720139
1761818015092647700,8.500647705078125,0.779130756855011,-0.22248457372188568,0.014137125574052334
1761818015102575600,8.51057568359375,0.5281387567520142,-0.20777416229248047,0.10527347773313522
1761818015112503600,8.520503662109375,0.16596479713916779,-0.19596198201179504,0.1904352456331253
1761818015122431500,8.530431396484374,-0.15032140910625458,-0.16752097010612488,0.24209609627723694
1761818015132360700,8.540360595703126,-0.503043532371521,-0.1627187579870224,0.2779494524002075
1761818015142288600,8.55028857421875,-0.941608190536499,-0.11808013170957565,0.2936481535434723
1761818015152216600,8.560216552734374,-1.3289505243301392,0.08856704831123352,0.2702176570892334
1761818015162145500,8.5701455078125,-1.516636610031128,0.40619421005249023,0.08595411479473114
1761818015172073700,8.58007373046875,-1.7063095569610596,0.471333771944046,-0.19553881883621216
1761818015182001700,8.590001708984374,-1.8152556419372559,0.5151504874229431,-0.313123881816864
1761818015191930600,8.5999306640625,-1.7835928201675415,0.5610077381134033,-0.255705863237381
1761818015201858600,8.609858642578125,-1.6541637182235718,0.5600350499153137,-0.1333017349243164
1761818015211786500,8.619786376953124,-1.4404261112213135,0.46586909890174866,-0.010435201227664948
1761818015221715700,8.6297158203125,-1.1253631114959717,0.3202289938926697,0.08556441217660904
1761818015231643600,8.6396435546875,-0.7313226461410522,0.14881515502929688,0.15796802937984467
1761818015241571600,8.649571533203124,-0.26305514574050903,-0.0715705081820488,0.2055758684873581
1761818015251500500,8.65950048828125,0.05058906599879265,-0.3357539474964142,0.23326954245567322
1761818015261428500,8.669428466796875,0.23472587764263153,-0.48283472657203674,0.21032139658927917
1761818015271356700,8.679356689453124,0.4175713360309601,-0.4790186583995819,0.10048757493495941
1761818015281285600,8.68928564453125,0.6260045170783997,-0.4269784390926361,-0.05205295979976654
1761818015291213600,8.699213623046875,0.8021843433380127,-0.39276665449142456,-0.17455251514911652
1761818015301141500,8.7091416015625,0.9594040513038635,-0.39028558135032654,-0.24041587114334106
1761818015311069400,8.7190693359375,1.0782361030578613,-0.3861965835094452,-0.24616137146949768
1761818015320998700,8.72899853515625,1.1224665641784668,-0.4167221784591675,-0.24777396023273468
1761818015330926600,8.738926513671874,1.081073522567749,-0.43557095527648926,-0.26652127504348755
1761818015340854500,8.7488544921875,1.046708345413208,-0.3989436626434326,-0.28826239705085754
1761818015350783500,8.758783447265625,0.9725161194801331,-0.32369792461395264,-0.24585261940956116
1761818015360711700,8.768711669921874,0.7801612615585327,-0.2607228755950928,-0.15110106766223907
1761818015370639600,8.7786396484375,0.4364669919013977,-0.2133236825466156,-0.06502370536327362
1761818015380568600,8.788568603515625,0.04921905696392059,-0.09368409961462021,-0.01948811672627926
1761818015390496500,8.79849658203125,-0.2385285645723343,0.015474880114197731,0.046966008841991425
1761818015400424400,8.808424560546875,-0.5567336082458496,0.05624595656991005,0.13915863633155823
1761818015410353700,8.818353759765625,-0.8730143904685974,0.05347733572125435,0.21733306348323822
1761818015420281600,8.828281494140626,-1.096512794494629,0.08068239688873291,0.24590088427066803
1761818015430209500,8.83820947265625,-1.2015178203582764,0.19461242854595184,0.2026679366827011
1761818015440138500,8.848138427734375,-1.1919795274734497,0.338712215423584,0.12763318419456482
1761818015450066700,8.858066650390626,-1.1165378093719482,0.5231789946556091,0.08950658142566681
1761818015459994600,8.86799462890625,-1.0160760879516602,0.6981527805328369,0.08457137644290924
1761818015469922600,8.877922607421874,-0.9202529191970825,0.8501116633415222,0.108125701546669
1761818015479851500,8.8878515625,-0.82086181640625,0.919633686542511,0.12743569910526276
1761818015489779500,8.897779541015625,-0.7082255482673645,0.9102881550788879,0.11247271299362183
1761818015499707600,8.907707763671874,-0.5734614133834839,0.8333591222763062,0.05851864442229271
1761818015509636600,8.91763671875,-0.4140685498714447,0.6648971438407898,-0.006424671970307827
1761818015519564500,8.927564453125,-0.2332550436258316,0.4066937267780304,-0.06450152397155762
1761818015529492700,8.93749267578125,-0.10559188574552536,0.15388624370098114,-0.0907677561044693
1761818015539421400,8.94742138671875,-0.01443834975361824,-0.05003812536597252,-0.08846405148506165
1761818015549349600,8.957349609375,0.09839392453432083,-0.26766952872276306,-0.08785365521907806
1761818015559277600,8.967277587890624,0.272230327129364,-0.49990642070770264,-0.09228840470314026
1761818015569206500,8.97720654296875,0.504220187664032,-0.7137702107429504,-0.10710623860359192
1761818015579134700,8.987134765625,0.7587770223617554,-0.8941674828529358,-0.09210536628961563
1761818015589062700,8.997062744140624,0.9985249042510986,-0.9987421035766602,-0.06214641034603119
1761818015598991600,9.00699169921875,1.2333792448043823,-1.0104384422302246,-0.07196024060249329
1761818015608919600,9.01691943359375,1.3959764242172241,-0.9240514039993286,-0.11475884914398193
1761818015618847500,9.026847412109374,1.4778050184249878,-0.7759308815002441,-0.18001312017440796
1761818015628775700,9.036775634765625,1.480270266532898,-0.5763677358627319,-0.2224162369966507
1761818015638704600,9.04670458984375,1.3409010171890259,-0.3034478724002838,-0.20979797840118408
1761818015648632600,9.056632568359374,1.071248173713684,-0.013442406430840492,-0.16404566168785095
1761818015658560500,9.066560546875,0.7347060441970825,0.24686449766159058,-0.10458587855100632
1761818015668489700,9.07648974609375,0.337056964635849,0.3952062726020813,-0.034606531262397766
1761818015678417700,9.086417724609374,-0.048443570733070374,0.49530690908432007,-0.012179350480437279
1761818015688345600,9.096345703125,-0.3278035819530487,0.42469507455825806,0.006850000470876694
1761818015698274600,9.106274658203125,-0.6012784242630005,0.326312780380249,0.03133850544691086
1761818015708202500,9.116202392578124,-0.8817651867866516,0.24958418309688568,0.052927687764167786
1761818015718130700,9.126130615234375,-1.139937400817871,0.15900541841983795,0.06964290142059326
1761818015728059600,9.1360595703125,-1.306939959526062,0.11855626851320267,0.1292838603258133
1761818015737987600,9.145987548828124,-1.31586754322052,0.1691451519727707,0.21014823019504547
1761818015747915500,9.15591552734375,-1.2231535911560059,0.23094886541366577,0.24992625415325165
1761818015757844700,9.1658447265625,-1.07688307762146,0.31468701362609863,0.24494396150112152
1761818015767772700,9.175772705078124,-0.8756845593452454,0.4605605900287628,0.2051616758108139
1761818015777700600,9.18570068359375,-0.6379717588424683,0.599612832069397,0.14675530791282654
1761818015787629600,9.195629638671875,-0.37955617904663086,0.6317569613456726,0.08706773817539215
1761818015797557500,9.2055576171875,-0.1859748661518097,0.5264902114868164,0.03331722319126129
1761818015807485700,9.215485595703125,-0.07406432181596756,0.4240993857383728,-0.0301179438829422
1761818015817413600,9.22541357421875,0.02198437973856926,0.34069642424583435,-0.09249701350927353
1761818015827342600,9.235342529296876,0.1614924669265747,0.2221524715423584,-0.14090688526630402
1761818015837270500,9.2452705078125,0.3633671700954437,0.010511395521461964,-0.17495717108249664
1761818015847198500,9.255198486328124,0.6220309138298035,-0.23834343254566193,-0.17683522403240204
1761818015857127700,9.265127685546876,0.9086255431175232,-0.461495578289032,-0.1496201753616333
1761818015867055600,9.2750556640625,1.1569128036499023,-0.6628077030181885,-0.1144627258181572
1761818015876983600,9.284983642578124,1.3119051456451416,-0.8081144094467163,-0.09421122074127197
1761818015886912500,9.29491259765625,1.3736401796340942,-0.8336330652236938,-0.10106725990772247
1761818015896840400,9.30484033203125,1.3634979724884033,-0.7496228814125061,-0.12718318402767181
1761818015906768600,9.3147685546875,1.3005677461624146,-0.5693156719207764,-0.1439533829689026
1761818015916697600,9.324697509765626,1.1094849109649658,-0.35197144746780396,-0.12800778448581696
1761818015926625500,9.33462548828125,0.8232083320617676,-0.1367632895708084,-0.09631244093179703
1761818015936553500,9.344553466796874,0.4805992543697357,0.09808545559644699,-0.06300666183233261
1761818015946481000,9.35448095703125,0.08715339750051498,0.2625947594642639,-0.026696857064962387
1761818015956409900,9.364409912109375,-0.2020912617444992,0.35149580240249634,0.008248396217823029
1761818015966338000,9.374338134765624,-0.3994741141796112,0.30301961302757263,0.049150288105010986
1761818015976266200,9.384266357421875,-0.607853353023529,0.1550605297088623,0.08994605392217636
1761818015986195200,9.3941953125,-0.8483671545982361,-0.023472193628549576,0.13958683609962463
1761818015996123100,9.404123046875,-1.080248475074768,-0.12179597467184067,0.17897605895996094
1761818016006051000,9.414051025390625,-1.2397688627243042,-0.10861998796463013,0.19799208641052246
1761818016015980000,9.42397998046875,-1.2877781391143799,-0.06220734119415283,0.20439699292182922
1761818016025908000,9.433907958984374,-1.242872714996338,-0.04337533190846443,0.2316318154335022
1761818016035836000,9.4438359375,-1.1285934448242188,0.021205851808190346,0.2506290376186371
1761818016045765000,9.45376513671875,-0.9025102853775024,0.1240139901638031,0.2311922013759613
1761818016055693000,9.463693115234374,-0.6395039558410645,0.20820707082748413,0.16844160854816437
1761818016065621200,9.473621337890625,-0.3627501130104065,0.19806788861751556,0.10408632457256317
1761818016075550000,9.483550048828125,-0.159047931432724,0.15895888209342957,0.056751444935798645
1761818016085478100,9.49347802734375,-0.024523140862584114,0.18404027819633484,0.011996494606137276
1761818016095406000,9.503406005859375,0.12159544974565506,0.22288833558559418,-0.05728723853826523
1761818016105334000,9.513333984375,0.3329063057899475,0.17718084156513214,-0.1277574896812439
1761818016115263000,9.523262939453126,0.5782984495162964,0.028579264879226685,-0.17278021574020386
1761818016125191000,9.53319091796875,0.8405631184577942,-0.16671006381511688,-0.19503092765808105
1761818016135118800,9.543118896484375,1.060218095779419,-0.37973999977111816,-0.1976015269756317
1761818016145048000,9.553048095703126,1.178794026374817,-0.5820057392120361,-0.18541356921195984
1761818016154976300,9.562976318359375,1.1801739931106567,-0.6479185223579407,-0.15529358386993408
1761818016164904200,9.572904296875,1.0719962120056152,-0.591413676738739,-0.12435989826917648
1761818016174833200,9.582833251953126,0.8958972096443176,-0.44631582498550415,-0.10470037907361984
1761818016184761000,9.592760986328125,0.6868113875389099,-0.29684218764305115,-0.08169945329427719
1761818016194689000,9.60268896484375,0.4536876380443573,-0.13641773164272308,-0.049637049436569214
1761818016204618000,9.612617919921876,0.2246054708957672,0.013124896213412285,-0.0046575902961194515
1761818016214546000,9.6225458984375,0.023078879341483116,0.14250420033931732,0.02283450961112976
1761818016224473900,9.632473876953124,-0.0708572044968605,0.20314225554466248,0.03548026457428932
1761818016234403000,9.642403076171876,-0.20887784659862518,0.2235579639673233,0.036631084978580475
1761818016244331000,9.6523310546875,-0.4165588915348053,0.33993491530418396,0.015275197103619576
1761818016254259200,9.66225927734375,-0.6518656611442566,0.4530755877494812,0.008969290181994438
1761818016264187100,9.672187255859376,-0.88427734375,0.49391359090805054,0.026509404182434082
1761818016274116000,9.6821162109375,-1.0590009689331055,0.45571401715278625,0.060736555606126785
1761818016284044000,9.6920439453125,-1.1383706331253052,0.3766820430755615,0.1059304028749466
1761818016293972000,9.701971923828125,-1.1443558931350708,0.3325475752353668,0.14732734858989716
1761818016303901000,9.71190087890625,-1.1270357370376587,0.33715617656707764,0.17081031203269958
1761818016313828900,9.721828857421874,-1.0727438926696777,0.3614371716976166,0.16827881336212158
1761818016323757000,9.731757080078125,-0.9757568836212158,0.39420658349990845,0.15330280363559723
1761818016333686000,9.74168603515625,-0.8150517344474792,0.41378360986709595,0.13012896478176117
1761818016343614200,9.7516142578125,-0.5987972021102905,0.38311490416526794,0.09345723688602448
1761818016353542100,9.761542236328125,-0.3271024525165558,0.2954619526863098,0.05745571851730347
1761818016363471000,9.77147119140625,-0.08488181233406067,0.12232773005962372,0.025124147534370422
1761818016373399000,9.78139892578125,0.05189953371882439,-0.018388781696558,-0.016838762909173965
1761818016383327000,9.791326904296875,0.21522240340709686,-0.07608164101839066,-0.07352707535028458
1761818016393255000,9.8012548828125,0.4424925744533539,-0.17198769748210907,-0.13167138397693634
1761818016403183900,9.811183837890624,0.7327017784118652,-0.3113309144973755,-0.16659021377563477
1761818016413112000,9.821112060546875,1.0298445224761963,-0.4769918620586395,-0.156032532453537
1761818016423040300,9.831040283203125,1.2750017642974854,-0.6382179856300354,-0.13155195116996765
1761818016432969200,9.84096923828125,1.4142625331878662,-0.7278242707252502,-0.1097509041428566
1761818016442897200,9.850897216796875,1.4285842180252075,-0.7597718238830566,-0.11100738495588303
1761818016452825000,9.8608251953125,1.3908356428146362,-0.7182877659797668,-0.13934126496315002
1761818016462754000,9.870754150390624,1.297478199005127,-0.6166489720344543,-0.16015148162841797
1761818016472682000,9.880681884765625,1.123315691947937,-0.46151334047317505,-0.15833544731140137
1761818016482610000,9.89060986328125,0.8921898007392883,-0.26315125823020935,-0.12287838757038116
1761818016492539000,9.900538818359376,0.6547188758850098,-0.06598032265901566,-0.06449591368436813
1761818016502467000,9.910467041015625,0.3635246157646179,0.04073014482855797,0.029790377244353294
1761818016512395300,9.920395263671875,0.007803922053426504,0.15532498061656952,0.08089680969715118
1761818016522324000,9.930323974609376,-0.19825656712055206,0.2761935889720917,0.08520926535129547
1761818016532252200,9.940252197265625,-0.4204852879047394,0.3224431872367859,0.09924961626529694
1761818016542180000,9.95018017578125,-0.6941107511520386,0.3191203773021698,0.1200217455625534
1761818016552108000,9.96010791015625,-0.9537834525108337,0.2823406457901001,0.14346669614315033
1761818016562037000,9.970037109375,-1.134524941444397,0.2668306529521942,0.13039803504943848
1761818016571965000,9.97996484375,-1.1837148666381836,0.23446331918239594,0.11124544590711594
1761818016581892900,9.989892822265626,-1.1397724151611328,0.1769086718559265,0.12254311144351959
1761818016591822000,9.999822021484375,-1.0758074522018433,0.18592947721481323,0.14339280128479004
1761818016601750000,10.00975,-0.9701257944107056,0.24661387503147125,0.11587702482938766
1761818016611678200,10.01967822265625,-0.7699594497680664,0.35394349694252014,0.09069324284791946
1761818016621607200,10.029607177734375,-0.5033336281776428,0.39725261926651,0.07333822548389435
1761818016631535000,10.03953515625,-0.22392232716083527,0.33798345923423767,0.04307759180665016
1761818016641463000,10.049463134765626,-0.04178367927670479,0.20942150056362152,0.013934885151684284
1761818016651392000,10.05939208984375,0.056814659386873245,0.10148616135120392,-0.03969809040427208
1761818016661320000,10.06931982421875,0.16193336248397827,0.06937776505947113,-0.10782814025878906
1761818016671248000,10.079247802734375,0.29105040431022644,0.03189081698656082,-0.17092172801494598
1761818016681176000,10.089176025390625,0.46188074350357056,-0.044398095458745956,-0.19723136723041534
1761818016691105000,10.09910498046875,0.6632615327835083,-0.1541871428489685,-0.19022445380687714
1761818016701033200,10.109033203125,0.8528037667274475,-0.3049931526184082,-0.15917333960533142
1761818016710961200,10.118961181640625,0.9952452778816223,-0.46021169424057007,-0.10928494483232498
1761818016720890000,10.12889013671875,1.0960946083068848,-0.5663663148880005,-0.06365727633237839
1761818016730818000,10.138818115234375,1.1506937742233276,-0.6223336458206177,-0.06020169332623482
1761818016740746000,10.14874609375,1.1876826286315918,-0.5784900188446045,-0.0827605277299881
1761818016750675000,10.158675048828124,1.1543855667114258,-0.47799885272979736,-0.06429148465394974
1761818016760603000,10.168602783203125,1.0283325910568237,-0.3706665337085724,-0.010513742454349995
1761818016770530800,10.17853076171875,0.7947141528129578,-0.23517464101314545,0.004012969322502613
1761818016780460000,10.1884599609375,0.4550551176071167,-0.05807255953550339,-0.0073030684143304825
1761818016790388200,10.19838818359375,0.008683746680617332,0.1238045021891594,-0.006193682551383972
1761818016800316200,10.208316162109375,-0.3315449357032776,0.2776164412498474,0.002020571380853653
1761818016810245000,10.2182451171875,-0.5954580307006836,0.2698129713535309,0.03709004819393158
1761818016820173000,10.228173095703125,-0.792083740234375,0.17269572615623474,0.09124968945980072
1761818016830101000,10.23810107421875,-0.9627116918563843,0.07358607649803162,0.13550886511802673
1761818016840029000,10.24802880859375,-1.1113536357879639,0.053301576524972916,0.15256106853485107
1761818016849958000,10.2579580078125,-1.1807992458343506,0.09789840877056122,0.1689269095659256
1761818016859885800,10.2678857421875,-1.196014642715454,0.1800372153520584,0.18214470148086548
1761818016869814300,10.277814208984376,-1.187808871269226,0.3023953437805176,0.1935487985610962
1761818016879743000,10.287742919921875,-1.1423065662384033,0.4043286442756653,0.16714301705360413
1761818016889671200,10.297671142578125,-1.0809822082519531,0.5160881876945496,0.12533079087734222
1761818016899599000,10.30759912109375,-0.9811445474624634,0.6035608053207397,0.08996453881263733
1761818016909528000,10.317528076171875,-0.8386221528053284,0.6005786657333374,0.04954145476222038
1761818016919456000,10.3274560546875,-0.6545478701591492,0.5015271902084351,0.010047574527561665
1761818016929384000,10.337384033203126,-0.41337382793426514,0.33683520555496216,-0.018993046134710312
1761818016939312600,10.347312744140625,-0.14026771485805511,0.12111568450927734,-0.033701151609420776
1761818016949240600,10.357240478515624,0.050221942365169525,-0.09707972407341003,-0.03538154065608978
1761818016959168800,10.367168701171876,0.22879888117313385,-0.23138214647769928,-0.06492292135953903
1761818016969097700,10.37709765625,0.43581876158714294,-0.3334980010986328,-0.11750674247741699
1761818016979025700,10.387025634765624,0.6839579939842224,-0.4290351867675781,-0.15305142104625702
1761818016988953600,10.39695361328125,0.9476454854011536,-0.5030568838119507,-0.14582198858261108
1761818016998881500,10.406881591796875,1.1576218605041504,-0.5544148683547974,-0.11468858271837234
1761818017008810800,10.416810791015624,1.309300422668457,-0.5840257406234741,-0.08091983944177628
1761818017018738700,10.42673876953125,1.3939412832260132,-0.6008843779563904,-0.08917936682701111
1761818017028666600,10.43666650390625,1.433703064918518,-0.5673405528068542,-0.13212159276008606
1761818017038595600,10.446595703125,1.4230695962905884,-0.4866372048854828,-0.16818159818649292
1761818017048523800,10.456523681640626,1.3565393686294556,-0.3917520046234131,-0.16098318994045258
1761818017058451700,10.46645166015625,1.223521113395691,-0.2893867492675781,-0.10957646369934082
1761818017068380700,10.476380615234374,1.0152407884597778,-0.09950251877307892,-0.06282937526702881
1761818017078308600,10.48630859375,0.7204192876815796,0.1503259688615799,-0.031245887279510498
1761818017088236500,10.496236572265625,0.3055822551250458,0.29427477717399597,0.0043287333101034164
1761818017098165800,10.506165771484374,-0.11810749024152756,0.41454365849494934,0.0382147952914238
1761818017108093700,10.51609375,-0.43390393257141113,0.38569876551628113,0.07339894026517868
1761818017118021600,10.526021728515625,-0.7302349209785461,0.19642256200313568,0.10166200995445251
1761818017127950600,10.53595068359375,-0.9959875345230103,0.018503809347748756,0.11996075510978699
1761818017137878800,10.545878662109375,-1.151875376701355,-0.016836337745189667,0.14654123783111572
1761818017147806700,10.555806640625,-1.2246748208999634,-0.0068779559805989265,0.17554131150245667
1761818017157734700,10.565734619140626,-1.2319697141647339,0.08962887525558472,0.19768549501895905
1761818017167663600,10.57566357421875,-1.2133150100708008,0.2219727486371994,0.21031785011291504
1761818017177591600,10.585591552734375,-1.1977959871292114,0.43167805671691895,0.19397589564323425
1761818017187519700,10.595519775390626,-1.1421221494674683,0.6387230753898621,0.17077301442623138
1761818017197448700,10.60544873046875,-1.0238304138183594,0.7298260927200317,0.1479790061712265
1761818017207376600,10.615376708984375,-0.8454422354698181,0.6815195679664612,0.11486774682998657
1761818017217304800,10.625304931640626,-0.618375301361084,0.5393933057785034,0.0799851343035698
1761818017227233500,10.635233642578125,-0.3354765474796295,0.2747560739517212,0.06290406733751297
1761818017237161700,10.64516162109375,-0.10278711467981339,-0.06661085784435272,0.054805394262075424
1761818017247089700,10.655089599609376,0.05458439886569977,-0.30327779054641724,0.02990715019404888
1761818017257018600,10.6650185546875,0.22513829171657562,-0.37801593542099,-0.04409144073724747
1761818017266946600,10.674946533203125,0.41644421219825745,-0.36991754174232483,-0.13251346349716187
1761818017276874800,10.684874755859376,0.6755388975143433,-0.3971198499202728,-0.18846887350082397
1761818017286802700,10.694802734375,1.0044630765914917,-0.4647464454174042,-0.19813619554042816
1761818017296731600,10.704731689453125,1.2954144477844238,-0.5575607419013977,-0.1843886822462082
1761818017306659600,10.71465966796875,1.4820799827575684,-0.6265230178833008,-0.1565951704978943
1761818017316587800,10.724587890625,1.5746597051620483,-0.6138436794281006,-0.12598052620887756
1761818017326516700,10.734516845703125,1.564908504486084,-0.5421353578567505,-0.13297870755195618
1761818017336444700,10.744444580078126,1.4820551872253418,-0.46078193187713623,-0.17269283533096313
1761818017346372600,10.75437255859375,1.3287650346755981,-0.35391682386398315,-0.18288172781467438
1761818017356301800,10.7643017578125,1.082816243171692,-0.16579647362232208,-0.12388178706169128
1761818017366229800,10.774229736328126,0.7436240315437317,0.08453186601400375,-0.07695350050926208
1761818017376157700,10.78415771484375,0.37500786781311035,0.2994396388530731,-0.045322876423597336
1761818017386086700,10.794086669921874,0.029091499745845795,0.49420875310897827,0.002192920073866844
1761818017396014600,10.8040146484375,-0.17715780436992645,0.5477470755577087,0.04670446366071701
1761818017405942800,10.81394287109375,-0.3964226543903351,0.47416043281555176,0.10015910118818283
1761818017415871700,10.823871826171874,-0.6633681058883667,0.42376890778541565,0.15831534564495087
1761818017425799700,10.833799560546876,-0.9794607758522034,0.47064653038978577,0.1883907914161682
1761818017435727600,10.8437275390625,-1.2019447088241577,0.5653769969940186,0.19862346351146698
1761818017445655600,10.853655517578124,-1.2697912454605103,0.6302825808525085,0.1909586787223816
1761818017455584800,10.863584716796876,-1.2338881492614746,0.6372507214546204,0.20937444269657135
1761818017465512700,10.8735126953125,-1.123799204826355,0.5961199998855591,0.25469380617141724
1761818017475440600,10.883440673828124,-1.004915714263916,0.5747444033622742,0.26801013946533203
1761818017485369600,10.89336962890625,-0.8760478496551514,0.5807361006736755,0.21749252080917358
1761818017495297800,10.9032978515625,-0.7184286713600159,0.5861175060272217,0.1320442110300064
1761818017505225700,10.913225830078124,-0.5237312316894531,0.5747933983802795,0.04765193536877632
1761818017515154700,10.92315478515625,-0.27103984355926514,0.4970780611038208,-0.021899975836277008
1761818017525082600,10.93308251953125,-0.06358344852924347,0.3041530251502991,-0.04707881808280945
1761818017535010600,10.943010498046876,0.11851498484611511,0.09373132884502411,-0.06457258760929108
1761818017544939800,10.952939697265625,0.35988345742225647,-0.09284232556819916,-0.10483986139297485
1761818017554867700,10.96286767578125,0.615498423576355,-0.28400295972824097,-0.16420677304267883
1761818017564795600,10.972795654296876,0.9087251424789429,-0.4273649752140045,-0.20557253062725067
1761818017574724600,10.982724609375,1.1813448667526245,-0.527576208114624,-0.21870991587638855
1761818017584652500,10.992652587890625,1.3771792650222778,-0.5697087049484253,-0.20253504812717438
1761818017594580700,11.002580810546876,1.4526299238204956,-0.5706280469894409,-0.19474023580551147
1761818017604508700,11.0125087890625,1.4197405576705933,-0.5509086847305298,-0.22561056911945343
1761818017614437600,11.022437744140625,1.3271414041519165,-0.4728216230869293,-0.26220956444740295
1761818017624365600,11.032365478515626,1.1898459196090698,-0.3611864745616913,-0.2622774541378021
1761818017634293500,11.04229345703125,0.9769468903541565,-0.21604737639427185,-0.21183186769485474
1761818017644222700,11.05222265625,0.6839521527290344,-0.06344694644212723,-0.1201891303062439
1761818017654150700,11.062150634765626,0.29250314831733704,0.0855177715420723,-0.020342692732810974
1761818017664078600,11.07207861328125,-0.10198269784450531,0.23347227275371552,0.03417070955038071
1761818017674007600,11.082007568359375,-0.3583260774612427,0.27445006370544434,0.07755201309919357
1761818017683935700,11.091935791015626,-0.629706621170044,0.2413131147623062,0.14099377393722534
1761818017693863700,11.10186376953125,-0.8834829330444336,0.19185101985931396,0.21843582391738892
1761818017703792600,11.111792724609375,-1.0735499858856201,0.11789025366306305,0.2798437178134918
1761818017713720600,11.121720458984376,-1.1409311294555664,-0.00020709563978016376,0.29068997502326965
1761818017723648800,11.131648681640625,-1.1135776042938232,-0.055869534611701965,0.2595939636230469
1761818017733577700,11.14157763671875,-1.012719750404358,-0.03831051290035248,0.21666219830513
1761818017743505700,11.151505615234376,-0.8916630744934082,0.02614256739616394,0.18997156620025635
1761818017753433600,11.16143359375,-0.7649989128112793,0.11304045468568802,0.1652555614709854
1761818017763361800,11.17136181640625,-0.602404773235321,0.19499383866786957,0.14055970311164856
1761818017773290800,11.181290771484376,-0.4190019369125366,0.2552414536476135,0.1111043319106102
1761818017783218700,11.19121875,-0.26676085591316223,0.27527621388435364,0.07874064147472382
1761818017793146600,11.201146728515624,-0.14138750731945038,0.2589411735534668,0.03520887345075607
1761818017803075600,11.21107568359375,-0.023319920524954796,0.17163455486297607,-0.01634473353624344
1761818017813003800,11.221003662109375,0.14209407567977905,0.06723012775182724,-0.07028040289878845
1761818017822931700,11.230931640625,0.39570558071136475,-0.11145079135894775,-0.13346342742443085
1761818017832860700,11.240860595703126,0.7014457583427429,-0.3119266629219055,-0.19802910089492798
1761818017842788600,11.25078857421875,0.9981229901313782,-0.46816742420196533,-0.22194916009902954
1761818017852716800,11.260716796875,1.2127032279968262,-0.5641187429428101,-0.20838861167430878
1761818017862645500,11.2706455078125,1.3434984683990479,-0.5742497444152832,-0.18632815778255463
1761818017872573700,11.28057373046875,1.388778805732727,-0.5032069683074951,-0.16732490062713623
1761818017882501600,11.290501708984374,1.2929532527923584,-0.40656140446662903,-0.16562774777412415
1761818017892430800,11.300430908203126,1.0828756093978882,-0.2868531048297882,-0.17952679097652435
1761818017902358800,11.31035888671875,0.8215465545654297,-0.13634371757507324,-0.18242835998535156
1761818017912286700,11.32028662109375,0.5308745503425598,0.06524079293012619,-0.1643793284893036
1761818017922215700,11.330215576171875,0.20330776274204254,0.23201721906661987,-0.10973910987377167
1761818017932143600,11.3401435546875,-0.06134440004825592,0.37163451313972473,-0.04892316088080406
1761818017942072600,11.350072509765624,-0.19773545861244202,0.41432705521583557,0.007682176306843758
1761818017952000500,11.36000048828125,-0.28292226791381836,0.40892162919044495,0.07351046055555344
1761818017961929500,11.369929443359375,-0.3546335995197296,0.40248095989227295,0.1214246079325676
1761818017971857700,11.379857666015624,-0.4466429054737091,0.3664287030696869,0.15675517916679382
1761818017981785600,11.38978564453125,-0.644881010055542,0.3543747365474701,0.16061703860759735
1761818017991714600,11.399714599609375,-0.8967116475105286,0.46900302171707153,0.12175832688808441
1761818018001642800,11.409642822265624,-1.1079480648040771,0.6381514668464661,0.08021702617406845
1761818018011570700,11.41957080078125,-1.2400861978530884,0.750012993812561,0.0660516694188118
1761818018021499600,11.429499755859375,-1.26595938205719,0.7776835560798645,0.08671393245458603
1761818018031427600,11.439427490234374,-1.212449550628662,0.7517331838607788,0.08902821689844131
1761818018041355500,11.44935546875,-1.0850865840911865,0.7024855613708496,0.0849238783121109
1761818018051284500,11.459284423828125,-0.9166603088378906,0.6099015474319458,0.0650566965341568
1761818018061212400,11.46921240234375,-0.7291291952133179,0.5074663162231445,0.02673928439617157
1761818018071140600,11.479140625,-0.5389643311500549,0.4076409637928009,-0.008337208069860935
1761818018081069600,11.489069580078125,-0.3052610456943512,0.25415274500846863,-0.01477672066539526
1761818018090997800,11.498997802734374,-0.10134493559598923,-0.06592618674039841,0.010096404701471329
1761818018100925700,11.50892578125,0.02729099430143833,-0.3628990054130554,0.04114013910293579
1761818018110854700,11.518854736328125,0.18928362429141998,-0.5516484379768372,0.05789914354681969
1761818018120782600,11.528782470703124,0.3816801607608795,-0.6824445128440857,0.029003538191318512
1761818018130710500,11.53871044921875,0.5770429968833923,-0.7778592109680176,0.00007787998765707016
1761818018140638500,11.548638427734375,0.7924020886421204,-0.8361080884933472,-0.027936559170484543
1761818018150567400,11.5585673828125,1.0146818161010742,-0.8858210444450378,-0.04254825785756111
1761818018160495600,11.56849560546875,1.1649820804595947,-0.9485219717025757,-0.0429176390171051
1761818018170423600,11.578423583984375,1.20034921169281,-0.9893625974655151,-0.027579426765441895
1761818018180352800,11.588352783203124,1.1577601432800293,-0.9672479629516602,-0.02621406689286232
1761818018190280700,11.59828076171875,1.0318794250488281,-0.8654065728187561,-0.05670912563800812
1761818018200208600,11.608208740234375,0.8416193723678589,-0.691120982170105,-0.08682367205619812
1761818018210137600,11.6181376953125,0.5863232016563416,-0.44771796464920044,-0.08392056077718735
1761818018220065500,11.6280654296875,0.2933768928050995,-0.20124314725399017,-0.0556783601641655
1761818018229993500,11.637993408203124,-0.013079722411930561,0.04596904665231705,-0.03018258512020111
1761818018239922400,11.64792236328125,-0.14471304416656494,0.2232561856508255,-0.020625680685043335
1761818018249850600,11.6578505859375,-0.2250446379184723,0.26171010732650757,0.0077700065448880196
1761818018259778600,11.667778564453124,-0.3388075530529022,0.23730115592479706,0.04947482421994209
1761818018269707800,11.677707763671876,-0.4279395639896393,0.2355642467737198,0.0962388664484024
1761818018279635700,11.6876357421875,-0.5305939316749573,0.19098883867263794,0.10339004546403885
1761818018289563600,11.697563720703124,-0.674970269203186,0.09352618455886841,0.06760381907224655
1761818018299492600,11.70749267578125,-0.839161217212677,0.08959486335515976,0.07068123668432236
1761818018309420500,11.717420654296875,-0.9619763493537903,0.13679459691047668,0.10504373908042908
1761818018319348500,11.727348388671874,-0.9789554476737976,0.11028996109962463,0.13263098895549774
1761818018329277400,11.73727734375,-0.9185874462127686,0.030812175944447517,0.14981290698051453
1761818018339205400,11.747205322265625,-0.8097879886627197,0.03129119053483009,0.15387488901615143
1761818018349133600,11.757133544921874,-0.6291282176971436,0.13726823031902313,0.12953786551952362
1761818018359062800,11.767062744140626,-0.387486070394516,0.23605504631996155,0.08737219125032425
1761818018368990700,11.77699072265625,-0.17375914752483368,0.245775043964386,0.05668671801686287
1761818018378918700,11.786918701171874,-0.018199652433395386,0.18588058650493622,0.047604579478502274
1761818018388847600,11.79684765625,0.21810795366764069,0.12218282371759415,0.024862781167030334
1761818018398775600,11.806775634765625,0.5258885622024536,-0.0023131603375077248,-0.04389825835824013
1761818018408703500,11.816703369140624,0.831531286239624,-0.18213273584842682,-0.10278847068548203
1761818018418632400,11.826632568359376,1.0776320695877075,-0.3722965121269226,-0.11669173091650009
1761818018428560400,11.836560302734375,1.1674067974090576,-0.4914329946041107,-0.10481590032577515
1761818018438488600,11.846488525390624,1.0570358037948608,-0.42244434356689453,-0.09591455012559891
1761818018448417500,11.85641748046875,0.8175302147865295,-0.24059148132801056,-0.10065364092588425
1761818018458345700,11.866345703125,0.5696702599525452,-0.01710374839603901,-0.10188236832618713
1761818018468273700,11.876273681640624,0.31751152873039246,0.16276055574417114,-0.09492085874080658
1761818018478201600,11.88620166015625,0.07992006838321686,0.2936627268791199,-0.10281478613615036
1761818018488130600,11.896130615234375,-0.110164113342762,0.1420348733663559,-0.06476008147001266
1761818018498058500,11.90605859375,-0.22237421572208405,-0.33366501331329346,-0.00821007415652275
1761818018507986400,11.915986328125,-0.14948031306266785,-0.6893863677978516,-0.024178121238946915
1761818018517915400,11.925915283203125,-0.014068609103560448,-0.9037327766418457,-0.07084458321332932
1761818018527843600,11.935843505859374,0.07275842875242233,-0.8886603713035583,-0.09214507788419724
1761818018537771800,11.945771728515625,0.09391211718320847,-0.7799893617630005,-0.09829449653625488
1761818018547700700,11.95570068359375,0.10237884521484375,-0.9208964109420776,-0.20661352574825287
1761818018557628700,11.965628662109374,0.11734533309936523,-0.9705076217651367,-0.26116669178009033
1761818018567556600,11.975556640625,0.10887248814105988,-0.8538779616355896,-0.21285803616046906
1761818018577485600,11.985485595703125,0.039415180683135986,-0.7240663766860962,-0.09798046201467514
1761818018587413500,11.99541357421875,-0.06815389543771744,-0.49992671608924866,0.01995469629764557
1761818018597341400,12.005341552734375,-0.18264465034008026,-0.2337365597486496,0.09838401526212692
1761818018607270400,12.0152705078125,-0.2973555028438568,-0.11207085102796555,0.12333756685256958
1761818018617198600,12.025198486328126,-0.3693123459815979,-0.036048196256160736,0.10971911251544952
1761818018627126800,12.035126708984375,-0.36570507287979126,0.06844838708639145,0.07188411802053452
1761818018637055700,12.0450556640625,-0.30805084109306335,0.17485684156417847,0.03147650882601738
1761818018646983700,12.054983642578126,-0.20437771081924438,0.2787296772003174,0.011069197207689285
1761818018656911600,12.06491162109375,-0.07568124681711197,0.36222225427627563,0.006175719201564789
1761818018666840600,12.074840576171875,0.04067785292863846,0.39969319105148315,0.007150702178478241
1761818018676768500,12.0847685546875,0.09011638164520264,0.37925559282302856,0.003460685722529888
1761818018686696400,12.094696533203125,0.07116585969924927,0.3014366924762726,0.00022441241890192032
1761818018696625400,12.10462548828125,0.026434332132339478,0.17365258932113647,-0.013044867664575577
1761818018706553600,12.1145537109375,-0.008271717466413975,0.014954281039536,-0.02053367719054222
1761818018716481800,12.124481689453125,-0.016512339934706688,-0.13526538014411926,-0.018002957105636597
1761818018726410800,12.13441064453125,-0.0028718961402773857,-0.2494974136352539,-0.012227092869579792
1761818018736338700,12.144338623046876,0.0056409090757369995,-0.3084963858127594,-0.010459084063768387
1761818018746266600,12.1542666015625,0.001068793935701251,-0.31532740592956543,-0.004346064291894436
1761818018756195600,12.164195556640625,-0.0020967009477317333,-0.27287110686302185,-0.006580103188753128
1761818018766123500,12.17412353515625,-0.0041617159731686115,-0.195514515042305,-0.00864112377166748
1761818018776051500,12.184051513671875,0.00037104578223079443,-0.10614515841007233,-0.005615327041596174
1761818018785980700,12.193980712890625,0.01127056498080492,-0.010222090408205986,-0.0005763601511716843
1761818018795908600,12.20390869140625,0.021668341010808945,0.06708994507789612,0.004036422818899155
1761818018805836800,12.2138369140625,0.026736868545413017,0.12448666244745255,0.015036342665553093
1761818018815765500,12.223765625,0.03570486605167389,0.13343849778175354,0.019258279353380203
1761818018825693700,12.233693603515626,0.03264090046286583,0.10892490297555923,0.019804496318101883
1761818018835621600,12.24362158203125,0.020945299416780472,0.0636977031826973,0.005469854921102524
1761818018845550600,12.253550537109374,0.007444404065608978,0.01098176185041666,-0.007668584119528532
1761818018855478500,12.263478515625,-0.004971387796103954,-0.027675634250044823,-0.01855693757534027
1761818018865406500,12.273406494140625,-0.007639608345925808,-0.04786532744765282,-0.019557753577828407
1761818018875335700,12.283335693359374,-0.004743216093629599,-0.05243084952235222,-0.011041411198675632
1761818018885263600,12.293263671875,-0.006250299047678709,-0.051383960992097855,-0.004877790808677673
1761818018895191600,12.303191650390625,-0.009038496762514114,-0.05049261450767517,-0.004357162397354841
1761818018905120500,12.31312060546875,-0.012257193215191364,-0.0404900461435318,-0.0027550049126148224
1761818018915048700,12.323048583984376,-0.006334005855023861,-0.10684038698673248,-0.0034791412763297558
1761818018924976600,12.3329765625,0.14760470390319824,-0.542384147644043,0.02633468061685562
1761818018934905600,12.342905517578124,0.29492565989494324,-0.6889549493789673,0.0025462061166763306
1761818018944833500,12.35283349609375,0.36947792768478394,-0.730597198009491,-0.0560220330953598
