time,seconds_elapsed,z,y,x
1761383396499392000,0.06039208984375,-0.90118408203125,-0.4562225341796875,0.1299591064453125
1761383396509461000,0.0704609375,-0.9051055908203125,-0.4627532958984375,0.1389007568359375
1761383396519531000,0.080531005859375,-0.9079132080078125,-0.4783782958984375,0.139404296875
1761383396529601000,0.09060107421875,-0.8979949951171875,-0.485198974609375,0.1357574462890625
1761383396539670000,0.100669921875,-0.9011383056640625,-0.486724853515625,0.1351318359375
1761383396549740000,0.110739990234375,-0.9034881591796875,-0.48638916015625,0.1381072998046875
1761383396559809000,0.12080908203125,-0.8909149169921875,-0.47967529296875,0.1363983154296875
1761383396569879000,0.130879150390625,-0.8851776123046875,-0.471710205078125,0.1373291015625
1761383396579948800,0.14094873046875,-0.8860015869140625,-0.466522216796875,0.1422576904296875
1761383396590018000,0.15101806640625,-0.880126953125,-0.465423583984375,0.14117431640625
1761383396600087800,0.161087890625,-0.8765411376953125,-0.4636077880859375,0.1438751220703125
1761383396610158000,0.171157958984375,-0.878692626953125,-0.4643096923828125,0.1482086181640625
1761383396620227000,0.18122705078125,-0.8900604248046875,-0.4643402099609375,0.1487579345703125
1761383396630296800,0.191296875,-0.8997955322265625,-0.4595489501953125,0.148834228515625
1761383396640366000,0.201365966796875,-0.8987274169921875,-0.4589385986328125,0.147705078125
1761383396650435800,0.211435791015625,-0.904022216796875,-0.46185302734375,0.1429443359375
1761383396660506000,0.221506103515625,-0.9111480712890625,-0.4681243896484375,0.1380767822265625
1761383396670574800,0.231574951171875,-0.911956787109375,-0.4781036376953125,0.1331329345703125
1761383396680644900,0.241644775390625,-0.90594482421875,-0.4803314208984375,0.1225433349609375
1761383396690715100,0.251715087890625,-0.89306640625,-0.4831695556640625,0.10491943359375
1761383396700783900,0.261783935546875,-0.873992919921875,-0.4873046875,0.0941619873046875
1761383396710854100,0.271854248046875,-0.8531341552734375,-0.4907684326171875,0.0831756591796875
1761383396720923000,0.2819228515625,-0.8491363525390625,-0.4959564208984375,0.0786895751953125
1761383396730993200,0.2919931640625,-0.839630126953125,-0.501983642578125,0.080322265625
1761383396741063000,0.30206298828125,-0.824554443359375,-0.5045928955078125,0.0786590576171875
1761383396751132000,0.3121318359375,-0.815093994140625,-0.502960205078125,0.07562255859375
1761383396761202200,0.3222021484375,-0.8114013671875,-0.506378173828125,0.0787506103515625
1761383396771272000,0.33227197265625,-0.8046875,-0.508056640625,0.0743865966796875
1761383396781341200,0.342341064453125,-0.7965545654296875,-0.5046539306640625,0.053192138671875
1761383396791411000,0.352410888671875,-0.7872161865234375,-0.4980926513671875,0.0311737060546875
1761383396801480000,0.36247998046875,-0.7830810546875,-0.4935455322265625,0.02691650390625
1761383396811550000,0.372550048828125,-0.7791748046875,-0.494110107421875,0.029296875
1761383396821620000,0.382619873046875,-0.765899658203125,-0.4974517822265625,0.028106689453125
1761383396831689000,0.39268896484375,-0.765533447265625,-0.5036468505859375,0.0310211181640625
1761383396841759000,0.402759033203125,-0.7773895263671875,-0.51458740234375,0.03741455078125
1761383396851829000,0.4128291015625,-0.7690277099609375,-0.5218505859375,0.0388031005859375
1761383396861898000,0.42289794921875,-0.7578887939453125,-0.518524169921875,0.030914306640625
1761383396871968000,0.432968017578125,-0.7490081787109375,-0.5092620849609375,0.02374267578125
1761383396882037000,0.443037109375,-0.74224853515625,-0.5009307861328125,0.0171966552734375
1761383396892107000,0.45310693359375,-0.7415771484375,-0.5059814453125,0.03302001953125
1761383396902177000,0.463177001953125,-0.7471160888671875,-0.526519775390625,0.0690765380859375
1761383396912246000,0.47324609375,-0.73101806640625,-0.5407867431640625,0.0909271240234375
1761383396922316000,0.48331591796875,-0.705291748046875,-0.5371551513671875,0.0950469970703125
1761383396932386000,0.493385986328125,-0.677093505859375,-0.522674560546875,0.089752197265625
1761383396942455000,0.503455078125,-0.646331787109375,-0.52166748046875,0.077362060546875
1761383396952525600,0.513525634765625,-0.624603271484375,-0.5319061279296875,0.0738372802734375
1761383396962595600,0.523595703125,-0.6085052490234375,-0.5388336181640625,0.0698089599609375
1761383396972664600,0.53366455078125,-0.5950164794921875,-0.537506103515625,0.0655364990234375
1761383396982734600,0.543734619140625,-0.5909576416015625,-0.52838134765625,0.0613861083984375
1761383396992803600,0.553803466796875,-0.6079559326171875,-0.5191192626953125,0.07049560546875
1761383397002873600,0.56387353515625,-0.638885498046875,-0.52069091796875,0.086181640625
1761383397012943600,0.573943603515625,-0.664276123046875,-0.52288818359375,0.0927581787109375
1761383397023012600,0.5840126953125,-0.6923828125,-0.5279541015625,0.103607177734375
1761383397033082600,0.59408251953125,-0.7428741455078125,-0.543365478515625,0.130615234375
1761383397043152600,0.604152587890625,-0.765716552734375,-0.5429534912109375,0.174407958984375
1761383397053221600,0.6142216796875,-0.94171142578125,-0.5465545654296875,0.2268524169921875
1761383397063291600,0.624291748046875,-0.926239013671875,-0.56060791015625,0.219573974609375
1761383397073360600,0.634360595703125,-0.9086151123046875,-0.506256103515625,0.17279052734375
1761383397083430700,0.6444306640625,-0.9295654296875,-0.4666748046875,0.138580322265625
1761383397093500700,0.654500732421875,-0.965057373046875,-0.4824371337890625,0.1254730224609375
1761383397103569400,0.6645693359375,-1.0054779052734375,-0.5145721435546875,0.1164093017578125
1761383397113639700,0.6746396484375,-1.017791748046875,-0.5291290283203125,0.112457275390625
1761383397123709700,0.684709716796875,-0.98388671875,-0.510223388671875,0.1056976318359375
1761383397133778700,0.69477880859375,-0.92572021484375,-0.4911346435546875,0.06640625
1761383397143848700,0.7048486328125,-0.897369384765625,-0.508544921875,0.0646209716796875
1761383397153917400,0.71491748046875,-0.9238433837890625,-0.5511016845703125,0.1036224365234375
1761383397163987700,0.72498779296875,-0.9775543212890625,-0.6119384765625,0.1361083984375
1761383397174057700,0.7350576171875,-1.0296783447265625,-0.650665283203125,0.1405029296875
1761383397184126700,0.745126708984375,-1.06585693359375,-0.6487579345703125,0.1175994873046875
1761383397194196700,0.75519677734375,-1.0689544677734375,-0.62835693359375,0.0726470947265625
1761383397204266500,0.7652666015625,-1.0748443603515625,-0.616180419921875,0.0315704345703125
1761383397214335700,0.775335693359375,-1.069915771484375,-0.6240692138671875,0.012908935546875
1761383397224405500,0.785405517578125,-1.0472412109375,-0.6454315185546875,0.0211181640625
1761383397234474800,0.795474853515625,-1.02618408203125,-0.671173095703125,0.0515289306640625
1761383397244544500,0.80554443359375,-0.9896240234375,-0.693267822265625,0.075164794921875
1761383397254614500,0.815614501953125,-0.94866943359375,-0.7125244140625,0.076080322265625
1761383397264683800,0.825683837890625,-0.92376708984375,-0.7324676513671875,0.059326171875
1761383397274753500,0.83575341796875,-0.9046173095703125,-0.74560546875,0.0351715087890625
1761383397284823600,0.845823486328125,-0.88189697265625,-0.74664306640625,0.00225830078125
1761383397294892500,0.855892578125,-0.8716278076171875,-0.7472381591796875,-0.02239990234375
1761383397304962600,0.865962646484375,-0.86981201171875,-0.746337890625,-0.03912353515625
1761383397315032800,0.87603271484375,-0.8502044677734375,-0.73046875,-0.05682373046875
1761383397325101600,0.8861015625,-0.83447265625,-0.709716796875,-0.067901611328125
1761383397335171600,0.896171630859375,-0.829071044921875,-0.69268798828125,-0.0729522705078125
1761383397345240600,0.906240478515625,-0.811187744140625,-0.672637939453125,-0.0709075927734375
1761383397355310600,0.916310546875,-0.7878570556640625,-0.6474609375,-0.0615386962890625
1761383397365380600,0.926380615234375,-0.7648773193359375,-0.6224365234375,-0.0522918701171875
1761383397375449600,0.93644970703125,-0.7330322265625,-0.5938568115234375,-0.04034423828125
1761383397385519600,0.94651953125,-0.707611083984375,-0.561614990234375,-0.0362396240234375
1761383397395589600,0.956589599609375,-0.6895751953125,-0.5402374267578125,-0.038909912109375
1761383397405658600,0.96665869140625,-0.687255859375,-0.5267486572265625,-0.0362396240234375
1761383397415728600,0.976728759765625,-0.6807098388671875,-0.5085296630859375,-0.0416412353515625
1761383397425797600,0.986797607421875,-0.67022705078125,-0.48345947265625,-0.04901123046875
1761383397435867600,0.99686767578125,-0.6544189453125,-0.4568023681640625,-0.05633544921875
1761383397445937700,1.006937744140625,-0.632293701171875,-0.4261932373046875,-0.0682525634765625
1761383397456006400,1.01700634765625,-0.6158599853515625,-0.398834228515625,-0.0649871826171875
1761383397466076700,1.02707666015625,-0.600128173828125,-0.37213134765625,-0.048828125
1761383397476146700,1.037146728515625,-0.5954742431640625,-0.34942626953125,-0.025787353515625
1761383397486215700,1.047215576171875,-0.59356689453125,-0.3391876220703125,-0.000213623046875
1761383397496285700,1.05728564453125,-0.6165313720703125,-0.34619140625,0.04266357421875
1761383397506355500,1.06735546875,-0.6402740478515625,-0.358856201171875,0.0865325927734375
1761383397516424700,1.0774248046875,-0.6446075439453125,-0.363250732421875,0.12054443359375
1761383397526494500,1.087494384765625,-0.6696319580078125,-0.362457275390625,0.150146484375
1761383397536563700,1.097563720703125,-0.714385986328125,-0.36968994140625,0.1746826171875
1761383397546633700,1.1076337890625,-0.7523040771484375,-0.3830108642578125,0.1967010498046875
1761383397556703500,1.117703369140625,-0.82305908203125,-0.40447998046875,0.2245330810546875
1761383397566772700,1.127772705078125,-0.9123077392578125,-0.435699462890625,0.251190185546875
1761383397576842500,1.137842529296875,-0.9681549072265625,-0.444183349609375,0.260284423828125
1761383397586912500,1.14791259765625,-1.009490966796875,-0.4311676025390625,0.2755126953125
1761383397596981500,1.1579814453125,-1.031494140625,-0.4286346435546875,0.2920989990234375
1761383397607051500,1.168051513671875,-1.052001953125,-0.4473419189453125,0.3074188232421875
1761383397617120500,1.17812060546875,-1.0608062744140625,-0.4762115478515625,0.320709228515625
1761383397627190500,1.1881904296875,-1.0731658935546875,-0.50201416015625,0.3236083984375
1761383397637260800,1.1982607421875,-1.0781707763671875,-0.5260162353515625,0.316436767578125
1761383397647329500,1.20832958984375,-1.087158203125,-0.540374755859375,0.30633544921875
1761383397657399600,1.218399658203125,-1.1063385009765625,-0.5397186279296875,0.2951812744140625
1761383397667469600,1.228469482421875,-1.11639404296875,-0.536956787109375,0.2794647216796875
1761383397677538600,1.23853857421875,-1.1259918212890625,-0.537811279296875,0.2611083984375
1761383397687608800,1.24860888671875,-1.1283111572265625,-0.5435333251953125,0.23822021484375
1761383397697678600,1.2586787109375,-1.1370086669921875,-0.5447235107421875,0.215057373046875
1761383397707747600,1.26874755859375,-1.1484375,-0.537261962890625,0.2016448974609375
1761383397717817600,1.278817626953125,-1.1415557861328125,-0.5113677978515625,0.186767578125
1761383397727886600,1.288886474609375,-1.1307373046875,-0.48248291015625,0.1788177490234375
1761383397737956600,1.29895654296875,-1.1283111572265625,-0.4737701416015625,0.1846466064453125
1761383397748026600,1.309026611328125,-1.1186065673828125,-0.4789276123046875,0.1912078857421875
1761383397758095600,1.319095703125,-1.0964202880859375,-0.4786529541015625,0.1934967041015625
1761383397768165600,1.32916552734375,-1.078033447265625,-0.4776763916015625,0.1916656494140625
1761383397778235600,1.339235595703125,-1.053192138671875,-0.4745635986328125,0.17816162109375
1761383397788304600,1.3493046875,-1.0270843505859375,-0.465606689453125,0.1591949462890625
1761383397798374700,1.359374755859375,-0.995086669921875,-0.448944091796875,0.1434478759765625
1761383397808444400,1.3694443359375,-0.96600341796875,-0.42767333984375,0.1255645751953125
1761383397818513700,1.379513671875,-0.935150146484375,-0.409759521484375,0.1058502197265625
1761383397828583700,1.389583740234375,-0.9001312255859375,-0.393218994140625,0.0817718505859375
1761383397838652700,1.399652587890625,-0.86627197265625,-0.3795318603515625,0.055694580078125
1761383397848722700,1.40972265625,-0.8384246826171875,-0.3658905029296875,0.0342559814453125
1761383397858792400,1.41979248046875,-0.810394287109375,-0.3578338623046875,0.0211944580078125
1761383397868861700,1.42986181640625,-0.7816009521484375,-0.3520050048828125,0.014404296875
1761383397878931500,1.439931396484375,-0.7640228271484375,-0.34442138671875,0.01312255859375
1761383397889001700,1.450001708984375,-0.7448883056640625,-0.3379058837890625,0.0195159912109375
1761383397899070500,1.460070556640625,-0.730010986328125,-0.331085205078125,0.0318756103515625
1761383397909140500,1.470140380859375,-0.7313385009765625,-0.3217315673828125,0.04571533203125
1761383397919210800,1.480210693359375,-0.7389678955078125,-0.30810546875,0.0531768798828125
1761383397929279500,1.490279541015625,-0.74798583984375,-0.2905426025390625,0.048919677734375
1761383397939349800,1.500349853515625,-0.755462646484375,-0.2695465087890625,0.0323333740234375
1761383397949422600,1.510422607421875,-0.76751708984375,-0.2551116943359375,0.0061492919921875
1761383397959492600,1.52049267578125,-0.7958221435546875,-0.2523651123046875,-0.0145111083984375
1761383397969562600,1.530562744140625,-0.80511474609375,-0.2618865966796875,-0.0246429443359375
1761383397979631600,1.540631591796875,-0.8038482666015625,-0.276031494140625,-0.034423828125
1761383397989701600,1.55070166015625,-0.818572998046875,-0.282562255859375,-0.060638427734375
1761383397999771600,1.560771728515625,-0.8389892578125,-0.2963104248046875,-0.0900421142578125
1761383398009840600,1.570840576171875,-0.892669677734375,-0.3293304443359375,-0.1132659912109375
1761383398019910700,1.58091064453125,-0.968597412109375,-0.3679351806640625,-0.1240386962890625
1761383398029980700,1.590980712890625,-1.035797119140625,-0.4001312255859375,-0.1289520263671875
1761383398040049700,1.601049560546875,-1.0877838134765625,-0.4045257568359375,-0.140960693359375
1761383398050119700,1.61111962890625,-1.1280517578125,-0.372467041015625,-0.171783447265625
1761383398060188400,1.6211884765625,-1.1518707275390625,-0.33575439453125,-0.2071075439453125
1761383398070258700,1.6312587890625,-1.1482391357421875,-0.324188232421875,-0.2328338623046875
1761383398080328700,1.64132861328125,-1.128021240234375,-0.3344268798828125,-0.24493408203125
1761383398090397700,1.651397705078125,-1.111114501953125,-0.3548126220703125,-0.2491912841796875
1761383398100467700,1.6614677734375,-1.1118621826171875,-0.382171630859375,-0.2294769287109375
1761383398110537500,1.671537353515625,-1.129119873046875,-0.424041748046875,-0.1822662353515625
1761383398120606700,1.681606689453125,-1.1324462890625,-0.464996337890625,-0.128997802734375
1761383398130676500,1.691676513671875,-1.116424560546875,-0.4945220947265625,-0.0872802734375
1761383398140746500,1.70174658203125,-1.1036224365234375,-0.5139923095703125,-0.0596923828125
1761383398150815700,1.711815673828125,-1.09820556640625,-0.5089111328125,-0.05242919921875
1761383398160885500,1.721885498046875,-1.0908050537109375,-0.497833251953125,-0.055572509765625
1761383398170955800,1.731955810546875,-1.0736083984375,-0.5058441162109375,-0.0544281005859375
1761383398181024500,1.7420244140625,-1.0493011474609375,-0.518646240234375,-0.0453643798828125
1761383398191094500,1.752094482421875,-1.0241241455078125,-0.5168304443359375,-0.0312957763671875
1761383398201163500,1.76216357421875,-1.00335693359375,-0.5056610107421875,-0.0091400146484375
1761383398211233500,1.772233642578125,-0.99334716796875,-0.4882354736328125,0.020416259765625
1761383398221303800,1.7823037109375,-0.9800872802734375,-0.47418212890625,0.0446929931640625
1761383398231372500,1.79237255859375,-0.9730072021484375,-0.465789794921875,0.0673675537109375
1761383398241442600,1.802442626953125,-0.9657745361328125,-0.46832275390625,0.08245849609375
1761383398251512600,1.8125126953125,-0.935821533203125,-0.4704132080078125,0.08209228515625
1761383398261581600,1.82258154296875,-0.902679443359375,-0.4686126708984375,0.07086181640625
1761383398271651600,1.832651611328125,-0.862701416015625,-0.4654693603515625,0.0592041015625
1761383398281721600,1.8427216796875,-0.8145599365234375,-0.458251953125,0.0542755126953125
1761383398291790800,1.852790771484375,-0.7709808349609375,-0.4535980224609375,0.0613861083984375
1761383398301860600,1.862860595703125,-0.7331085205078125,-0.4514007568359375,0.0743408203125
1761383398311930600,1.8729306640625,-0.69415283203125,-0.44000244140625,0.08966064453125
1761383398321999600,1.88299951171875,-0.6621246337890625,-0.4223480224609375,0.11016845703125
1761383398332069600,1.893069580078125,-0.637115478515625,-0.4029693603515625,0.133575439453125
1761383398342138600,1.903138671875,-0.625091552734375,-0.38739013671875,0.162017822265625
1761383398352208600,1.913208740234375,-0.616363525390625,-0.380279541015625,0.1885223388671875
1761383398362278700,1.923278564453125,-0.6150970458984375,-0.3813018798828125,0.2069091796875
1761383398372347600,1.93334765625,-0.628692626953125,-0.3834075927734375,0.2245330810546875
1761383398382417700,1.943417724609375,-0.640625,-0.3820953369140625,0.234344482421875
1761383398392487400,1.9534873046875,-0.6563262939453125,-0.3711395263671875,0.22918701171875
1761383398402556700,1.963556640625,-0.661163330078125,-0.350677490234375,0.210662841796875
1761383398412626400,1.97362646484375,-0.6355743408203125,-0.33843994140625,0.1903228759765625
1761383398422696700,1.98369677734375,-0.609222412109375,-0.3477935791015625,0.187744140625
1761383398432765700,1.993765625,-0.592559814453125,-0.3605804443359375,0.198760986328125
1761383398442835500,2.00383544921875,-0.5900115966796875,-0.3677520751953125,0.2160797119140625
1761383398452905700,2.01390576171875,-0.60479736328125,-0.380950927734375,0.2308349609375
1761383398462974500,2.023974365234375,-0.6477813720703125,-0.4107208251953125,0.2476806640625
1761383398473044700,2.034044677734375,-0.7132568359375,-0.4501190185546875,0.269561767578125
1761383398483113500,2.044113525390625,-0.765228271484375,-0.4793701171875,0.29248046875
1761383398493183500,2.05418359375,-0.825653076171875,-0.49615478515625,0.3206787109375
1761383398503253800,2.064253662109375,-0.8888397216796875,-0.51104736328125,0.3475189208984375
1761383398513322500,2.074322509765625,-0.946868896484375,-0.5235443115234375,0.3518524169921875
1761383398523392800,2.084392822265625,-0.99273681640625,-0.53369140625,0.326416015625
1761383398533462500,2.094462646484375,-1.029388427734375,-0.540496826171875,0.282623291015625
1761383398543531800,2.10453173828125,-1.037506103515625,-0.536590576171875,0.2248077392578125
1761383398553601500,2.1146015625,-1.0495147705078125,-0.51873779296875,0.1693115234375
1761383398563671600,2.124671630859375,-1.1112518310546875,-0.5052947998046875,0.1289520263671875
1761383398573740800,2.13474072265625,-1.186309814453125,-0.508758544921875,0.0994110107421875
1761383398583810600,2.144810546875,-1.2525634765625,-0.5153350830078125,0.0796051025390625
1761383398593880600,2.154880615234375,-1.2983245849609375,-0.519378662109375,0.0774993896484375
1761383398603949600,2.164949462890625,-1.312774658203125,-0.506500244140625,0.07330322265625
1761383398614019600,2.17501953125,-1.3103179931640625,-0.470184326171875,0.0640869140625
1761383398624089600,2.185089599609375,-1.29058837890625,-0.435638427734375,0.0571441650390625
1761383398634158600,2.19515869140625,-1.2536163330078125,-0.4211578369140625,0.049102783203125
1761383398644228600,2.205228515625,-1.2101593017578125,-0.4198760986328125,0.0408172607421875
1761383398654297600,2.215297607421875,-1.170196533203125,-0.4327545166015625,0.0384368896484375
1761383398664367600,2.22536767578125,-1.12969970703125,-0.4569854736328125,0.0406494140625
1761383398674437600,2.235437744140625,-1.0760345458984375,-0.4830780029296875,0.0384979248046875
1761383398684506600,2.245506591796875,-1.0261077880859375,-0.4905853271484375,0.0209197998046875
1761383398694576400,2.255576416015625,-0.968414306640625,-0.482574462890625,-0.0100555419921875
1761383398704646700,2.265646728515625,-0.9050750732421875,-0.4620513916015625,-0.0457000732421875
1761383398714715600,2.275715576171875,-0.8473968505859375,-0.43792724609375,-0.0704803466796875
1761383398724785700,2.28578564453125,-0.793121337890625,-0.4207763671875,-0.0822906494140625
1761383398734855700,2.295855712890625,-0.7615203857421875,-0.41064453125,-0.0821685791015625
1761383398744924700,2.305924560546875,-0.7559967041015625,-0.401702880859375,-0.070556640625
1761383398754994700,2.31599462890625,-0.73956298828125,-0.3851318359375,-0.055755615234375
1761383398765064700,2.326064697265625,-0.7105712890625,-0.3596954345703125,-0.0462646484375
1761383398775133700,2.3361337890625,-0.7004241943359375,-0.339324951171875,-0.0384521484375
1761383398785203700,2.34620361328125,-0.6966552734375,-0.3433685302734375,-0.0259246826171875
1761383398795273500,2.3562734375,-0.6941680908203125,-0.362152099609375,-0.0166168212890625
1761383398805342700,2.3663427734375,-0.6968231201171875,-0.3784637451171875,-0.0136871337890625
1761383398815412500,2.37641259765625,-0.7063140869140625,-0.387115478515625,-0.01239013671875
1761383398825481700,2.386481689453125,-0.7080230712890625,-0.3952789306640625,-0.013580322265625
1761383398835551500,2.396551513671875,-0.7053375244140625,-0.4140472412109375,-0.0203094482421875
1761383398845621500,2.40662158203125,-0.719390869140625,-0.4396514892578125,-0.0348968505859375
1761383398855690800,2.416690673828125,-0.7428436279296875,-0.464324951171875,-0.0626068115234375
1761383398865760500,2.426760498046875,-0.7642974853515625,-0.4811248779296875,-0.0875244140625
1761383398875830500,2.43683056640625,-0.8238067626953125,-0.501007080078125,-0.0993804931640625
1761383398885899500,2.4468994140625,-0.9030303955078125,-0.5279083251953125,-0.098388671875
1761383398895969500,2.456969482421875,-0.9577178955078125,-0.539276123046875,-0.0920562744140625
1761383398906039800,2.467039794921875,-0.9729461669921875,-0.5133819580078125,-0.095855712890625
1761383398916108500,2.477108642578125,-0.9666595458984375,-0.4840850830078125,-0.1046295166015625
1761383398926178800,2.4871787109375,-0.9450531005859375,-0.48828125,-0.11053466796875
1761383398936248600,2.49724853515625,-0.935638427734375,-0.4991455078125,-0.1133880615234375
1761383398946317600,2.507317626953125,-0.9455108642578125,-0.49761962890625,-0.1055755615234375
1761383398956383200,2.51738330078125,-0.96417236328125,-0.503692626953125,-0.0763702392578125
1761383398966453000,2.527452880859375,-0.98992919921875,-0.5180816650390625,-0.0399322509765625
1761383398976522200,2.537522216796875,-0.9983673095703125,-0.528533935546875,-0.019744873046875
1761383398986592000,2.547592041015625,-0.972930908203125,-0.5401611328125,-0.00701904296875
1761383398996662000,2.557662109375,-0.93975830078125,-0.541595458984375,-0.0010986328125
1761383399006731000,2.56773095703125,-0.908843994140625,-0.5386962890625,-0.0001678466796875
1761383399016801000,2.577801025390625,-0.8797149658203125,-0.5554962158203125,0.0112152099609375
1761383399026871300,2.587871337890625,-0.8632354736328125,-0.609619140625,0.0397491455078125
1761383399036940000,2.59793994140625,-0.845855712890625,-0.6692657470703125,0.0627593994140625
1761383399047010300,2.60801025390625,-0.826507568359375,-0.6937255859375,0.0743408203125
1761383399057079000,2.6180791015625,-0.8211212158203125,-0.6908721923828125,0.0842437744140625
1761383399067149000,2.628149169921875,-0.823883056640625,-0.6879119873046875,0.1068115234375
1761383399077219000,2.638218994140625,-0.82232666015625,-0.68377685546875,0.130706787109375
1761383399087288000,2.6482880859375,-0.80462646484375,-0.6690826416015625,0.139404296875
1761383399097358300,2.6583583984375,-0.8024749755859375,-0.66302490234375,0.1387786865234375
1761383399107428000,2.668427978515625,-0.8035125732421875,-0.664398193359375,0.1283721923828125
1761383399117497000,2.6784970703125,-0.7954864501953125,-0.6455841064453125,0.1041107177734375
1761383399127567000,2.688567138671875,-0.7727813720703125,-0.61993408203125,0.07794189453125
1761383399137637000,2.69863720703125,-0.737060546875,-0.5983734130859375,0.0629730224609375
1761383399147706000,2.7087060546875,-0.7021636962890625,-0.573455810546875,0.060150146484375
1761383399157776100,2.718776123046875,-0.6762847900390625,-0.5485687255859375,0.07464599609375
1761383399167846100,2.72884619140625,-0.663604736328125,-0.52789306640625,0.1042022705078125
1761383399177915100,2.7389150390625,-0.6457672119140625,-0.5102691650390625,0.1441650390625
1761383399187985200,2.748985107421875,-0.63592529296875,-0.495330810546875,0.179779052734375
1761383399198055000,2.759054931640625,-0.641143798828125,-0.4904327392578125,0.2082366943359375
1761383399208124200,2.769124267578125,-0.6387786865234375,-0.4909820556640625,0.22198486328125
1761383399218194000,2.77919384765625,-0.630523681640625,-0.48822021484375,0.22686767578125
1761383399228263200,2.78926318359375,-0.6280670166015625,-0.488555908203125,0.2254180908203125
1761383399238333200,2.799333251953125,-0.6291351318359375,-0.4957122802734375,0.2159423828125
1761383399248403200,2.8094033203125,-0.630859375,-0.5062255859375,0.2072296142578125
1761383399258472200,2.81947216796875,-0.6417999267578125,-0.5108184814453125,0.2001495361328125
1761383399268542000,2.8295419921875,-0.663238525390625,-0.498382568359375,0.19464111328125
1761383399278612200,2.8396123046875,-0.676239013671875,-0.4900665283203125,0.19384765625
1761383399288681000,2.849680908203125,-0.6922454833984375,-0.4859161376953125,0.19903564453125
1761383399298751200,2.859751220703125,-0.712005615234375,-0.486907958984375,0.2119903564453125
1761383399308821200,2.8698212890625,-0.739837646484375,-0.4920501708984375,0.2292633056640625
1761383399318890000,2.879889892578125,-0.7868804931640625,-0.5016937255859375,0.2632598876953125
1761383399328960300,2.889960205078125,-0.8385467529296875,-0.517181396484375,0.30230712890625
1761383399339030000,2.900030029296875,-0.87835693359375,-0.5208587646484375,0.3255767822265625
1761383399349099300,2.910099365234375,-0.8982696533203125,-0.5124053955078125,0.3341827392578125
1761383399359169000,2.9201689453125,-0.9037017822265625,-0.5058746337890625,0.324371337890625
1761383399369239000,2.930239013671875,-0.9238433837890625,-0.5159454345703125,0.31390380859375
1761383399379308300,2.940308349609375,-0.934661865234375,-0.54833984375,0.310150146484375
1761383399389378000,2.9503779296875,-0.933135986328125,-0.5892486572265625,0.31109619140625
1761383399399448000,2.960447998046875,-0.9416046142578125,-0.6183624267578125,0.30645751953125
1761383399409517000,2.97051708984375,-0.944732666015625,-0.6235809326171875,0.28570556640625
1761383399419587000,2.980587158203125,-0.9510498046875,-0.6111907958984375,0.2514190673828125
1761383399429657300,2.9906572265625,-0.988067626953125,-0.6027984619140625,0.228271484375
1761383399439726000,3.00072607421875,-1.028717041015625,-0.5979156494140625,0.223907470703125
1761383399449796000,3.010796142578125,-1.0701446533203125,-0.586700439453125,0.223297119140625
1761383399459865000,3.020864990234375,-1.1003265380859375,-0.5703582763671875,0.2113494873046875
1761383399469935000,3.03093505859375,-1.1162261962890625,-0.545074462890625,0.18231201171875
1761383399480005000,3.041005126953125,-1.112701416015625,-0.5074920654296875,0.1370697021484375
1761383399490074000,3.05107421875,-1.1028289794921875,-0.466033935546875,0.0877532958984375
1761383399500144000,3.06114404296875,-1.081146240234375,-0.4342498779296875,0.0494537353515625
1761383399510214100,3.071214111328125,-1.0576934814453125,-0.4142303466796875,0.024261474609375
1761383399520283100,3.081283203125,-1.023895263671875,-0.4052886962890625,0.012908935546875
1761383399530353200,3.091353271484375,-0.9943695068359375,-0.399444580078125,0.0040740966796875
1761383399540423200,3.101423095703125,-0.9604034423828125,-0.3925628662109375,0.0058746337890625
1761383399550492200,3.1114921875,-0.9214019775390625,-0.390472412109375,0.00927734375
1761383399560562200,3.121562255859375,-0.8751983642578125,-0.3836517333984375,0.0115966796875
1761383399570632200,3.131632080078125,-0.828826904296875,-0.3651123046875,0.0185546875
1761383399580701200,3.141701171875,-0.793609619140625,-0.35009765625,0.034332275390625
1761383399590771200,3.151771240234375,-0.7658843994140625,-0.3419189453125,0.049957275390625
1761383399600841000,3.161841064453125,-0.7466583251953125,-0.3342132568359375,0.0624847412109375
1761383399610910200,3.17191015625,-0.7335357666015625,-0.3306121826171875,0.071014404296875
1761383399620980000,3.18197998046875,-0.7150726318359375,-0.32965087890625,0.0711669921875
1761383399631050000,3.192050048828125,-0.7247314453125,-0.3309326171875,0.0758514404296875
1761383399641119000,3.202118896484375,-0.755584716796875,-0.3333892822265625,0.0883941650390625
1761383399651189000,3.21218896484375,-0.762298583984375,-0.3393402099609375,0.0891876220703125
1761383399661259300,3.22225927734375,-0.7745513916015625,-0.35992431640625,0.0819091796875
1761383399671328000,3.232327880859375,-0.7955474853515625,-0.3948822021484375,0.07086181640625
1761383399681398300,3.242398193359375,-0.8202362060546875,-0.4258880615234375,0.0551910400390625
1761383399691468000,3.252468017578125,-0.85882568359375,-0.450592041015625,0.033172607421875
1761383399701537000,3.262537109375,-0.89703369140625,-0.472137451171875,0.0107421875
1761383399711607300,3.272607177734375,-0.9358062744140625,-0.48095703125,-0.00994873046875
1761383399721676000,3.282676025390625,-0.9849090576171875,-0.4875946044921875,-0.022216796875
1761383399731746300,3.292746337890625,-1.0107269287109375,-0.4950103759765625,-0.041290283203125
1761383399741816000,3.302816162109375,-1.0141448974609375,-0.48956298828125,-0.065093994140625
1761383399751885000,3.312885009765625,-1.016326904296875,-0.4777679443359375,-0.0911865234375
1761383399761955000,3.322955078125,-1.0206451416015625,-0.475128173828125,-0.115386962890625
1761383399772025000,3.333025146484375,-1.0362396240234375,-0.4757537841796875,-0.13134765625
1761383399782094000,3.343093994140625,-1.040618896484375,-0.480499267578125,-0.1383056640625
1761383399792164000,3.3531640625,-1.030364990234375,-0.4926300048828125,-0.140960693359375
1761383399802234000,3.363234130859375,-1.022705078125,-0.5006103515625,-0.138458251953125
1761383399812303000,3.37330322265625,-1.0049285888671875,-0.5150299072265625,-0.1211395263671875
1761383399822373000,3.383373046875,-0.987701416015625,-0.5330657958984375,-0.09625244140625
1761383399832443000,3.39344287109375,-0.9709625244140625,-0.5405120849609375,-0.072479248046875
1761383399842512100,3.40351220703125,-0.950653076171875,-0.5361480712890625,-0.055694580078125
1761383399852582100,3.41358203125,-0.9371337890625,-0.5284271240234375,-0.036651611328125
1761383399862652200,3.423652099609375,-0.9289398193359375,-0.5200958251953125,-0.0200958251953125
1761383399872721200,3.43372119140625,-0.9113922119140625,-0.507904052734375,-0.00885009765625
1761383399882791200,3.443791259765625,-0.88238525390625,-0.4917755126953125,-0.007598876953125
1761383399892861200,3.453861083984375,-0.862640380859375,-0.486236572265625,-0.003814697265625
1761383399902930000,3.463929931640625,-0.85687255859375,-0.5013427734375,0.0071563720703125
1761383399913000200,3.474000244140625,-0.85369873046875,-0.516326904296875,0.010101318359375
1761383399923070200,3.4840703125,-0.85223388671875,-0.51287841796875,0.00048828125
1761383399933139200,3.49413916015625,-0.8432159423828125,-0.49749755859375,-0.0148773193359375
1761383399943209200,3.504209228515625,-0.8269805908203125,-0.475311279296875,-0.0298614501953125
1761383399953279000,3.514279052734375,-0.8096771240234375,-0.453521728515625,-0.0360565185546875
1761383399963348000,3.524347900390625,-0.789337158203125,-0.43121337890625,-0.0370635986328125
1761383399973418000,3.53441796875,-0.7791748046875,-0.4019012451171875,-0.032135009765625
1761383399983487000,3.544487060546875,-0.78314208984375,-0.3776702880859375,-0.0182647705078125
1761383399993557000,3.554556884765625,-0.770965576171875,-0.368560791015625,-0.0025634765625
1761383400003627000,3.564626953125,-0.755340576171875,-0.3531951904296875,0.013885498046875
1761383400013696000,3.574696044921875,-0.7583160400390625,-0.332763671875,0.0369720458984375
1761383400023766000,3.58476611328125,-0.753936767578125,-0.313140869140625,0.062652587890625
1761383400033835800,3.594835693359375,-0.7514495849609375,-0.2892913818359375,0.0827178955078125
1761383400043905000,3.604905029296875,-0.7478485107421875,-0.2725982666015625,0.095306396484375
1761383400053975000,3.61497509765625,-0.736480712890625,-0.2635498046875,0.102935791015625
1761383400064045000,3.625045166015625,-0.7437286376953125,-0.259979248046875,0.11846923828125
1761383400074114000,3.635114013671875,-0.7491455078125,-0.267303466796875,0.1416778564453125
1761383400084183800,3.645183837890625,-0.7595672607421875,-0.27777099609375,0.1619720458984375
1761383400094254000,3.655254150390625,-0.7740631103515625,-0.2794342041015625,0.170257568359375
1761383400104322800,3.66532275390625,-0.8062896728515625,-0.2903289794921875,0.1898956298828125
1761383400114393000,3.67539306640625,-0.8628082275390625,-0.3293914794921875,0.2294464111328125
1761383400124463000,3.685463134765625,-0.9151153564453125,-0.3789215087890625,0.2549285888671875
1761383400134532000,3.695531982421875,-0.948883056640625,-0.3955078125,0.2554473876953125
1761383400144602000,3.70560205078125,-0.973602294921875,-0.390045166015625,0.2514801025390625
1761383400154671900,3.715671875,-1.028961181640625,-0.4008026123046875,0.2541351318359375
1761383400164741000,3.7257412109375,-1.0822601318359375,-0.3878326416015625,0.246673583984375
1761383400174811000,3.735810791015625,-1.113006591796875,-0.3609161376953125,0.2186279296875
1761383400184881000,3.745880859375,-1.148101806640625,-0.3504638671875,0.1850433349609375
1761383400194950100,3.7559501953125,-1.163360595703125,-0.357940673828125,0.1541748046875
1761383400205020000,3.76602001953125,-1.18743896484375,-0.353973388671875,0.1398468017578125
1761383400215090000,3.77608984375,-1.2612457275390625,-0.36492919921875,0.135711669921875
1761383400225159000,3.786158935546875,-1.2532806396484375,-0.3654937744140625,0.088287353515625
1761383400235229000,3.79622900390625,-1.252044677734375,-0.3463287353515625,0.0236663818359375
1761383400245299200,3.80629931640625,-1.2305145263671875,-0.3449554443359375,-0.032958984375
1761383400255368000,3.816367919921875,-1.2166900634765625,-0.33770751953125,-0.0831298828125
1761383400265438000,3.82643798828125,-1.1916656494140625,-0.3377685546875,-0.1182098388671875
1761383400275507000,3.8365068359375,-1.1477508544921875,-0.3468780517578125,-0.1382598876953125
1761383400285577000,3.846576904296875,-1.0902557373046875,-0.3478546142578125,-0.1368408203125
1761383400295647000,3.85664697265625,-1.0480499267578125,-0.3715362548828125,-0.102325439453125
1761383400305716000,3.866716064453125,-1.0550384521484375,-0.4178009033203125,-0.041717529296875
1761383400315786000,3.876785888671875,-1.0660247802734375,-0.4429779052734375,-0.0019073486328125
1761383400325856000,3.88685595703125,-1.0602874755859375,-0.4430084228515625,0.0216827392578125
1761383400335925000,3.896925048828125,-1.0651092529296875,-0.43353271484375,0.0390167236328125
1761383400345995000,3.9069951171875,-1.064300537109375,-0.4271697998046875,0.050537109375
1761383400356065000,3.91706494140625,-1.051910400390625,-0.4130096435546875,0.05328369140625
1761383400366134000,3.927134033203125,-1.0200958251953125,-0.390533447265625,0.0581207275390625
1761383400376204000,3.9372041015625,-0.9851531982421875,-0.3723907470703125,0.0698394775390625
1761383400386274000,3.947274169921875,-0.9534912109375,-0.364898681640625,0.084259033203125
1761383400396343000,3.957343017578125,-0.9219818115234375,-0.3631591796875,0.0952911376953125
1761383400406413000,3.9674130859375,-0.896148681640625,-0.3625946044921875,0.1107330322265625
1761383400416482800,3.97748291015625,-0.8773193359375,-0.3639373779296875,0.131561279296875
1761383400426552000,3.987552001953125,-0.8606414794921875,-0.36474609375,0.1491241455078125
1761383400436621800,3.997621826171875,-0.8443145751953125,-0.3609466552734375,0.162841796875
1761383400446692000,4.007692138671875,-0.831512451171875,-0.355804443359375,0.1703948974609375
1761383400456760800,4.0177607421875,-0.8209075927734375,-0.3541259765625,0.17242431640625
1761383400466830800,4.027830810546875,-0.816192626953125,-0.360260009765625,0.1663970947265625
1761383400476901000,4.037901123046875,-0.818389892578125,-0.365936279296875,0.158203125
1761383400486969900,4.047969970703125,-0.822662353515625,-0.364776611328125,0.146392822265625
1761383400497040100,4.0580400390625,-0.824615478515625,-0.36346435546875,0.1318817138671875
1761383400507108900,4.06810888671875,-0.8394317626953125,-0.3661651611328125,0.123565673828125
1761383400517179100,4.07817919921875,-0.852203369140625,-0.3674163818359375,0.1178131103515625
1761383400527249200,4.088249267578125,-0.8572235107421875,-0.3585052490234375,0.1042938232421875
1761383400537318000,4.09831787109375,-0.86175537109375,-0.3446502685546875,0.0845794677734375
1761383400547388200,4.10838818359375,-0.8607177734375,-0.333465576171875,0.06231689453125
1761383400557458000,4.1184580078125,-0.8614044189453125,-0.322906494140625,0.0406646728515625
1761383400567527200,4.128527099609375,-0.8464813232421875,-0.3148651123046875,0.016204833984375
1761383400577597000,4.138596923828125,-0.8216552734375,-0.3101654052734375,-0.01043701171875
1761383400587667000,4.1486669921875,-0.8018341064453125,-0.310150146484375,-0.0306396484375
1761383400597736000,4.15873583984375,-0.7865142822265625,-0.3219757080078125,-0.034515380859375
1761383400607806000,4.168805908203125,-0.768402099609375,-0.3536224365234375,-0.020660400390625
1761383400617876000,4.1788759765625,-0.7545013427734375,-0.38916015625,0.0019073486328125
1761383400627945000,4.188945068359375,-0.74853515625,-0.418792724609375,0.0216827392578125
1761383400638015000,4.199014892578125,-0.75445556640625,-0.4404144287109375,0.0327301025390625
1761383400648085000,4.2090849609375,-0.78033447265625,-0.4618988037109375,0.035980224609375
1761383400658154000,4.219154052734375,-0.8121185302734375,-0.4866943359375,0.028533935546875
1761383400668224000,4.22922412109375,-0.8386383056640625,-0.502655029296875,0.0133056640625
1761383400678294000,4.2392939453125,-0.8726043701171875,-0.509063720703125,-0.0075836181640625
1761383400688363000,4.249363037109375,-0.908538818359375,-0.505462646484375,-0.0285797119140625
1761383400698433000,4.25943310546875,-0.93658447265625,-0.495697021484375,-0.0445098876953125
1761383400708503000,4.2695029296875,-0.968841552734375,-0.4966888427734375,-0.0488128662109375
1761383400718571800,4.27957177734375,-0.988616943359375,-0.504302978515625,-0.04644775390625
1761383400728642000,4.28964208984375,-0.995758056640625,-0.509765625,-0.0469970703125
1761383400738712000,4.299712158203125,-0.9961700439453125,-0.521148681640625,-0.0533599853515625
1761383400748781000,4.309781005859375,-0.9959869384765625,-0.5402374267578125,-0.059967041015625
1761383400758851000,4.31985107421875,-1.007171630859375,-0.562347412109375,-0.0646514892578125
1761383400768920000,4.329920166015625,-1.0152740478515625,-0.58514404296875,-0.0734405517578125
1761383400778990000,4.339989990234375,-1.0051422119140625,-0.596343994140625,-0.082733154296875
1761383400789059800,4.350059814453125,-0.99853515625,-0.6033172607421875,-0.0825958251953125
1761383400799129000,4.360129150390625,-0.99957275390625,-0.6117401123046875,-0.0737457275390625
1761383400809199000,4.37019921875,-0.9975128173828125,-0.61712646484375,-0.0634002685546875
1761383400819268900,4.380268798828125,-0.98504638671875,-0.61785888671875,-0.0595855712890625
1761383400829338000,4.390338134765625,-0.9747467041015625,-0.61236572265625,-0.06671142578125
1761383400839407900,4.400407958984375,-0.968780517578125,-0.6064605712890625,-0.0797271728515625
1761383400849478000,4.410477783203125,-0.9593048095703125,-0.6013336181640625,-0.0893707275390625
1761383400859547000,4.420546875,-0.94256591796875,-0.5917816162109375,-0.098876953125
1761383400869617000,4.430616943359375,-0.922119140625,-0.575958251953125,-0.1097259521484375
1761383400879687200,4.440687255859375,-0.89471435546875,-0.55413818359375,-0.116119384765625
1761383400889756000,4.450755859375,-0.8680419921875,-0.531036376953125,-0.117218017578125
1761383400899826200,4.460826171875,-0.838287353515625,-0.510894775390625,-0.1112823486328125
1761383400909896000,4.47089599609375,-0.81121826171875,-0.4936676025390625,-0.1006317138671875
1761383400919965000,4.48096484375,-0.8044891357421875,-0.4832305908203125,-0.081390380859375
1761383400930035000,4.491034912109375,-0.7970733642578125,-0.4864959716796875,-0.05938720703125
1761383400940105000,4.50110498046875,-0.781890869140625,-0.4857177734375,-0.04437255859375
1761383400950174200,4.51117431640625,-0.7713775634765625,-0.4723968505859375,-0.0400543212890625
1761383400960244500,4.521244384765625,-0.7601318359375,-0.46234130859375,-0.0415802001953125
1761383400970314200,4.531314208984375,-0.745635986328125,-0.4575347900390625,-0.0485992431640625
1761383400980383500,4.541383544921875,-0.72821044921875,-0.4534912109375,-0.053955078125
1761383400990453200,4.551453369140625,-0.7189483642578125,-0.452301025390625,-0.0506744384765625
1761383401000523300,4.561523193359375,-0.7212677001953125,-0.456451416015625,-0.038421630859375
1761383401010592500,4.571592529296875,-0.7216339111328125,-0.4560089111328125,-0.029632568359375
1761383401020662300,4.581662353515625,-0.73175048828125,-0.4561309814453125,-0.0184173583984375
1761383401030732300,4.591732177734375,-0.7392120361328125,-0.465301513671875,-0.00518798828125
1761383401040801300,4.60180126953125,-0.749481201171875,-0.478546142578125,0.0080718994140625
1761383401050871300,4.611871337890625,-0.7727203369140625,-0.494415283203125,0.0211029052734375
1761383401060940300,4.621940185546875,-0.8039703369140625,-0.5131988525390625,0.043609619140625
1761383401071010300,4.63201025390625,-0.8281707763671875,-0.5292510986328125,0.0630950927734375
1761383401081080300,4.642080322265625,-0.849395751953125,-0.5330047607421875,0.0696258544921875
1761383401091149300,4.6521494140625,-0.89105224609375,-0.5305023193359375,0.07745361328125
1761383401101219300,4.66221923828125,-0.93182373046875,-0.5298309326171875,0.08441162109375
1761383401111289300,4.672289306640625,-0.9684906005859375,-0.5154876708984375,0.083282470703125
1761383401121358300,4.6823583984375,-1.001983642578125,-0.4882049560546875,0.0733795166015625
1761383401131428600,4.6924287109375,-1.01800537109375,-0.460052490234375,0.064605712890625
1761383401141498400,4.702498291015625,-1.0181884765625,-0.4354705810546875,0.059783935546875
1761383401151567400,4.7125673828125,-0.99371337890625,-0.41693115234375,0.0591888427734375
1761383401161637400,4.722637451171875,-0.9583587646484375,-0.399078369140625,0.059326171875
1761383401171707400,4.732707275390625,-0.928619384765625,-0.3896331787109375,0.0698394775390625
1761383401181776400,4.7427763671875,-0.9165496826171875,-0.39337158203125,0.093048095703125
1761383401191846400,4.752846435546875,-0.9301910400390625,-0.4062957763671875,0.1280364990234375
1761383401201916400,4.76291650390625,-0.95819091796875,-0.4185791015625,0.158172607421875
1761383401211985400,4.7729853515625,-0.983917236328125,-0.420379638671875,0.170745849609375
1761383401222055400,4.783055419921875,-1.0068511962890625,-0.422027587890625,0.1672821044921875
1761383401232125200,4.793125244140625,-1.017974853515625,-0.4310150146484375,0.155975341796875
1761383401242194400,4.8031943359375,-1.0330047607421875,-0.445465087890625,0.1432647705078125
1761383401252264200,4.81326416015625,-1.0381011962890625,-0.469268798828125,0.1352996826171875
1761383401262334500,4.82333447265625,-1.0344696044921875,-0.486419677734375,0.1210174560546875
1761383401272403500,4.833403564453125,-1.0292816162109375,-0.4793243408203125,0.098724365234375
1761383401282473200,4.84347314453125,-1.0135955810546875,-0.4578399658203125,0.077789306640625
1761383401292542500,4.85354248046875,-1.0056304931640625,-0.4396209716796875,0.0665740966796875
1761383401302612200,4.8636123046875,-1.0117645263671875,-0.4254150390625,0.063262939453125
1761383401312682500,4.8736826171875,-1.00811767578125,-0.4072418212890625,0.0512542724609375
1761383401322751200,4.883751220703125,-1.0059051513671875,-0.380523681640625,0.03131103515625
1761383401332821200,4.8938212890625,-0.9942474365234375,-0.3626556396484375,0.00628662109375
1761383401342891500,4.9038916015625,-0.98101806640625,-0.3526611328125,-0.017181396484375
1761383401352960300,4.913960205078125,-0.9606781005859375,-0.348114013671875,-0.0360870361328125
1761383401363030500,4.924030517578125,-0.91961669921875,-0.35601806640625,-0.048492431640625
1761383401373100300,4.934100341796875,-0.8800048828125,-0.368865966796875,-0.0552825927734375
1761383401383169500,4.94416943359375,-0.845245361328125,-0.3826751708984375,-0.0537567138671875
1761383401393239300,4.9542392578125,-0.81787109375,-0.3988189697265625,-0.04083251953125
1761383401403309300,4.964309326171875,-0.7980194091796875,-0.4134521484375,-0.025787353515625
1761383401413378600,4.974378662109375,-0.7830657958984375,-0.4204254150390625,-0.0133056640625
1761383401423448300,4.9844482421875,-0.7682037353515625,-0.4178009033203125,0.001129150390625
1761383401433518300,4.994518310546875,-0.7605133056640625,-0.4124298095703125,0.018218994140625
1761383401443587300,5.00458740234375,-0.760894775390625,-0.4102630615234375,0.0330963134765625
1761383401453657300,5.0146572265625,-0.7675628662109375,-0.4035491943359375,0.0444488525390625
1761383401463727400,5.024727294921875,-0.7754058837890625,-0.391754150390625,0.045684814453125
1761383401473796400,5.03479638671875,-0.799591064453125,-0.3815765380859375,0.039031982421875
1761383401483866400,5.044866455078125,-0.83489990234375,-0.376708984375,0.0318603515625
1761383401493936400,5.054936279296875,-0.858978271484375,-0.3724212646484375,0.0297698974609375
1761383401504005400,5.06500537109375,-0.8824615478515625,-0.36962890625,0.0191802978515625
1761383401514075400,5.075075439453125,-0.9073028564453125,-0.365692138671875,-0.001953125
1761383401524145400,5.0851455078125,-0.916290283203125,-0.3672332763671875,-0.01416015625
1761383401534214100,5.095214111328125,-0.9189910888671875,-0.3897705078125,-0.022369384765625
1761383401544284400,5.105284423828125,-0.9201812744140625,-0.423370361328125,-0.033721923828125
1761383401554353400,5.115353515625,-0.907470703125,-0.4523162841796875,-0.049713134765625
1761383401564423400,5.12542333984375,-0.9095916748046875,-0.448211669921875,-0.0844879150390625
1761383401574493400,5.135493408203125,-0.9285125732421875,-0.4218902587890625,-0.12969970703125
1761383401584562200,5.145562255859375,-0.9265594482421875,-0.4125213623046875,-0.1590423583984375
1761383401594632400,5.155632568359375,-0.911529541015625,-0.4114837646484375,-0.177490234375
1761383401604702500,5.165702392578125,-0.910247802734375,-0.3862152099609375,-0.18896484375
1761383401614771500,5.175771484375,-0.9002838134765625,-0.3536224365234375,-0.196197509765625
1761383401624841500,5.185841552734375,-0.8813323974609375,-0.3412017822265625,-0.2001800537109375
1761383401634911200,5.1959111328125,-0.863555908203125,-0.3575439453125,-0.1941375732421875
1761383401644980500,5.20598046875,-0.843963623046875,-0.397247314453125,-0.18548583984375
1761383401655050200,5.21605029296875,-0.83892822265625,-0.42633056640625,-0.17266845703125
1761383401665120300,5.226120361328125,-0.84912109375,-0.4452972412109375,-0.1550140380859375
1761383401675189200,5.236189208984375,-0.86273193359375,-0.4762115478515625,-0.13238525390625
1761383401685259300,5.24625927734375,-0.8787689208984375,-0.5130462646484375,-0.106842041015625
1761383401695329500,5.25632958984375,-0.8759613037109375,-0.5461578369140625,-0.0890655517578125
1761383401705398300,5.266398193359375,-0.871490478515625,-0.5694580078125,-0.07781982421875
1761383401715468300,5.27646826171875,-0.8818817138671875,-0.585174560546875,-0.0698699951171875
1761383401725538300,5.286538330078125,-0.8937225341796875,-0.595794677734375,-0.0633392333984375
1761383401735607300,5.296607177734375,-0.901702880859375,-0.6009063720703125,-0.06048583984375
1761383401745677600,5.306677490234375,-0.9106597900390625,-0.603729248046875,-0.06011962890625
1761383401755747300,5.316747314453125,-0.922607421875,-0.5984954833984375,-0.0626983642578125
1761383401765816600,5.326816650390625,-0.928924560546875,-0.5762176513671875,-0.0687255859375
1761383401775886300,5.33688623046875,-0.934051513671875,-0.5515289306640625,-0.0788421630859375
1761383401785956400,5.346956298828125,-0.941741943359375,-0.5415191650390625,-0.089447021484375
1761383401796025300,5.357025390625,-0.9407196044921875,-0.5483551025390625,-0.09820556640625
1761383401806095400,5.367095458984375,-0.9409027099609375,-0.5666961669921875,-0.10284423828125
1761383401816164400,5.377164306640625,-0.9367218017578125,-0.5809173583984375,-0.1099700927734375
1761383401826234400,5.387234375,-0.9121856689453125,-0.583770751953125,-0.118133544921875
1761383401836304400,5.397304443359375,-0.879730224609375,-0.5777740478515625,-0.1240386962890625
1761383401846373400,5.407373291015625,-0.8593902587890625,-0.5709381103515625,-0.1201019287109375
1761383401856443400,5.417443359375,-0.847015380859375,-0.5674285888671875,-0.1022491455078125
1761383401866513200,5.42751318359375,-0.8214569091796875,-0.5636138916015625,-0.08642578125
1761383401876582400,5.43758251953125,-0.800048828125,-0.5456085205078125,-0.0690155029296875
1761383401886652400,5.44765234375,-0.791290283203125,-0.52728271484375,-0.048583984375
1761383401896722400,5.457722412109375,-0.7802276611328125,-0.514495849609375,-0.0272216796875
1761383401906791400,5.46779150390625,-0.7650604248046875,-0.4938812255859375,-0.0097808837890625
1761383401916861200,5.477861083984375,-0.7501983642578125,-0.472412109375,0.014617919921875
1761383401926931500,5.487931396484375,-0.743621826171875,-0.4600830078125,0.0489349365234375
1761383401937000200,5.498000244140625,-0.7413330078125,-0.461700439453125,0.0890960693359375
1761383401947070500,5.508070556640625,-0.7389068603515625,-0.4698028564453125,0.1317901611328125
1761383401957140500,5.518140380859375,-0.7468414306640625,-0.4716796875,0.157318115234375
1761383401967209500,5.52820947265625,-0.7744293212890625,-0.46343994140625,0.1682586669921875
1761383401977279500,5.538279541015625,-0.81634521484375,-0.457550048828125,0.171783447265625
1761383401987349500,5.548349609375,-0.8433380126953125,-0.4753265380859375,0.1780548095703125
1761383401997418500,5.55841845703125,-0.8582611083984375,-0.50140380859375,0.180633544921875
1761383402007488500,5.568488525390625,-0.8779296875,-0.5016021728515625,0.1687164306640625
1761383402017558500,5.57855859375,-0.89263916015625,-0.471649169921875,0.14703369140625
1761383402027627500,5.58862744140625,-0.880706787109375,-0.43438720703125,0.1116943359375
1761383402037697500,5.598697509765625,-0.8561859130859375,-0.4039764404296875,0.0908203125
1761383402047767300,5.608767333984375,-0.8470458984375,-0.381500244140625,0.0930023193359375
1761383402057836500,5.61883642578125,-0.848876953125,-0.37347412109375,0.113739013671875
1761383402067906300,5.62890625,-0.8524627685546875,-0.3705596923828125,0.1398162841796875
1761383402077975600,5.6389755859375,-0.863922119140625,-0.362213134765625,0.1682281494140625
1761383402088045600,5.649045654296875,-0.875152587890625,-0.36248779296875,0.1912689208984375
1761383402098115300,5.659115234375,-0.8972015380859375,-0.3803558349609375,0.218475341796875
1761383402108184600,5.6691845703125,-0.9333038330078125,-0.4197235107421875,0.245758056640625
1761383402118254300,5.67925439453125,-0.9548187255859375,-0.4573974609375,0.2458953857421875
1761383402128324600,5.68932470703125,-0.9561309814453125,-0.472900390625,0.21630859375
1761383402138393300,5.699393310546875,-0.95867919921875,-0.494384765625,0.189239501953125
1761383402148463400,5.70946337890625,-0.9626312255859375,-0.5300445556640625,0.16888427734375
1761383402158533600,5.71953369140625,-0.9606170654296875,-0.5501708984375,0.1517181396484375
1761383402168602400,5.729602294921875,-0.95257568359375,-0.552581787109375,0.1377105712890625
1761383402178672600,5.739672607421875,-0.96112060546875,-0.54779052734375,0.1281585693359375
1761383402188742400,5.749742431640625,-0.9827880859375,-0.5428619384765625,0.1258697509765625
1761383402198811600,5.759811767578125,-1.0020599365234375,-0.5355682373046875,0.120391845703125
1761383402208881400,5.76988134765625,-1.017791748046875,-0.5246734619140625,0.112579345703125
1761383402218951400,5.779951416015625,-1.033294677734375,-0.5042266845703125,0.0984039306640625
1761383402229020700,5.790020751953125,-1.0426788330078125,-0.4778594970703125,0.0793304443359375
1761383402239090400,5.80009033203125,-1.0434722900390625,-0.4536285400390625,0.0506134033203125
1761383402249160400,5.810160400390625,-1.034271240234375,-0.43475341796875,0.013641357421875
1761383402259229400,5.8202294921875,-1.0090484619140625,-0.4259490966796875,-0.01678466796875
1761383402269299500,5.830299560546875,-0.97735595703125,-0.4283294677734375,-0.040191650390625
1761383402279368400,5.840368408203125,-0.9430389404296875,-0.4364166259765625,-0.060699462890625
1761383402289438500,5.8504384765625,-0.9135284423828125,-0.450286865234375,-0.069488525390625
1761383402299508500,5.860508544921875,-0.883392333984375,-0.476104736328125,-0.07275390625
1761383402309577500,5.870577392578125,-0.8407745361328125,-0.4986114501953125,-0.0811920166015625
1761383402319647500,5.8806474609375,-0.8016357421875,-0.5076904296875,-0.0882415771484375
1761383402329717500,5.890717529296875,-0.7744598388671875,-0.51470947265625,-0.0932464599609375
1761383402339786500,5.900786376953125,-0.75567626953125,-0.5186004638671875,-0.0953826904296875
1761383402349856300,5.910856201171875,-0.740142822265625,-0.5083770751953125,-0.0916900634765625
1761383402359926500,5.920926513671875,-0.7349853515625,-0.4941253662109375,-0.0806884765625
1761383402369995500,5.93099560546875,-0.7376251220703125,-0.4766998291015625,-0.066650390625
1761383402380065500,5.9410654296875,-0.7408905029296875,-0.450775146484375,-0.0512847900390625
1761383402390135600,5.951135498046875,-0.753509521484375,-0.4248504638671875,-0.03802490234375
1761383402400204500,5.96120458984375,-0.767852783203125,-0.409576416015625,-0.0337982177734375
1761383402410274600,5.971274658203125,-0.781494140625,-0.388397216796875,-0.0394287109375
1761383402420344600,5.981344482421875,-0.79351806640625,-0.356719970703125,-0.0503387451171875
1761383402430413600,5.99141357421875,-0.8029632568359375,-0.3371429443359375,-0.062530517578125
1761383402440483600,6.001483642578125,-0.8073883056640625,-0.345550537109375,-0.061737060546875
1761383402450553300,6.01155322265625,-0.8127288818359375,-0.3758087158203125,-0.0516357421875
1761383402460622600,6.02162255859375,-0.8172607421875,-0.3961029052734375,-0.054290771484375
1761383402470692400,6.0316923828125,-0.8188629150390625,-0.3939361572265625,-0.0842132568359375
1761383402480762400,6.041762451171875,-0.8232574462890625,-0.3806304931640625,-0.1353607177734375
1761383402490831400,6.051831298828125,-0.842681884765625,-0.38134765625,-0.17474365234375
1761383402500901400,6.0619013671875,-0.8714599609375,-0.400726318359375,-0.197265625
1761383402510970600,6.071970703125,-0.8980560302734375,-0.411651611328125,-0.214263916015625
1761383402521040400,6.082040283203125,-0.9371185302734375,-0.396392822265625,-0.2278594970703125
1761383402531110400,6.0921103515625,-0.976531982421875,-0.37774658203125,-0.2425384521484375
1761383402541179400,6.102179443359375,-1.0048675537109375,-0.3754730224609375,-0.2569122314453125
1761383402551249400,6.11224951171875,-1.0159454345703125,-0.3826446533203125,-0.2689361572265625
1761383402561319700,6.122319580078125,-1.0167999267578125,-0.393768310546875,-0.278106689453125
1761383402571388400,6.132388427734375,-1.0189971923828125,-0.3986358642578125,-0.285919189453125
1761383402581458700,6.142458740234375,-1.0284423828125,-0.407562255859375,-0.2808990478515625
1761383402591528400,6.152528564453125,-1.042510986328125,-0.43402099609375,-0.260223388671875
1761383402601597400,6.162597412109375,-1.03253173828125,-0.4733734130859375,-0.2308502197265625
1761383402611667500,6.17266748046875,-1.0160980224609375,-0.511260986328125,-0.1921844482421875
1761383402621737500,6.182737548828125,-1.005889892578125,-0.5432281494140625,-0.152008056640625
1761383402631806500,6.192806396484375,-0.9963531494140625,-0.5670166015625,-0.1273956298828125
1761383402641876500,6.20287646484375,-0.98590087890625,-0.5847625732421875,-0.122314453125
1761383402651946500,6.212946533203125,-0.9633331298828125,-0.597442626953125,-0.1251373291015625
1761383402662015500,6.223015380859375,-0.9371185302734375,-0.60107421875,-0.1279754638671875
1761383402672085500,6.23308544921875,-0.91845703125,-0.5990447998046875,-0.132537841796875
1761383402682155300,6.2431552734375,-0.8955230712890625,-0.58642578125,-0.1334381103515625
1761383402692224500,6.253224609375,-0.872039794921875,-0.563812255859375,-0.12841796875
1761383402702294500,6.26329443359375,-0.8607635498046875,-0.5470733642578125,-0.122894287109375
1761383402712363500,6.273363525390625,-0.85211181640625,-0.5349578857421875,-0.1167144775390625
1761383402722433500,6.28343359375,-0.83843994140625,-0.5246429443359375,-0.121368408203125
1761383402732503300,6.29350341796875,-0.8211822509765625,-0.5240936279296875,-0.1299591064453125
1761383402742572500,6.303572509765625,-0.809539794921875,-0.52984619140625,-0.1396484375
1761383402752642300,6.313642333984375,-0.8021087646484375,-0.5315093994140625,-0.1486968994140625
1761383402762712600,6.323712646484375,-0.7860565185546875,-0.530853271484375,-0.1554107666015625
1761383402772781300,6.33378125,-0.7639312744140625,-0.52325439453125,-0.1569061279296875
1761383402782851600,6.3438515625,-0.74468994140625,-0.510284423828125,-0.14501953125
1761383402792921600,6.353921630859375,-0.7282562255859375,-0.4945068359375,-0.12359619140625
1761383402802990300,6.363990234375,-0.7158660888671875,-0.474151611328125,-0.0987548828125
1761383402813060600,6.374060546875,-0.702362060546875,-0.453216552734375,-0.07623291015625
1761383402823130400,6.38413037109375,-0.693023681640625,-0.4319000244140625,-0.05322265625
1761383402833199600,6.39419970703125,-0.69757080078125,-0.4135284423828125,-0.0329742431640625
1761383402843269600,6.40426953125,-0.7119598388671875,-0.3933258056640625,-0.03472900390625
1761383402853339400,6.41433935546875,-0.7303619384765625,-0.376495361328125,-0.04486083984375
1761383402863408600,6.42440869140625,-0.74566650390625,-0.365509033203125,-0.057708740234375
1761383402873478400,6.434478515625,-0.7396240234375,-0.3554229736328125,-0.0690155029296875
1761383402883547600,6.444547607421875,-0.740325927734375,-0.3400726318359375,-0.079742431640625
1761383402893617400,6.454617431640625,-0.769622802734375,-0.32281494140625,-0.084869384765625
1761383402903687400,6.4646875,-0.8047943115234375,-0.3069915771484375,-0.0834197998046875
1761383402913756400,6.47475634765625,-0.8398284912109375,-0.3127288818359375,-0.0775146484375
1761383402923826400,6.484826416015625,-0.880462646484375,-0.352447509765625,-0.0613250732421875
1761383402933896400,6.494896484375,-0.9098968505859375,-0.388397216796875,-0.0446319580078125
1761383402943965400,6.50496533203125,-0.948883056640625,-0.4020233154296875,-0.0403289794921875
1761383402954035500,6.515035400390625,-0.9957733154296875,-0.4154205322265625,-0.039398193359375
1761383402964105700,6.525105712890625,-1.028564453125,-0.43109130859375,-0.04266357421875
1761383402974174500,6.535174560546875,-1.0489349365234375,-0.4293060302734375,-0.05133056640625
1761383402984244500,6.545244384765625,-1.0542144775390625,-0.420867919921875,-0.0622711181640625
1761383402994314800,6.555314697265625,-1.070281982421875,-0.4203643798828125,-0.067352294921875
1761383403004383500,6.565383544921875,-1.0915679931640625,-0.4267578125,-0.079254150390625
1761383403014453800,6.575453857421875,-1.114166259765625,-0.41619873046875,-0.0978546142578125
1761383403024523500,6.5855234375,-1.1640472412109375,-0.411712646484375,-0.111236572265625
1761383403034592500,6.595592529296875,-1.201995849609375,-0.428375244140625,-0.1185150146484375
1761383403044662800,6.605662841796875,-1.21588134765625,-0.4361724853515625,-0.12860107421875
1761383403054732500,6.615732666015625,-1.2111358642578125,-0.4267730712890625,-0.1516571044921875
1761383403064801800,6.6258017578125,-1.2074432373046875,-0.410400390625,-0.17132568359375
1761383403074871600,6.63587158203125,-1.18719482421875,-0.379638671875,-0.1977691650390625
1761383403084940500,6.6459404296875,-1.1615753173828125,-0.33709716796875,-0.2245025634765625
1761383403095010600,6.656010498046875,-1.141326904296875,-0.30389404296875,-0.245452880859375
1761383403105080600,6.66608056640625,-1.106475830078125,-0.2839508056640625,-0.259368896484375
1761383403115149600,6.676149658203125,-1.0605621337890625,-0.2697601318359375,-0.27191162109375
1761383403125219600,6.686219482421875,-1.014739990234375,-0.2542877197265625,-0.278411865234375
1761383403135289600,6.69628955078125,-0.9665985107421875,-0.24249267578125,-0.2713623046875
1761383403145358600,6.706358642578125,-0.927459716796875,-0.220794677734375,-0.2534942626953125
1761383403155428600,6.7164287109375,-0.8812713623046875,-0.19049072265625,-0.2351226806640625
1761383403165498400,6.726498291015625,-0.82049560546875,-0.1607208251953125,-0.2126312255859375
1761383403175567600,6.736567626953125,-0.766632080078125,-0.1264801025390625,-0.18951416015625
1761383403185637600,6.7466376953125,-0.7281951904296875,-0.094146728515625,-0.168914794921875
1761383403195707600,6.756707763671875,-0.6956634521484375,-0.0682830810546875,-0.1451873779296875
1761383403205776600,6.766776611328125,-0.6808624267578125,-0.049957275390625,-0.1252288818359375
1761383403215846700,6.7768466796875,-0.681488037109375,-0.034637451171875,-0.108734130859375
1761383403225915600,6.78691552734375,-0.6905517578125,-0.014923095703125,-0.0950469970703125
1761383403235985400,6.7969853515625,-0.67572021484375,0.013824462890625,-0.0831298828125
1761383403246055700,6.8070556640625,-0.649017333984375,0.0431365966796875,-0.06951904296875
1761383403256124400,6.81712451171875,-0.6503143310546875,0.061370849609375,-0.05413818359375
1761383403266194700,6.827194580078125,-0.6796722412109375,0.053741455078125,-0.0332794189453125
1761383403276264700,6.8372646484375,-0.7430267333984375,0.011138916015625,-0.0191802978515625
1761383403286333400,6.84733349609375,-0.819610595703125,-0.049896240234375,-0.0240020751953125
1761383403296403700,6.85740380859375,-0.8914642333984375,-0.118865966796875,-0.036224365234375
1761383403306473500,6.867473388671875,-0.9924468994140625,-0.2060089111328125,-0.04473876953125
1761383403316542700,6.877542724609375,-1.1401824951171875,-0.251129150390625,-0.09149169921875
1761383403326612700,6.88761279296875,-1.3045196533203125,-0.2205047607421875,-0.1671600341796875
1761383403336682500,6.8976826171875,-1.4011383056640625,-0.2117919921875,-0.2579345703125
1761383403346751700,6.907751708984375,-1.440673828125,-0.2165374755859375,-0.376739501953125
1761383403356821500,6.917821533203125,-1.43408203125,-0.20355224609375,-0.4865875244140625
1761383403366891500,6.9278916015625,-1.3727264404296875,-0.212890625,-0.5667877197265625
1761383403376960500,6.93796044921875,-1.3087921142578125,-0.206329345703125,-0.6083221435546875
1761383403387030500,6.948030517578125,-1.2967071533203125,-0.177520751953125,-0.6019287109375
1761383403397099500,6.958099609375,-1.3437347412109375,-0.2017669677734375,-0.5356903076171875
1761383403407169500,6.96816943359375,-1.382781982421875,-0.26300048828125,-0.456878662109375
1761383403417239600,6.978239501953125,-1.394195556640625,-0.311248779296875,-0.392608642578125
1761383403427308500,6.98830859375,-1.3416748046875,-0.340545654296875,-0.376220703125
1761383403437378600,6.998378662109375,-1.2390289306640625,-0.3136444091796875,-0.3882904052734375
1761383403447448800,7.00844873046875,-1.162689208984375,-0.2537994384765625,-0.361602783203125
1761383403457517600,7.018517578125,-1.17657470703125,-0.27239990234375,-0.273101806640625
1761383403467587600,7.028587646484375,-1.2207794189453125,-0.3512725830078125,-0.1570587158203125
1761383403477657600,7.03865771484375,-1.2201385498046875,-0.4124908447265625,-0.084930419921875
1761383403487726600,7.0487265625,-1.2050933837890625,-0.4496002197265625,-0.0580596923828125
1761383403497796600,7.058796630859375,-1.2183837890625,-0.4422607421875,-0.056243896484375
1761383403507866600,7.06886669921875,-1.24334716796875,-0.3809661865234375,-0.067535400390625
1761383403517935600,7.078935546875,-1.2391510009765625,-0.2880096435546875,-0.0893707275390625
1761383403528005600,7.089005615234375,-1.20892333984375,-0.186431884765625,-0.115966796875
1761383403538074400,7.099074462890625,-1.1434478759765625,-0.120880126953125,-0.116363525390625
1761383403548144600,7.10914453125,-1.0486297607421875,-0.1001129150390625,-0.094696044921875
1761383403558214700,7.119214599609375,-0.9651031494140625,-0.0919189453125,-0.0688934326171875
1761383403568283600,7.12928369140625,-0.8920440673828125,-0.095062255859375,-0.0390167236328125
1761383403578353700,7.139353759765625,-0.8333282470703125,-0.1196441650390625,-0.0070343017578125
1761383403588423700,7.149423583984375,-0.80364990234375,-0.1529693603515625,0.023956298828125
1761383403598492700,7.15949267578125,-0.7620391845703125,-0.195770263671875,0.0474090576171875
1761383403608562700,7.169562744140625,-0.719970703125,-0.2369232177734375,0.0584869384765625
1761383403618632400,7.179632568359375,-0.6942291259765625,-0.256683349609375,0.0574493408203125
1761383403628701700,7.18970166015625,-0.6778106689453125,-0.256927490234375,0.0475921630859375
1761383403638771500,7.199771484375,-0.6737060546875,-0.243804931640625,0.0327301025390625
1761383403648841700,7.209841796875,-0.6757659912109375,-0.2202911376953125,0.0258026123046875
1761383403658910500,7.219910400390625,-0.7030487060546875,-0.192962646484375,0.0341949462890625
1761383403668980500,7.22998046875,-0.7224884033203125,-0.16986083984375,0.040618896484375
1761383403679049700,7.2400498046875,-0.7370758056640625,-0.1575164794921875,0.0398101806640625
1761383403689119500,7.250119384765625,-0.7628021240234375,-0.1572265625,0.0357818603515625
1761383403699189800,7.260189697265625,-0.790069580078125,-0.16949462890625,0.0232391357421875
1761383403709258500,7.270258544921875,-0.81439208984375,-0.1926727294921875,0.0142059326171875
1761383403719328800,7.280328857421875,-0.8332672119140625,-0.225677490234375,0.01611328125
1761383403729398800,7.290398681640625,-0.8476409912109375,-0.266082763671875,0.0260467529296875
1761383403739467500,7.300467529296875,-0.8582763671875,-0.3167266845703125,0.036834716796875
1761383403749537800,7.310537841796875,-0.8557586669921875,-0.3710479736328125,0.047027587890625
1761383403759607600,7.320607666015625,-0.882598876953125,-0.416748046875,0.0546112060546875
1761383403769676800,7.3306767578125,-0.9250335693359375,-0.463836669921875,0.0665435791015625
1761383403779746600,7.34074658203125,-0.9466705322265625,-0.5355224609375,0.0944366455078125
1761383403789816600,7.350816650390625,-0.969757080078125,-0.6063232421875,0.129150390625
1761383403799885600,7.360885498046875,-0.991668701171875,-0.6417694091796875,0.1488800048828125
1761383403809955600,7.37095556640625,-1.019683837890625,-0.6426239013671875,0.1589508056640625
1761383403820024800,7.38102490234375,-1.062835693359375,-0.6418609619140625,0.1807098388671875
1761383403830094600,7.391094482421875,-1.11090087890625,-0.648284912109375,0.2191925048828125
1761383403840164600,7.40116455078125,-1.1624298095703125,-0.643646240234375,0.2436981201171875
1761383403850233600,7.411233642578125,-1.19866943359375,-0.623321533203125,0.2500762939453125
1761383403860303600,7.4213037109375,-1.2375640869140625,-0.58636474609375,0.239959716796875
1761383403870373600,7.43137353515625,-1.2689971923828125,-0.5603790283203125,0.216461181640625
1761383403880442600,7.441442626953125,-1.2863922119140625,-0.5484161376953125,0.170074462890625
1761383403890512600,7.4515126953125,-1.305389404296875,-0.5241241455078125,0.1141815185546875
1761383403900582700,7.461582763671875,-1.310150146484375,-0.4887542724609375,0.07086181640625
1761383403910651600,7.471651611328125,-1.3007049560546875,-0.4643096923828125,0.0359344482421875
1761383403920721400,7.481721435546875,-1.280609130859375,-0.455291748046875,0.009429931640625
1761383403930790700,7.491790771484375,-1.2349090576171875,-0.444732666015625,-0.0107269287109375
1761383403940860400,7.5018603515625,-1.173065185546875,-0.4336700439453125,-0.0250244140625
1761383403950930700,7.5119306640625,-1.10382080078125,-0.4333953857421875,-0.0364227294921875
1761383403960999400,7.52199951171875,-1.0267181396484375,-0.4418182373046875,-0.055694580078125
1761383403971069700,7.532069580078125,-0.9449005126953125,-0.4348602294921875,-0.0904693603515625
1761383403981139500,7.542139404296875,-0.870880126953125,-0.415679931640625,-0.126434326171875
1761383403991208400,7.55220849609375,-0.8147735595703125,-0.3954315185546875,-0.15191650390625
1761383404001278700,7.56227880859375,-0.762542724609375,-0.374114990234375,-0.1706085205078125
1761383404011348500,7.572348388671875,-0.72283935546875,-0.348724365234375,-0.17852783203125
1761383404021417700,7.582417724609375,-0.7056884765625,-0.3220977783203125,-0.1782684326171875
1761383404031487500,7.592487548828125,-0.711944580078125,-0.2957000732421875,-0.1760406494140625
1761383404041556500,7.602556396484375,-0.7199859619140625,-0.2637176513671875,-0.1685028076171875
1761383404051626500,7.61262646484375,-0.7244720458984375,-0.2298736572265625,-0.1593780517578125
1761383404061696500,7.622696533203125,-0.7351226806640625,-0.190582275390625,-0.1585845947265625
1761383404071765500,7.632765625,-0.7448577880859375,-0.161834716796875,-0.1625823974609375
1761383404081835500,7.64283544921875,-0.7635498046875,-0.151123046875,-0.168365478515625
1761383404091905500,7.652905517578125,-0.7674102783203125,-0.1491241455078125,-0.16827392578125
1761383404101974500,7.662974609375,-0.74859619140625,-0.1388092041015625,-0.1699371337890625
1761383404112044500,7.67304443359375,-0.716278076171875,-0.120941162109375,-0.17919921875
1761383404122114300,7.6831142578125,-0.685089111328125,-0.112884521484375,-0.18804931640625
1761383404132183600,7.69318359375,-0.656036376953125,-0.132080078125,-0.18756103515625
1761383404142253600,7.703253662109375,-0.634918212890625,-0.1719970703125,-0.175537109375
1761383404152323600,7.713323486328125,-0.644317626953125,-0.2261962890625,-0.14837646484375
1761383404162392600,7.723392578125,-0.6491851806640625,-0.2874298095703125,-0.1123504638671875
1761383404172462300,7.73346240234375,-0.6658935546875,-0.3434906005859375,-0.07098388671875
1761383404182531600,7.743531494140625,-0.724273681640625,-0.3949432373046875,-0.033966064453125
1761383404192601300,7.753601318359375,-0.7954254150390625,-0.4423370361328125,-0.016693115234375
1761383404202671600,7.763671630859375,-0.8490142822265625,-0.492645263671875,-0.020111083984375
1761383404212740400,7.773740234375,-0.919708251953125,-0.5426483154296875,-0.043548583984375
1761383404222810600,7.783810546875,-1.0113525390625,-0.57733154296875,-0.074981689453125
1761383404232880600,7.793880615234375,-1.0844268798828125,-0.593536376953125,-0.1020050048828125
1761383404242949400,7.803949462890625,-1.1131591796875,-0.5974273681640625,-0.1224365234375
1761383404253019600,7.81401953125,-1.11199951171875,-0.607513427734375,-0.1348419189453125
1761383404263089400,7.82408935546875,-1.1241455078125,-0.6376495361328125,-0.1252899169921875
1761383404273158700,7.83415869140625,-1.142974853515625,-0.675445556640625,-0.09759521484375
1761383404283228700,7.844228759765625,-1.155487060546875,-0.7060089111328125,-0.0750579833984375
1761383404293298400,7.85429833984375,-1.15606689453125,-0.705902099609375,-0.0650177001953125
1761383404303367700,7.86436767578125,-1.1494140625,-0.6742706298828125,-0.062469482421875
1761383404313435600,7.874435546875,-1.1508636474609375,-0.6602783203125,-0.0508880615234375
1761383404323504400,7.88450439453125,-1.1518096923828125,-0.69207763671875,-0.03314208984375
1761383404333574700,7.89457470703125,-1.139190673828125,-0.71710205078125,-0.0252685546875
1761383404343644700,7.904644775390625,-1.1272430419921875,-0.698760986328125,-0.033843994140625
1761383404353713400,7.91471337890625,-1.0923614501953125,-0.6439361572265625,-0.0514678955078125
1761383404363783700,7.92478369140625,-1.03619384765625,-0.5711212158203125,-0.05438232421875
1761383404373852400,7.934852294921875,-0.968841552734375,-0.4957275390625,-0.031494140625
1761383404383922700,7.944922607421875,-0.9203948974609375,-0.4410247802734375,0.003936767578125
1761383404393992400,7.954992431640625,-0.884429931640625,-0.4116668701171875,0.0440521240234375
1761383404404061400,7.9650615234375,-0.8614959716796875,-0.393463134765625,0.0829620361328125
1761383404414131700,7.975131591796875,-0.8367156982421875,-0.3862152099609375,0.11126708984375
1761383404424201500,7.985201416015625,-0.7796630859375,-0.3854827880859375,0.1274871826171875
1761383404434270700,7.995270751953125,-0.7215576171875,-0.39105224609375,0.1373291015625
1761383404444340500,8.005340576171875,-0.67608642578125,-0.403564453125,0.138336181640625
1761383404454410500,8.015410400390625,-0.6362457275390625,-0.410858154296875,0.1393890380859375
1761383404464479500,8.0254794921875,-0.598236083984375,-0.406494140625,0.147216796875
1761383404474549500,8.035549560546874,-0.56207275390625,-0.3949127197265625,0.161468505859375
1761383404484618500,8.045618408203126,-0.537567138671875,-0.3815460205078125,0.1861114501953125
1761383404494688500,8.0556884765625,-0.523681640625,-0.3678436279296875,0.20904541015625
1761383404504758500,8.065758544921875,-0.515594482421875,-0.3513031005859375,0.23284912109375
1761383404514827500,8.07582763671875,-0.5439453125,-0.34619140625,0.2666168212890625
1761383404524897500,8.0858974609375,-0.5894622802734375,-0.3669281005859375,0.3057708740234375
1761383404534967300,8.09596728515625,-0.6298370361328125,-0.3798980712890625,0.3263702392578125
1761383404545036500,8.10603662109375,-0.6643829345703125,-0.3647003173828125,0.33154296875
1761383404555106600,8.1161064453125,-0.67449951171875,-0.356048583984375,0.3336944580078125
1761383404565176600,8.126176513671876,-0.6688385009765625,-0.35858154296875,0.330657958984375
1761383404575245600,8.13624560546875,-0.7085723876953125,-0.35992431640625,0.3378143310546875
1761383404585315600,8.146315673828125,-0.79071044921875,-0.3933868408203125,0.3549652099609375
1761383404595384600,8.156384521484375,-0.9003143310546875,-0.447265625,0.3574371337890625
1761383404605454300,8.166454345703125,-1.034393310546875,-0.490081787109375,0.3332061767578125
1761383404615524600,8.176524658203125,-1.1142120361328125,-0.548675537109375,0.3087310791015625
1761383404625593300,8.18659326171875,-1.135345458984375,-0.59625244140625,0.2710418701171875
1761383404635663600,8.19666357421875,-1.1653900146484375,-0.5960540771484375,0.2308197021484375
1761383404645733600,8.206733642578126,-1.156280517578125,-0.54150390625,0.1794281005859375
1761383404655802400,8.21680224609375,-1.1391754150390625,-0.492645263671875,0.1386871337890625
1761383404665872600,8.22687255859375,-1.1786956787109375,-0.496368408203125,0.12841796875
1761383404675942400,8.2369423828125,-1.2438201904296875,-0.528411865234375,0.1253662109375
1761383404686011600,8.24701171875,-1.249847412109375,-0.53656005859375,0.1115875244140625
1761383404696081700,8.25708154296875,-1.2404022216796875,-0.515350341796875,0.0887451171875
1761383404706150700,8.267150634765626,-1.2549896240234375,-0.50848388671875,0.0715179443359375
1761383404716220700,8.277220703125,-1.280609130859375,-0.52099609375,0.0566864013671875
1761383404726290400,8.28729052734375,-1.2855987548828125,-0.5296478271484375,0.0332183837890625
1761383404736359700,8.297359619140625,-1.268218994140625,-0.51885986328125,-0.00982666015625
1761383404746429400,8.307429443359375,-1.236358642578125,-0.4878692626953125,-0.0713348388671875
1761383404756499500,8.31749951171875,-1.175048828125,-0.44049072265625,-0.12689208984375
1761383404766568400,8.327568359375,-1.1031036376953125,-0.4045257568359375,-0.1552276611328125
1761383404776638500,8.337638427734374,-1.0365142822265625,-0.3957977294921875,-0.158935546875
1761383404786708500,8.34770849609375,-0.9700164794921875,-0.408935546875,-0.142730712890625
1761383404796777500,8.357777587890626,-0.8960723876953125,-0.419586181640625,-0.127838134765625
1761383404806847500,8.367847412109375,-0.806427001953125,-0.41265869140625,-0.121551513671875
1761383404816916500,8.37791650390625,-0.725341796875,-0.3920440673828125,-0.115447998046875
1761383404826986500,8.387986572265625,-0.6749114990234375,-0.3740692138671875,-0.1142120361328125
1761383404837056500,8.398056396484375,-0.653961181640625,-0.35382080078125,-0.11920166015625
1761383404847125500,8.40812548828125,-0.6527099609375,-0.3271636962890625,-0.12921142578125
1761383404857195500,8.418195556640624,-0.6533203125,-0.3089752197265625,-0.1419677734375
1761383404867265500,8.428265625,-0.6826934814453125,-0.2934112548828125,-0.1503143310546875
1761383404877334500,8.43833447265625,-0.712615966796875,-0.282928466796875,-0.1652374267578125
1761383404887404500,8.448404541015625,-0.7362823486328125,-0.274505615234375,-0.1878662109375
1761383404897473500,8.4584736328125,-0.752716064453125,-0.2519378662109375,-0.217010498046875
1761383404907543300,8.468543212890625,-0.741119384765625,-0.2166595458984375,-0.247406005859375
1761383404917614300,8.4786142578125,-0.7295074462890625,-0.190643310546875,-0.26995849609375
1761383404927684600,8.4886845703125,-0.747222900390625,-0.17431640625,-0.2762908935546875
1761383404937753300,8.49875341796875,-0.7889556884765625,-0.1697998046875,-0.2673187255859375
1761383404947823600,8.50882373046875,-0.80389404296875,-0.1871490478515625,-0.23736572265625
1761383404957893600,8.5188935546875,-0.7879638671875,-0.2221832275390625,-0.211273193359375
1761383404967966000,8.528966064453124,-0.759857177734375,-0.2501220703125,-0.20123291015625
1761383404978036200,8.5390361328125,-0.7378997802734375,-0.249542236328125,-0.201812744140625
1761383404988106000,8.54910595703125,-0.777740478515625,-0.2635650634765625,-0.211944580078125
1761383404998175200,8.55917529296875,-0.8507537841796875,-0.31536865234375,-0.2197418212890625
1761383405008245200,8.569245361328125,-0.881805419921875,-0.3790740966796875,-0.2197723388671875
1761383405018315000,8.57931494140625,-0.902587890625,-0.417816162109375,-0.2355804443359375
1761383405028384300,8.58938427734375,-0.941558837890625,-0.3923492431640625,-0.2745819091796875
1761383405038454000,8.5994541015625,-0.902435302734375,-0.345855712890625,-0.2961578369140625
1761383405048523300,8.609523193359376,-0.8472442626953125,-0.3634185791015625,-0.268341064453125
1761383405058593000,8.619593017578126,-0.878875732421875,-0.4232330322265625,-0.2045745849609375
1761383405068663000,8.6296630859375,-0.957763671875,-0.48388671875,-0.12652587890625
1761383405078732000,8.63973193359375,-0.968475341796875,-0.544036865234375,-0.065826416015625
1761383405088802000,8.649802001953125,-0.9372100830078125,-0.5611114501953125,-0.0753631591796875
1761383405098872000,8.6598720703125,-0.903594970703125,-0.500274658203125,-0.160003662109375
1761383405108941000,8.669941162109374,-0.8615264892578125,-0.4090728759765625,-0.25006103515625
1761383405119011000,8.680010986328124,-0.8538055419921875,-0.41876220703125,-0.2143096923828125
1761383405129080000,8.690080078125,-0.9399566650390625,-0.5915985107421875,-0.0789337158203125
1761383405139150000,8.700150146484376,-1.031951904296875,-0.786224365234375,0.0362396240234375
1761383405149220400,8.710220458984375,-1.040802001953125,-0.9161224365234375,0.0963287353515625
1761383405159289000,8.7202890625,-1.0607757568359375,-0.9651031494140625,0.0991668701171875
1761383405169359000,8.730359130859375,-1.0711212158203125,-0.9098663330078125,0.0575714111328125
1761383405179429000,8.74042919921875,-1.0779266357421875,-0.794586181640625,0.006805419921875
1761383405189498000,8.750498046875,-1.0835418701171875,-0.667633056640625,-0.069854736328125
1761383405199568100,8.760568115234374,-1.084228515625,-0.561553955078125,-0.1268463134765625
1761383405209638100,8.77063818359375,-1.0937042236328125,-0.501312255859375,-0.1689300537109375
1761383405219707100,8.78070703125,-1.07708740234375,-0.4680633544921875,-0.1946258544921875
1761383405229777200,8.790777099609375,-1.0560302734375,-0.4343719482421875,-0.2002105712890625
1761383405239846100,8.80084619140625,-1.0400390625,-0.3998260498046875,-0.18896484375
1761383405249916200,8.810916259765625,-0.9886474609375,-0.37896728515625,-0.1703033447265625
1761383405259986200,8.820986083984375,-0.92767333984375,-0.3716583251953125,-0.132110595703125
1761383405270055200,8.83105517578125,-0.908355712890625,-0.373199462890625,-0.08099365234375
1761383405280125200,8.841125244140626,-0.8738250732421875,-0.3781280517578125,-0.03338623046875
1761383405290195200,8.8511953125,-0.8093719482421875,-0.3890533447265625,0.0169677734375
1761383405300264200,8.86126416015625,-0.772674560546875,-0.3973541259765625,0.06121826171875
1761383405310334200,8.871334228515625,-0.7353363037109375,-0.3794708251953125,0.09027099609375
1761383405320403200,8.8814033203125,-0.6797027587890625,-0.340850830078125,0.1058502197265625
1761383405330473200,8.89147314453125,-0.634674072265625,-0.31341552734375,0.124359130859375
1761383405340543000,8.90154296875,-0.6135711669921875,-0.307647705078125,0.1579437255859375
1761383405350612200,8.9116123046875,-0.6143035888671875,-0.3382415771484375,0.2089996337890625
1761383405360682000,8.921681884765626,-0.606597900390625,-0.3936920166015625,0.26202392578125
1761383405370752000,8.931751953125,-0.5925750732421875,-0.4334716796875,0.2920989990234375
1761383405380821200,8.9418212890625,-0.578338623046875,-0.4355010986328125,0.29071044921875
1761383405390891000,8.95189111328125,-0.602752685546875,-0.435272216796875,0.2923431396484375
1761383405400960300,8.961960205078125,-0.693939208984375,-0.468475341796875,0.3018035888671875
1761383405411030000,8.972030029296874,-0.8207244873046875,-0.5438079833984375,0.3173675537109375
1761383405421100000,8.98210009765625,-0.9228363037109375,-0.6334686279296875,0.3354949951171875
1761383405431169000,8.9921689453125,-0.981658935546875,-0.64923095703125,0.3140411376953125
1761383405441239000,9.002239013671876,-1.0233612060546875,-0.555908203125,0.2497711181640625
1761383405451309300,9.012309326171875,-1.0427703857421875,-0.4430389404296875,0.1755828857421875
1761383405461378000,9.0223779296875,-1.0604095458984375,-0.361541748046875,0.111541748046875
1761383405471448000,9.032447998046875,-1.1113128662109375,-0.3124847412109375,0.0772857666015625
1761383405481518000,9.04251806640625,-1.1921539306640625,-0.2865142822265625,0.0789337158203125
1761383405491587000,9.052587158203124,-1.252960205078125,-0.2844696044921875,0.082977294921875
1761383405501657000,9.062656982421874,-1.281829833984375,-0.2993927001953125,0.07080078125
1761383405511726000,9.07272607421875,-1.2824554443359375,-0.31121826171875,0.0582733154296875
1761383405521796400,9.08279638671875,-1.24334716796875,-0.31878662109375,0.0457611083984375
1761383405531866000,9.0928662109375,-1.1859130859375,-0.3251800537109375,0.001953125
1761383405541935000,9.10293505859375,-1.127349853515625,-0.3231353759765625,-0.0755462646484375
1761383405552005000,9.113005126953125,-1.050018310546875,-0.3250885009765625,-0.150787353515625
1761383405562075100,9.1230751953125,-0.9754180908203125,-0.3364105224609375,-0.202178955078125
1761383405572144000,9.13314404296875,-0.9281463623046875,-0.3571014404296875,-0.218780517578125
1761383405582214100,9.143214111328126,-0.90191650390625,-0.3830413818359375,-0.1973876953125
1761383405592283100,9.153283203125,-0.88330078125,-0.4005279541015625,-0.1595458984375
1761383405602353200,9.163353271484375,-0.8538970947265625,-0.3908538818359375,-0.1403350830078125
1761383405612423200,9.173423095703125,-0.840606689453125,-0.371826171875,-0.135345458984375
1761383405622492200,9.1834921875,-0.836669921875,-0.3663330078125,-0.1326141357421875
1761383405632562200,9.193562255859375,-0.8365478515625,-0.3685302734375,-0.125
1761383405642632000,9.2036318359375,-0.8472137451171875,-0.372772216796875,-0.1158447265625
1761383405652701200,9.213701171875,-0.8702850341796875,-0.3857879638671875,-0.114166259765625
1761383405662771200,9.223771240234376,-0.8954925537109375,-0.401519775390625,-0.1191864013671875
1761383405672841000,9.233841064453125,-0.91778564453125,-0.408111572265625,-0.1274871826171875
1761383405682910200,9.24391015625,-0.921417236328125,-0.404388427734375,-0.1288299560546875
1761383405692980000,9.25397998046875,-0.912322998046875,-0.3859405517578125,-0.13250732421875
1761383405703049200,9.26404931640625,-0.8950958251953125,-0.3625640869140625,-0.14239501953125
1761383405713119000,9.274118896484374,-0.8373870849609375,-0.33740234375,-0.16412353515625
1761383405723189000,9.28418896484375,-0.76495361328125,-0.308563232421875,-0.179718017578125
1761383405733258000,9.294258056640626,-0.7696685791015625,-0.297698974609375,-0.1746063232421875
1761383405743328000,9.304327880859375,-0.8241729736328125,-0.2920989990234375,-0.14788818359375
1761383405753398300,9.314398193359375,-0.827056884765625,-0.265411376953125,-0.1288604736328125
1761383405763467000,9.324467041015625,-0.7500762939453125,-0.2265777587890625,-0.1149444580078125
1761383405773537300,9.334537353515625,-0.63482666015625,-0.2267608642578125,-0.064483642578125
1761383405783606000,9.34460595703125,-0.5622711181640625,-0.2594451904296875,-0.024810791015625
1761383405793676000,9.354676025390624,-0.6316680908203125,-0.253753662109375,-0.0389862060546875
1761383405803746300,9.364746337890624,-0.857818603515625,-0.315399169921875,-0.051422119140625
1761383405813815000,9.37481494140625,-1.094024658203125,-0.48443603515625,-0.0325927734375
1761383405823885300,9.38488525390625,-1.206268310546875,-0.597015380859375,-0.0426177978515625
1761383405833955000,9.394955078125,-1.2784881591796875,-0.5361175537109375,-0.1364288330078125
1761383405844024000,9.405024169921875,-1.3077850341796875,-0.3932037353515625,-0.269317626953125
1761383405854094000,9.415093994140625,-1.2720947265625,-0.2843017578125,-0.3809661865234375
1761383405864163000,9.4251630859375,-1.234619140625,-0.2506561279296875,-0.4240570068359375
1761383405874233000,9.435233154296874,-1.2332916259765625,-0.2406005859375,-0.4328765869140625
1761383405884303000,9.44530322265625,-1.1992950439453125,-0.2430877685546875,-0.41033935546875
1761383405894372400,9.455372314453125,-1.127838134765625,-0.3009796142578125,-0.3640594482421875
1761383405904442000,9.465442138671875,-1.079620361328125,-0.4090576171875,-0.337554931640625
1761383405914512100,9.47551220703125,-1.053619384765625,-0.5106048583984375,-0.3337860107421875
1761383405924581000,9.4855810546875,-0.9915008544921875,-0.5367279052734375,-0.314056396484375
1761383405934651100,9.495651123046875,-0.923095703125,-0.4987945556640625,-0.2594451904296875
1761383405944720100,9.50572021484375,-0.912811279296875,-0.489471435546875,-0.1974029541015625
1761383405954790100,9.5157900390625,-0.91705322265625,-0.5650634765625,-0.15289306640625
1761383405964860200,9.525860107421876,-0.9204864501953125,-0.660980224609375,-0.141815185546875
1761383405974929400,9.535929443359375,-0.9097442626953125,-0.7022705078125,-0.1598968505859375
1761383405984999200,9.545999267578125,-0.92022705078125,-0.6990966796875,-0.1785736083984375
1761383405995069200,9.556069091796875,-0.9399871826171875,-0.66680908203125,-0.198455810546875
1761383406005138400,9.566138427734375,-0.93988037109375,-0.60052490234375,-0.213531494140625
1761383406015208200,9.576208251953124,-0.9323272705078125,-0.5150146484375,-0.2219085693359375
1761383406025277400,9.58627734375,-0.9116973876953125,-0.44732666015625,-0.2230072021484375
1761383406035347200,9.59634716796875,-0.8778076171875,-0.409027099609375,-0.2053680419921875
1761383406045417200,9.606417236328125,-0.8372039794921875,-0.386566162109375,-0.1761474609375
1761383406055486200,9.616486328125,-0.7808380126953125,-0.3698883056640625,-0.1422576904296875
1761383406065556200,9.62655615234375,-0.71624755859375,-0.364959716796875,-0.107147216796875
1761383406075626500,9.63662646484375,-0.65936279296875,-0.367645263671875,-0.07080078125
1761383406085695200,9.6466953125,-0.614532470703125,-0.3715972900390625,-0.0376129150390625
1761383406095765200,9.65676513671875,-0.5879669189453125,-0.3765869140625,-0.000946044921875
1761383406105835300,9.666835205078126,-0.5794525146484375,-0.380279541015625,0.03192138671875
1761383406115904300,9.676904296875,-0.591827392578125,-0.3809356689453125,0.049957275390625
1761383406125974300,9.686974365234375,-0.5928497314453125,-0.374420166015625,0.058868408203125
1761383406136043300,9.697043212890625,-0.5808868408203125,-0.3563385009765625,0.0513458251953125
1761383406146113300,9.70711328125,-0.5756378173828125,-0.3275909423828125,0.0307769775390625
1761383406156183300,9.717183349609375,-0.5747833251953125,-0.302734375,0.00408935546875
1761383406166252300,9.727252197265624,-0.5735321044921875,-0.289764404296875,-0.0213623046875
1761383406176322300,9.737322265625,-0.5774688720703125,-0.29144287109375,-0.031219482421875
1761383406186391300,9.747391357421876,-0.5875244140625,-0.307098388671875,-0.0312957763671875
1761383406196461300,9.75746142578125,-0.632293701171875,-0.3273468017578125,-0.021514892578125
1761383406206531300,9.76753125,-0.7100067138671875,-0.352294921875,-0.00018310546875
1761383406216600000,9.77760009765625,-0.755218505859375,-0.3835296630859375,0.0163421630859375
1761383406226670300,9.78767041015625,-0.8024444580078125,-0.4114532470703125,0.0161590576171875
1761383406236740400,9.797740234375,-0.88323974609375,-0.4286346435546875,0.0050048828125
1761383406246809300,9.807809326171874,-0.9536590576171875,-0.4522247314453125,-0.008697509765625
1761383406256879400,9.81787939453125,-1.024078369140625,-0.4735260009765625,-0.037078857421875
1761383406266949000,9.82794921875,-1.094268798828125,-0.4709625244140625,-0.10333251953125
1761383406277018400,9.838018310546875,-1.139129638671875,-0.433685302734375,-0.1903076171875
1761383406287088400,9.84808837890625,-1.1463623046875,-0.390716552734375,-0.2514801025390625
1761383406297157400,9.858157470703125,-1.1944427490234375,-0.3664398193359375,-0.275634765625
1761383406307227400,9.868227294921875,-1.29998779296875,-0.3345947265625,-0.291259765625
1761383406317297200,9.878297119140624,-1.40069580078125,-0.301788330078125,-0.2890777587890625
1761383406327366400,9.888366455078126,-1.44879150390625,-0.2870941162109375,-0.2742767333984375
1761383406337436200,9.898436279296876,-1.4798431396484375,-0.2801971435546875,-0.2471771240234375
1761383406347505400,9.90850537109375,-1.519134521484375,-0.272796630859375,-0.2101593017578125
1761383406357575200,9.9185751953125,-1.5165557861328125,-0.2359619140625,-0.1964874267578125
1761383406367645200,9.928645263671875,-1.4540557861328125,-0.1798858642578125,-0.2216796875
1761383406377714400,9.93871435546875,-1.396026611328125,-0.1429901123046875,-0.2411956787109375
1761383406387784200,9.9487841796875,-1.334259033203125,-0.1448974609375,-0.246490478515625
1761383406397854200,9.958854248046874,-1.2642364501953125,-0.1590118408203125,-0.250030517578125
1761383406407923200,9.968923095703126,-1.1836395263671875,-0.167205810546875,-0.250762939453125
1761383406417993200,9.9789931640625,-1.1128082275390625,-0.174957275390625,-0.2408599853515625
1761383406428062200,9.989062255859375,-1.03973388671875,-0.1921844482421875,-0.2301025390625
1761383406438132200,9.99913232421875,-0.96527099609375,-0.1963653564453125,-0.215576171875
1761383406448202500,10.009202392578125,-0.8943939208984375,-0.1801300048828125,-0.2065582275390625
1761383406458271200,10.019271240234374,-0.82550048828125,-0.1609039306640625,-0.2025909423828125
1761383406468341200,10.02934130859375,-0.76739501953125,-0.142364501953125,-0.198577880859375
1761383406478411300,10.039411376953124,-0.71820068359375,-0.1207275390625,-0.195953369140625
1761383406488480300,10.049480224609376,-0.68414306640625,-0.0951690673828125,-0.20111083984375
1761383406498550300,10.05955029296875,-0.621185302734375,-0.058197021484375,-0.218414306640625
1761383406508619300,10.069619384765625,-0.560333251953125,-0.0119476318359375,-0.2356719970703125
1761383406518689300,10.079689208984375,-0.5394287109375,0.0368194580078125,-0.2552490234375
1761383406528759300,10.08975927734375,-0.5393524169921875,0.0664520263671875,-0.271270751953125
1761383406538828300,10.099828369140624,-0.55621337890625,0.0760498046875,-0.27337646484375
1761383406548898300,10.109898193359374,-0.55181884765625,0.0782470703125,-0.2745819091796875
1761383406558968300,10.11996826171875,-0.543670654296875,0.0727996826171875,-0.2619476318359375
1761383406569037300,10.130037353515625,-0.5356903076171875,0.0121002197265625,-0.224365234375
1761383406579107300,10.140107421875,-0.4938812255859375,-0.1140594482421875,-0.1844024658203125
1761383406589176000,10.150176025390625,-0.523040771484375,-0.189697265625,-0.194244384765625
1761383406599246300,10.160246337890625,-0.64459228515625,-0.1627655029296875,-0.245391845703125
1761383406609316400,10.17031640625,-0.8146514892578125,-0.173919677734375,-0.2372283935546875
1761383406619385300,10.18038525390625,-1.0372772216796875,-0.240447998046875,-0.2098236083984375
1761383406629455400,10.190455322265626,-1.23406982421875,-0.2404327392578125,-0.219635009765625
1761383406639525000,10.200525146484376,-1.31298828125,-0.1656951904296875,-0.2906951904296875
1761383406649594400,10.210594482421875,-1.3122100830078125,-0.0951690673828125,-0.4156341552734375
1761383406659664400,10.220664306640625,-1.282257080078125,-0.0691986083984375,-0.5426483154296875
1761383406669733400,10.2307333984375,-1.268218994140625,-0.073028564453125,-0.6289825439453125
1761383406679803400,10.240803466796875,-1.29510498046875,-0.085784912109375,-0.69219970703125
1761383406689873200,10.250873046875,-1.291656494140625,-0.11480712890625,-0.708465576171875
1761383406699942400,10.2609423828125,-1.287689208984375,-0.157470703125,-0.6315765380859375
1761383406710012200,10.27101220703125,-1.3500823974609375,-0.247283935546875,-0.4682769775390625
1761383406720082200,10.281082275390625,-1.450958251953125,-0.427001953125,-0.2848052978515625
1761383406730151200,10.291151123046875,-1.505279541015625,-0.64007568359375,-0.1621246337890625
1761383406740221200,10.30122119140625,-1.5174102783203125,-0.77392578125,-0.0860443115234375
1761383406750290400,10.31129052734375,-1.5943756103515625,-0.768157958984375,-0.0652008056640625
1761383406760360200,10.321360107421874,-1.680145263671875,-0.689483642578125,-0.0851593017578125
1761383406770430200,10.33143017578125,-1.7210693359375,-0.6000823974609375,-0.140869140625
1761383406780499200,10.341499267578126,-1.7197113037109375,-0.49200439453125,-0.2548370361328125
1761383406790569200,10.3515693359375,-1.6824493408203125,-0.3927001953125,-0.3873748779296875
1761383406800639500,10.361639404296875,-1.5819091796875,-0.3233642578125,-0.4824981689453125
1761383406810708200,10.371708251953125,-1.4291534423828125,-0.2678070068359375,-0.5156402587890625
1761383406820778500,10.381778564453125,-1.26812744140625,-0.2247314453125,-0.4730682373046875
1761383406830847200,10.39184716796875,-1.1540679931640625,-0.201934814453125,-0.3604278564453125
1761383406840917200,10.401917236328124,-1.1653594970703125,-0.2022857666015625,-0.2026519775390625
1761383406850987300,10.4119873046875,-1.165252685546875,-0.1896820068359375,-0.08258056640625
1761383406861056300,10.42205615234375,-1.042633056640625,-0.140411376953125,-0.0170745849609375
1761383406871126300,10.432126220703125,-0.9382781982421875,-0.09112548828125,0.024566650390625
1761383406881195300,10.4421953125,-0.8851470947265625,-0.0659637451171875,0.058868408203125
1761383406891265300,10.452265380859375,-0.843048095703125,-0.067779541015625,0.0898590087890625
1761383406901335300,10.462335205078125,-0.809783935546875,-0.07171630859375,0.107330322265625
1761383406911404300,10.472404296875,-0.7649383544921875,-0.065216064453125,0.10693359375
1761383406921474300,10.482474365234374,-0.70556640625,-0.05938720703125,0.09515380859375
1761383406931544300,10.49254443359375,-0.64971923828125,-0.053375244140625,0.0755615234375
1761383406941613300,10.50261328125,-0.59649658203125,-0.04449462890625,0.048431396484375
1761383406951683300,10.512683349609375,-0.5342559814453125,-0.038299560546875,0.0199737548828125
1761383406961748200,10.522748291015626,-0.472869873046875,-0.036590576171875,-0.0033721923828125
1761383406971818200,10.532818359375,-0.42803955078125,-0.0390777587890625,-0.01983642578125
1761383406981888000,10.542887939453125,-0.399871826171875,-0.0501251220703125,-0.036590576171875
1761383406991957200,10.552957275390625,-0.382110595703125,-0.064300537109375,-0.0469207763671875
1761383407002027000,10.563027099609375,-0.39410400390625,-0.082183837890625,-0.0445404052734375
1761383407012097000,10.573096923828125,-0.4264984130859375,-0.10595703125,-0.028839111328125
1761383407022166300,10.583166259765624,-0.478759765625,-0.1390838623046875,0.0087127685546875
1761383407032236000,10.593236083984374,-0.5010528564453125,-0.1962738037109375,0.072265625
1761383407042305300,10.60330517578125,-0.5062408447265625,-0.3010406494140625,0.169036865234375
1761383407052375000,10.613375,-0.5746612548828125,-0.3906097412109375,0.2327117919921875
1761383407062445000,10.623445068359375,-0.7146759033203125,-0.3598480224609375,0.1912384033203125
1761383407072514000,10.63351416015625,-0.874114990234375,-0.3007354736328125,0.1376495361328125
1761383407082584000,10.643583984375,-1.0020294189453125,-0.3723907470703125,0.14215087890625
1761383407092653000,10.653653076171874,-1.1640472412109375,-0.5297088623046875,0.198028564453125
1761383407102723000,10.66372314453125,-1.3183441162109375,-0.586822509765625,0.251678466796875
1761383407112793000,10.67379296875,-1.3446807861328125,-0.4736328125,0.2260589599609375
1761383407122862000,10.683862060546875,-1.3031158447265625,-0.3343353271484375,0.1785736083984375
1761383407132932000,10.69393212890625,-1.2879486083984375,-0.2685394287109375,0.157958984375
1761383407143002400,10.70400244140625,-1.3356170654296875,-0.272796630859375,0.1467742919921875
1761383407153071000,10.714071044921875,-1.3289794921875,-0.3463287353515625,0.14495849609375
1761383407163141400,10.724141357421875,-1.271697998046875,-0.4680938720703125,0.1617431640625
1761383407173210000,10.734210205078124,-1.2837066650390625,-0.6051788330078125,0.184051513671875
1761383407183280000,10.744280029296876,-1.317169189453125,-0.746246337890625,0.2090606689453125
1761383407193350100,10.75435009765625,-1.3410491943359375,-0.8452606201171875,0.2261810302734375
1761383407203419100,10.764419189453125,-1.3429107666015625,-0.8603515625,0.207763671875
1761383407213489200,10.7744892578125,-1.2806854248046875,-0.8135528564453125,0.1595916748046875
1761383407223559200,10.78455908203125,-1.171234130859375,-0.7497406005859375,0.12969970703125
1761383407233628200,10.794628173828125,-1.1073150634765625,-0.6981048583984375,0.1273193359375
1761383407243698200,10.8046982421875,-1.087554931640625,-0.664154052734375,0.147308349609375
1761383407253767200,10.81476708984375,-1.042022705078125,-0.62615966796875,0.1615142822265625
1761383407263837200,10.824837158203126,-0.99224853515625,-0.57568359375,0.1638946533203125
1761383407273907200,10.8349072265625,-0.968231201171875,-0.5228729248046875,0.1450347900390625
1761383407283976200,10.84497607421875,-0.9644622802734375,-0.4741973876953125,0.11407470703125
1761383407294046200,10.855046142578125,-0.9425201416015625,-0.4181671142578125,0.0717926025390625
1761383407304116200,10.8651162109375,-0.91082763671875,-0.3505859375,0.017425537109375
1761383407314185200,10.875185302734375,-0.8597564697265625,-0.2912750244140625,-0.0396881103515625
1761383407324255200,10.885255126953124,-0.8031463623046875,-0.2659454345703125,-0.079833984375
1761383407334324200,10.89532421875,-0.7371673583984375,-0.2698516845703125,-0.0887451171875
1761383407344394200,10.905394287109376,-0.709228515625,-0.290069580078125,-0.0702972412109375
1761383407354464000,10.915464111328125,-0.7127227783203125,-0.3111419677734375,-0.0504608154296875
1761383407364533200,10.925533203125,-0.7071380615234375,-0.3309478759765625,-0.041168212890625
1761383407374603300,10.935603271484375,-0.6887359619140625,-0.3424072265625,-0.03668212890625
1761383407384672300,10.94567236328125,-0.690338134765625,-0.3510589599609375,-0.0224151611328125
1761383407394742300,10.9557421875,-0.72259521484375,-0.3653564453125,0.011505126953125
1761383407404812000,10.96581201171875,-0.739410400390625,-0.3706817626953125,0.033843994140625
1761383407414881300,10.97588134765625,-0.7314453125,-0.3592681884765625,0.0341339111328125
1761383407424951000,10.985950927734375,-0.7492218017578125,-0.358734130859375,0.022735595703125
1761383407435020300,10.996020263671875,-0.77862548828125,-0.3710174560546875,0.00347900390625
1761383407445090000,11.006090087890625,-0.7978668212890625,-0.3634796142578125,-0.0161590576171875
1761383407455160000,11.01616015625,-0.825927734375,-0.29217529296875,0.020782470703125
1761383407465229000,11.02622900390625,-1.016143798828125,-0.267791748046875,0.080841064453125
1761383407475299000,11.036299072265624,-1.024566650390625,-0.310699462890625,0.0381927490234375
1761383407485369000,11.046369140625,-0.995330810546875,-0.321746826171875,-0.0399017333984375
1761383407495438000,11.05643798828125,-1.0091400146484375,-0.3045196533203125,-0.08135986328125
1761383407505508000,11.066508056640625,-1.0432281494140625,-0.291015625,-0.09490966796875
1761383407515577000,11.0765771484375,-1.0453643798828125,-0.2985687255859375,-0.1016845703125
1761383407525647000,11.086647216796875,-1.0247802734375,-0.2857513427734375,-0.1044158935546875
1761383407535717400,11.09671728515625,-0.9912261962890625,-0.218292236328125,-0.1010284423828125
