time,seconds_elapsed,z,y,x
1761383396504426000,0.065426025390625,-0.1975114792585373,-0.34551772475242615,-0.1092495247721672
1761383396514496000,0.07549609375,-0.22133532166481018,-0.41248610615730286,-0.0004338289436418563
1761383396524566000,0.08556591796875,-0.2238520085811615,-0.45142072439193726,0.04923465847969055
1761383396534635000,0.095635009765625,-0.20445381104946136,-0.4881526231765747,0.06175950542092323
1761383396544705000,0.105705078125,-0.17030489444732666,-0.4815962016582489,0.05517776682972908
1761383396554775000,0.115775146484375,-0.12565965950489044,-0.40760424733161926,0.048886582255363464
1761383396564843800,0.12584375,-0.0837649405002594,-0.3034674823284149,0.03549514338374138
1761383396574914000,0.1359140625,-0.04488997533917427,-0.20215310156345367,-0.0034205641131848097
1761383396584982800,0.145982666015625,-0.0024740765802562237,-0.09219277650117874,-0.050035204738378525
1761383396595053000,0.156052978515625,0.04351072385907173,0.011402856558561325,-0.09892844408750534
1761383396605123000,0.166123046875,0.08920551091432571,0.08627337217330933,-0.14970320463180542
1761383396615192000,0.176192138671875,0.12847168743610382,0.11455640941858292,-0.18419726192951202
1761383396625262000,0.186261962890625,0.15471874177455902,0.10910278558731079,-0.19915491342544556
1761383396635331800,0.196331787109375,0.179955393075943,0.09328600764274597,-0.16584143042564392
1761383396645401000,0.206401123046875,0.20174138247966766,0.05220780894160271,-0.11842198669910431
1761383396655471000,0.21647119140625,0.21640607714653015,-0.021202223375439644,-0.04560024291276932
1761383396665540900,0.226540771484375,0.22210150957107544,-0.10661778599023819,0.03149321302771568
1761383396675610000,0.236610107421875,0.20435047149658203,-0.17160025238990784,0.10837840288877487
1761383396685679900,0.246679931640625,0.1753808706998825,-0.21113993227481842,0.17499898374080658
1761383396695749000,0.2567490234375,0.14207512140274048,-0.21194633841514587,0.233005553483963
1761383396705819000,0.26681884765625,0.11502858251333237,-0.17802512645721436,0.2799254059791565
1761383396715889000,0.276888916015625,0.09758754074573517,-0.15500476956367493,0.3079378604888916
1761383396725958000,0.2869580078125,0.09552519023418427,-0.1324741542339325,0.31509456038475037
1761383396736028000,0.29702783203125,0.11472924798727036,-0.1101030707359314,0.3252241611480713
1761383396746098000,0.307097900390625,0.13952140510082245,-0.09737449139356613,0.3246252238750458
1761383396756167000,0.3171669921875,0.16991713643074036,-0.1083989143371582,0.32421350479125977
1761383396766237000,0.32723681640625,0.1957487314939499,-0.10825642943382263,0.32330188155174255
1761383396776306000,0.337305908203125,0.20467405021190643,-0.06502453982830048,0.33545735478401184
1761383396786376000,0.3473759765625,0.19387492537498474,0.04080069437623024,0.3538965582847595
1761383396796446200,0.3574462890625,0.1600879430770874,0.16162565350532532,0.3490227162837982
1761383396806515000,0.367514892578125,0.11414282023906708,0.28409910202026367,0.3365173041820526
1761383396816585000,0.3775849609375,0.07830412685871124,0.4022851288318634,0.32358765602111816
1761383396826655000,0.387655029296875,0.04795261099934578,0.4754434823989868,0.30547255277633667
1761383396836724000,0.397723876953125,0.017057014629244804,0.4811019003391266,0.28359362483024597
1761383396846794000,0.4077939453125,-0.016140354797244072,0.49181926250457764,0.27630749344825745
1761383396856863000,0.417863037109375,-0.05482489988207817,0.5014660358428955,0.2879396378993988
1761383396866933000,0.42793310546875,-0.10395356267690659,0.515703022480011,0.321024626493454
1761383396877003000,0.4380029296875,-0.1630251407623291,0.5368362665176392,0.389311283826828
1761383396887072000,0.448072021484375,-0.2369169443845749,0.5209675431251526,0.4749569296836853
1761383396897142000,0.45814208984375,-0.3168698251247406,0.4325186610221863,0.5414634943008423
1761383396907212000,0.4682119140625,-0.4040771722793579,0.29712170362472534,0.572481095790863
1761383396917281000,0.478281005859375,-0.5112528800964355,0.13111726939678192,0.5573791265487671
1761383396927351000,0.48835107421875,-0.634209156036377,-0.04379728063941002,0.4742045998573303
1761383396937419800,0.498419677734375,-0.7301535606384277,-0.1821753978729248,0.34462636709213257
1761383396947490000,0.508489990234375,-0.7695595622062683,-0.27822843194007874,0.18426038324832916
1761383396957560600,0.518560546875,-0.746654748916626,-0.27609577775001526,0.019452527165412903
1761383396967629600,0.528629638671875,-0.6921257376670837,-0.14874766767024994,-0.11678547412157059
1761383396977699600,0.538699462890625,-0.6083458662033081,0.0669526681303978,-0.22176967561244965
1761383396987769600,0.54876953125,-0.5270744562149048,0.2878328561782837,-0.3019973933696747
1761383396997838600,0.558838623046875,-0.477219820022583,0.4602738618850708,-0.36536598205566406
1761383397007908600,0.56890869140625,-0.4638310372829437,0.5967779159545898,-0.40999817848205566
1761383397017977600,0.5789775390625,-0.4754136800765991,0.6848664879798889,-0.44511914253234863
1761383397028047600,0.589047607421875,-0.49819833040237427,0.6600074768066406,-0.4752272367477417
1761383397038117600,0.59911767578125,-0.528398334980011,0.5306231379508972,-0.4908434748649597
1761383397048186600,0.6091865234375,-0.5185195803642273,0.04174957796931267,-0.5129266977310181
1761383397058256600,0.619256591796875,-0.4016478359699249,-0.2551204562187195,-0.39175233244895935
1761383397068326700,0.62932666015625,-0.25003302097320557,-0.44061893224716187,-0.20633479952812195
1761383397078395600,0.639395751953125,-0.10997097194194794,-0.5939546823501587,-0.027278492227196693
1761383397088465700,0.649465576171875,-0.03200160712003708,-0.7326909899711609,0.09395872056484222
1761383397098534700,0.65953466796875,-0.05053587630391121,-0.8329702019691467,0.12895850837230682
1761383397108604700,0.669604736328125,-0.15408943593502045,-0.8709495663642883,0.08401660621166229
1761383397118674400,0.67967431640625,-0.3034176826477051,-0.7705398201942444,0.01962243765592575
1761383397128743700,0.68974365234375,-0.3973761200904846,-0.5095854997634888,-0.016581906005740166
1761383397138813400,0.6998134765625,-0.35970836877822876,-0.24870382249355316,-0.03917935863137245
1761383397148883500,0.709883544921875,-0.16267253458499908,-0.1355210691690445,-0.08090097457170486
1761383397158952700,0.71995263671875,0.1260349005460739,-0.20192326605319977,-0.11861426383256912
1761383397169022500,0.7300224609375,0.37926343083381653,-0.35991716384887695,-0.1351540982723236
1761383397179092700,0.7400927734375,0.4800768494606018,-0.5114643573760986,-0.09075919538736343
1761383397189161500,0.750161376953125,0.4106636941432953,-0.5731239914894104,0.02106533758342266
1761383397199231700,0.760231689453125,0.23282313346862793,-0.5551375150680542,0.17136695981025696
1761383397209300500,0.770300537109375,0.04815474525094032,-0.4970121681690216,0.3347393870353699
1761383397219370500,0.78037060546875,-0.08670054376125336,-0.43246325850486755,0.4731758236885071
1761383397229440800,0.790440673828125,-0.15782824158668518,-0.4215070307254791,0.5479917526245117
1761383397239509500,0.800509521484375,-0.1640896052122116,-0.4622672498226166,0.541778028011322
1761383397249579800,0.810579833984375,-0.13507287204265594,-0.5239124894142151,0.4552266299724579
1761383397259649500,0.8206494140625,-0.09648019820451736,-0.6006760001182556,0.30914878845214844
1761383397269718500,0.830718505859375,-0.06786560267210007,-0.6751108169555664,0.13217508792877197
1761383397279788500,0.84078857421875,-0.05054839327931404,-0.7217129468917847,-0.04152347519993782
1761383397289857500,0.850857421875,-0.027060113847255707,-0.7573135495185852,-0.20171794295310974
1761383397299927800,0.860927734375,0.010946124792098999,-0.778771162033081,-0.32351627945899963
1761383397309997600,0.87099755859375,0.0404299795627594,-0.7567715644836426,-0.39302346110343933
1761383397320066800,0.88106689453125,0.04921681433916092,-0.7274932861328125,-0.43191784620285034
1761383397330136600,0.891136474609375,0.045934733003377914,-0.7124909162521362,-0.4424794316291809
1761383397340206600,0.90120654296875,0.029805831611156464,-0.6920977830886841,-0.43545427918434143
1761383397350275600,0.911275634765625,0.008547415025532246,-0.6820472478866577,-0.4264778196811676
1761383397360345600,0.921345703125,-0.015868712216615677,-0.6788491010665894,-0.4160584509372711
1761383397370414600,0.93141455078125,-0.04276557266712189,-0.6562361717224121,-0.39212143421173096
1761383397380484600,0.941484619140625,-0.059248942881822586,-0.6405450701713562,-0.3531487286090851
1761383397390554600,0.9515546875,-0.059233494102954865,-0.6507532596588135,-0.3022328317165375
1761383397400623600,0.96162353515625,-0.04946501925587654,-0.710493803024292,-0.2515946924686432
1761383397410693600,0.971693603515625,-0.06102899834513664,-0.7809019684791565,-0.2123974859714508
1761383397420763600,0.981763671875,-0.10927934944629669,-0.8399817943572998,-0.1732756495475769
1761383397430832600,0.99183251953125,-0.1738298535346985,-0.8333667516708374,-0.1331162452697754
1761383397440902700,1.001902587890625,-0.24625717103481293,-0.7538508772850037,-0.09181301295757294
1761383397450972700,1.01197265625,-0.30861350893974304,-0.6115059852600098,-0.05518975108861923
1761383397461041700,1.022041748046875,-0.36296728253364563,-0.424244225025177,-0.04182600975036621
1761383397471111400,1.032111328125,-0.3879096508026123,-0.2205779105424881,-0.05323472619056702
1761383397481180700,1.0421806640625,-0.3697226643562317,-0.015033011324703693,-0.0892593041062355
1761383397491250400,1.05225048828125,-0.30526429414749146,0.14045271277427673,-0.14850878715515137
1761383397501320700,1.06232080078125,-0.2031019777059555,0.25770050287246704,-0.2033400684595108
1761383397511389400,1.072389404296875,-0.08439184725284576,0.3608793616294861,-0.24542680382728577
1761383397521459500,1.08245947265625,0.017800036817789078,0.38831791281700134,-0.2971017062664032
1761383397531529700,1.09252978515625,0.07557038962841034,0.32773950695991516,-0.35828331112861633
1761383397541598500,1.102598388671875,0.08328849822282791,0.2302161604166031,-0.4126264452934265
1761383397551668700,1.112668701171875,0.054782554507255554,0.0689907819032669,-0.4636179804801941
1761383397561737500,1.122737548828125,0.021470138803124428,-0.09789806604385376,-0.4683360457420349
1761383397571807700,1.132807861328125,-0.019533753395080566,-0.16583743691444397,-0.4002336859703064
1761383397581877800,1.142877685546875,-0.06912846863269806,-0.12259462475776672,-0.28585386276245117
1761383397591946500,1.152946533203125,-0.09860193729400635,0.03210999816656113,-0.16493089497089386
1761383397602016800,1.163016845703125,-0.07184063643217087,0.22236064076423645,-0.061594653874635696
1761383397612086500,1.17308642578125,-0.005703159607946873,0.3998028039932251,-0.003397927153855562
1761383397622155800,1.18315576171875,0.0731264054775238,0.4974100589752197,-0.002019741339609027
1761383397632225500,1.1932255859375,0.14525839686393738,0.5429684519767761,-0.02454901859164238
1761383397642294500,1.20329443359375,0.20390678942203522,0.53946852684021,-0.057383131235837936
1761383397652364800,1.21336474609375,0.22799615561962128,0.46676531434059143,-0.08619587123394012
1761383397662434600,1.2234345703125,0.2180311381816864,0.37699228525161743,-0.11540835350751877
1761383397672503800,1.23350390625,0.18851958215236664,0.30066582560539246,-0.14346128702163696
1761383397682573600,1.243573486328125,0.15809109807014465,0.270293265581131,-0.18193571269512177
1761383397692643600,1.2536435546875,0.13351625204086304,0.27438709139823914,-0.21875391900539398
1761383397702712600,1.263712646484375,0.12360769510269165,0.29895395040512085,-0.24077719449996948
1761383397712782600,1.273782470703125,0.12034345418214798,0.37103399634361267,-0.22618679702281952
1761383397722852600,1.2838525390625,0.1142384260892868,0.4781476557254791,-0.20585942268371582
1761383397732921600,1.293921630859375,0.12157170474529266,0.5704928040504456,-0.1981293261051178
1761383397742991600,1.30399169921875,0.15115569531917572,0.6333231329917908,-0.2199653834104538
1761383397753061600,1.3140615234375,0.1961042582988739,0.6673154830932617,-0.2801932990550995
1761383397763130600,1.324130615234375,0.24345339834690094,0.6593451499938965,-0.37180978059768677
1761383397773200400,1.334200439453125,0.28913912177085876,0.6455031037330627,-0.4780459403991699
1761383397783269600,1.34426953125,0.33741453289985657,0.6415102481842041,-0.5784958600997925
1761383397793339600,1.354339599609375,0.3892532289028168,0.658788800239563,-0.6508185267448425
1761383397803409700,1.36440966796875,0.4482877850532532,0.6787689328193665,-0.6751779317855835
1761383397813478700,1.374478759765625,0.5133445262908936,0.6814022660255432,-0.6663873195648193
1761383397823548700,1.384548583984375,0.5760060548782349,0.6844550371170044,-0.6185335516929626
1761383397833618700,1.39461865234375,0.6227743625640869,0.6750295758247375,-0.5378704071044922
1761383397843687400,1.4046875,0.6329361796379089,0.6383647918701172,-0.43354159593582153
1761383397853757700,1.4147578125,0.6016935706138611,0.5821830034255981,-0.3178701102733612
1761383397863826400,1.424826416015625,0.5268512964248657,0.5057137608528137,-0.19535937905311584
1761383397873896700,1.434896728515625,0.41284987330436707,0.4032963216304779,-0.0863327607512474
1761383397883966700,1.444966796875,0.2805296778678894,0.28440484404563904,0.00270630419254303
1761383397894035500,1.455035400390625,0.15722131729125977,0.1555405855178833,0.07054181396961212
1761383397904105700,1.465105712890625,0.07829879969358444,0.004968393128365278,0.1145034059882164
1761383397914175500,1.475175537109375,0.04222015663981438,-0.15638774633407593,0.14889973402023315
1761383397924244700,1.48524462890625,0.024572720751166344,-0.2973187565803528,0.17575904726982117
1761383397934314800,1.495314697265625,0.024152208119630814,-0.3813806474208832,0.20773935317993164
1761383397944384500,1.505384521484375,0.043422576040029526,-0.39770635962486267,0.2516820430755615
1761383397954457600,1.51545751953125,0.07527051866054535,-0.39831462502479553,0.3214366137981415
1761383397964527600,1.525527587890625,0.1153859794139862,-0.3199300765991211,0.4320398271083832
1761383397974597600,1.53559765625,0.13282649219036102,-0.21036282181739807,0.5489984154701233
1761383397984666600,1.54566650390625,0.09337868541479111,-0.13478897511959076,0.5947051644325256
1761383397994736600,1.555736572265625,0.0048951562494039536,-0.12307319790124893,0.5480191707611084
1761383398004805600,1.5658056640625,-0.11037684231996536,-0.2575407326221466,0.3997652530670166
1761383398014875600,1.575875732421875,-0.2317890226840973,-0.5381262898445129,0.20454008877277374
1761383398024945400,1.5859453125,-0.34079378843307495,-0.8761227130889893,0.03268390893936157
1761383398035014700,1.5960146484375,-0.42656436562538147,-1.1962522268295288,-0.06597475707530975
1761383398045084700,1.606084716796875,-0.5107905864715576,-1.433886170387268,-0.09044015407562256
1761383398055154700,1.61615478515625,-0.5805661678314209,-1.5490542650222778,-0.04065448418259621
1761383398065223700,1.6262236328125,-0.6337982416152954,-1.4829490184783936,0.08399450033903122
1761383398075293400,1.63629345703125,-0.6662834882736206,-1.2614903450012207,0.23657099902629852
1761383398085363700,1.64636376953125,-0.695023775100708,-0.96474289894104,0.3647627830505371
1761383398095432400,1.656432373046875,-0.7395406365394592,-0.7051099538803101,0.41667070984840393
1761383398105502700,1.666502685546875,-0.7899231314659119,-0.542893648147583,0.4018419682979584
1761383398115571500,1.676571533203125,-0.8036277890205383,-0.45257893204689026,0.3566206991672516
1761383398125641500,1.686641357421875,-0.740522027015686,-0.39285939931869507,0.30643850564956665
1761383398135711700,1.696711669921875,-0.619556725025177,-0.38827717304229736,0.25817909836769104
1761383398145780500,1.706780517578125,-0.5090057253837585,-0.45849087834358215,0.19930139183998108
1761383398155850800,1.716850830078125,-0.4396388828754425,-0.5693537592887878,0.12221778929233551
1761383398165920500,1.72692041015625,-0.3952048420906067,-0.6428822875022888,0.03838733583688736
1761383398175989500,1.736989501953125,-0.34823015332221985,-0.6467326879501343,-0.030069218948483467
1761383398186059800,1.747059814453125,-0.3146575391292572,-0.5904955267906189,-0.0782090499997139
1761383398196129500,1.757129638671875,-0.31131768226623535,-0.5061902403831482,-0.10446701943874359
1761383398206198800,1.76719873046875,-0.32810091972351074,-0.44411832094192505,-0.1271752566099167
1761383398216268500,1.7772685546875,-0.3386733829975128,-0.4113936722278595,-0.1466405689716339
1761383398226338600,1.787338623046875,-0.32253116369247437,-0.4174736738204956,-0.1531919538974762
1761383398236407600,1.797407470703125,-0.27211248874664307,-0.4457172751426697,-0.1483529806137085
1761383398246477600,1.8074775390625,-0.19504033029079437,-0.4417417347431183,-0.10733257979154587
1761383398256546600,1.817546630859375,-0.13096360862255096,-0.39845922589302063,-0.046899329870939255
1761383398266616600,1.827616455078125,-0.10771874338388443,-0.3064632713794708,0.02641988918185234
1761383398276686600,1.8376865234375,-0.12994281947612762,-0.16595488786697388,0.09465406835079193
1761383398286755600,1.847755615234375,-0.1783396452665329,-0.014650581404566765,0.14855459332466125
1761383398296825600,1.85782568359375,-0.22419022023677826,0.1209930032491684,0.17371080815792084
1761383398306895600,1.8678955078125,-0.25983718037605286,0.2514365017414093,0.16905640065670013
1761383398316964600,1.877964599609375,-0.27710404992103577,0.36322852969169617,0.14613589644432068
1761383398327034600,1.88803466796875,-0.26752278208732605,0.44927501678466797,0.12374457716941833
1761383398337104600,1.898104736328125,-0.21886283159255981,0.47897884249687195,0.09596195071935654
1761383398347173600,1.908173583984375,-0.1224188581109047,0.4788858890533447,0.08894931524991989
1761383398357243600,1.91824365234375,0.01985972560942173,0.43508222699165344,0.09755851328372955
1761383398367313700,1.928313720703125,0.18214237689971924,0.34436270594596863,0.13202834129333496
1761383398377382400,1.93838232421875,0.338801771402359,0.23556911945343018,0.19130125641822815
1761383398387452700,1.94845263671875,0.45865118503570557,0.1174565851688385,0.258070170879364
1761383398397521400,1.958521484375,0.5288137793540955,0.06874444335699081,0.34370970726013184
1761383398407591700,1.968591796875,0.5726084113121033,0.1844121813774109,0.46135032176971436
1761383398417661700,1.97866162109375,0.6062790155410767,0.4245164096355438,0.5992658138275146
1761383398427730700,1.988730712890625,0.6407948732376099,0.6935449242591858,0.7222695350646973
1761383398437800700,1.99880078125,0.6605449318885803,0.8906697034835815,0.7811506986618042
1761383398447870700,2.00887060546875,0.6882063746452332,0.9854942560195923,0.7454454302787781
1761383398457939700,2.018939697265625,0.7196944952011108,0.9593558311462402,0.6236289739608765
1761383398468009700,2.029009765625,0.7501229643821716,0.8226525783538818,0.4425409436225891
1761383398478079500,2.03907958984375,0.7906549572944641,0.6550518870353699,0.2549492120742798
1761383398488148700,2.049148681640625,0.8343052268028259,0.4395001530647278,0.0885317325592041
1761383398498218500,2.059218505859375,0.8622937202453613,0.2069004476070404,-0.031026093289256096
1761383398508288500,2.06928857421875,0.8778596520423889,-0.0003837615076918155,-0.09981261193752289
1761383398518357500,2.079357421875,0.884285569190979,-0.11258140206336975,-0.12130033224821091
1761383398528427500,2.089427490234375,0.8903458714485168,-0.1098972037434578,-0.10127175599336624
1761383398538497800,2.099497802734375,0.8950362205505371,0.04791799187660217,-0.05643797665834427
1761383398548566500,2.10956640625,0.8700374364852905,0.2712264358997345,-0.030909713357686996
1761383398558636500,2.119636474609375,0.814936637878418,0.39665812253952026,-0.07643565535545349
1761383398568705500,2.12970556640625,0.7324721217155457,0.3809654712677002,-0.1878221035003662
1761383398578775600,2.139775634765625,0.6381919384002686,0.27542492747306824,-0.3313046991825104
1761383398588845800,2.149845703125,0.5530802011489868,0.1562199592590332,-0.4454198181629181
1761383398598914600,2.15991455078125,0.489848256111145,0.10033512860536575,-0.49066826701164246
1761383398608984800,2.16998486328125,0.44527867436408997,0.12373818457126617,-0.4704154431819916
1761383398619054600,2.1800546875,0.4220132827758789,0.2274342179298401,-0.39182981848716736
1761383398629123600,2.19012353515625,0.4318419396877289,0.3998541831970215,-0.27634769678115845
1761383398639193600,2.200193603515625,0.4776134490966797,0.6184824109077454,-0.14155793190002441
1761383398649263600,2.210263671875,0.5331264734268188,0.8117954134941101,-0.024880582466721535
1761383398659332600,2.22033251953125,0.58085036277771,0.9313511252403259,0.054667506366968155
1761383398669402600,2.230402587890625,0.6267898678779602,0.9852734804153442,0.09810899198055267
1761383398679472600,2.24047265625,0.6656163334846497,0.9711592197418213,0.11990616470575333
1761383398689541600,2.250541748046875,0.7000718116760254,0.9287670254707336,0.13115829229354858
1761383398699611600,2.260611572265625,0.7202625870704651,0.8876097202301025,0.14318938553333282
1761383398709681400,2.270681396484375,0.7202825546264648,0.8598822355270386,0.16489547491073608
1761383398719750700,2.280750732421875,0.7012785077095032,0.8573037981987,0.21689821779727936
1761383398729820700,2.290820556640625,0.662594199180603,0.8357774615287781,0.2950343191623688
1761383398739889700,2.3008896484375,0.5923948884010315,0.7538104057312012,0.39036455750465393
1761383398749959700,2.310959716796875,0.48784422874450684,0.6476421356201172,0.5048621296882629
1761383398760029400,2.321029541015625,0.35798290371894836,0.5685489177703857,0.6133973598480225
1761383398770098700,2.3310986328125,0.2267543226480484,0.483492910861969,0.6885802745819092
1761383398780168400,2.34116845703125,0.1330278217792511,0.38963350653648376,0.7324603796005249
1761383398790238700,2.35123876953125,0.09413102269172668,0.30989792943000793,0.7578922510147095
1761383398800307500,2.361307373046875,0.09674598276615143,0.2373664826154709,0.7681898474693298
1761383398810377500,2.37137744140625,0.11783209443092346,0.16369572281837463,0.7676359415054321
1761383398820447700,2.38144775390625,0.14370709657669067,0.13306324183940887,0.7731643915176392
1761383398830516500,2.3915166015625,0.18427316844463348,0.13902446627616882,0.7783487439155579
1761383398840586800,2.401586669921875,0.22075581550598145,0.1414886862039566,0.7672260999679565
1761383398850656500,2.411656494140625,0.22887365520000458,0.11793968826532364,0.7151607275009155
1761383398860725800,2.421725830078125,0.16639670729637146,0.07259537279605865,0.6160285472869873
1761383398870795800,2.431795654296875,0.01901363767683506,-0.09113497287034988,0.45674756169319153
1761383398880865500,2.441865478515625,-0.18269364535808563,-0.37593767046928406,0.2726192772388458
1761383398890934800,2.451934814453125,-0.40769240260124207,-0.6831796169281006,0.10900744050741196
1761383398901004500,2.462004638671875,-0.6074888706207275,-0.8714454174041748,-0.021144432947039604
1761383398911074600,2.472074462890625,-0.7167162895202637,-0.8909104466438293,-0.09568791091442108
1761383398921143600,2.4821435546875,-0.6998446583747864,-0.7006624937057495,-0.07899521291255951
1761383398931213600,2.492213623046875,-0.5830059051513672,-0.3935459554195404,0.01991858147084713
1761383398941282600,2.502282470703125,-0.43015697598457336,-0.10487981140613556,0.15640345215797424
1761383398951348000,2.512347900390625,-0.30442142486572266,0.05389172583818436,0.2904214560985565
1761383398961418200,2.522418212890625,-0.2155141830444336,0.0496908575296402,0.39778783917427063
1761383398971487000,2.532487060546875,-0.12260154634714127,-0.052743904292583466,0.4847472608089447
1761383398981557200,2.54255712890625,-0.02106880024075508,-0.16735729575157166,0.5743908286094666
1761383398991627300,2.552627197265625,0.07766709476709366,-0.2646433711051941,0.6718276739120483
1761383399001696000,2.562696044921875,0.1392657458782196,-0.3578944802284241,0.7637109756469727
1761383399011766300,2.572766357421875,0.1554793417453766,-0.4118511974811554,0.7887985110282898
1761383399021836000,2.5828359375,0.16229143738746643,-0.4340853989124298,0.737450897693634
1761383399031905300,2.5929052734375,0.17877213656902313,-0.4431753158569336,0.6215415596961975
1761383399041975000,2.60297509765625,0.18721462786197662,-0.4421020448207855,0.4499296247959137
1761383399052045000,2.613045166015625,0.17474624514579773,-0.47350603342056274,0.2196284979581833
1761383399062114000,2.623114013671875,0.16233643889427185,-0.5148862600326538,-0.03801396116614342
1761383399072184000,2.63318408203125,0.1788371205329895,-0.5254813432693481,-0.2759524881839752
1761383399082254000,2.643254150390625,0.24650564789772034,-0.4405832588672638,-0.449458509683609
1761383399092323000,2.653322998046875,0.3580968976020813,-0.3177468180656433,-0.561795175075531
1761383399102393000,2.66339306640625,0.49087411165237427,-0.15650252997875214,-0.6028262376785278
1761383399112462000,2.673462158203125,0.5959986448287964,0.00977326836436987,-0.5983563661575317
1761383399122532000,2.683531982421875,0.6512110829353333,0.18073809146881104,-0.5559367537498474
1761383399132602000,2.69360205078125,0.6570007801055908,0.3687213063240051,-0.4765271246433258
1761383399142671000,2.703671142578125,0.6198986768722534,0.5436185598373413,-0.3718254864215851
1761383399152741000,2.7137412109375,0.5558933019638062,0.6752415299415588,-0.27365365624427795
1761383399162811100,2.72381103515625,0.48373472690582275,0.7341653108596802,-0.19160804152488708
1761383399172880100,2.733880126953125,0.4195227026939392,0.7622228264808655,-0.12297385931015015
1761383399182950100,2.7439501953125,0.3856448829174042,0.7602304816246033,-0.06518726050853729
1761383399193020200,2.754020263671875,0.41870325803756714,0.7213358283042908,-0.017647968605160713
1761383399203089000,2.7640888671875,0.5140204429626465,0.6871442794799805,0.024206802248954773
1761383399213159200,2.7741591796875,0.6553344130516052,0.6790280342102051,0.06464584171772003
1761383399223229200,2.784229248046875,0.7988995909690857,0.68956059217453,0.10169999301433563
1761383399233298200,2.794298095703125,0.9137737154960632,0.7281274199485779,0.1187380999326706
1761383399243368200,2.8043681640625,0.9991676807403564,0.7853683233261108,0.13345685601234436
1761383399253438000,2.81443798828125,1.0441855192184448,0.8095165491104126,0.13689100742340088
1761383399263507200,2.824507080078125,1.0413849353790283,0.7861089706420898,0.11945715546607971
1761383399273577200,2.8345771484375,1.0091686248779297,0.740828812122345,0.08880656957626343
1761383399283647000,2.84464697265625,0.9603793025016785,0.7037972807884216,0.033061280846595764
1761383399293716200,2.85471630859375,0.9245632290840149,0.6783478856086731,-0.021748971194028854
1761383399303786000,2.864785888671875,0.9147495031356812,0.6721035838127136,-0.06754682213068008
1761383399313856000,2.87485595703125,0.9446213841438293,0.6327582597732544,-0.10986711084842682
1761383399323925000,2.884925048828125,1.0163326263427734,0.5678554773330688,-0.10991477966308594
1761383399333995000,2.8949951171875,1.111198902130127,0.4991208612918854,-0.051424842327833176
1761383399344064000,2.90506396484375,1.2046175003051758,0.4694859981536865,0.06006919592618942
1761383399354134000,2.915134033203125,1.2731119394302368,0.5045025944709778,0.19614580273628235
1761383399364204300,2.925204345703125,1.3057838678359985,0.5315245985984802,0.3086625039577484
1761383399374273000,2.93527294921875,1.3283642530441284,0.5495611429214478,0.36969149112701416
1761383399384343000,2.945343017578125,1.3585830926895142,0.5646529793739319,0.3865985870361328
1761383399394413000,2.9554130859375,1.3809856176376343,0.5439280271530151,0.35508114099502563
1761383399404482000,2.96548193359375,1.3669239282608032,0.5148391127586365,0.2731953263282776
1761383399414552300,2.97555224609375,1.2955561876296997,0.4647682011127472,0.13676689565181732
1761383399424622000,2.9856220703125,1.1919914484024048,0.33491435647010803,-0.06516968458890915
1761383399434691000,2.995691162109375,1.0666027069091797,0.15244147181510925,-0.3104209899902344
1761383399444761000,3.005760986328125,0.9592527747154236,-0.027365311980247498,-0.586231529712677
1761383399454831000,3.0158310546875,0.9116091132164001,-0.1374654471874237,-0.8410081267356873
1761383399464900000,3.025900146484375,0.938607394695282,-0.13026666641235352,-1.0441484451293945
1761383399474970000,3.03597021484375,1.0340335369110107,0.01775635965168476,-1.1529098749160767
1761383399485040000,3.0460400390625,1.168869972229004,0.27320462465286255,-1.1562750339508057
1761383399495109000,3.056109130859375,1.311294436454773,0.580923855304718,-1.0479354858398438
1761383399505179100,3.06617919921875,1.4318150281906128,0.8627744317054749,-0.8627457022666931
1761383399515249000,3.076248779296875,1.5034353733062744,1.0816383361816406,-0.6372579336166382
1761383399525318100,3.086318115234375,1.5154023170471191,1.1744422912597656,-0.3922032117843628
1761383399535388000,3.096387939453125,1.4729808568954468,1.1589975357055664,-0.16782228648662567
1761383399545458200,3.106458251953125,1.3981404304504395,1.0750364065170288,0.01432354561984539
1761383399555527200,3.116527099609375,1.3129147291183472,0.9740767478942871,0.16699618101119995
1761383399565597200,3.12659716796875,1.2279022932052612,0.8869724273681641,0.273283988237381
1761383399575666200,3.136666259765625,1.1736092567443848,0.8085266351699829,0.32845059037208557
1761383399585736000,3.14673583984375,1.1716992855072021,0.7423015236854553,0.340072363615036
1761383399595806200,3.15680615234375,1.231335163116455,0.683368980884552,0.3224233090877533
1761383399605875000,3.166875,1.3396028280258179,0.652429461479187,0.301972359418869
1761383399615945200,3.1769453125,1.4795756340026855,0.6839380860328674,0.3115754723548889
1761383399626015200,3.18701513671875,1.6048927307128906,0.6971955895423889,0.3396894037723541
1761383399636084000,3.197083984375,1.676794171333313,0.6597614288330078,0.38956400752067566
1761383399646154200,3.207154296875,1.704245686531067,0.6350136995315552,0.45985841751098633
1761383399656224000,3.21722412109375,1.7025058269500732,0.6157745122909546,0.5182964205741882
1761383399666293200,3.227293212890625,1.6951110363006592,0.5863329768180847,0.5595727562904358
1761383399676363300,3.23736328125,1.674332857131958,0.539158284664154,0.5668905973434448
1761383399686433000,3.24743310546875,1.6340450048446655,0.46754190325737,0.5413378477096558
1761383399696502300,3.257502197265625,1.552399754524231,0.3907211422920227,0.4927409887313843
1761383399706572000,3.267572021484375,1.4312208890914917,0.31831780076026917,0.41683822870254517
1761383399716642000,3.27764208984375,1.3016631603240967,0.24478791654109955,0.3300447463989258
1761383399726711000,3.2877109375,1.2346140146255493,0.2524687349796295,0.2663717567920685
1761383399736781000,3.297781005859375,1.2379837036132812,0.360812783241272,0.24642015993595123
1761383399746851300,3.307851318359375,1.2892969846725464,0.5465123653411865,0.2703494727611542
1761383399756920000,3.317920166015625,1.3627309799194336,0.773931622505188,0.3234558403491974
1761383399766990000,3.327989990234375,1.4186639785766602,0.9554542899131775,0.362748384475708
1761383399777060000,3.33806005859375,1.423129916191101,1.0842572450637817,0.37093520164489746
1761383399787129000,3.348129150390625,1.3858329057693481,1.1701503992080688,0.35460734367370605
1761383399797199000,3.35819921875,1.3112366199493408,1.1871235370635986,0.30491331219673157
1761383399807269000,3.36826904296875,1.225002408027649,1.1757581233978271,0.2375883162021637
1761383399817338000,3.378338134765625,1.1412798166275024,1.1399171352386475,0.15670865774154663
1761383399827408100,3.388408203125,1.0771749019622803,1.097525715827942,0.07138416916131973
1761383399837477000,3.39847705078125,1.0195422172546387,1.0818588733673096,-0.00424161646515131
1761383399847547100,3.408547119140625,0.9905904531478882,1.0799355506896973,-0.07670915871858597
1761383399857617200,3.4186171875,0.9940972924232483,1.0873308181762695,-0.14377766847610474
1761383399867686100,3.42868603515625,1.0339866876602173,1.1280031204223633,-0.20027317106723785
1761383399877756200,3.438756103515625,1.1172131299972534,1.2103222608566284,-0.253108412027359
1761383399887826200,3.448826171875,1.2424581050872803,1.3031227588653564,-0.3021973967552185
1761383399897895200,3.458895263671875,1.397727370262146,1.3458449840545654,-0.36510953307151794
1761383399907965200,3.468965087890625,1.552492380142212,1.3245580196380615,-0.4298725426197052
1761383399918035000,3.479034912109375,1.6553248167037964,1.2401806116104126,-0.4948613941669464
1761383399928104200,3.489104248046875,1.6890206336975098,1.1381841897964478,-0.5332985520362854
1761383399938174000,3.499174072265625,1.656929850578308,1.0570597648620605,-0.5429889559745789
1761383399948244000,3.509243896484375,1.596644639968872,1.0012457370758057,-0.5281855463981628
1761383399958313000,3.51931298828125,1.518412709236145,0.980671226978302,-0.4802134931087494
1761383399968383000,3.529383056640625,1.4525644779205322,0.9628821015357971,-0.43790438771247864
1761383399978453000,3.539452880859375,1.4007548093795776,0.9351740479469299,-0.4092596769332886
1761383399988522000,3.54952197265625,1.3963377475738525,0.9614000916481018,-0.3711535632610321
1761383399998592000,3.559592041015625,1.4420047998428345,1.0604950189590454,-0.3216044008731842
1761383400008662000,3.569662109375,1.5268824100494385,1.1636972427368164,-0.26482313871383667
1761383400018730800,3.579730712890625,1.6291576623916626,1.2701687812805176,-0.18913502991199493
1761383400028801000,3.589801025390625,1.733826994895935,1.3400787115097046,-0.10306699573993683
1761383400038871000,3.59987109375,1.8224703073501587,1.3911783695220947,-0.018075140193104744
1761383400048940000,3.60993994140625,1.8850980997085571,1.4394617080688477,0.0751568004488945
1761383400059010000,3.620010009765625,1.9301728010177612,1.4343385696411133,0.16623558104038239
1761383400069079800,3.630079833984375,1.967300295829773,1.4004861116409302,0.26512381434440613
1761383400079149000,3.640149169921875,2.0010247230529785,1.311509370803833,0.366678923368454
1761383400089219000,3.650218994140625,2.025132894515991,1.1745160818099976,0.43542149662971497
1761383400099288800,3.660288818359375,2.0317795276641846,1.0065762996673584,0.44428372383117676
1761383400109358000,3.670358154296875,2.0304062366485596,0.8115525245666504,0.3839532434940338
1761383400119427800,3.680427734375,2.059898614883423,0.67865389585495,0.29805806279182434
1761383400129497000,3.6904970703125,2.0877957344055176,0.6660091876983643,0.21769078075885773
1761383400139566800,3.70056689453125,2.0850625038146973,0.7787452936172485,0.14336594939231873
1761383400149636900,3.710636962890625,2.071711778640747,0.8433818221092224,0.08638042956590652
1761383400159705900,3.720705810546875,2.022674798965454,0.8181329369544983,0.043179962784051895
1761383400169775900,3.73077587890625,1.9357402324676514,0.7376399636268616,-0.009888317435979843
1761383400179846100,3.74084619140625,1.8334910869598389,0.6034004092216492,-0.08831281960010529
1761383400189915000,3.750914794921875,1.7454954385757446,0.4598906338214874,-0.1593606323003769
1761383400199985200,3.760985107421875,1.6656324863433838,0.2378021776676178,-0.23260527849197388
1761383400210055000,3.771054931640625,1.6374669075012207,-0.08620598912239075,-0.2761567533016205
1761383400220124000,3.7811240234375,1.644387125968933,-0.27096837759017944,-0.27685075998306274
1761383400230194200,3.791194091796875,1.639893651008606,-0.33078885078430176,-0.2536804676055908
1761383400240264000,3.801263916015625,1.6223827600479126,-0.23279090225696564,-0.19748936593532562
1761383400250333200,3.811333251953125,1.5698186159133911,-0.025887522846460342,-0.10799890756607056
1761383400260403000,3.82140283203125,1.463870644569397,0.2966228723526001,-0.013704893179237843
1761383400270473000,3.831472900390625,1.3233399391174316,0.6965111494064331,0.061708103865385056
1761383400280542000,3.8415419921875,1.168438196182251,1.102009654045105,0.08881695568561554
1761383400290612000,3.851612060546875,1.0400184392929077,1.4259909391403198,0.05125919356942177
1761383400300682000,3.861681884765625,0.9642267823219299,1.5617144107818604,-0.0545806884765625
1761383400310751000,3.8717509765625,0.9478930830955505,1.5575082302093506,-0.18522578477859497
1761383400320821000,3.881821044921875,0.964531421661377,1.4949604272842407,-0.29987671971321106
1761383400330891000,3.89189111328125,0.9867432713508606,1.3756859302520752,-0.38294312357902527
1761383400340960000,3.9019599609375,1.017349123954773,1.256313443183899,-0.4056875705718994
1761383400351029800,3.91202978515625,1.0378363132476807,1.183508038520813,-0.351505309343338
1761383400361100000,3.92210009765625,1.043190836906433,1.1833181381225586,-0.24061846733093262
1761383400371169000,3.9321689453125,1.0418165922164917,1.2157630920410156,-0.1125371977686882
1761383400381239000,3.942239013671875,1.044041395187378,1.2420467138290405,0.00018748654110822827
1761383400391308000,3.95230810546875,1.0676162242889404,1.2546519041061401,0.07371789962053299
1761383400401377800,3.962377685546875,1.1127288341522217,1.2302027940750122,0.10088080912828445
1761383400411448000,3.972447998046875,1.178968071937561,1.1719831228256226,0.10374956578016281
1761383400421516800,3.982516845703125,1.2465513944625854,1.1051809787750244,0.09831911325454712
1761383400431587000,3.992587158203125,1.3144569396972656,1.0318182706832886,0.09575848281383514
1761383400441657000,4.002656982421875,1.368674635887146,0.9665554165840149,0.09490866959095001
1761383400451726000,4.01272607421875,1.41463041305542,0.9105728268623352,0.08849790692329407
1761383400461796000,4.022796142578125,1.449820876121521,0.8506773114204407,0.07075885683298111
1761383400471865900,4.032865966796875,1.4543837308883667,0.7855163812637329,0.032520391047000885
1761383400481935000,4.04293505859375,1.4338017702102661,0.7090921998023987,-0.02497166208922863
1761383400492004900,4.0530048828125,1.3920828104019165,0.6339007616043091,-0.09190728515386581
1761383400502075000,4.063074951171875,1.337981939315796,0.5296505093574524,-0.16053402423858643
1761383400512144100,4.07314404296875,1.2979546785354614,0.4325183928012848,-0.203957661986351
1761383400522214000,4.0832138671875,1.2691768407821655,0.3586327135562897,-0.22187301516532898
1761383400532284000,4.093283935546875,1.2388391494750977,0.32226380705833435,-0.190866619348526
1761383400542353000,4.103352783203125,1.20928156375885,0.3151305317878723,-0.12778964638710022
1761383400552423000,4.1134228515625,1.172630786895752,0.3338927626609802,-0.045284658670425415
1761383400562493200,4.1234931640625,1.1305923461914062,0.39079251885414124,0.05266321077942848
1761383400572562000,4.13356201171875,1.0776851177215576,0.5126329660415649,0.15778164565563202
1761383400582632200,4.143632080078125,1.016444444656372,0.667077362537384,0.23563222587108612
1761383400592702000,4.153701904296875,0.9750255942344666,0.8156202435493469,0.26910868287086487
1761383400602771000,4.16377099609375,0.9682113528251648,0.9524667859077454,0.2640060782432556
1761383400612841000,4.173841064453125,1.0034292936325073,1.0619772672653198,0.21682392060756683
1761383400622911000,4.183910888671875,1.0619397163391113,1.1514177322387695,0.1473977118730545
1761383400632980000,4.19397998046875,1.1030919551849365,1.1870542764663696,0.038829952478408813
1761383400643050000,4.204050048828125,1.105897068977356,1.1440670490264893,-0.10371813923120499
1761383400653119000,4.214118896484375,1.086098074913025,1.0422334671020508,-0.24935948848724365
1761383400663189000,4.22418896484375,1.0463505983352661,0.9318293929100037,-0.38229116797447205
1761383400673259000,4.234259033203125,1.0000393390655518,0.8095812797546387,-0.47636041045188904
1761383400683328000,4.244327880859375,0.9465223550796509,0.6972581744194031,-0.5101543068885803
1761383400693398000,4.25439794921875,0.889590322971344,0.6034517884254456,-0.4723750054836273
1761383400703468000,4.264468017578125,0.8541841506958008,0.5219596028327942,-0.3771994709968567
1761383400713537000,4.274537109375,0.8449501395225525,0.46326592564582825,-0.2335621565580368
1761383400723607000,4.28460693359375,0.853866457939148,0.4355485439300537,-0.07871132344007492
1761383400733676800,4.2946767578125,0.8826631903648376,0.42387351393699646,0.06678994745016098
1761383400743746000,4.30474609375,0.9050233364105225,0.4056263267993927,0.17793644964694977
1761383400753815800,4.31481591796875,0.9037066698074341,0.3487001955509186,0.23114213347434998
1761383400763886000,4.324885986328125,0.8779938817024231,0.2776806056499481,0.2500931918621063
1761383400773954800,4.334954833984375,0.8307791948318481,0.22601555287837982,0.2508982717990875
1761383400784024800,4.34502490234375,0.768470287322998,0.17778916656970978,0.22029295563697815
1761383400794095000,4.35509521484375,0.7189853191375732,0.11036991328001022,0.15950284898281097
1761383400804163800,4.365163818359375,0.692481279373169,0.0519111342728138,0.08123040944337845
1761383400814234000,4.375234130859375,0.6895355582237244,0.03380376845598221,-0.014671620912849903
1761383400824304000,4.38530419921875,0.7015807628631592,0.05471810698509216,-0.11519982665777206
1761383400834373000,4.395373046875,0.7341115474700928,0.09317921102046967,-0.21002326905727386
1761383400844443100,4.405443115234375,0.7868980765342712,0.1565275639295578,-0.28622162342071533
1761383400854513000,4.415512939453125,0.8531795740127563,0.2302638292312622,-0.3266279101371765
1761383400864582100,4.42558203125,0.9065139293670654,0.30631518363952637,-0.3322245478630066
1761383400874652000,4.43565185546875,0.9282317161560059,0.3645912706851959,-0.3274172842502594
1761383400884721200,4.44572119140625,0.8980773091316223,0.40440553426742554,-0.31492626667022705
1761383400894791000,4.455791015625,0.8344658613204956,0.430856853723526,-0.30521318316459656
1761383400904861000,4.46586083984375,0.7736805081367493,0.4396063983440399,-0.2939509451389313
1761383400914930200,4.47593017578125,0.7292978763580322,0.3914889395236969,-0.2824476659297943
1761383400925000000,4.486,0.7185354828834534,0.31667035818099976,-0.25937190651893616
1761383400935070000,4.496070068359375,0.7234269380569458,0.25341254472732544,-0.22151081264019012
1761383400945139000,4.506138916015625,0.7329703569412231,0.20091339945793152,-0.18086884915828705
1761383400955209200,4.516209228515625,0.7336854338645935,0.17089371383190155,-0.13695305585861206
1761383400965279200,4.526279296875,0.716101884841919,0.19039630889892578,-0.10410483181476593
1761383400975348500,4.536348388671875,0.6878916025161743,0.26646897196769714,-0.08266318589448929
1761383400985418200,4.546418212890625,0.6467611789703369,0.3677082359790802,-0.071393221616745
1761383400995488500,4.556488525390625,0.6143792867660522,0.4486773908138275,-0.057865165174007416
1761383401005557200,4.56655712890625,0.5983017683029175,0.518014669418335,-0.0345369391143322
1761383401015627300,4.576627197265625,0.6008964776992798,0.5463056564331055,-0.0020804614759981632
1761383401025697500,4.586697509765625,0.6069099307060242,0.572187602519989,0.04749348387122154
1761383401035766300,4.596766357421875,0.617009699344635,0.5898803472518921,0.09467830508947372
1761383401045836500,4.60683642578125,0.6206393241882324,0.5684730410575867,0.12750762701034546
1761383401055906300,4.61690625,0.6249597668647766,0.5139961838722229,0.14872130751609802
1761383401065975600,4.6269755859375,0.6360624432563782,0.46140891313552856,0.1627258062362671
1761383401076045300,4.63704541015625,0.644290566444397,0.4069986641407013,0.17064258456230164
1761383401086115300,4.647115234375,0.6428106427192688,0.3106130063533783,0.18303905427455902
1761383401096184300,4.657184326171875,0.6265462040901184,0.1963367611169815,0.20507991313934326
1761383401106254300,4.66725439453125,0.5815736651420593,0.09125187993049622,0.24638767540454865
1761383401116324400,4.677324462890625,0.5092014670372009,-0.0032743564806878567,0.28677770495414734
1761383401126393300,4.687393310546875,0.420207142829895,-0.04693075641989708,0.3172362744808197
1761383401136463400,4.69746337890625,0.3340695798397064,-0.014431403949856758,0.33543631434440613
1761383401146533400,4.707533447265625,0.28773564100265503,0.12603436410427094,0.3576255142688751
1761383401156602400,4.717602294921875,0.28884032368659973,0.36424002051353455,0.38676580786705017
1761383401166672400,4.72767236328125,0.347139835357666,0.6502973437309265,0.4096072316169739
1761383401176741400,4.737741455078125,0.4717254638671875,0.8860073089599609,0.4049195349216461
1761383401186811400,4.747811279296875,0.6297569274902344,0.9946304559707642,0.36303624510765076
1761383401196881400,4.75788134765625,0.7866597175598145,0.9436131119728088,0.29952678084373474
1761383401206950400,4.767950439453125,0.8976943492889404,0.8034514784812927,0.24503958225250244
1761383401217020200,4.778020263671875,0.9591595530509949,0.6335364580154419,0.2350575178861618
1761383401227090400,4.78809033203125,0.9752543568611145,0.5041888356208801,0.27383047342300415
1761383401237159200,4.7981591796875,0.9442573189735413,0.4010089337825775,0.3369423449039459
1761383401247229400,4.8082294921875,0.861939013004303,0.33960071206092834,0.3740079402923584
1761383401257299500,4.818299560546875,0.7399747371673584,0.32552269101142883,0.3555367887020111
1761383401267368200,4.8283681640625,0.5986474752426147,0.3196229934692383,0.26896435022354126
1761383401277438500,4.8384384765625,0.4675767719745636,0.3199894428253174,0.12454299628734589
1761383401287508200,4.84850830078125,0.37607908248901367,0.2982708513736725,-0.05433221533894539
1761383401297577500,4.858577392578125,0.3310610055923462,0.2416275441646576,-0.2516380846500397
1761383401307647500,4.8686474609375,0.32034924626350403,0.1878572553396225,-0.4173234701156616
1761383401317717200,4.87871728515625,0.3234853744506836,0.1557573676109314,-0.5343190431594849
1761383401327786500,4.888786376953125,0.3504948914051056,0.18290750682353973,-0.5853130221366882
1761383401337856300,4.898856201171875,0.3840739130973816,0.25434333086013794,-0.5775722861289978
1761383401347926300,4.90892626953125,0.42787331342697144,0.3592894673347473,-0.5343784689903259
1761383401357995300,4.918995361328125,0.4849347472190857,0.49282169342041016,-0.47442004084587097
1761383401368065300,4.929065185546875,0.531769871711731,0.6344163417816162,-0.4096847176551819
1761383401378135600,4.939135498046875,0.5589876770973206,0.7522700428962708,-0.35544970631599426
1761383401388204300,4.949204345703125,0.5476838946342468,0.8136628270149231,-0.3176320195198059
1761383401398274300,4.9592744140625,0.5077817440032959,0.8033883571624756,-0.2896174490451813
1761383401408344300,4.96934423828125,0.45263031125068665,0.7396285533905029,-0.2551494836807251
1761383401418413300,4.979413330078125,0.38663214445114136,0.6353836059570312,-0.23302073776721954
1761383401428483300,4.9894833984375,0.31987306475639343,0.4987456202507019,-0.20806264877319336
1761383401438552300,4.99955224609375,0.2613442540168762,0.3413384258747101,-0.1794126331806183
1761383401448622600,5.00962255859375,0.21877841651439667,0.1792762726545334,-0.1541118025779724
1761383401458692400,5.0196923828125,0.1971258521080017,0.03218696638941765,-0.12054292857646942
1761383401468761300,5.02976123046875,0.1849679946899414,-0.1150786504149437,-0.08272098004817963
1761383401478831400,5.039831298828125,0.18782396614551544,-0.2590249180793762,-0.03352014347910881
1761383401488901400,5.0499013671875,0.18727082014083862,-0.3501891791820526,0.04201216623187065
1761383401498970400,5.059970458984375,0.19712771475315094,-0.3935145437717438,0.1389237940311432
1761383401509040400,5.070040283203125,0.20808182656764984,-0.40456053614616394,0.2610691487789154
1761383401519110400,5.0801103515625,0.20987147092819214,-0.36419180035591125,0.383491188287735
1761383401529179400,5.090179443359375,0.21204914152622223,-0.28919824957847595,0.4729779362678528
1761383401539249400,5.10024951171875,0.22340646386146545,-0.21535678207874298,0.5294457674026489
1761383401549319200,5.110319091796875,0.22099415957927704,-0.15803730487823486,0.5357840657234192
1761383401559388400,5.120388427734375,0.16639962792396545,-0.20755931735038757,0.4610863924026489
1761383401569458200,5.130458251953125,0.045275069773197174,-0.3771701753139496,0.2951538860797882
1761383401579528400,5.140528564453125,-0.12084226310253143,-0.5144345760345459,0.109115831553936
1761383401589597400,5.150597412109375,-0.27775758504867554,-0.5611874461174011,-0.0276755690574646
1761383401599667200,5.160667236328125,-0.3882361650466919,-0.559705913066864,-0.09097837656736374
1761383401609737500,5.170737548828125,-0.45160314440727234,-0.4971413314342499,-0.08773943781852722
1761383401619806200,5.18080615234375,-0.4630536735057831,-0.3547666072845459,-0.029336316511034966
1761383401629876500,5.19087646484375,-0.4208177924156189,-0.13952727615833282,0.060397565364837646
1761383401639946500,5.200946533203125,-0.32043153047561646,0.09600695967674255,0.17587542533874512
1761383401650015200,5.21101513671875,-0.22085009515285492,0.2524980306625366,0.2616475820541382
1761383401660085500,5.22108544921875,-0.17764988541603088,0.26448383927345276,0.2806987762451172
1761383401670155300,5.2311552734375,-0.17169612646102905,0.1753920614719391,0.2528895139694214
1761383401680224500,5.241224609375,-0.17998042702674866,0.03122369945049286,0.19904012978076935
1761383401690294300,5.251294189453125,-0.18176500499248505,-0.09710870683193207,0.16521266102790833
1761383401700364300,5.2613642578125,-0.16275322437286377,-0.19148367643356323,0.1422053426504135
1761383401710433300,5.271433349609375,-0.1447497308254242,-0.26967355608940125,0.11757083982229233
1761383401720503300,5.28150341796875,-0.13428138196468353,-0.32981839776039124,0.07693712413311005
1761383401730572500,5.291572509765625,-0.13967373967170715,-0.3691847026348114,0.022641928866505623
1761383401740642300,5.301642333984375,-0.1300131231546402,-0.3796762228012085,-0.03195473551750183
1761383401750712300,5.31171240234375,-0.12150140106678009,-0.3939765989780426,-0.0800841823220253
1761383401760781300,5.32178125,-0.11746937036514282,-0.41332924365997314,-0.12278610467910767
1761383401770851300,5.331851318359375,-0.1337636560201645,-0.4420860707759857,-0.1718684285879135
1761383401780921300,5.34192138671875,-0.1477082371711731,-0.4787319600582123,-0.21560952067375183
1761383401790990300,5.351990234375,-0.13324540853500366,-0.49426406621932983,-0.2350258231163025
1761383401801060400,5.362060302734375,-0.09126786142587662,-0.48640692234039307,-0.2409883737564087
1761383401811130400,5.37213037109375,-0.05206559970974922,-0.4635540843009949,-0.2375992387533188
1761383401821199400,5.382199462890625,-0.033355291932821274,-0.39371562004089355,-0.21958695352077484
1761383401831269400,5.392269287109375,-0.04178233444690704,-0.2837153375148773,-0.19705314934253693
1761383401841339400,5.40233935546875,-0.06772365421056747,-0.1898445039987564,-0.19146530330181122
1761383401851408100,5.412408203125,-0.09761577099561691,-0.11694073677062988,-0.2071068435907364
1761383401861478400,5.422478515625,-0.10728491097688675,-0.03526771068572998,-0.2278379499912262
1761383401871548400,5.43254833984375,-0.10576238483190536,0.041133321821689606,-0.2515038847923279
1761383401881617400,5.442617431640625,-0.09256375581026077,0.10668889433145523,-0.26542928814888
1761383401891687400,5.4526875,-0.06186043843626976,0.1760445386171341,-0.2531491816043854
1761383401901757400,5.46275732421875,-0.023375097662210464,0.2673230469226837,-0.2046298384666443
1761383401911826400,5.472826416015625,0.013450561091303825,0.3730374872684479,-0.12369557470083237
1761383401921896400,5.482896484375,0.05275828763842583,0.46250292658805847,-0.027789819985628128
1761383401931966200,5.49296630859375,0.0971933975815773,0.5236360430717468,0.07747002691030502
1761383401942035500,5.503035400390625,0.14978229999542236,0.5585231781005859,0.1706566959619522
1761383401952105200,5.513105224609375,0.2119079977273941,0.5323629975318909,0.23822295665740967
1761383401962174500,5.523174560546875,0.263861745595932,0.38625767827033997,0.24645930528640747
1761383401972244500,5.533244384765625,0.29989004135131836,0.13422678411006927,0.20442503690719604
1761383401982314500,5.543314453125,0.33388715982437134,-0.0938308909535408,0.15981310606002808
1761383401992383500,5.553383544921875,0.3724968731403351,-0.2349501997232437,0.15992975234985352
1761383402002453500,5.56345361328125,0.3956325650215149,-0.3026019334793091,0.18265663087368011
1761383402012523500,5.5735234375,0.37035542726516724,-0.30092760920524597,0.21704763174057007
1761383402022592500,5.583592529296875,0.30749788880348206,-0.17048650979995728,0.26331979036331177
1761383402032662300,5.593662353515625,0.2407122105360031,0.07924262434244156,0.32351627945899963
1761383402042732500,5.603732666015625,0.19904865324497223,0.3720603883266449,0.38287654519081116
1761383402052801300,5.61380126953125,0.20563705265522003,0.6254204511642456,0.4251917600631714
1761383402062871600,5.62387158203125,0.2592747211456299,0.7919202446937561,0.4514702558517456
1761383402072941600,5.633941650390625,0.34528523683547974,0.8511550426483154,0.4548977315425873
1761383402083010600,5.644010498046875,0.45460158586502075,0.8081567287445068,0.4500172436237335
1761383402093080600,5.65408056640625,0.5757163166999817,0.6708055138587952,0.4317740499973297
1761383402103150300,5.664150390625,0.6948496103286743,0.45806610584259033,0.40402495861053467
1761383402113219600,5.674219482421875,0.7958076596260071,0.2575037181377411,0.38777196407318115
1761383402123289600,5.68428955078125,0.8436593413352966,0.13454236090183258,0.3715794086456299
1761383402133359400,5.694359375,0.8426553010940552,0.0981510654091835,0.3500376343727112
1761383402143428600,5.7044287109375,0.8009212017059326,0.11674259603023529,0.31996628642082214
1761383402153498400,5.714498291015625,0.7207062244415283,0.19333617389202118,0.27153483033180237
1761383402163567600,5.724567626953125,0.6139156222343445,0.30005943775177,0.1993836760520935
1761383402173637400,5.734637451171875,0.5016740560531616,0.3694568872451782,0.08891415596008301
1761383402183707400,5.744707275390625,0.4160313010215759,0.35744068026542664,-0.05369145795702934
1761383402193776400,5.7547763671875,0.36879560351371765,0.2869987487792969,-0.22369487583637238
1761383402203846400,5.764846435546875,0.3581109941005707,0.19896343350410461,-0.39478886127471924
1761383402213916400,5.77491650390625,0.3746391236782074,0.12238902598619461,-0.5327525734901428
1761383402223985400,5.7849853515625,0.4007231891155243,0.08253082633018494,-0.6323865056037903
1761383402234055400,5.795055419921875,0.43537890911102295,0.09689458459615707,-0.6767595410346985
1761383402244125700,5.805125732421875,0.4762389659881592,0.165833979845047,-0.6693050861358643
1761383402254194400,5.8151943359375,0.520783007144928,0.3088896572589874,-0.6013622879981995
1761383402264264700,5.8252646484375,0.5614857077598572,0.49395617842674255,-0.4963442385196686
1761383402274334500,5.83533447265625,0.5957800149917603,0.6820501685142517,-0.36839452385902405
1761383402284403500,5.845403564453125,0.6117536425590515,0.8144998550415039,-0.25342774391174316
1761383402294473500,5.855473388671875,0.6270953416824341,0.8757402896881104,-0.16151805222034454
1761383402304543500,5.86554345703125,0.630171000957489,0.9013588428497314,-0.09629883617162704
1761383402314612500,5.875612548828125,0.5999132394790649,0.8838653564453125,-0.06861501187086105
1761383402324682500,5.8856826171875,0.5422126650810242,0.823012113571167,-0.06551429629325867
1761383402334752500,5.89575244140625,0.46027466654777527,0.7289649844169617,-0.07651448249816895
1761383402344821500,5.905821533203125,0.3498525321483612,0.6049479842185974,-0.08927501738071442
1761383402354891500,5.9158916015625,0.22970935702323914,0.45441490411758423,-0.09573478251695633
1761383402364961300,5.925961181640625,0.1270761936903,0.27675169706344604,-0.08000322431325912
1761383402375030500,5.936030517578125,0.04331658035516739,0.09342209249734879,-0.04603913053870201
1761383402385100500,5.9461005859375,-0.015277223661541939,-0.08423152565956116,0.002784601179882884
1761383402395170600,5.956170654296875,-0.038784146308898926,-0.23537816107273102,0.07887431234121323
1761383402405239600,5.966239501953125,-0.04260817915201187,-0.3560531735420227,0.1758594512939453
1761383402415309300,5.976309326171875,-0.04982907697558403,-0.4530428349971771,0.2842863202095032
1761383402425378600,5.986378662109375,-0.06708156317472458,-0.5013315677642822,0.39398351311683655
1761383402435448300,5.9964482421875,-0.07733393460512161,-0.4735710322856903,0.5072451233863831
1761383402445518600,6.0065185546875,-0.0689534991979599,-0.40583938360214233,0.6193005442619324
1761383402455587300,6.01658740234375,-0.06792232394218445,-0.35770994424819946,0.6679913997650146
1761383402465657600,6.02665771484375,-0.09566260874271393,-0.3674693703651428,0.6250393986701965
1761383402475727600,6.0367275390625,-0.163351371884346,-0.42206814885139465,0.4760514795780182
1761383402485796400,6.04679638671875,-0.265804260969162,-0.5302353501319885,0.2578406035900116
1761383402495866600,6.05686669921875,-0.3816578686237335,-0.6251118183135986,0.03585387021303177
1761383402505936400,6.066936279296875,-0.49509337544441223,-0.6881834864616394,-0.13764122128486633
1761383402516005600,6.077005615234375,-0.5955067873001099,-0.7315564751625061,-0.23429451882839203
1761383402526075600,6.08707568359375,-0.678726315498352,-0.7551805973052979,-0.26405802369117737
1761383402536145400,6.0971455078125,-0.7255347967147827,-0.7205334305763245,-0.21524173021316528
1761383402546214700,6.107214599609375,-0.7402951121330261,-0.6253469586372375,-0.10918454080820084
1761383402556284400,6.117284423828125,-0.7449015974998474,-0.4954827129840851,0.028540831059217453
1761383402566354400,6.1273544921875,-0.7740152478218079,-0.39362505078315735,0.14473775029182434
1761383402576423400,6.13742333984375,-0.8351390957832336,-0.3684629797935486,0.20655584335327148
1761383402586493400,6.147493408203125,-0.8992695808410645,-0.4024531841278076,0.23576219379901886
1761383402596563500,6.1575634765625,-0.9213684797286987,-0.41671252250671387,0.2681899070739746
1761383402606632400,6.167632568359375,-0.8989918231964111,-0.4184640944004059,0.31253474950790405
1761383402616702500,6.177702392578125,-0.8523348569869995,-0.45007848739624023,0.3532070517539978
1761383402626771500,6.187771484375,-0.7926738858222961,-0.5220919847488403,0.35272637009620667
1761383402636841500,6.197841552734375,-0.7345227003097534,-0.6296029686927795,0.3123861253261566
1761383402646911500,6.207911376953125,-0.6858747601509094,-0.7275298237800598,0.23433740437030792
1761383402656980500,6.21798046875,-0.6544923186302185,-0.7917013168334961,0.12301433831453323
1761383402667050500,6.228050537109375,-0.6517865657806396,-0.8265402913093567,-0.010424145497381687
1761383402677120500,6.23812060546875,-0.6596711277961731,-0.8272185921669006,-0.1406010538339615
1761383402687189500,6.248189453125,-0.6629319190979004,-0.7984577417373657,-0.2560235261917114
1761383402697259500,6.258259521484375,-0.6414961218833923,-0.7783825993537903,-0.34638458490371704
1761383402707329500,6.26832958984375,-0.5919445157051086,-0.7634174823760986,-0.3971172571182251
1761383402717398500,6.2783984375,-0.534896969795227,-0.7387787103652954,-0.3876161575317383
1761383402727468500,6.288468505859375,-0.4768421947956085,-0.7000001668930054,-0.332379013299942
1761383402737538600,6.29853857421875,-0.45014265179634094,-0.6715285778045654,-0.24189677834510803
1761383402747607600,6.308607666015625,-0.4829466938972473,-0.6710947751998901,-0.15054424107074738
1761383402757677600,6.318677490234375,-0.5586273074150085,-0.6639569401741028,-0.0636221170425415
1761383402767747300,6.328747314453125,-0.6688502430915833,-0.6524757742881775,0.014401310123503208
1761383402777816600,6.338816650390625,-0.8102688789367676,-0.6342539191246033,0.08244986832141876
1761383402787886300,6.34888623046875,-0.9539645314216614,-0.6261104941368103,0.13301530480384827
1761383402797955600,6.35895556640625,-1.0758174657821655,-0.6230856776237488,0.18011517822742462
1761383402808025600,6.369025634765625,-1.1625747680664062,-0.6217114925384521,0.20363035798072815
1761383402818095400,6.379095458984375,-1.2194836139678955,-0.6224188208580017,0.2098541557788849
1761383402828164600,6.38916455078125,-1.2399283647537231,-0.6463263034820557,0.19256864488124847
1761383402838234400,6.399234375,-1.2284616231918335,-0.6863807439804077,0.16934747993946075
1761383402848304400,6.409304443359375,-1.1965718269348145,-0.6994504928588867,0.1541150063276291
1761383402858373400,6.419373291015625,-1.1529746055603027,-0.6513354182243347,0.17955325543880463
1761383402868443400,6.429443359375,-1.1044933795928955,-0.5178250670433044,0.26108992099761963
1761383402878513700,6.439513671875,-1.0662380456924438,-0.3574897050857544,0.3669891953468323
1761383402888582400,6.44958251953125,-1.0583710670471191,-0.29898110032081604,0.47407275438308716
1761383402898652700,6.459652587890625,-1.095266580581665,-0.3699184060096741,0.5297756791114807
1761383402908722400,6.469722412109375,-1.1668096780776978,-0.49673014879226685,0.5367990136146545
1761383402918791400,6.47979150390625,-1.2457196712493896,-0.6199639439582825,0.5156044960021973
1761383402928861400,6.489861328125,-1.3160207271575928,-0.7048660516738892,0.46634241938591003
1761383402938931500,6.499931396484375,-1.3739562034606934,-0.7889729142189026,0.3771214485168457
1761383402949000700,6.510000732421875,-1.408576250076294,-0.8695580363273621,0.25748932361602783
1761383402959070700,6.52007080078125,-1.3867907524108887,-0.8973063230514526,0.14820118248462677
1761383402969139500,6.530139404296875,-1.337430477142334,-0.8597626686096191,0.06564798206090927
1761383402979209700,6.540209716796875,-1.282731294631958,-0.7516087889671326,0.017854630947113037
1761383402989279500,6.550279541015625,-1.2435095310211182,-0.6695309281349182,-0.03402135148644447
1761383402999348700,6.5603486328125,-1.221396803855896,-0.6471713185310364,-0.09970182925462723
1761383403009418800,6.570418701171875,-1.2503166198730469,-0.7206676602363586,-0.20926453173160553
1761383403019488500,6.580488525390625,-1.3388125896453857,-0.9110543727874756,-0.3925371468067169
1761383403029557800,6.590557861328125,-1.456841230392456,-1.1269434690475464,-0.611193060874939
1761383403039627500,6.60062744140625,-1.5550343990325928,-1.2576794624328613,-0.8306977152824402
1761383403049697500,6.610697509765625,-1.5948486328125,-1.2572360038757324,-0.9963114857673645
1761383403059766500,6.6207666015625,-1.5782324075698853,-1.1559208631515503,-1.095673680305481
1761383403069836500,6.63083642578125,-1.516294240951538,-0.9687999486923218,-1.1095658540725708
1761383403079906800,6.64090673828125,-1.4522308111190796,-0.7684077024459839,-1.050306797027588
1761383403089975600,6.6509755859375,-1.4072028398513794,-0.6243131160736084,-0.9361194968223572
1761383403100045600,6.661045654296875,-1.393176794052124,-0.5526368021965027,-0.792375922203064
1761383403110115600,6.671115478515625,-1.4239866733551025,-0.5450838208198547,-0.6470546722412109
1761383403120184600,6.6811845703125,-1.5067284107208252,-0.6018272638320923,-0.5300809144973755
1761383403130254600,6.691254638671875,-1.626587986946106,-0.6972730755805969,-0.43732327222824097
1761383403140324600,6.70132470703125,-1.76924467086792,-0.8124524354934692,-0.3569786250591278
1761383403150393600,6.7113935546875,-1.9127593040466309,-0.9271305203437805,-0.2803557515144348
1761383403160463600,6.721463623046875,-2.036374807357788,-0.9824105501174927,-0.18560448288917542
1761383403170532600,6.73153271484375,-2.1331675052642822,-1.0012763738632202,-0.10214527696371078
1761383403180602600,6.7416025390625,-2.2024781703948975,-1.0154825448989868,-0.031866587698459625
1761383403190672600,6.751672607421875,-2.251180648803711,-1.0295535326004028,0.023723172023892403
1761383403200741600,6.76174169921875,-2.283583879470825,-1.0631458759307861,0.06859104335308075
1761383403210811600,6.771811767578125,-2.3096420764923096,-1.129414677619934,0.10621325671672821
1761383403220881700,6.781881591796875,-2.3502020835876465,-1.2005114555358887,0.1626855880022049
1761383403230950700,6.79195068359375,-2.395437002182007,-1.205484390258789,0.2640407085418701
1761383403241020700,6.802020751953125,-2.4460020065307617,-1.1394531726837158,0.38951605558395386
1761383403251090400,6.81209033203125,-2.5086658000946045,-1.0793192386627197,0.4924294054508209
1761383403261159700,6.82215966796875,-2.5865561962127686,-1.0765708684921265,0.5196783542633057
1761383403271229400,6.8322294921875,-2.654693841934204,-1.1582462787628174,0.455518513917923
1761383403281299700,6.8422998046875,-2.6717689037323,-1.2975897789001465,0.31582826375961304
1761383403291368700,6.85236865234375,-2.6328227519989014,-1.4338566064834595,0.1589457094669342
1761383403301438500,6.8624384765625,-2.568146228790283,-1.5710456371307373,-0.0014825817197561264
1761383403311507700,6.8725078125,-2.557455062866211,-1.847974181175232,-0.17884431779384613
1761383403321577500,6.882577392578125,-2.724231243133545,-2.2704474925994873,-0.46011701226234436
1761383403331647700,6.892647705078125,-3.0033891201019287,-2.6130759716033936,-0.7797645330429077
1761383403341716500,6.902716552734375,-3.2315425872802734,-2.7487921714782715,-1.0459802150726318
1761383403351786500,6.912786376953125,-3.354668617248535,-2.571979522705078,-1.1974613666534424
1761383403361856800,6.922856689453125,-3.3583695888519287,-2.025792360305786,-1.1539580821990967
1761383403371925500,6.932925537109375,-3.3039608001708984,-1.2664159536361694,-0.9508212208747864
1761383403381995800,6.942995849609375,-3.2363362312316895,-0.5895910859107971,-0.7086983323097229
1761383403392065500,6.9530654296875,-3.1463000774383545,-0.28855884075164795,-0.5124960541725159
1761383403402134800,6.963134765625,-2.9989256858825684,-0.35531628131866455,-0.35661110281944275
1761383403412204500,6.97320458984375,-2.7491531372070312,-0.6295430660247803,-0.20212434232234955
1761383403422274600,6.983274658203125,-2.3643903732299805,-0.8998645544052124,0.04712064191699028
1761383403432343800,6.99334375,-2.047109842300415,-1.1196140050888062,0.4335527718067169
1761383403442413600,7.00341357421875,-2.0448572635650635,-1.3527209758758545,0.7609428763389587
1761383403452482800,7.01348291015625,-2.3063831329345703,-1.7313127517700195,0.841096818447113
1761383403462552600,7.023552490234375,-2.6967620849609375,-2.2289600372314453,0.6514560580253601
1761383403472622600,7.03362255859375,-3.02522873878479,-2.6798555850982666,0.2983693778514862
1761383403482691600,7.043691650390625,-3.1459743976593018,-2.975233793258667,-0.12744957208633423
1761383403492761600,7.05376171875,-3.110462188720703,-3.15114426612854,-0.5625656247138977
1761383403502831600,7.06383154296875,-2.9851393699645996,-3.222418785095215,-0.9716031551361084
1761383403512900600,7.073900634765625,-2.8270461559295654,-3.1216163635253906,-1.2876442670822144
1761383403522970600,7.083970703125,-2.6607227325439453,-2.8293004035949707,-1.4531439542770386
1761383403533040600,7.09404052734375,-2.4869742393493652,-2.3611361980438232,-1.4497380256652832
1761383403543109600,7.104109619140625,-2.3107662200927734,-1.8131756782531738,-1.3066378831863403
1761383403553179400,7.114179443359375,-2.1553642749786377,-1.3590257167816162,-1.085181713104248
1761383403563249700,7.124249755859375,-2.0280816555023193,-1.089309573173523,-0.8219550848007202
1761383403573318700,7.134318603515625,-1.9504728317260742,-1.043956995010376,-0.5287365317344666
1761383403583388700,7.144388671875,-1.9469366073608398,-1.200199842453003,-0.2715175151824951
1761383403593458700,7.154458740234375,-2.0455784797668457,-1.4335713386535645,-0.08724196255207062
1761383403603527400,7.16452734375,-2.2190544605255127,-1.6731271743774414,0.006803577765822411
1761383403613597700,7.17459765625,-2.4468917846679688,-1.8919413089752197,-0.00282002124004066
1761383403623666400,7.18466650390625,-2.6917595863342285,-2.0684685707092285,-0.10920637845993042
1761383403633736700,7.19473681640625,-2.9097020626068115,-2.161719560623169,-0.27762654423713684
1761383403643806700,7.204806640625,-3.0583651065826416,-2.146547317504883,-0.45922937989234924
1761383403653875700,7.214875732421875,-3.1410324573516846,-2.073272228240967,-0.6259405612945557
1761383403663945700,7.22494580078125,-3.144706964492798,-1.9176876544952393,-0.7518519163131714
1761383403674015500,7.235015380859375,-3.064910411834717,-1.6749019622802734,-0.8185837864875793
1761383403684084700,7.245084716796875,-2.919511556625366,-1.3938497304916382,-0.8207718729972839
1761383403694154500,7.255154541015625,-2.7205851078033447,-1.1090574264526367,-0.759504497051239
1761383403704224500,7.265224609375,-2.4879825115203857,-0.8430217504501343,-0.6377226710319519
1761383403714293800,7.275293701171875,-2.2692906856536865,-0.6009915471076965,-0.441281259059906
1761383403724363500,7.285363525390625,-2.1084389686584473,-0.40160414576530457,-0.19648882746696472
1761383403734433500,7.29543359375,-2.0004520416259766,-0.28275632858276367,0.054979097098112106
1761383403744502500,7.30550244140625,-1.9313348531723022,-0.25090011954307556,0.2619514465332031
1761383403754572500,7.315572509765625,-1.9005446434020996,-0.38869979977607727,0.35611391067504883
1761383403764641500,7.3256416015625,-1.923018217086792,-0.6665809750556946,0.3090995252132416
1761383403774711600,7.335711669921875,-1.9709479808807373,-0.9243112802505493,0.16274496912956238
1761383403784781600,7.345781494140625,-2.045480489730835,-1.0737603902816772,-0.04524870589375496
1761383403794850600,7.3558505859375,-2.137882947921753,-1.075043797492981,-0.28086230158805847
1761383403804920600,7.365920654296875,-2.21522855758667,-0.953687310218811,-0.5232781171798706
1761383403814990600,7.375990478515625,-2.1982035636901855,-0.7679760456085205,-0.7260456085205078
1761383403825059600,7.3860595703125,-2.044985294342041,-0.5517324209213257,-0.8568630218505859
1761383403835129600,7.396129638671875,-1.7791281938552856,-0.36259177327156067,-0.8927555084228516
1761383403845199600,7.40619970703125,-1.452792763710022,-0.2150808870792389,-0.8506272435188293
1761383403855268600,7.4162685546875,-1.160498857498169,-0.1801290214061737,-0.7797216176986694
1761383403865338600,7.426338623046875,-0.9297241568565369,-0.22449035942554474,-0.6987258195877075
1761383403875407600,7.43640771484375,-0.7581364512443542,-0.3092412054538727,-0.5960439443588257
1761383403885477600,7.4464775390625,-0.670662522315979,-0.4409904479980469,-0.48631078004837036
1761383403895547600,7.456547607421875,-0.6904149055480957,-0.5948241949081421,-0.3915592432022095
1761383403905616600,7.46661669921875,-0.7777274250984192,-0.7087353467941284,-0.32559433579444885
1761383403915686700,7.476686767578125,-0.8777600526809692,-0.7389004230499268,-0.26710015535354614
1761383403925756700,7.486756591796875,-0.9539648294448853,-0.6597834825515747,-0.2131759226322174
1761383403935825700,7.49682568359375,-0.979775607585907,-0.5094344615936279,-0.17834976315498352
1761383403945895700,7.506895751953125,-0.9476557970046997,-0.31759899854660034,-0.17800462245941162
1761383403955965400,7.51696533203125,-0.8725019097328186,-0.11385572701692581,-0.21801061928272247
1761383403966034400,7.527034423828125,-0.7899673581123352,0.09344632923603058,-0.3042033016681671
1761383403976104400,7.5371044921875,-0.7333818078041077,0.2788931429386139,-0.40514031052589417
1761383403986174500,7.547174560546875,-0.7001436948776245,0.4148824214935303,-0.49902310967445374
1761383403996243500,7.557243408203125,-0.6875759959220886,0.5025941729545593,-0.5533137917518616
1761383404006313500,7.5673134765625,-0.7061952352523804,0.5278720855712891,-0.572856068611145
1761383404016382500,7.577382568359375,-0.7701219916343689,0.45151737332344055,-0.5639483332633972
1761383404026452500,7.587452392578125,-0.8711708784103394,0.2695979177951813,-0.5379273891448975
1761383404036522800,7.597522705078125,-1.0103346109390259,0.02889183536171913,-0.47307088971138
1761383404046591500,7.607591552734375,-1.1733222007751465,-0.21676640212535858,-0.3784591555595398
1761383404056661500,7.61766162109375,-1.3699668645858765,-0.42029955983161926,-0.25078001618385315
1761383404066731500,7.6277314453125,-1.560787320137024,-0.5621126294136047,-0.08686059713363647
1761383404076800500,7.637800537109375,-1.690487265586853,-0.6317473649978638,0.1066228523850441
1761383404086870500,7.64787060546875,-1.7424471378326416,-0.6248399019241333,0.33568158745765686
1761383404096940500,7.6579404296875,-1.7459710836410522,-0.5397101044654846,0.5800601840019226
1761383404107009500,7.668009521484375,-1.7473894357681274,-0.38504675030708313,0.803656816482544
1761383404117079600,7.67807958984375,-1.7740317583084106,-0.2092677354812622,0.9616501331329346
1761383404127148500,7.6881484375,-1.8104515075683594,-0.03915512561798096,1.0458308458328247
1761383404137218600,7.698218505859375,-1.855324149131775,0.08140724152326584,1.0336791276931763
1761383404147288600,7.70828857421875,-1.8648545742034912,0.11212413758039474,0.9347780346870422
1761383404157357600,7.718357666015625,-1.8301019668579102,0.09367429465055466,0.7944686412811279
1761383404167427600,7.728427490234375,-1.7569912672042847,0.00758042186498642,0.6131814122200012
1761383404177497600,7.73849755859375,-1.6709908246994019,-0.2094283252954483,0.38428908586502075
1761383404187566600,7.748566650390625,-1.5788148641586304,-0.5138444304466248,0.13464783132076263
1761383404197636600,7.75863671875,-1.4734410047531128,-0.80524080991745,-0.08136969059705734
1761383404207706400,7.768706298828125,-1.3437165021896362,-1.077818512916565,-0.24085070192813873
1761383404217775600,7.778775634765625,-1.2296134233474731,-1.3467538356781006,-0.3425900936126709
1761383404227845400,7.788845458984375,-1.1650447845458984,-1.5438435077667236,-0.3524041175842285
1761383404237915400,7.798915283203125,-1.1568697690963745,-1.5594680309295654,-0.2436392903327942
1761383404247984600,7.808984619140625,-1.1813756227493286,-1.395046353340149,-0.06534278392791748
1761383404258054400,7.819054443359375,-1.2160861492156982,-1.1729816198349,0.09588045626878738
1761383404268123600,7.82912353515625,-1.2078607082366943,-0.9937223196029663,0.17293396592140198
1761383404278193400,7.839193359375,-1.102748155593872,-0.9144051671028137,0.15054184198379517
1761383404288263700,7.849263671875,-0.9707693457603455,-0.9540476202964783,0.05005411058664322
1761383404298332400,7.85933251953125,-0.8947153091430664,-1.0889252424240112,-0.1254279613494873
1761383404308402400,7.86940234375,-0.8544381856918335,-1.2499666213989258,-0.34057435393333435
1761383404318469600,7.8794697265625,-0.7926901578903198,-1.3488974571228027,-0.5714004039764404
1761383404328539600,7.88953955078125,-0.7276933193206787,-1.3434011936187744,-0.7876027226448059
1761383404338609400,7.899609375,-0.669161319732666,-1.2390005588531494,-0.955644428730011
1761383404348678700,7.9096787109375,-0.6258113980293274,-1.0064330101013184,-1.0371291637420654
1761383404358748400,7.91974853515625,-0.5973238348960876,-0.6316197514533997,-0.9985831379890442
1761383404368818400,7.929818359375,-0.5835539698600769,-0.17731353640556335,-0.868894636631012
1761383404378887400,7.939887451171875,-0.5644127726554871,0.21461136639118195,-0.6944568157196045
1761383404388957400,7.94995751953125,-0.49570775032043457,0.4594551920890808,-0.49505022168159485
1761383404399027700,7.96002783203125,-0.3866448998451233,0.5370168685913086,-0.29396530985832214
1761383404409096400,7.970096435546875,-0.24904178082942963,0.4868985414505005,-0.09154243022203445
1761383404419166500,7.98016650390625,-0.12717366218566895,0.42466339468955994,0.10426115989685059
1761383404429236500,7.990236572265625,-0.052629657089710236,0.3870507776737213,0.2667193114757538
1761383404439305500,8.000305419921874,-0.040462736040353775,0.3736087381839752,0.39300453662872314
1761383404449375700,8.010375732421876,-0.07609343528747559,0.3960442841053009,0.47665148973464966
1761383404459444500,8.020444580078125,-0.14767760038375854,0.45877504348754883,0.5332508683204651
1761383404469514500,8.030514404296875,-0.2349075824022293,0.5615096688270569,0.5724794864654541
1761383404479584500,8.04058447265625,-0.31530922651290894,0.6723253726959229,0.587958037853241
1761383404489653500,8.050653564453125,-0.3526850938796997,0.7737969160079956,0.6002117991447449
1761383404499723500,8.0607236328125,-0.3342970311641693,0.8280596137046814,0.5845987200737
1761383404509793500,8.07079345703125,-0.2620584964752197,0.7940928339958191,0.5438233613967896
1761383404519862500,8.080862548828126,-0.1136045902967453,0.7076807022094727,0.48500823974609375
1761383404529932500,8.0909326171875,0.08420036733150482,0.6171420216560364,0.43806496262550354
1761383404540001500,8.10100146484375,0.30974480509757996,0.5827406644821167,0.42590683698654175
1761383404550071600,8.111071533203125,0.5574792623519897,0.694869339466095,0.5006974339485168
1761383404560141600,8.1211416015625,0.81434166431427,0.9056883454322815,0.6586556434631348
1761383404570210600,8.13121044921875,1.0306364297866821,1.0390841960906982,0.792534351348877
1761383404580280600,8.141280517578124,1.197420358657837,1.0097510814666748,0.8238629698753357
1761383404590350600,8.1513505859375,1.2769694328308105,0.7569676041603088,0.7126206159591675
1761383404600419600,8.161419677734376,1.2398748397827148,0.309850811958313,0.46782925724983215
1761383404610489600,8.171489501953126,1.1283915042877197,-0.09872578084468842,0.22028470039367676
1761383404620559400,8.181559326171875,0.9934179186820984,-0.2845451831817627,0.044373057782649994
1761383404630628600,8.191628662109375,0.857833981513977,-0.23933722078800201,-0.026991138234734535
1761383404640698400,8.201698486328125,0.721176266670227,0.06827359646558762,-0.0028522454667836428
1761383404650767600,8.211767578125,0.6257962584495544,0.5372416377067566,0.040771398693323135
1761383404660837400,8.22183740234375,0.6059527397155762,0.9151215553283691,0.005567338317632675
1761383404670907400,8.231907470703124,0.6866446733474731,1.0951203107833862,-0.11133158206939697
1761383404680976600,8.2419765625,0.8275631666183472,1.1957491636276245,-0.24059715867042542
1761383404691046400,8.25204638671875,0.9718543291091919,1.2177003622055054,-0.33905795216560364
1761383404701116700,8.26211669921875,1.0906851291656494,1.100815773010254,-0.40265530347824097
1761383404711185400,8.272185302734375,1.162015438079834,0.865298867225647,-0.43596959114074707
1761383404721255400,8.28225537109375,1.1834381818771362,0.6030280590057373,-0.4286118149757385
1761383404731325700,8.29232568359375,1.1540217399597168,0.4109289348125458,-0.38431093096733093
1761383404741394400,8.30239453125,1.0700868368148804,0.3098793029785156,-0.3013438582420349
1761383404751464700,8.312464599609376,0.9261595606803894,0.336526095867157,-0.1949484497308731
1761383404761533400,8.322533447265625,0.7515344619750977,0.45513954758644104,-0.0920119509100914
1761383404771603700,8.332603759765625,0.6017404198646545,0.5994828939437866,-0.019694875925779343
1761383404781673500,8.342673583984375,0.515616238117218,0.7332976460456848,0.009783920831978321
1761383404791742500,8.352742431640625,0.4974721074104309,0.8439839482307434,0.005717274267226458
1761383404801812500,8.3628125,0.5146918296813965,0.9674952626228333,-0.0027595674619078636
1761383404811882500,8.372882568359374,0.5480553507804871,1.0585484504699707,-0.020171048119664192
1761383404821951700,8.38295166015625,0.5931674838066101,1.059114933013916,-0.04602368548512459
1761383404832021500,8.393021484375,0.6290988326072693,0.9182307720184326,-0.07530860602855682
1761383404842091500,8.403091552734375,0.6240606904029846,0.6532654166221619,-0.11256542801856995
1761383404852160500,8.413160400390625,0.5805371403694153,0.31667596101760864,-0.13839276134967804
1761383404862230500,8.42323046875,0.4853070378303528,-0.06537234783172607,-0.15269047021865845
1761383404872299500,8.433299560546875,0.3631070852279663,-0.3872651755809784,-0.11785925924777985
1761383404882369500,8.44336962890625,0.23731055855751038,-0.6026259660720825,-0.02623080462217331
1761383404892439600,8.453439453125,0.08679774403572083,-0.6783201694488525,0.11472312361001968
1761383404902508500,8.463508544921876,-0.07546093314886093,-0.5699074268341064,0.28378430008888245
1761383404912579600,8.47357958984375,-0.21660368144512177,-0.34776464104652405,0.4674273729324341
1761383404922649600,8.483649658203126,-0.3063980042934418,-0.1381879597902298,0.6319814324378967
1761383404932719400,8.49371923828125,-0.3439405858516693,-0.036370523273944855,0.7622832655906677
1761383404942788600,8.50378857421875,-0.35709768533706665,0.04729907214641571,0.8743216395378113
1761383404952858400,8.5138583984375,-0.3501713275909424,0.16714797914028168,0.9804654121398926
1761383404962932200,8.52393212890625,-0.3495470881462097,0.30194947123527527,1.0383661985397339
1761383404973001000,8.5340009765625,-0.3870028555393219,0.36966007947921753,0.9857070446014404
1761383404983071000,8.544071044921875,-0.45552971959114075,0.21940292418003082,0.7866911292076111
1761383404993140200,8.55414013671875,-0.5958399176597595,-0.11197739839553833,0.4637375771999359
1761383405003210000,8.5642099609375,-0.8011922836303711,-0.3904114365577698,0.12687832117080688
1761383405013280300,8.5742802734375,-1.0091567039489746,-0.5851369500160217,-0.1512201428413391
1761383405023349000,8.584348876953126,-1.1992837190628052,-0.7216393947601318,-0.3374669849872589
1761383405033419000,8.5944189453125,-1.3554893732070923,-0.6214909553527832,-0.4001657962799072
1761383405043489300,8.6044892578125,-1.404322624206543,-0.30721721053123474,-0.3413725197315216
1761383405053558000,8.61455810546875,-1.3361274003982544,-0.07106032967567444,-0.26356106996536255
1761383405063628300,8.624628173828125,-1.1885112524032593,-0.049735862761735916,-0.24842232465744019
1761383405073697000,8.634697021484374,-0.8974112272262573,-0.01158661488443613,-0.24141715466976166
1761383405083767300,8.644767333984374,-0.38144031167030334,0.11473004519939423,-0.1345764547586441
1761383405093837000,8.654837158203126,0.26240766048431396,0.09167665988206863,0.20909543335437775
1761383405103906000,8.664906005859375,0.7215502262115479,-0.14992105960845947,0.6610847115516663
1761383405113976000,8.67497607421875,0.788719117641449,-0.5224171280860901,0.8669564127922058
1761383405124046000,8.685046142578125,0.5085881352424622,-1.0488955974578857,0.6743003726005554
1761383405134115300,8.695115234375,0.1390569508075714,-1.7270267009735107,0.22238300740718842
1761383405144185000,8.70518505859375,-0.15078870952129364,-2.33072566986084,-0.334174245595932
1761383405154255000,8.715255126953124,-0.33312204480171204,-2.7757034301757812,-0.9522371888160706
1761383405164324000,8.725323974609376,-0.46016255021095276,-3.0001869201660156,-1.5699059963226318
1761383405174394000,8.73539404296875,-0.525715172290802,-2.9584858417510986,-2.105226755142212
1761383405184463000,8.745463134765625,-0.4805562198162079,-2.6201422214508057,-2.4334678649902344
1761383405194533000,8.755533203125,-0.32229867577552795,-2.046466827392578,-2.5244548320770264
1761383405204603100,8.76560302734375,-0.08043065667152405,-1.3880555629730225,-2.383589267730713
1761383405214672100,8.775672119140625,0.1732625961303711,-0.6996955275535583,-2.052339792251587
1761383405224742100,8.7857421875,0.3505875766277313,-0.081983283162117,-1.6050046682357788
1761383405234812000,8.79581201171875,0.3860076069831848,0.37105822563171387,-1.1351125240325928
1761383405244881200,8.805881103515626,0.30959007143974304,0.6975703239440918,-0.6878862380981445
1761383405254951000,8.815950927734375,0.1599004566669464,0.9046667814254761,-0.2827126681804657
1761383405265021200,8.826021240234375,-0.023992950096726418,0.9298216700553894,0.044449757784605026
1761383405275090200,8.836090087890625,-0.18258072435855865,0.8333523869514465,0.32488009333610535
1761383405285160200,8.84616015625,-0.2898576557636261,0.7200990319252014,0.5909032225608826
1761383405295229200,8.856229248046875,-0.3388427793979645,0.5449306964874268,0.8491571545600891
1761383405305299000,8.866298828125,-0.34740617871284485,0.3446234166622162,1.1019971370697021
1761383405315369200,8.876369140625,-0.33971041440963745,0.16742974519729614,1.3390307426452637
1761383405325438000,8.88643798828125,-0.3395461142063141,0.03861876577138901,1.542687177658081
1761383405335508200,8.89650830078125,-0.37182095646858215,-0.035958267748355865,1.6664727926254272
1761383405345578200,8.906578125,-0.4241882860660553,-0.02292449027299881,1.7077091932296753
1761383405355647000,8.91664697265625,-0.4399033486843109,0.13414715230464935,1.693914771080017
1761383405365717200,8.92671728515625,-0.3895152807235718,0.4322616755962372,1.6379505395889282
1761383405375786000,8.936785888671874,-0.2861981987953186,0.8025835156440735,1.4964797496795654
1761383405385856300,8.946856201171874,-0.15831826627254486,1.1333577632904053,1.208785891532898
1761383405395926000,8.956926025390626,-0.001701759872958064,1.2774245738983154,0.757850706577301
1761383405405995000,8.9669951171875,0.21763138473033905,1.2188068628311157,0.23184388875961304
1761383405416065300,8.977065185546875,0.49256840348243713,1.0860501527786255,-0.22795647382736206
1761383405426135000,8.987135009765625,0.7558626532554626,0.9859243035316467,-0.5262731313705444
1761383405436204300,8.997204345703125,0.8943659067153931,0.9216231107711792,-0.682096004486084
1761383405446274000,9.007274169921875,0.8874315619468689,0.9579904079437256,-0.6921824812889099
1761383405456343300,9.01734326171875,0.7959921956062317,1.0279431343078613,-0.5688623785972595
1761383405466413000,9.0274130859375,0.6767235994338989,0.938154399394989,-0.41790828108787537
1761383405476483000,9.037483154296876,0.5386900901794434,0.5580139756202698,-0.3002344071865082
1761383405486552000,9.047552001953125,0.3953108489513397,-0.04203986003994942,-0.2410813271999359
1761383405496622000,9.0576220703125,0.28486448526382446,-0.6792959570884705,-0.22484669089317322
1761383405506692000,9.067692138671875,0.2158995419740677,-1.2084053754806519,-0.2214498370885849
1761383405516761000,9.077760986328125,0.19678470492362976,-1.50748610496521,-0.19558094441890717
1761383405526831000,9.0878310546875,0.2242669314146042,-1.5445120334625244,-0.1789441853761673
1761383405536901000,9.097901123046874,0.2879830598831177,-1.3684650659561157,-0.19651971757411957
1761383405546970000,9.10797021484375,0.3473465144634247,-1.0106043815612793,-0.3001462519168854
1761383405557040000,9.1180400390625,0.385130375623703,-0.5360602140426636,-0.4962531626224518
1761383405567109000,9.128109130859375,0.42735424637794495,-0.05465099588036537,-0.7454541921615601
1761383405577179100,9.13817919921875,0.4841086268424988,0.332638680934906,-0.9951454997062683
1761383405587249200,9.148249267578125,0.5488870739936829,0.5903341174125671,-1.1836477518081665
1761383405597318100,9.158318115234374,0.582859992980957,0.7613415718078613,-1.3110276460647583
1761383405607388000,9.168387939453124,0.5720038414001465,0.8244475722312927,-1.3931291103363037
1761383405617458200,9.178458251953124,0.5494130849838257,0.7794289588928223,-1.4298144578933716
1761383405627527000,9.18852685546875,0.5169110298156738,0.6631318926811218,-1.4250526428222656
1761383405637597200,9.19859716796875,0.47996073961257935,0.4873473048210144,-1.3682570457458496
1761383405647666200,9.208666259765625,0.44938525557518005,0.26003745198249817,-1.2520250082015991
1761383405657736000,9.21873583984375,0.4162406325340271,0.02936907485127449,-1.0541540384292603
1761383405667806200,9.22880615234375,0.3637726306915283,-0.15086248517036438,-0.7691954970359802
1761383405677875000,9.238875,0.28065457940101624,-0.2649554908275604,-0.40784502029418945
1761383405687945200,9.2489453125,0.1804286241531372,-0.3084539771080017,-0.0028655612841248512
1761383405698015200,9.25901513671875,0.06193767115473747,-0.3019252419471741,0.3988477885723114
1761383405708084200,9.269084228515625,-0.06144924461841583,-0.19482754170894623,0.7574288249015808
1761383405718154200,9.279154296875,-0.19034278392791748,-0.011845740489661694,1.0199121236801147
1761383405728223000,9.289222900390625,-0.2998133599758148,0.0407857783138752,1.1602731943130493
1761383405738293200,9.299293212890625,-0.3556009829044342,-0.1081315279006958,1.2302778959274292
1761383405748363000,9.309363037109375,-0.35264885425567627,-0.25553083419799805,1.3359612226486206
1761383405758432300,9.319432373046874,-0.33397769927978516,-0.1422349065542221,1.5092447996139526
1761383405768502000,9.329501953125,-0.3309030830860138,0.32360976934432983,1.723647952079773
1761383405778572000,9.339572021484376,-0.30317291617393494,0.9121379852294922,1.8672235012054443
1761383405788641300,9.349641357421875,-0.23060178756713867,1.1209932565689087,1.726568341255188
1761383405798711000,9.3597109375,-0.1692710518836975,0.6351034641265869,1.2164592742919922
1761383405808780300,9.3697802734375,-0.164488285779953,-0.32670193910598755,0.49283286929130554
1761383405818850000,9.37985009765625,-0.19370847940444946,-1.2904906272888184,-0.18214955925941467
1761383405828920000,9.389920166015624,-0.23588629066944122,-2.011697292327881,-0.6735967993736267
1761383405838989000,9.399989013671876,-0.3070076107978821,-2.2829134464263916,-0.8540216684341431
1761383405849059000,9.41005908203125,-0.38976961374282837,-2.000589609146118,-0.6149020791053772
1761383405859129000,9.420129150390625,-0.4576764702796936,-1.3448854684829712,-0.0717301145195961
1761383405869198000,9.430197998046875,-0.5185142755508423,-0.6848925948143005,0.5214242935180664
1761383405879268000,9.44026806640625,-0.5960907936096191,-0.1801583170890808,0.9179905652999878
1761383405889338000,9.450338134765625,-0.6340813636779785,0.12655287981033325,1.049633502960205
1761383405899407000,9.460406982421874,-0.5710427165031433,0.2637597322463989,0.9570325016975403
1761383405909477000,9.47047705078125,-0.46330907940864563,0.26039937138557434,0.7380247712135315
1761383405919546000,9.480546142578126,-0.406872421503067,0.18447211384773254,0.5262238383293152
1761383405929616100,9.4906162109375,-0.49474236369132996,0.05788833275437355,0.3534659147262573
1761383405939686100,9.50068603515625,-0.6423046588897705,-0.18314719200134277,0.12578003108501434
1761383405949755100,9.510755126953125,-0.6824909448623657,-0.4136224687099457,-0.18828095495700836
1761383405959825200,9.5208251953125,-0.5477142333984375,-0.5931645631790161,-0.51898193359375
1761383405969895400,9.5308955078125,-0.28772979974746704,-0.7032023668289185,-0.7976223230361938
1761383405979964200,9.540964111328124,0.013587714172899723,-0.7958470582962036,-1.0122044086456299
1761383405990034400,9.551034423828124,0.22739188373088837,-0.8769698739051819,-1.1478245258331299
1761383406000103200,9.561103271484376,0.2833014726638794,-0.8808871507644653,-1.1867754459381104
1761383406010173400,9.57117333984375,0.19366027414798737,-0.8295629620552063,-1.1332943439483643
1761383406020243200,9.5812431640625,0.0461115688085556,-0.7125532627105713,-0.9690934419631958
1761383406030312200,9.591312255859375,-0.0973297506570816,-0.551868200302124,-0.7012009620666504
1761383406040382500,9.601382568359375,-0.22311803698539734,-0.3672259449958801,-0.38975948095321655
1761383406050452200,9.6114521484375,-0.3329739570617676,-0.15884770452976227,-0.07788920402526855
1761383406060521500,9.621521484375,-0.42391425371170044,0.04697443172335625,0.17045855522155762
1761383406070591200,9.63159130859375,-0.49447017908096313,0.21790942549705505,0.32532644271850586
1761383406080660200,9.64166015625,-0.5320963859558105,0.3276449739933014,0.3952202796936035
1761383406090730200,9.651730224609375,-0.540882408618927,0.353040874004364,0.3807460069656372
1761383406100800300,9.66180029296875,-0.5154258012771606,0.28135818243026733,0.30212336778640747
1761383406110869200,9.671869140625,-0.46049782633781433,0.11585256457328796,0.18183957040309906
1761383406120939300,9.681939208984375,-0.382068008184433,-0.061411693692207336,0.07088588923215866
1761383406131009300,9.69200927734375,-0.30264854431152344,-0.18844474852085114,0.004190750420093536
1761383406141078300,9.702078369140626,-0.25529247522354126,-0.2377643585205078,-0.015048458240926266
1761383406151148300,9.712148193359376,-0.23362261056900024,-0.19686806201934814,0.023135412484407425
1761383406161217300,9.72221728515625,-0.22843237221240997,-0.07562844455242157,0.1329556554555893
1761383406171287300,9.732287353515625,-0.24581456184387207,0.10556530952453613,0.2820926606655121
1761383406181357300,9.742357421875,-0.2705998122692108,0.2691592872142792,0.4474930763244629
1761383406191426300,9.75242626953125,-0.28831353783607483,0.2863715887069702,0.5752401351928711
1761383406201496300,9.762496337890624,-0.31177839636802673,0.11054115742444992,0.6481795907020569
1761383406211566300,9.77256640625,-0.3446250259876251,-0.14159627258777618,0.679706335067749
1761383406221635300,9.78263525390625,-0.4067413806915283,-0.40890148282051086,0.6524566411972046
1761383406231705000,9.792705078125,-0.5030950903892517,-0.6954560279846191,0.539534330368042
1761383406241774300,9.8027744140625,-0.6243352293968201,-0.8914172649383545,0.36039093136787415
1761383406251844000,9.812843994140625,-0.7262658476829529,-0.9601859450340271,0.128402441740036
1761383406261914400,9.822914306640625,-0.7834740281105042,-0.9038795232772827,-0.11347755789756775
1761383406271983400,9.8329833984375,-0.8152399659156799,-0.6805974245071411,-0.3127525746822357
1761383406282053000,9.84305322265625,-0.8699492812156677,-0.2686871290206909,-0.4501146972179413
1761383406292123400,9.853123291015624,-0.9518795609474182,0.13162221014499664,-0.5743815302848816
1761383406302192000,9.863192138671875,-1.0685347318649292,0.27677300572395325,-0.7578514814376831
1761383406312262400,9.873262451171875,-1.2394734621047974,0.19850777089595795,-1.0307064056396484
1761383406322331100,9.8833310546875,-1.423823595046997,0.08906702697277069,-1.325406551361084
1761383406332401200,9.893401123046875,-1.532594084739685,0.035833366215229034,-1.5568821430206299
1761383406342471400,9.903471435546875,-1.5415979623794556,-0.011401524767279625,-1.7008904218673706
1761383406352540200,9.9135400390625,-1.4735029935836792,0.004531368613243103,-1.7479543685913086
1761383406362610400,9.9236103515625,-1.3399852514266968,0.1811242401599884,-1.6670751571655273
1761383406372680200,9.93368017578125,-1.1631462574005127,0.4473676383495331,-1.4742064476013184
1761383406382749400,9.94374951171875,-0.9516257643699646,0.7297479510307312,-1.1997708082199097
1761383406392819200,9.953819091796875,-0.7620006799697876,0.9650086760520935,-0.8853660225868225
1761383406402888200,9.96388818359375,-0.661552369594574,1.1033244132995605,-0.5980133414268494
1761383406412958500,9.97395849609375,-0.6616415977478027,1.1051737070083618,-0.3646325469017029
1761383406423028200,9.9840283203125,-0.730889081954956,1.0046747922897339,-0.17384210228919983
1761383406433097500,9.994097412109374,-0.8433261513710022,0.8534110188484192,-0.00455800024792552
1761383406443167200,10.004167236328126,-0.9854598641395569,0.6852555871009827,0.16011589765548706
1761383406453237200,10.0142373046875,-1.1377413272857666,0.5331249237060547,0.3257852792739868
1761383406463306200,10.02430615234375,-1.2694578170776367,0.37155410647392273,0.48241856694221497
1761383406473376300,10.034376220703125,-1.3875035047531128,0.2038934826850891,0.6258247494697571
1761383406483445200,10.0444453125,-1.501375675201416,0.03458167985081673,0.7544266581535339
1761383406493515300,10.054515380859375,-1.6207431554794312,-0.03521577641367912,0.8973150849342346
1761383406503585300,10.064585205078124,-1.7632718086242676,-0.03538009524345398,1.032360315322876
1761383406513654300,10.074654296875,-1.9475510120391846,-0.06860942393541336,1.1118305921554565
1761383406523724300,10.084724365234376,-2.164963483810425,-0.1562063843011856,1.1301525831222534
1761383406533794000,10.0947939453125,-2.408433198928833,-0.28655827045440674,1.1045492887496948
1761383406543863300,10.10486328125,-2.6275887489318848,-0.38347867131233215,1.0867068767547607
1761383406553933300,10.114933349609375,-2.799710750579834,-0.4477580785751343,1.0841917991638184
1761383406564002300,10.125002197265625,-2.8647077083587646,-0.3942314684391022,1.1416252851486206
1761383406574072300,10.135072265625,-2.7404654026031494,-0.2015368491411209,1.315751552581787
1761383406584142300,10.145142333984374,-2.5070629119873047,-0.1335817575454712,1.4842411279678345
1761383406594211300,10.15521142578125,-2.3448715209960938,-0.39506208896636963,1.5039435625076294
1761383406604281000,10.165281005859375,-2.347430467605591,-1.0250927209854126,1.3441567420959473
1761383406614350300,10.175350341796875,-2.5025100708007812,-2.047376871109009,1.0689492225646973
1761383406624420000,10.185420166015625,-2.847245693206787,-3.266674280166626,0.7268717288970947
1761383406634490400,10.195490478515625,-3.324815273284912,-4.258027076721191,0.4047011435031891
1761383406644559400,10.205559326171874,-3.738865375518799,-4.7664265632629395,0.1606682389974594
1761383406654629000,10.215629150390624,-3.9418208599090576,-4.764624118804932,0.047198936343193054
1761383406664699400,10.225699462890624,-3.8940787315368652,-4.36257791519165,0.09929356724023819
1761383406674768100,10.23576806640625,-3.598104953765869,-3.7555410861968994,0.31954097747802734
1761383406684838400,10.24583837890625,-3.1899008750915527,-3.066307544708252,0.6639697551727295
1761383406694908400,10.255908447265625,-2.8941497802734375,-2.4885144233703613,0.9700396656990051
1761383406704977200,10.26597705078125,-2.8022491931915283,-2.239779233932495,1.0478137731552124
1761383406715047400,10.27604736328125,-2.7929046154022217,-2.365835428237915,0.8383596539497375
1761383406725116200,10.2861162109375,-2.699014186859131,-2.672683000564575,0.4407779276371002
1761383406735186400,10.2961865234375,-2.508978843688965,-3.0249600410461426,-0.03876257687807083
1761383406745256200,10.306256103515626,-2.3598248958587646,-3.4626336097717285,-0.5576672554016113
1761383406755325400,10.316325439453125,-2.3195724487304688,-3.9156241416931152,-1.0419814586639404
1761383406765395200,10.326395263671875,-2.381089448928833,-4.186763763427734,-1.4157841205596924
1761383406775464200,10.336464111328125,-2.5476696491241455,-4.099788188934326,-1.6107075214385986
1761383406785534500,10.346534423828125,-2.7847704887390137,-3.618856430053711,-1.6068943738937378
1761383406795604200,10.356604248046875,-3.050446033477783,-2.7782607078552246,-1.4572995901107788
1761383406805673500,10.366673583984374,-3.3100240230560303,-1.7168701887130737,-1.2432080507278442
1761383406815743200,10.3767431640625,-3.517012357711792,-0.6497319340705872,-1.0655169486999512
1761383406825813200,10.386813232421876,-3.6618824005126953,0.19895917177200317,-1.0068663358688354
1761383406835882200,10.39688232421875,-3.719939708709717,0.5722835063934326,-1.0565176010131836
1761383406845952300,10.4069521484375,-3.6677467823028564,0.6229578256607056,-1.117466688156128
1761383406856021200,10.417021240234375,-3.5344622135162354,0.6675354242324829,-1.1010082960128784
1761383406866091300,10.42709130859375,-3.368579149246216,0.7264394760131836,-0.9977370500564575
1761383406876161300,10.437161376953124,-3.1825480461120605,0.7130329012870789,-0.8291658759117126
1761383406886230300,10.447230224609376,-2.965944528579712,0.5774223208427429,-0.6102076768875122
1761383406896300300,10.45730029296875,-2.7421553134918213,0.32228830456733704,-0.3622942864894867
1761383406906370000,10.4673701171875,-2.549243450164795,-0.0026589001063257456,-0.1161351278424263
1761383406916439300,10.477439208984375,-2.4062533378601074,-0.34134641289711,0.09581467509269714
1761383406926509300,10.48750927734375,-2.317000150680542,-0.6698225736618042,0.27222752571105957
1761383406936578300,10.497578369140625,-2.284605026245117,-0.9654896259307861,0.40260177850723267
1761383406946648300,10.5076484375,-2.3001558780670166,-1.1847684383392334,0.4908272325992584
1761383406956718000,10.517718017578124,-2.343559980392456,-1.3387242555618286,0.5215787887573242
1761383406966783000,10.527782958984375,-2.3942930698394775,-1.4401917457580566,0.49368613958358765
1761383406976853200,10.537853271484375,-2.428701400756836,-1.5038715600967407,0.4129452407360077
1761383406986923300,10.54792333984375,-2.4394431114196777,-1.5201784372329712,0.28976762294769287
1761383406996992000,10.557991943359376,-2.4123544692993164,-1.5101300477981567,0.15270298719406128
1761383407007062300,10.568062255859376,-2.356696128845215,-1.4868383407592773,0.036985449492931366
1761383407017131000,10.578131103515625,-2.280722141265869,-1.4506267309188843,-0.045097436755895615
1761383407027201300,10.588201171875,-2.157238006591797,-1.2918133735656738,-0.03616972267627716
1761383407037271300,10.598271240234375,-1.9712039232254028,-1.0029256343841553,0.08487760275602341
1761383407047340000,10.608340087890625,-1.7716028690338135,-0.8394065499305725,0.23271925747394562
1761383407057410300,10.618410400390625,-1.6622167825698853,-1.0550336837768555,0.23639975488185883
1761383407067479000,10.62847900390625,-1.7101187705993652,-1.582062840461731,-0.0029635655228048563
1761383407077549300,10.63854931640625,-1.820636510848999,-2.0994911193847656,-0.3673764169216156
1761383407087619000,10.648619140625,-1.8784806728363037,-2.557769775390625,-0.6752676367759705
1761383407097688300,10.658688232421875,-1.8993943929672241,-2.8188841342926025,-0.7965429425239563
1761383407107758000,10.668758056640625,-1.926271915435791,-2.6477394104003906,-0.6592263579368591
1761383407117828000,10.678828125,-1.920308232307434,-2.082232713699341,-0.2736278176307678
1761383407127897300,10.6888974609375,-1.8315740823745728,-1.435547113418579,0.18813501298427582
1761383407137967000,10.698967041015624,-1.6387724876403809,-1.0580486059188843,0.5206839442253113
1761383407148036400,10.709036376953126,-1.3570278882980347,-0.8967292308807373,0.6380683779716492
1761383407158106000,10.719106201171876,-1.1090044975280762,-0.806279718875885,0.5160537958145142
1761383407168176000,10.729176025390625,-0.9225544333457947,-0.8805739283561707,0.17970505356788635
1761383407178245000,10.7392451171875,-0.7577614784240723,-1.1033673286437988,-0.2258770763874054
1761383407188315100,10.749315185546875,-0.6249037981033325,-1.3858890533447266,-0.5862848162651062
1761383407198384000,10.759384033203125,-0.5804207921028137,-1.5714977979660034,-0.8316125273704529
1761383407208454100,10.7694541015625,-0.6510685682296753,-1.5086525678634644,-0.9378803968429565
1761383407218524200,10.779524169921874,-0.792229413986206,-1.1415482759475708,-0.9276535511016846
1761383407228593200,10.78959326171875,-0.9184760451316833,-0.7015213370323181,-0.8749812841415405
1761383407238663200,10.7996630859375,-0.9912594556808472,-0.358236163854599,-0.8384318351745605
1761383407248733000,10.80973291015625,-0.9896852374076843,-0.12033173441886902,-0.7848721742630005
1761383407258802200,10.81980224609375,-0.9613273739814758,0.0014045510906726122,-0.7386860251426697
1761383407268872200,10.8298720703125,-0.9286935329437256,-0.02213459648191929,-0.6978544592857361
1761383407278941200,10.839941162109374,-0.9052742123603821,-0.1855219304561615,-0.6302895545959473
1761383407289011200,10.85001123046875,-0.9444509148597717,-0.37615978717803955,-0.5465986132621765
1761383407299081000,10.8600810546875,-1.0799463987350464,-0.48980751633644104,-0.4625455439090729
1761383407309150200,10.870150146484375,-1.2517714500427246,-0.43623003363609314,-0.3694222569465637
1761383407319220000,10.880219970703125,-1.366127371788025,-0.22023862600326538,-0.23911911249160767
1761383407329290200,10.890290283203125,-1.4050397872924805,0.1412053257226944,-0.08011028170585632
1761383407339359000,10.90035888671875,-1.3598520755767822,0.4864000082015991,0.06303276121616364
1761383407349429200,10.91042919921875,-1.2719496488571167,0.7354287505149841,0.16701509058475494
1761383407359498200,10.920498291015624,-1.1789071559906006,0.9079179763793945,0.21795442700386047
1761383407369568000,10.930568115234376,-1.0953541994094849,1.047153353691101,0.2055739313364029
1761383407379638300,10.94063818359375,-1.0240893363952637,1.0798475742340088,0.13695065677165985
1761383407389707000,10.95070703125,-0.9867627024650574,0.9746381044387817,0.03718705102801323
1761383407399777300,10.96077734375,-0.9867392778396606,0.805901825428009,-0.07213757932186127
1761383407409846000,10.970845947265625,-1.007426142692566,0.689350962638855,-0.16984602808952332
1761383407419916000,10.980916015625,-1.0208410024642944,0.6509237289428711,-0.22567786276340485
1761383407429986300,10.990986328125,-0.9997661113739014,0.6853863596916199,-0.2487000972032547
1761383407440055000,11.001054931640626,-0.9271241426467896,0.7581020593643188,-0.24994724988937378
1761383407450125300,11.011125244140626,-0.9600346684455872,0.7599548697471619,-0.12929487228393555
1761383407460195000,11.021195068359376,-1.0880539417266846,0.32205232977867126,-0.04026087000966072
1761383407470264300,11.031264404296875,-1.0859880447387695,-0.03471723571419716,0.01028352975845337
1761383407480334000,11.041333984375,-0.9731760621070862,-0.25926673412323,-0.004266916774213314
1761383407490403000,11.051403076171875,-0.9468685388565063,-0.4632483422756195,-0.12070218473672867
1761383407500473300,11.061473388671875,-1.0079576969146729,-0.6767292022705078,-0.34097516536712646
1761383407510543000,11.071543212890624,-1.0278619527816772,-0.7879638671875,-0.5673015117645264
1761383407520612400,11.0816123046875,-1.0041025876998901,-0.7542330622673035,-0.7219182252883911
1761383407530682000,11.09168212890625,-0.9584484696388245,-0.5782907605171204,-0.6952533721923828
1761383407540751000,11.101751220703125,-0.8910492062568665,-0.43555518984794617,-0.4996156692504883
