time,seconds_elapsed,z,y,x
1761308910535428900,0.106428955078125,0.08495031979382038,-0.107409404361248,-0.011437778206914663
1761308910545357800,0.11635791015625,0.03488543542027473,-0.05492832569144666,0.015036163458484225
1761308910555285800,0.12628564453125,-0.04182721738219261,-0.044418037592992184,0.04635155837226193
1761308910565213700,0.136213623046875,-0.12610124534964562,-0.040912294494360686,0.05784355555102229
1761308910575142700,0.146142578125,-0.16437749225199222,-0.05911540211774408,0.04450625929913949
1761308910585070600,0.156070556640625,-0.13463818754851817,-0.03450527699626982,0.02043926461103838
1761308910594998500,0.16599853515625,-0.05759411083459854,-0.0063449120473116636,0.02789805618438404
1761308910604927700,0.175927734375,0.027782909938693045,-0.005952551728859543,0.041102702499926085
1761308910614855700,0.185855712890625,0.15979717872440813,-0.022128172112628818,0.03080572379201185
1761308910624784000,0.195783935546875,0.2469353639513254,-0.006623655923455953,0.03547715423572808
1761308910634712600,0.205712646484375,0.2438730537712574,0.006102554658800363,0.04048256130758673
1761308910644640800,0.215640869140625,0.22155016280412673,0.02942819292768836,0.036607509972527624
1761308910654568700,0.225568603515625,0.22951778068244455,0.023525252494215963,0.05326156152300536
1761308910664497700,0.23549755859375,0.2193289796233177,-0.00036466859392821787,0.09382288715522735
1761308910674425600,0.245425537109375,0.17395196080505848,0.0016329349640756845,0.11473594785705209
1761308910684354800,0.255354736328125,0.12155951026678084,0.00838986187838018,0.08107329569738357
1761308910694282800,0.26528271484375,0.05799041667580604,0.0031887130387127397,0.04959865510128438
1761308910704210700,0.275210693359375,-0.046702129942178726,-0.01911839583739638,0.056369427877850826
1761308910714139600,0.2851396484375,-0.06952887877821921,-0.03529555059112608,0.015442919911758508
1761308910724067600,0.295067626953125,-0.04244505701959133,-0.016809534373134375,-0.03354121773708611
1761308910733995800,0.304995849609375,0.013333528825640678,0.0076774758253246546,-0.054668469178862866
1761308910743924700,0.3149248046875,0.039296237599849695,0.013848492610454559,-0.08135540057439357
1761308910753852700,0.324852783203125,0.027369068440794942,-0.0032408816173672673,-0.1252957741856575
1761308910763780600,0.334780517578125,0.06243044494986534,-0.022718173895031214,-0.1580793784884736
1761308910773709800,0.344709716796875,0.09752513920664786,-0.015038359982147812,-0.1578343542188406
1761308910783637800,0.3546376953125,0.0871668267995119,0.022104206715151665,-0.10052662257757038
1761308910793565700,0.364565673828125,0.051158524829149246,0.05271233014240861,-0.040014651534892615
1761308910803494700,0.37449462890625,-0.022496493968367576,0.036101167885586614,0.021454693297855553
1761308910813422600,0.384422607421875,-0.1392243462949991,-0.015409458316862582,0.03953088660594076
1761308910823350800,0.394350830078125,-0.1756149255812168,-0.06819697258733212,0.007290924193151295
1761308910833279500,0.404279541015625,-0.14453355861902237,-0.11498999568335712,-0.022537812359444794
1761308910843207700,0.414207763671875,-0.12498130140900611,-0.13434285786375402,-0.009175130504556
1761308910853135600,0.424135498046875,-0.08944938477873801,-0.1383460290905088,0.0016727931920730043
1761308910863064800,0.43406494140625,-0.052909167888760565,-0.11809490289613604,0.020151684407889843
1761308910872992800,0.44399267578125,-0.04293079470992088,-0.10284121966287493,0.042365415912121535
1761308910882920700,0.453920654296875,-0.018982932889461516,-0.08557721952050924,0.037401363763958216
1761308910892849700,0.463849609375,0.0011082535028457642,-0.061197688284516334,-0.0037182533381506797
1761308910902777600,0.473777587890625,0.028320085555315015,-0.07231938627958297,-0.02086860050559044
1761308910912705500,0.48370556640625,0.0669026219278574,-0.055567719573527574,-0.023603213101252914
1761308910922634500,0.493634521484375,0.10106441924870013,-0.049561026504635806,-0.009276691182889044
1761308910932562700,0.503562744140625,0.1221580606818199,-0.046629576162621374,-0.018261119137646165
1761308910942490600,0.51349072265625,0.1433604231864214,-0.06965688907206058,-0.003851305133290589
1761308910952419800,0.523419921875,0.09176642954945564,-0.08229717493653296,0.011850889052450657
1761308910962347800,0.53334765625,0.07283844171762466,-0.06782609344832599,0.028402359294577035
1761308910972275700,0.543275634765625,0.048344051930308336,-0.06431961969733238,0.0622607509387657
1761308910982204700,0.55320458984375,-0.008204933765530586,-0.08629691209718585,0.07156991961915045
1761308910992132600,0.563132568359375,-0.04353285225629806,-0.09551204581856727,0.08034494489021599
1761308911002060500,0.573060546875,-0.031307576933503146,-0.09760141931325196,0.06977163802552967
1761308911011989500,0.582989501953125,-0.016270166799426077,-0.09032119917720556,0.08822086589708923
1761308911021917700,0.592917724609375,0.0032189620465040204,-0.0689629885237664,0.12079006026424467
1761308911031846000,0.602845947265625,0.025241993284225463,-0.04583835271969437,0.1442537187643349
1761308911041774800,0.61277490234375,0.0152191964417696,-0.0351417482689023,0.12391217434015124
1761308911051702800,0.622702880859375,0.015045008918642997,-0.06403941451646387,0.08814487805142998
1761308911061630700,0.632630615234375,0.06351999375224113,-0.05904949727468192,0.038715770830772815
1761308911071559700,0.6425595703125,0.10889350543916225,-0.08690211144872009,-0.019178930385597048
1761308911081487600,0.652487548828125,0.11033844355046749,-0.11067213248424232,-0.0399328550029546
1761308911091415600,0.66241552734375,0.0770978527277708,-0.07915544284470379,-0.03922386648338288
1761308911101344500,0.672344482421875,0.011985036826133727,-0.06814210059493779,-0.03926416196115315
1761308911111272400,0.6822724609375,-0.0001841243952512741,-0.08340162904709578,-0.015458229362033307
1761308911121201000,0.692200927734375,0.012046996146440505,-0.10435337779149413,0.02687785085774958
1761308911131129900,0.7021298828125,0.017516951990127563,-0.09949753525815903,0.03391808822546154
1761308911141057800,0.712057861328125,0.04619125781059265,-0.09091748456992209,0.03178980749249458
1761308911150985700,0.72198583984375,0.0539402645021677,-0.07653378910422325,0.00982625135704875
1761308911160914700,0.731914794921875,0.008126023310422897,-0.0870885008662939,0.011793642439879477
1761308911170842600,0.741842529296875,-0.03871346927583218,-0.08807422396801412,0.027158165636472404
1761308911180770600,0.7517705078125,-0.12704057202637195,-0.08584814541637897,0.06052234630621969
1761308911190699500,0.761699462890625,-0.21919220150113106,-0.06629778790250421,0.03273834038898349
1761308911200627700,0.771627685546875,-0.21808102538883684,-0.06734313223697244,-0.012606383594870567
1761308911210556000,0.781555908203125,-0.17410042936503886,-0.0409954427331686,-0.032526670399680734
1761308911220484600,0.791484619140625,-0.08882453087866306,-0.007398439688235521,-0.060966765605472026
1761308911230412800,0.801412841796875,0.025218612408638,0.01536576530560851,-0.0887735313437879
1761308911240340700,0.8113408203125,0.09565408463776111,0.03167736009396612,-0.10161869213059543
1761308911250269700,0.821269775390625,0.13338146548569202,0.028401991685107347,-0.08108659357037394
1761308911260197600,0.83119775390625,0.11352642593681811,0.051185120575129986,-0.07183580401372164
1761308911270125600,0.84112548828125,0.05371931522786617,0.05792940720357,-0.042441038431599735
1761308911280054800,0.8510546875,0.05340893410444259,0.04422163823805749,-0.04962009974811226
1761308911289982700,0.860982666015625,0.04570668916404247,0.029236104421690105,-0.0326038661050261
1761308911299910700,0.87091064453125,0.06177694947719574,0.011967281973734497,-0.018718144473433493
1761308911309839600,0.880839599609375,0.08296762154400349,-0.011582958831265568,0.004049458053894341
1761308911319767800,0.890767822265625,0.11424363429546355,-0.03700250063948333,0.02126286052018404
1761308911329695700,0.90069580078125,0.10981880359053611,-0.029178602080792187,0.044114049677737056
1761308911339624700,0.910624755859375,0.07566928122937679,-0.03036591216921806,0.017439612437598406
1761308911349552600,0.920552734375,0.024478023174405096,-0.045293139927089214,-0.025855923931486904
1761308911359480600,0.93048046875,-0.04469312820732593,-0.06609349750205874,0.06350549030285328
1761308911369409800,0.940409912109375,-0.038946693509817124,-0.08269508821293711,0.14438618603758513
1761308911379337700,0.950337646484375,-0.00509293922483921,-0.027593597911670802,0.07625292633622885
1761308911389265700,0.960265625,0.06418985583782195,0.03816511467806995,-0.01562649860102683
1761308911399194600,0.970194580078125,0.12641747169196604,0.05180252182111144,-0.024455190288089214
1761308911409122800,0.980122802734375,0.16550737306475638,0.03388970238119363,-0.07097473020497709
1761308911419050800,0.99005078125,0.17369886282682417,-0.009430749233439565,-0.118993897562474
1761308911428979700,0.999979736328125,0.1641553739339113,-0.032882132773846384,-0.16406506530195475
1761308911438907600,1.00990771484375,0.09927169061303139,-0.013207491293177007,-0.07391637314744293
1761308911448835600,1.019835693359375,-0.02296761861145496,0.024791473037749527,0.015853220028989017
1761308911458764800,1.029764892578125,-0.09005611850023269,-0.023926672901958226,0.03584408785197884
1761308911468692700,1.039692626953125,-0.11882394782304763,-0.0807332135554403,0.05937777938097715
1761308911478620700,1.04962060546875,-0.03159691526889801,-0.12040171853378415,0.0735353744732216
1761308911488549600,1.059549560546875,0.08435410746634006,-0.10264606241695583,0.009234202606388135
1761308911498477600,1.0694775390625,0.14342004441916942,-0.08154343395978211,-0.03724142396189272
1761308911508406500,1.079406494140625,0.09986205772161483,-0.07481682911850511,-0.013020078962296247
1761308911518334500,1.08933447265625,-0.09171616066694259,-0.08471724169030785,0.08144260393381118
1761308911528262400,1.099262451171875,-0.26992519439458845,-0.10384681650884449,0.1578256229231134
1761308911538191600,1.109191650390625,-0.33534079263508315,-0.10102204141169786,0.1433497556619346
1761308911548119600,1.11911962890625,-0.3285515708863735,-0.06003456278927624,0.09487933740559965
1761308911558047500,1.129047607421875,-0.2615752992004156,-0.030469299478456377,0.06695373106058687
1761308911567976400,1.1389765625,-0.19910276867449284,-0.022769757951796053,0.044064109588786954
1761308911577904400,1.148904296875,-0.11495382839143276,-0.018128946408629415,0.03175926622375846
1761308911587832600,1.15883251953125,-0.03825871124565601,0.0014094284065067767,0.0520669083783403
1761308911597761300,1.16876123046875,0.04258417322933673,0.007006298565492034,0.09345219067931175
1761308911607689500,1.178689453125,0.09425707732141017,0.01733903813995421,0.10350224085487425
1761308911617617400,1.188617431640625,0.14718611895442008,0.004555179086327552,0.11602185948174445
1761308911627546600,1.198546630859375,0.1966688195258379,-0.020136340708285568,0.12175488670840859
1761308911637474600,1.208474609375,0.23824761510491368,-0.021933526323363185,0.08809380545131862
1761308911647402500,1.218402587890625,0.23538404236733912,0.004343216836079955,0.06785001774660777
1761308911657331500,1.22833154296875,0.2043231336712837,0.02388707154393196,0.06500763849411159
1761308911667259400,1.23825927734375,0.10460311476886272,0.013341639066860079,0.08651384278349578
1761308911677187300,1.248187255859375,0.017569558960199357,0.025748481501638887,0.11234046755526214
1761308911687116300,1.2581162109375,-0.06806465144455433,0.035349764996394514,0.11749026980018243
1761308911697044500,1.26804443359375,-0.10745616611242294,0.0387372885428369,0.0774678185513243
1761308911706972400,1.277972412109375,-0.11538695911169052,0.03372632851302623,0.05478835096517577
1761308911716901600,1.287901611328125,-0.05659048675000667,0.04695500872470438,0.04042316840370185
1761308911726829600,1.29782958984375,0.015661094990372656,0.04664879231974482,0.017167809758894145
1761308911736757500,1.307757568359375,0.043012627774477,0.057908875872194766,0.024432466999627648
1761308911746686500,1.3176865234375,0.0648240620881319,0.07340951960384845,0.08277733226944692
1761308911756614400,1.327614501953125,0.04984978031814098,0.09408866195194422,0.1225895383011084
1761308911766542300,1.337542236328125,0.07545008552074432,0.07819500031471252,0.12451476160949096
1761308911776471300,1.34747119140625,0.06444003120660781,0.04065481260195374,0.11940366567345335
1761308911786399500,1.3573994140625,0.047345104020833965,-0.011021598621457815,0.11674767127195372
1761308911796328400,1.367328369140625,0.02749824777841568,-0.026799232663586733,0.11017375450804828
1761308911806256600,1.377256591796875,0.011152093133330345,0.00834470756240189,0.10277195381894708
1761308911816184600,1.3871845703125,-0.008897007682919502,0.045464477906003595,0.10253951503625139
1761308911826112500,1.397112548828125,-0.00904781433045864,0.04752477143667638,0.0974751717182342
1761308911836041500,1.40704150390625,0.014396774142980575,-0.0018599486529827117,0.07057725531999022
1761308911845969400,1.416969482421875,-0.0037882863670587537,-0.005799772319942713,0.06587242036359384
1761308911855898400,1.4268984375,0.02245440839231014,-0.012327347457781433,0.06736720723230391
1761308911865826300,1.436826416015625,0.10645721820294857,0.016245032358169556,0.06756517748981714
1761308911875754200,1.446754150390625,0.18721885413527486,0.031153628480806946,0.06714535377570427
1761308911885683500,1.456683349609375,0.20988953562676904,0.015968772700056432,0.04057206622194499
1761308911895611600,1.466611572265625,0.23237258559167384,0.00609780541844666,0.04484536876012571
1761308911905539600,1.47653955078125,0.18146365160942077,0.00588832738623023,0.04126129059512168
1761308911915468500,1.486468505859375,0.10696166059374809,-0.0039979105297476055,0.003920233050500974
1761308911925396500,1.496396484375,0.05120119492709636,-0.029768969189375636,-0.0461710370064713
1761308911935324400,1.506324462890625,-0.07716273465752602,-0.048385479919239874,-0.05446319239772856
1761308911945253400,1.51625341796875,-0.1902244656920433,-0.03362126070335507,-0.1030887281505391
1761308911955181300,1.526181396484375,-0.2701198401838541,0.03276785874441266,-0.11017957232748157
1761308911965109200,1.536109130859375,-0.24484628271758554,0.03645173488892615,-0.04707344747260213
1761308911975038500,1.54603857421875,-0.15342296751737594,0.00709025052189827,0.014364899433683603
1761308911984966400,1.55596630859375,-0.032144027757644654,-0.00956979237794876,0.042851683325413614
1761308911994894600,1.56589453125,0.07177987257540226,-0.030266689578443765,0.03954412968000397
1761308912004823600,1.575823486328125,0.1506102481842041,-0.04695427807234227,0.009130350647913291
1761308912014751500,1.58575146484375,0.21143267341554164,-0.06516286558844149,-0.0032644360228907313
1761308912024679400,1.595679443359375,0.17409692223370074,-0.06356324837207794,0.0637081732681021
1761308912034608400,1.6056083984375,0.0971972224265337,-0.03431457672975957,0.07245985419619828
1761308912044536300,1.615536376953125,0.01567921516895294,0.015129910723119974,0.011549312289990484
1761308912054464300,1.62546435546875,-0.0629986002266407,0.04302278384231031,-0.013319833660428411
1761308912064393500,1.6353935546875,-0.07587912458777427,0.041572731164470314,-0.021055834739957934
1761308912074321400,1.6453212890625,-0.042291327762603755,0.02185432360731065,-0.044614984937198454
1761308912084249600,1.65524951171875,-0.05411211393773555,-0.021520196282118556,-0.06750701756179332
1761308912094178600,1.665178466796875,-0.043861353558301924,-0.04300999742597341,-0.053311318948864934
1761308912104106500,1.6751064453125,-0.03343406756818294,-0.02643054548166692,-0.019281513977237045
1761308912114034400,1.685034423828125,-0.027362054178118704,-0.008807868094742297,0.07354878194406628
1761308912123963400,1.69496337890625,0.002973462852835655,-0.015554492810741066,0.15670631830329074
1761308912133891300,1.704891357421875,0.06504968753755093,-0.03307319836653769,0.1541922713894397
1761308912143819300,1.7148193359375,0.0909966142207384,-0.040619595158100125,0.08939199203569441
1761308912153748500,1.72474853515625,0.07141863804757595,-0.056463572434708474,0.00717814800105989
1761308912163676400,1.734676513671875,0.05481295568346977,-0.03382745079994202,-0.05160656085759401
1761308912173604600,1.7446044921875,0.0595259556800127,0.0068273618020117275,-0.06044708911292255
1761308912183533300,1.754533203125,0.020850480327010153,0.0009400573290884494,-0.054907246370799835
1761308912193461500,1.76446142578125,-0.03301496537327766,-0.06561974251046776,0.008030527046695352
1761308912203389400,1.774389404296875,-0.07534545610249042,-0.08057349294908345,0.039804698578640815
1761308912213318400,1.784318359375,-0.07176584405004978,-0.0732343091674149,0.0313065540201962
1761308912223246300,1.794246337890625,-0.030934651967883108,-0.06379486517086624,0.02009929663352668
1761308912233174300,1.80417431640625,0.05292436545789241,-0.07751118276901543,0.030142912501725367
1761308912243103500,1.814103515625,0.12461714427173137,-0.08540383571498096,0.057477754445932804
1761308912253031400,1.824031494140625,0.1688087526977062,-0.06772869748845696,0.0675244436206296
1761308912262959400,1.83395947265625,0.17782792545557022,-0.017511837423592806,0.008112211697490419
1761308912272888300,1.843888427734375,0.16944763512313366,-0.0029660832639783617,-0.01802957997067133
1761308912282816500,1.85381640625,0.08168108886480331,-0.027997940928861497,0.02344093292834004
1761308912292745500,1.863745361328125,-0.025233225455880165,-0.02632299345396459,0.06404949751906097
1761308912302673400,1.87367333984375,-0.10080547605156898,-0.029500016054883598,0.08601144621931016
1761308912312601300,1.883601318359375,-0.09037292936444281,-0.019175240591168402,0.07960548816714436
1761308912322530600,1.893530517578125,-0.026379472881555555,-0.0017801614150404928,0.07276570527497679
1761308912332458500,1.90345849609375,0.040676293781399725,-0.035641952876001595,0.0749247464723885
1761308912342386400,1.913386474609375,0.12317629781365394,-0.06699599929973482,0.08104991482179612
1761308912352315400,1.9233154296875,0.15893910059034824,-0.07075272148475051,0.09781330849826335
1761308912362243300,1.933243408203125,0.14274433711469173,-0.07848762658573687,0.10105192509330808
1761308912372171500,1.943171630859375,0.09090309071838855,-0.0897787628635764,0.10230232701320201
1761308912382100200,1.953100341796875,0.048126025265455244,-0.10612009520307182,0.08593008807878941
1761308912392028400,1.9630283203125,0.030543022301793097,-0.10329517397545278,0.05104461612589657
1761308912401956600,1.97295654296875,0.0011865794360637664,-0.10293708125278353,0.03094389472026378
1761308912411885600,1.982885498046875,0.006110007312893867,-0.09567951133996248,0.01670366284586489
1761308912421813500,1.9928134765625,-0.03296352744698524,-0.07681750141642987,-0.016340421307331415
1761308912431741400,2.002741455078125,-0.09959493121802807,-0.08272555641643703,-0.04940148856136948
1761308912441670400,2.01267041015625,-0.13382453307807446,-0.10079743887558579,-0.06916092224866151
1761308912451598300,2.022598388671875,-0.14689911870658398,-0.09011369390636682,-0.023118975531554314
1761308912461526300,2.0325263671875,-0.16812778469622133,-0.07811309418492018,0.05251910455867182
1761308912471455200,2.042455322265625,-0.07809621611535549,-0.08316109828948974,0.05752689081728458
1761308912481383400,2.052383544921875,-0.027794600376486775,-0.0975915555063635,0.05390485982864629
1761308912491311600,2.0623115234375,-0.030056115567684172,-0.12020488078743219,0.06715878864601255
1761308912501240600,2.072240478515625,-0.005374094253778458,-0.1311926502045244,0.07452984713697805
1761308912511168500,2.08216845703125,0.04192541705965996,-0.11874028812758623,0.05764470394409727
1761308912521096400,2.092096435546875,0.061329205709695814,-0.09631181789413094,0.0011493115990189834
1761308912531025400,2.102025390625,0.03472410737872123,-0.08814078639820218,-0.03247662527945358
1761308912540953300,2.111953369140625,-0.033866613766551014,-0.08370251168981194,-0.06315774087768514
1761308912550881300,2.12188134765625,-0.06131576170623302,-0.08552738902941345,-0.07564747125636785
1761308912560810200,2.131810302734375,-0.06424304732978343,-0.060790276527404784,-0.04594374932292849
1761308912570738400,2.141738525390625,-0.10316635996401309,-0.055845732797309755,-0.05441650827836711
1761308912580666400,2.151666259765625,-0.1369762751072645,-0.061068582012131806,-0.07724551757015287
1761308912590594300,2.16159423828125,-0.0716734895914793,-0.0566007889483124,-0.04943864680055994
1761308912600523500,2.1715234375,0.04098141420781612,-0.039090924286097284,-0.030800138868018984
1761308912610451500,2.181451416015625,0.14558335993289948,-0.04665456447340548,-0.03174830643832684
1761308912620379400,2.19137939453125,0.19818799191713332,-0.0687726535834372,-0.04189531874891836
1761308912630308400,2.201308349609375,0.14358546411395073,-0.0717369832817465,-0.05609291249141097
1761308912640236300,2.211236328125,0.053930912151932714,-0.0578727085802704,-0.04076576672971714
1761308912650164500,2.22116455078125,0.024348843836784363,-0.027798765094950793,-0.034375663833809085
1761308912660093200,2.23109326171875,-0.0038444004684686658,-0.008200184525176882,-0.014912212851829827
1761308912670021400,2.241021484375,-0.011826631394028663,-0.00846533826738596,0.02933390224035829
1761308912679949300,2.25094921875,-0.053228316840529435,0.00202047297693789,-0.010171852207614573
1761308912689878500,2.26087841796875,-0.10268354488313197,0.00016965747848153112,-0.0591904401153326
1761308912699806500,2.270806396484375,-0.0719219113945961,0.007745207299292087,-0.07141052780635654
1761308912709734400,2.280734375,-0.05919336272478103,-0.006658434975892305,-0.03612140695601702
1761308912719663400,2.290663330078125,0.014743980145454406,-0.003108998866006732,-0.025759991559630723
1761308912729591300,2.30059130859375,0.12211772867143153,0.018863909619674085,-0.02735365395924309
1761308912739519200,2.310519287109375,0.17814064466655252,0.019770137744396923,-0.0010660948615521192
1761308912749448200,2.3204482421875,0.1596153924167156,0.016476649156957863,0.04102061370704323
1761308912759376400,2.33037646484375,0.1438654500991106,0.03602159984335303,0.004796038637496531
1761308912769304600,2.3403046875,0.0907353329360485,0.05877484505176544,0.02232661729417741
1761308912779233500,2.350233642578125,0.0496048656463623,0.05290310347415506,0.05029160580150783
1761308912789161500,2.360161376953125,0.03928454716205597,0.04947817052677273,0.038778862662240864
1761308912799089400,2.37008935546875,0.03583352992534637,0.024068054134026167,0.024965222169458866
1761308912809018400,2.380018310546875,-0.011923077505826949,-0.002091419321298599,0.04233944122064858
1761308912818946300,2.3899462890625,-0.06628828942179679,0.0075197279803454874,0.04827175387907773
1761308912828874200,2.399874267578125,-0.05532616590261459,0.024713147104531524,0.022059709986299275
1761308912838803200,2.40980322265625,-0.03663140230476856,0.02731368499174714,0.015179047094471751
1761308912848731400,2.4197314453125,-0.04622574460208416,0.029176848515123126,0.039465347089059646
1761308912858659600,2.42965966796875,-0.009714753806591033,0.04253375821635127,0.07066467787511646
1761308912868588500,2.439588623046875,0.009787819042801857,0.046721711425483224,0.07872384649440646
1761308912878516500,2.4495166015625,0.024861469534039497,0.0445572268679738,0.057980004879646
1761308912888444400,2.4594443359375,0.05165478391349315,0.023583996944129465,0.025551789885759353
1761308912898373400,2.469373291015625,0.0597960047930479,-0.000010813654959201812,-0.0028436624607071277
1761308912908301300,2.47930126953125,0.03877718216180801,-0.006752323804423212,-0.05069368379637599
1761308912918229200,2.489229248046875,0.022698738542199132,-0.03886252235770225,-0.03977225761376321
1761308912928158200,2.499158203125,0.034867315241694445,-0.05764218776002526,-0.025675197069719432
1761308912938086400,2.50908642578125,0.03995382472574711,-0.06602145517915486,-0.06056812167670578
1761308912948014600,2.5190146484375,0.005056114345788955,-0.07551306775435805,-0.06876056128684431
1761308912957943600,2.528943603515625,-0.035142040529847145,-0.0886181946516037,-0.03578421089090407
1761308912967871500,2.53887158203125,-0.03443009286820888,-0.08006430131793021,-0.023578443986177443
1761308912977799400,2.54879931640625,-0.060256023520231246,-0.07099325224235653,-0.0012215776842087506
1761308912987727400,2.558727294921875,0.0019248305827379226,-0.07093070840016007,0.039842546370998023
1761308912997656300,2.56865625,0.049935705035924906,-0.048406961098685856,0.03705733381597092
1761308913007584300,2.578584228515625,0.009430676168203353,-0.02877762006446719,0.02935198588632047
1761308913017512400,2.588512451171875,-0.07800795331001281,-0.042186113822460174,0.017525756351090965
1761308913027441400,2.59844140625,-0.06768763482570647,-0.04005794268734753,-0.013873115595057606
1761308913037369600,2.60836962890625,-0.054659810948371884,-0.03014905454814434,-0.02238561747241765
1761308913047297500,2.618297607421875,-0.08247077793776988,-0.027026903939619658,0.01749616264713695
1761308913057226500,2.6282265625,-0.1397743813931942,-0.02948087296299636,0.0403257267780602
1761308913067154400,2.638154541015625,-0.15035481211841106,-0.045206630687415594,-0.010550547043606638
1761308913077082400,2.648082275390625,-0.0811672941237688,-0.03270326907560229,-0.0763963899275288
1761308913087011300,2.65801123046875,-0.02240881568491459,-0.02989544511325657,-0.061694860684312874
1761308913096939300,2.667939208984375,0.0860129805892706,-0.04834682840928435,0.025905498694255947
1761308913106867200,2.6778671875,0.1620166083395481,-0.03552950547747314,0.0506762212049216
1761308913116796400,2.68779638671875,0.14920505756139754,-0.005356485531851649,-0.02847706621531397
1761308913126724600,2.697724609375,0.14785072034299374,0.015268442410975695,-0.08962689677011221
1761308913136652500,2.707652587890625,0.14075053294897077,0.02700659180395305,-0.05902206127848476
1761308913146581500,2.71758154296875,0.07686930466890335,0.008175561540573835,-0.01491042275354266
1761308913156509400,2.727509521484375,-0.04118365878164768,-0.0034179917499423027,0.0025048954930156466
1761308913166437400,2.737437255859375,-0.14571020118296146,0.00012158055305480956,0.01196567453853786
1761308913176366300,2.747366455078125,-0.16510346843898296,0.008945961391180753,0.059006133056990796
1761308913186294300,2.757294189453125,-0.05411094489395618,0.008956921176612377,0.07020977371446788
1761308913196222200,2.76722216796875,0.07274024204015732,-0.01911635001078248,0.030351408719830213
1761308913206150400,2.777150390625,0.14475567693710326,-0.010845730597898364,0.017856522675417364
1761308913216079400,2.787079345703125,0.1845475890994072,0.028857699563354253,0.012534229390823748
1761308913226007600,2.797007568359375,0.13463409589529038,0.027734979143738746,0.04000219391211867
1761308913235935500,2.806935546875,0.03612462182641029,0.013238690149039029,0.0780173056602478
1761308913245864400,2.816864501953125,-0.00807926155924797,0.009570961421728134,0.06822342220284044
1761308913255792400,2.82679248046875,-0.0017296002715826034,0.013610811397060751,0.04843797729145735
1761308913265720300,2.83672021484375,0.030350130078196525,0.01716974598765373,0.05991740268301218
1761308913275649300,2.846649169921875,0.06918868703842163,0.017218042108789085,0.04816800124365836
1761308913285577200,2.8565771484375,0.12095102297961711,0.029124095414578912,0.023046821327507495
1761308913295505400,2.86650537109375,0.1593324838221073,0.02832213138192892,0.01647500518914312
1761308913305434400,2.876434326171875,0.1457341665804386,0.023377076195180414,0.007629033573716878
1761308913315362600,2.886362548828125,0.1253127253204584,0.01627652347497642,0.01026573875285685
1761308913325290500,2.89629052734375,0.11105974356234073,0.04376366533748805,-0.029172026209533214
1761308913335218400,2.906218505859375,0.016271920365095137,0.07601531818807125,-0.016677030567266046
1761308913345147400,2.9161474609375,-0.11122516325712203,0.06888086319826543,0.0447394880997017
1761308913355075300,2.926075439453125,-0.17017185774445534,0.09284472630545497,0.07563313220376149
1761308913365003300,2.936003173828125,-0.23959610710442064,0.0796975868973881,0.03923263431172818
1761308913374932200,2.94593212890625,-0.2626017196387052,0.025473025561124085,0.01108617002395913
1761308913384860400,2.9558603515625,-0.15384674588739872,0.0025896511670202016,0.013747772182337938
1761308913394788600,2.96578857421875,-0.057654316589236254,0.0015875614523887633,0.02924308215174824
1761308913404717600,2.975717529296875,-0.007794599398970603,-0.021818813902512193,0.03332118177823722
1761308913414645500,2.9856455078125,0.07059680027067661,-0.036332419358193875,0.056795544335432345
1761308913424573400,2.995573486328125,0.1471200679808855,-0.03408968193270266,0.03515595945734531
1761308913434501400,3.00550146484375,0.14185644836425781,-0.019402838801965118,0.016896299341134725
1761308913444430300,3.015430419921875,0.09667875151038169,-0.020739713428914546,0.038284466741420324
1761308913454358300,3.025358154296875,0.0052484220474958414,-0.0010538929671049118,0.04125635869167745
1761308913464286200,3.0352861328125,-0.09205693692862987,0.0014311287816613913,0.017934775543399156
1761308913474215400,3.04521533203125,-0.15906068114340305,-0.019002660503238438,-0.027474720772355795
1761308913484143600,3.0551435546875,-0.19698095421493053,-0.02027421480901539,-0.035180070985294874
1761308913494071600,3.065071533203125,-0.24278058235943317,-0.026148952061310408,-0.010032404921017587
1761308913504000300,3.075000244140625,-0.20396715984046457,-0.04675729419551789,-0.00941620925143361
1761308913513928200,3.08492822265625,-0.0776817900955677,-0.05979556640163064,-0.02158427449427545
1761308913523856100,3.094856201171875,0.0033779520004987716,-0.06876965790875256,-0.028675876723043617
1761308913533785300,3.104785400390625,0.017114216408133504,-0.06600428484864533,0.0017439935522939776
1761308913543713300,3.11471337890625,0.057059857827425,-0.051347617660462856,0.012980368006415664
1761308913553641200,3.12464111328125,0.06800619925558567,-0.05031286778524518,-0.01497157835625112
1761308913563569400,3.1345693359375,0.09624795887768268,-0.03578179973810911,-0.04939359751585871
1761308913573498400,3.144498291015625,0.12040741762220859,-0.004926131290569901,-0.051969804679416115
1761308913583426300,3.15442626953125,0.11281915445029735,-0.003921484292671084,-0.02290489210616797
1761308913593354200,3.164354248046875,0.06623042175471783,0.005371463905274868,-0.026646343656815587
1761308913603283200,3.174283203125,-0.03602057693004608,0.034680560497939585,-0.0653641237815842
1761308913613211400,3.18421142578125,-0.10378361507952212,0.062183630581945176,-0.07897296241726726
1761308913623139300,3.194139404296875,-0.13008125489652156,0.07208031682670116,-0.05927030041851103
1761308913633067300,3.2040673828125,-0.10770517243742943,0.08821830861382186,-0.021459406005591153
1761308913642996200,3.213996337890625,0.0008124854266643523,0.0851671043496579,0.0052380102513358
1761308913652924400,3.22392431640625,0.11758476141691207,0.07904504127278923,0.004647679675370455
1761308913662852400,3.233852294921875,0.19106325460374354,0.07635149133987724,-0.003224953395873308
1761308913672781300,3.24378125,0.2118611279606819,0.0694666271969676,-0.010314436732791364
1761308913682709200,3.253709228515625,0.1994172414511442,0.0578679593399167,-0.011991685762628912
1761308913692637200,3.26363720703125,0.14712123702466487,0.04729848840013146,-0.007925459237024188
1761308913702566400,3.27356640625,0.10654548100829124,0.038252354570105666,-0.011240867395326495
1761308913712494300,3.283494384765625,0.03274666982591152,0.024194822318851946,-0.018411599274910987
1761308913722422300,3.29342236328125,-0.03092588413953781,0.018198139187321067,-0.009781827693432568
1761308913732350500,3.3033505859375,-0.08105565044283866,-0.0025509265918284654,0.01844849721919745
1761308913742279200,3.313279052734375,-0.07665420061349869,-0.01872143240906298,0.04878156656473875
1761308913752207400,3.323207275390625,-0.048536359632015226,-0.01895502196922898,0.08448807257693261
1761308913762135300,3.33313525390625,-0.03749941731095314,-0.042956659803539514,0.09137607852499932
1761308913772064300,3.343064208984375,-0.01912088005542755,-0.059043286729604,0.10010931048095226
1761308913781992200,3.3529921875,0.023390227937698363,-0.060662120103091,0.0890098243176937
1761308913791920000,3.362920166015625,0.012348609441518783,-0.07046944756396115,0.024673801474831995
1761308913801848000,3.37284814453125,-0.025007600006461142,-0.09316256008297204,0.017188378764531807
1761308913811777300,3.38277734375,-0.046015316721796984,-0.07988499922826886,0.02575739546045661
1761308913821705200,3.392705322265625,-0.046809681969881056,-0.0648125177808106,0.028042218462005258
1761308913831633400,3.40263330078125,-0.06615911008417606,-0.047028658482804894,0.030322621016763147
1761308913841562400,3.412562255859375,-0.09855565129816532,-0.04065130547061562,0.04802884850129485
1761308913851490300,3.422490234375,-0.0876069717824459,-0.04896116091534495,0.05287018758524209
1761308913861418200,3.432418212890625,-0.06866320185959339,-0.050138388001173734,0.028442944750003515
1761308913871346200,3.44234619140625,-0.03364975614547729,-0.04139671701043844,0.018829570100299314
1761308913881275100,3.452275146484375,-0.014433014500141143,-0.024953750927373765,0.06547273525521159
1761308913891203000,3.462203125,0.04635258585214615,-0.012887977015227078,0.06954685282632708
1761308913901131300,3.47213134765625,0.11151333254873752,-0.015893734702467917,0.03483472814634442
1761308913911060200,3.482060302734375,0.11032675311267376,-0.015493483338505028,0.0004958206929266452
1761308913920988400,3.491988525390625,0.08577800278961659,-0.002212707613408565,-0.030249409650079905
1761308913930916400,3.501916259765625,0.056952305799722665,0.028578078904375432,-0.026896701688691974
1761308913940844300,3.51184423828125,0.023619360518455503,0.04574380630403757,-0.021205102450959384
1761308913950773200,3.521773193359375,0.02582768421769142,0.04708046173527836,-0.0027035598702728745
1761308913960701200,3.531701171875,0.03677285660207271,0.03809124572426081,0.03384904157724231
1761308913970629000,3.541629150390625,0.044219080954790116,0.033219548034667964,0.06729651661626994
1761308913980558000,3.55155810546875,0.0718564449429512,0.05824841002486646,0.09622143619693815
1761308913990486300,3.561486328125,0.09463234037458897,0.03783960905075073,0.07915241063740104
1761308914000414500,3.57141455078125,0.05440671297013759,0.0011911825459450483,0.07108056519962846
1761308914010342400,3.58134228515625,0.009238952988386154,-0.013107830310985445,0.017746816364891126
1761308914020271400,3.591271240234375,-0.04512625892758369,-0.008758183734118938,-0.03305730667766183
1761308914030199300,3.60119921875,-0.06161562143564224,0.0026087942589074374,-0.014495923668518661
1761308914040127200,3.611127197265625,-0.0014952069938182829,0.009580898293852806,-0.038038236895389856
1761308914050056200,3.62105615234375,-0.017604045751690865,0.027485169101133942,-0.0892555061744526
1761308914059984100,3.630984130859375,-0.0275409178763628,0.044212066692113874,-0.10647563064247369
1761308914069912300,3.640912353515625,-0.027009002956748008,0.021883695832267402,-0.10185118571221828
1761308914079840300,3.65084033203125,-0.02600070269703865,0.005270195487886667,-0.07939337978642433
1761308914089769500,3.66076953125,0.01293430037498474,-0.024563290305063126,-0.030319808005169032
1761308914099697400,3.670697509765625,0.06102993050217628,-0.048369770893454546,0.03180569918137043
1761308914109625300,3.680625244140625,0.1044429557710886,-0.06900573168694972,0.03875763721112162
1761308914119554300,3.69055419921875,0.1361971074283123,-0.08697590733729302,0.015726415311545134
1761308914129482200,3.700482177734375,0.083707041734457,-0.08251308270953595,0.004248378730300465
1761308914139410200,3.71041015625,-0.013884732967615127,-0.07956782303787767,0.008168110028124646
1761308914149338400,3.72033837890625,-0.07093582296669483,-0.05314180760085582,0.013677666088193654
1761308914159267000,3.73026708984375,-0.10382043995857237,-0.03218267926760018,-0.008622282394766806
1761308914169195300,3.7401953125,-0.11784195104837417,-0.02627338215857744,-0.01898786365126143
1761308914179123200,3.750123291015625,-0.1465448984414339,-0.029334669425338505,-0.01925798697117716
1761308914189051400,3.760051513671875,-0.1617553270548582,-0.04309270727336406,-0.02734488384760916
1761308914198980400,3.76998046875,-0.12030103463828563,-0.0624416969962418,-0.027093977826461193
1761308914208908300,3.779908203125,-0.024673253485560417,-0.08219868299812078,-0.015920988035574554
1761308914218836200,3.789836181640625,0.03946691799163818,-0.07632175378873944,0.004096074245419004
1761308914228765200,3.79976513671875,0.0535918894559145,-0.05882818267419934,0.020971147564612328
1761308914238693000,3.809693115234375,0.07871405575275421,-0.036738077549636365,0.030403467700630425
1761308914248621300,3.819621337890625,0.06240063433349132,-0.0060306584663689135,0.03811068107709288
1761308914258549200,3.82954931640625,0.05819207672774791,-0.0045878392469137904,0.028773784139566123
1761308914268478500,3.839478515625,0.08521803081929682,-0.00017579495832324027,0.008835998210683465
1761308914278406400,3.849406494140625,0.03815525087118148,0.006166705936193466,0.0048871875196695325
1761308914288334300,3.859334228515625,0.017136428239941597,0.012564590279757976,0.01592230320982635
1761308914298262300,3.86926220703125,0.0356406377017498,0.03053798080049455,0.029338322687149046
1761308914308191200,3.879191162109375,0.04579202935993671,0.02358187805227935,0.02381192394848913
1761308914318119200,3.889119140625,0.05910509991943836,0.023360855712741612,0.023950784429907796
1761308914328047400,3.89904736328125,0.03695873456299305,0.039693639419600364,-0.010316409494169055
1761308914337976300,3.908976318359375,0.0019265841484069823,0.05059285377040505,0.01604921752512455
1761308914347904300,3.918904296875,0.053687751045823094,0.06173442550972104,0.021141353032365442
1761308914357832200,3.928832275390625,0.09170505475103854,0.04140943036153912,0.011476320119015872
1761308914367760100,3.938760009765625,0.05970248129069805,0.02526844289973378,0.06570091798789798
1761308914377689300,3.948689453125,0.032661914151906966,0.030005992815643548,0.11028839386366307
1761308914387617300,3.9586171875,0.04139876283705234,0.042768151494115586,0.11792100763395429
1761308914397545200,3.968545166015625,0.10014204370677471,0.056620224301144474,0.13202347500547765
1761308914407473400,3.978473388671875,0.12404781995117664,0.07960574389547109,0.1082100532196462
1761308914417402400,3.98840234375,0.0921381854712963,0.11020385738536714,0.11185692182201891
1761308914427330300,3.998330322265625,0.061129299223423,0.10198891368247567,0.1228074645012617
1761308914437258200,4.00825830078125,0.09601531916558742,0.09655841306634247,0.07915657535586505
1761308914447186200,4.018186279296875,0.0874853912293911,0.08702040406614542,0.05134016500636935
1761308914457115100,4.028115234375,0.028962475112080572,0.07772519084587692,0.052241899619065224
1761308914467043000,4.03804296875,-0.06557458819448947,0.05565057555139064,0.02322298161201179
1761308914476971300,4.04797119140625,-0.14358780220150946,0.022362638455629347,-0.05098835589401424
1761308914486899500,4.0578994140625,-0.20576748726069927,-0.021737711490318178,-0.07901322136241942
1761308914496827600,4.06782763671875,-0.18001403732299803,-0.0750415777850896,-0.060604106305539605
1761308914506755600,4.077755615234375,-0.07975801184773444,-0.11401252895332872,-0.017813270338869185
1761308914516683500,4.08768359375,0.025650574085116385,-0.13919497407004236,-0.0029896102700382467
1761308914526611500,4.097611572265625,0.09605682021975517,-0.1498190978065133,0.049442642555665224
1761308914536540400,4.10754052734375,0.08080956672728061,-0.17432831983678043,0.06562082022270187
1761308914546468600,4.117468505859375,0.05822130282223224,-0.19959625127986072,0.052017242284025995
1761308914556396500,4.127396484375,0.05477963793575764,-0.16933832952976227,0.07098631104491651
1761308914566325500,4.137325439453125,0.0474175847351551,-0.1353390292942524,0.053705962555948644
1761308914576253400,4.14725341796875,0.010619593691825866,-0.08837430289313197,0.02046438078598585
1761308914586181600,4.157181640625,-0.08427578153312205,-0.06585391659252345,-0.018103629304282366
1761308914596109600,4.167109619140625,-0.21851707871854303,-0.06554295094721019,-0.04791918214831967
1761308914606038500,4.17703857421875,-0.2980518032044172,-0.06375212200768292,-0.0449025514406152
1761308914615966500,4.186966552734375,-0.28112697188854213,-0.059448214268684386,-0.027234884134493768
1761308914625894700,4.196894775390625,-0.17396715837419033,-0.01863075845092535,-0.03629133842913434
1761308914635822600,4.206822509765625,-0.021052724900841712,-0.00837481043972075,-0.06296849734932183
1761308914645751600,4.21675146484375,0.09915653980076312,-0.020310235970467327,-0.055020849113375875
1761308914655679500,4.226679443359375,0.17387129678428173,-0.009825520704686641,-0.029641762613132595
1761308914665607400,4.236607421875,0.21151041482686994,0.024198475580662487,-0.028994514218159018
1761308914675535400,4.246535400390625,0.1554857452660799,0.05633307792283594,-0.006586634681583382
1761308914685464600,4.256464599609375,0.08340601296126841,0.07679923510737717,0.010431574006169102
1761308914695392500,4.266392578125,0.033336452412605286,0.08856675672531128,-0.0060377092616632575
1761308914705320700,4.27632080078125,-0.03026654344797134,0.09292663243524729,-0.04141156751969829
1761308914715248600,4.28624853515625,-0.053719899749755856,0.07834120385237038,-0.0379099526069127
1761308914725177600,4.296177490234375,-0.019662731847167013,0.08273783137612044,-0.024741861742362377
1761308914735105500,4.30610546875,0.020166005194187164,0.0896794672075659,-0.025187943275738506
1761308914745033500,4.316033447265625,0.0831757113367319,0.05943374735191464,-0.03134611884560436
1761308914754961400,4.32596142578125,0.09327917219996452,0.03578632978275418,-0.015543679155781864
1761308914764890400,4.335890380859375,0.05362812981307506,0.01939231740795076,0.02771651190528646
1761308914774818300,4.345818359375,-0.01980067901313305,0.017561667914688585,0.04342836440193932
1761308914784746500,4.35574658203125,-0.05538578713536262,-0.011059592544287443,0.05918861348442733
1761308914794674700,4.3656748046875,-0.05164718512892723,-0.047938393738865846,0.047095312244538216
1761308914804603600,4.375603759765625,-0.015139701464772224,-0.057029316558688876,0.04895803737649694
1761308914814531600,4.385531494140625,0.03590074994266033,-0.038630321037024254,0.07619746982194482
1761308914824459500,4.39545947265625,0.09834522341787814,-0.06236410171538591,0.0280205728857778
1761308914834387500,4.405387451171875,0.0544628270715475,-0.041177155975624914,-0.010884021348250098
1761308914844316400,4.41531640625,0.07184475450515747,-0.027266192588210104,0.01176045255633071
1761308914854244400,4.425244384765625,0.02460778703391552,-0.02841273227483034,0.007871865886263549
1761308914864172500,4.435172607421875,-0.012186696878075599,-0.020655542276799676,0.00941262905485928
1761308914874100500,4.4451005859375,-0.05941840365231037,0.008104542130976914,-0.008800488505885004
1761308914884029700,4.45502978515625,-0.11429156509041785,-0.026537147661298513,-0.0012341997037641703
1761308914893957600,4.46495751953125,-0.019251812958717345,0.01128390281945467,-0.11469320469386875
1761308914903885600,4.474885498046875,0.016261983492970467,0.03390921079926192,-0.13557904859520495
1761308914913813500,4.4848134765625,0.04816927988529205,0.013281214116513729,-0.08539700411539525
1761308914923742500,4.494742431640625,0.10741641862392425,0.01710486405789852,-0.030584048431925474
1761308914933670400,4.50467041015625,0.1189472819417715,0.02895706828460097,-0.04983721309751272
1761308914943598600,4.5145986328125,0.0663186845600605,0.029260873536765573,-0.055563043398410075
1761308914953526500,4.524526611328125,0.008747370079159737,0.007814034751802682,-0.04581453345268965
1761308914963455500,4.53445556640625,-0.04876198508143425,0.008282821307331323,-0.03258384623030433
1761308914973383400,4.544383544921875,-0.06944821475744246,0.0221442464645952,-0.01589863007329404
1761308914983311400,4.554311279296875,-0.03566635666489601,0.0428627709750086,-0.023632331881171555
1761308914993239600,4.564239501953125,-0.028587212058901783,0.0429930462911725,-0.020290508356690405
1761308915003168500,4.57416845703125,-0.029503157860040662,0.02925605123117566,-0.01728789247460663
1761308915013096400,4.584096435546875,0.018745617002248763,0.016350465494021773,-0.0325309469992877
1761308915023024600,4.594024658203125,0.035227380725741386,0.008147431424632668,-0.013989364669157657
1761308915032952600,4.60395263671875,0.03161620449125767,0.00521364299505949,0.007611315253935754
1761308915042880500,4.613880615234375,0.007928454911708831,-0.005261062333360314,0.007829522298590746
1761308915052809500,4.6238095703125,0.03447977722883224,-0.007456380420550704,0.034113297987019175
1761308915062737400,4.6337373046875,0.05103168357908725,-0.015423632972687482,0.04352784728761762
1761308915072665300,4.643665283203125,0.026304069557785987,-0.022302651896700262,0.03923252471387386
1761308915082593500,4.653593505859375,0.006110007312893867,-0.02674034208320081,0.02872484641432529
1761308915092522500,4.6635224609375,-0.03785948279500007,-0.03267104730643332,0.041175457208883014
1761308915102450700,4.67345068359375,-0.08602408650517464,-0.042995384378731245,0.03653196051828563
1761308915112378600,4.683378662109375,-0.09495850358903407,-0.03199709356762469,0.014486733431776519
1761308915122306600,4.693306640625,-0.045967385926842685,-0.02924370320625603,-0.012409125723410398
1761308915132235500,4.703235595703125,-0.0032359131813049316,-0.02895867571979761,0.01303016196489334
1761308915142163500,4.71316357421875,0.018987024542689322,-0.04141520251519978,0.02524590227436274
1761308915152091400,4.72309130859375,0.013053542840480804,-0.014417378539592027,0.005610971749573946
1761308915162019600,4.73301953125,0.023076339682936667,0.016610212408751247,0.005135408393386751
1761308915171948500,4.742948486328125,0.05159750076830387,0.0014032178614288569,0.020738032928481698
1761308915181876500,4.75287646484375,0.05328969163894653,-0.0024837796397507187,0.010117215393949299
1761308915191804400,4.762804443359375,0.08329553832411765,-0.0006737345430999994,-0.017048128901980816
1761308915201732600,4.772732666015625,0.11830080073177814,-0.02585705644264817,-0.02366557428035885
1761308915211661600,4.78266162109375,0.10177870499789714,-0.026819033342599868,-0.010563427074777428
1761308915221589500,4.792589599609375,0.0357844300866127,-0.016447276932001112,-0.02721290976470336
1761308915231517400,4.802517333984375,-0.053532268223166465,0.011626944103464484,-0.05030620058244094
1761308915241445600,4.812445556640625,-0.12554244242310522,0.03246390736177564,-0.017751345267891884
1761308915251374600,4.82237451171875,-0.18750468533933162,0.013042144663631915,0.027693112763389944
1761308915261302500,4.832302490234375,-0.1913566845923662,0.0108223497223109,0.04898304395359009
1761308915271230500,4.84223046875,-0.11730945160686969,0.019511925199627876,0.03198114707982167
1761308915281158400,4.852158447265625,-0.024416648375988004,0.013254983696714042,0.001815616320911795
1761308915291086300,4.86208642578125,0.09470189847946166,-0.01020005310550332,0.004504946736432612
1761308915301015600,4.872015625,0.1529717166185379,-0.0145960961073637,-0.019694423893373458
1761308915310943500,4.881943603515625,0.17028876212239263,-0.005514671768248081,-0.042113231249339876
1761308915320871700,4.89187158203125,0.16579554235637187,-0.006339578285068273,-0.027988077121973036
1761308915330799600,4.901799560546875,0.18169103062450884,-0.016774755320698023,0.0038231750173494216
1761308915340728600,4.911728515625,0.16697276944220066,-0.020112813702225684,0.018585567602328955
1761308915350656500,4.921656494140625,0.07840659723877906,-0.007221548751369118,0.009448723281547427
1761308915360584400,4.93158447265625,-0.002526303607225418,-0.0030910978831350804,0.021999097806285135
1761308915370512400,4.941512451171875,-0.09594050036370753,0.0010055968459695577,0.021037778493459336
1761308915380441300,4.95144140625,-0.1719470507234335,-0.01980170192644,0.048441173895541575
1761308915390369500,4.96136962890625,-0.18040040629208087,-0.03533836681954562,0.04411812306465581
1761308915400297700,4.971297607421875,-0.1369979024171829,-0.0427986196976155,0.04057536785730626
1761308915410225700,4.9812255859375,-0.11444470982551574,-0.02981982259377837,0.04363349961917847
1761308915420153600,4.991153564453125,-0.10758768353760242,-0.030979367892444133,0.058780945998989045
1761308915430082600,5.00108251953125,-0.09126315620243548,-0.03409209308549761,0.04614044093880802
1761308915440010500,5.011010498046875,-0.0831581756800413,-0.025359774444997308,0.03645124169858172
1761308915449938400,5.0209384765625,-0.07128653610050678,-0.002439940498024225,0.0032723544678650795
1761308915459866600,5.03086669921875,-0.02142097369134426,0.03235014478899538,-0.030651400879980063
1761308915469795600,5.040795654296875,0.03947977747321128,0.049728638156503434,-0.021344583986885844
1761308915479723500,5.0507236328125,0.10276888507902622,0.06709295686818659,0.00045489959407132114
1761308915489651500,5.0606513671875,0.15651508831381797,0.0455246105954051,-0.03418788161017001
1761308915499580200,5.070580078125,0.18863281258642672,0.03519479363039136,-0.07997742675207554
1761308915509508000,5.080508056640625,0.1992904002010822,0.02656279355920851,-0.08546506438292563
1761308915519437000,5.09043701171875,0.13533961381614207,0.018361586120724676,-0.09614753071051091
1761308915529365000,5.100364990234375,-0.002044073048233986,-0.0035810733571648595,-0.07042948544633108
1761308915539293000,5.11029296875,-0.0854413181811571,-0.009966536610573529,-0.05060388662107289
1761308915549221000,5.12022119140625,-0.1444184078067541,-0.013477686536684632,-0.0580053402503021
1761308915559150300,5.130150390625,-0.1524871479719877,-0.033563100775331256,-0.037649054914712904
1761308915569078300,5.140078369140625,-0.12203589560687542,-0.04341507109552622,0.01816251988466829
1761308915579006200,5.150006103515625,-0.07141279282867909,-0.042812502092495555,0.04319708096329122
1761308915588934100,5.15993408203125,-0.00535305146574974,-0.04884023794941604,0.02589607327878475
1761308915598862000,5.169862060546875,0.03427168743610382,-0.03668517831861973,0.061633558951132
1761308915608791000,5.179791015625,0.06604629735946654,-0.026366686465218662,0.10788893150649964
1761308915618719000,5.189718994140625,0.05281739795207977,-0.012371259664744137,0.11262399720437824
1761308915628647200,5.199647216796875,0.022536241456866262,0.010607245666906236,0.1181236175339669
1761308915638575000,5.2095751953125,0.018408347871899603,0.014912541645392775,0.0900481178568676
1761308915648504300,5.21950439453125,-0.024089316117763517,0.014678805954754352,0.04200078385081142
1761308915658432300,5.229432373046875,-0.027584172496199606,0.019203589902818202,0.040555443880707025
1761308915668360200,5.239360107421875,0.005292845711112022,0.006053308689594268,0.07682166613489388
1761308915678288100,5.2492880859375,0.07536883697807788,0.0011832915004342795,0.0583638850641204
1761308915688216300,5.25921630859375,0.12654022128880024,0.015312500748410821,0.007861047664727084
1761308915698145000,5.26914501953125,0.11585223853588103,0.010456365954130888,0.01808879706133157
1761308915708073200,5.2790732421875,0.04280161537230014,0.010465864434838294,0.06090677904654294
1761308915718001200,5.289001220703125,-0.006167290458083153,0.02025456026047468,0.062465918122045695
1761308915727929000,5.29892919921875,-0.03020166151821613,0.02759885860867798,0.029646290374489032
1761308915737858000,5.308858154296875,0.03266132963001728,0.023003420577198265,0.033796544205024835
1761308915747786000,5.318785888671875,0.1316273152947426,0.032223522734642025,0.05513038760218769
1761308915757714000,5.3287138671875,0.20312720188498495,0.02278364034667611,0.02919259407352656
1761308915767642400,5.338642333984375,0.1647095006853342,0.012805047972127795,0.025154385782720053
1761308915777570300,5.3485703125,0.08790507794618606,0.015855740779638288,0.036420536033064124
1761308915787499300,5.358499267578125,0.053641573816537856,0.023014015036448836,0.05498323421645909
1761308915797427200,5.36842724609375,-0.04109071980118751,0.008512757605686783,0.017185927654185796
1761308915807355100,5.378355224609375,-0.08784896384477615,-0.013708207356929777,-0.005087495864741504
1761308915817283000,5.388282958984375,-0.1421487093091011,-0.019208339143171906,0.00585018733292818
1761308915827212000,5.3982119140625,-0.19487901349961756,0.0049785921301692725,0.0061805152658373115
1761308915837140000,5.408139892578125,-0.19428221665024756,0.005862827618792653,-0.04931077807061374
1761308915847068200,5.418068115234375,-0.1639952149361372,0.006737199300527573,-0.08541735278367996
1761308915856996000,5.42799609375,-0.08421791386604309,-0.00595401303358376,-0.012389233712852001
1761308915866924000,5.437924072265625,0.010803718087077141,0.005757321417704225,-0.00706858667936176
1761308915876853200,5.447853271484375,0.05688508578240871,0.04136193795800209,-0.05544244922604411
1761308915886781200,5.45778125,0.05928513266146183,0.035144743943586944,-0.08065331671964376
1761308915896709000,5.467709228515625,0.07905249392688274,0.013629954488947986,-0.05883570839352906
1761308915906637300,5.47763720703125,0.11696984438896178,0.0025112521685659883,-0.04363262283634394
1761308915916565200,5.487565185546875,0.12994973747134209,0.006354483593255281,-0.04815715105608105
1761308915926494200,5.497494140625,0.09377543128430843,-0.016949892691895365,-0.06861348096635192
1761308915936422100,5.507422119140625,0.04476560892164707,-0.0429694462198764,-0.054885107604227955
1761308915946350000,5.51735009765625,-0.009168225839734078,-0.042543037501350044,-0.026410562139563262
1761308915956278000,5.527278076171875,-0.07506488559544086,-0.0356521089438349,-0.04356785050444305
1761308915966206000,5.5372060546875,-0.06798457194566726,-0.0002585778709501028,-0.07410630622897296
1761308915976135200,5.54713525390625,-0.06189969907402992,0.00032784371487796306,-0.0677059741999954
1761308915986063400,5.5570634765625,-0.05259644867777824,-0.01641761244609952,-0.06732241824250668
1761308915995991300,5.5669912109375,-0.022862989193201063,-0.015983531877771018,-0.031515301400050516
1761308916005919200,5.576919189453125,0.012394202148914336,-0.02543013626746833,-0.02092398395463824
1761308916015848200,5.58684814453125,0.009976035091280937,-0.01589746102951467,-0.009692981507844523
1761308916025776000,5.596776123046875,0.04951835640668869,-0.021626287005096674,0.04343574855737388
1761308916035704000,5.6067041015625,0.0596738397181034,-0.013849661654233932,0.05535703596491366
1761308916045632000,5.616632080078125,0.045775662747025485,-0.025462211906164885,0.026888408784382044
1761308916055560200,5.626560302734375,0.029511341166496275,-0.024144991827756167,0.023517507579177616
1761308916065489200,5.6364892578125,-0.0003705868780612945,-0.017896160566061733,0.008293927223235369
1761308916075417000,5.6464169921875,-0.015645897421240805,0.013855068481713532,0.002280402554757893
1761308916085345300,5.65634521484375,-0.03202069363892078,0.0641577071338892,0.037661695200577376
1761308916095273200,5.666273193359375,-0.024350012880563734,0.08160130162686109,0.047101577588543296
1761308916105201200,5.676201171875,-0.04587561599016189,0.058148018390312785,0.060033430278114974
1761308916115130000,5.686130126953125,-0.06768412769436837,0.051549131581932306,0.06247413796111941
1761308916125058000,5.69605810546875,-0.07676525977253913,0.06160510004162788,0.024360753470286725
1761308916134986200,5.705986328125,-0.07136720012128353,0.038202377948537466,-0.016037234826385974
1761308916144914200,5.7159140625,-0.02048983032107353,0.0013180237960070372,-0.045368360587768254
1761308916154842000,5.725842041015625,0.03174713739454746,-0.031895240628346797,-0.06640062722247093
1761308916164771000,5.73577099609375,0.05996142448782921,-0.03244045342095196,-0.07232541416157037
1761308916174699000,5.745698974609375,0.04063420820534229,-0.03362856722697615,-0.05708776874765754
1761308916184627000,5.755626953125,0.002469604983925819,-0.04527969592362642,-0.029023849910497664
1761308916194555100,5.76555517578125,-0.025393968975543975,-0.05333499208539724,-0.00008223492335528135
1761308916204483000,5.775483154296875,-0.0453437010705471,-0.04466565567851066,0.03044752603806555
1761308916214412300,5.785412353515625,-0.06427753412127495,-0.04789952303320169,0.06403360583018511
1761308916224340200,5.79534033203125,-0.0450911876142025,-0.043215237674489614,0.06933196796663105
1761308916234268200,5.80526806640625,-0.00889583863914013,-0.028394904357194897,0.05408555472437292
1761308916244196000,5.815196044921875,0.03284019332826137,-0.011377207126095891,0.039072402248717844
1761308916254124300,5.825124267578125,0.05110299524962902,0.005195157490298152,0.03559256077632308
1761308916264053000,5.835052978515625,0.03123392717540264,0.013897957775369285,0.02715389132015407
1761308916273981200,5.844981201171875,-0.009264671951532364,-0.002409837620705366,0.003000277794525027
1761308916283909000,5.8549091796875,0.034383915638923644,0.005236512413993477,0.003580854161456227
1761308916293837000,5.864837158203125,0.0809054283171892,0.004354980339109898,0.009906513519026338
1761308916303765000,5.874764892578125,0.07236965516209602,0.002282631044462323,0.025693792172335087
1761308916313694200,5.884694091796875,0.05810907461941242,0.025567937302961943,0.025672527905309106
1761308916323622100,5.8946220703125,0.0065080667197704315,0.05205547366887331,0.022456929142959416
1761308916333550300,5.90455029296875,-0.003572597789764404,0.039890696361660954,0.04462963451705873
1761308916343478300,5.914478271484375,0.06373159067630768,0.027920564843714236,0.05346406182516366
1761308916353406200,5.92440625,0.11688508871495723,0.030237536549195646,0.04309398591499775
1761308916363335200,5.934335205078125,0.12259703662097453,0.03299063464961946,0.01824906565696001
1761308916373263000,5.94426318359375,0.10359013833403587,0.027308862686157225,-0.01014894397277385
1761308916383191000,5.95419091796875,0.06040566112399101,0.021297201181203127,-0.04333915631510317
1761308916393119000,5.964118896484375,-0.00685059654712677,0.017069500483572482,-0.0183779527336359
1761308916403047200,5.974047119140625,-0.07343757665455342,0.0012003157004714011,-0.0037938393250107763
1761308916412976400,5.983976318359375,-0.09226853385269641,0.0035458559133112427,-0.05640877350755036
1761308916422904300,5.993904296875,-0.06483341443836689,0.01968275172188878,-0.0652696504311636
1761308916432832300,6.003832275390625,-0.02548398534655571,-0.001124035593867302,-0.02350435583665967
1761308916442760200,6.01376025390625,0.018071663263440133,-0.019008359591662884,-0.009994301400333642
1761308916452688100,6.023688232421875,0.04997136087119579,-0.038767683681100604,-0.0040171266868710516
1761308916462617000,6.0336171875,0.042112464064359666,-0.03324563232399523,0.026115595497691536
1761308916472545000,6.043544921875,0.07633271357417107,-0.031135800563171504,0.03866225054524839
1761308916482473200,6.05347314453125,0.10190788433551788,-0.021852204715460538,0.060796377474628384
1761308916492401200,6.063401123046875,0.061085460081696505,-0.007255231825262307,0.09117672002799808
1761308916502329600,6.07332958984375,0.033148236364126206,-0.003186521081626415,0.08790935226250439
1761308916512258600,6.083258544921875,0.023018472015857695,0.010751622573658824,0.08289930554814637
1761308916522186500,6.0931865234375,0.025316227564215657,0.0032139936104416847,0.06766867439690977
1761308916532114400,6.103114501953125,0.046183659026026724,-0.0029063889659941195,0.03052636342793703
1761308916542042400,6.11304248046875,0.02171148107051849,0.017429127576202155,-0.025286636143550274
1761308916551970600,6.122970458984375,-0.01593289766907692,-0.001412643276900053,-0.038812837997078894
1761308916561898500,6.1328984375,-0.053878305181860923,0.0033949031352996824,-0.04943568309191614
1761308916571827500,6.142827392578125,-0.09186112209558486,0.01379617790132761,-0.0620210969639942
1761308916581755600,6.152755615234375,-0.06375614059567451,0.011735665174946189,-0.04088445663936436
1761308916591683600,6.16268359375,-0.018756722918152807,0.018531097468733788,-0.025388635213300585
1761308916601611500,6.172611572265625,-0.03931728038787841,0.03695654260590672,0.003119301064312458
1761308916611539700,6.182539794921875,-0.07264847210347652,0.03619374153986573,0.00009995324313640594
1761308916621468700,6.19246875,-0.02206277872622013,0.028097236584872006,0.0338989086009562
1761308916631396600,6.202396728515625,0.045886137384176254,0.01967223032787442,0.04942815737258643
1761308916641324500,6.212324462890625,0.0421937126070261,0.017371698300540445,0.02105217691157013
1761308916651252500,6.22225244140625,-0.00005085340440273285,-0.011861629642173648,-0.0016942001646384596
1761308916661180400,6.232180419921875,0.004404372438788414,-0.02093801247999072,-0.013928572109341621
1761308916671109400,6.242109375,0.03972176953554153,-0.009730535897612571,-0.021498642037436365
1761308916681037300,6.252037353515625,0.037385435542464256,-0.006018529637157917,-0.04375219409540295
1761308916690965500,6.261965576171875,0.07128185992538928,0.00951294762417674,-0.06852119957301765
1761308916700893700,6.271893798828125,0.08664367970824241,0.01862900488525629,-0.07385561940353363
1761308916710821600,6.281821533203125,0.07716273465752602,0.025244915893673895,-0.06760017573796212
1761308916720750600,6.29175048828125,0.05731178676187992,0.02647504221051931,-0.06019168957974761
1761308916730678500,6.301678466796875,0.04417348824739456,-0.0157005502179265,-0.0331927696255967
1761308916740606500,6.3116064453125,0.025335516786575314,-0.03690525081008673,-0.03876519946306944
1761308916750534700,6.32153466796875,0.004877835169434547,-0.06536116463951766,-0.01955602006968111
1761308916760462600,6.331462646484375,0.021855273455381394,-0.09535210601650178,0.008707549525424838
1761308916770390500,6.341390625,0.009714753806591033,-0.10446626358143984,0.04227452275827527
1761308916780319500,6.351319580078125,-0.039669747087359424,-0.10689992046914994,0.052032494652085
1761308916790247400,6.361247314453125,-0.06691898854076862,-0.0822305394411087,0.024836079364456237
1761308916800175400,6.37117529296875,-0.07847615534365177,-0.06643032824099064,0.012831607185490429
1761308916810103300,6.381103271484375,-0.09985971963405608,-0.033388767121732235,-0.003316394538991153
1761308916820031700,6.39103173828125,-0.1249205111324787,-0.010240385115891695,-0.012579787848889827
1761308916829960700,6.400960693359375,-0.1295744744181633,-0.0065976446993649,-0.008133950888551771
1761308916839888600,6.410888671875,-0.09781798467338085,0.023116379432380197,0.018484334575914543
1761308916849816600,6.420816650390625,-0.04203647621870041,0.04248166270293295,0.023574461930803953
1761308916859744500,6.43074462890625,0.04741700021326541,0.03301913009174168,0.03646079497821629
1761308916869672400,6.44067236328125,0.14160159682035445,0.01390270701572299,0.049168373925238845
1761308916879600600,6.4506005859375,0.17922610181570053,0.001717836768552661,0.054042446235008534
1761308916889529300,6.460529296875,0.1870867521882057,-0.0053594812065362925,0.08203019456341862
1761308916899457500,6.47045751953125,0.13655308125913143,-0.012217530407756567,0.1110541540717706
1761308916909385500,6.480385498046875,0.058811085408926,-0.018602993661165235,0.10359083245377987
1761308916919313400,6.4903134765625,-0.012973463341593742,-0.017612082927674053,0.12167005796916783
1761308916929241300,6.500241455078125,-0.04787877250611782,-0.03333038799799978,0.1359899674836546
1761308916939170600,6.510170654296875,-0.034115035569667815,-0.0250660521954298,0.12985752914324403
1761308916949098500,6.520098388671875,0.018015549162030218,-0.005562383367493749,0.09708619980011135
1761308916959026700,6.530026611328125,0.028681904605031013,-0.008990458120033145,0.10569131186436861
1761308916968954600,6.53995458984375,0.019608371311426162,-0.03389452468678355,0.1005051779307425
1761308916978882600,6.549882568359375,0.00787584794163704,-0.04692220243364572,0.04925681939367205
1761308916988810500,6.559810546875,-0.022367899152636525,-0.03172375651896,0.007093791902565863
1761308916998739500,6.569739501953125,-0.06484335131049156,-0.036626141607761384,0.006635090632922947
1761308917008667400,6.57966748046875,-0.09146364721059799,-0.0507214485861361,-0.010864216102659701
1761308917018595600,6.589595703125,-0.0978986486941576,-0.07196925766766071,-0.10654212000742554
1761308917028523500,6.5995234375,-0.04838379941880703,-0.07559380484037101,-0.16333123460207133
1761308917038451500,6.609451416015625,0.031633155626058576,-0.08706796953491866,-0.16817410805597902
1761308917048380700,6.619380615234375,0.06198913092315197,-0.0837825181234628,-0.15719835787024347
1761308917058308600,6.62930859375,0.06257949803173542,-0.06803966313377022,-0.11276227316390722
1761308917068236500,6.639236572265625,0.039402620583772655,-0.054468087768554684,-0.06060169515274465
1761308917078164500,6.64916455078125,0.014893033227324486,-0.049923868467658755,-0.05899996361110825
1761308917088092700,6.6590927734375,-0.028491934990882872,-0.021682620302215218,-0.018261600911547427
1761308917098020600,6.6690205078125,-0.01773848578631878,0.004935995097458362,0.03394366105813533
1761308917107949600,6.678949462890625,0.007674772411584854,0.03164630736857652,0.03422916346862912
1761308917117877500,6.68887744140625,0.0025379940450191494,0.015360796869546174,-0.006818082517012954
1761308917127805400,6.698805419921875,0.012191957575082778,0.010447890386730432,-0.029226569408364593
1761308917137733400,6.7087333984375,0.0065676879525184625,0.019274755442887544,-0.03515950312130153
1761308917147661600,6.71866162109375,0.007860065850615501,0.031154724459350108,-0.059477878754585975
1761308917157589500,6.728589599609375,0.012757190242409705,0.03695193949602544,-0.07457980549223721
1761308917167518700,6.738518798828125,0.0028635727375745774,0.04040434497222304,-0.05920954667460173
1761308917177446700,6.74844677734375,-0.035220950984954834,0.06461326888166367,-0.02595405054371804
1761308917187374600,6.75837451171875,-0.10134849688708782,0.06699497638642787,0.014196429265290498
1761308917197302500,6.768302490234375,-0.13210311611294745,0.024957550319656727,0.026869918713043443
1761308917207230500,6.77823046875,-0.12190028652846813,-0.0294601955011487,0.055477260244521306
1761308917217158700,6.78815869140625,-0.0757692344725132,-0.054621670895069835,0.04322469962257892
1761308917227087600,6.798087646484375,0.0011053308933973312,-0.08127952232658862,0.03670665949806571
1761308917237015600,6.808015625,0.08286065403819083,-0.08871975532993674,0.02682593800742179
1761308917246943500,6.817943603515625,0.16200199529230594,-0.08901961505934596,-0.015704349610209466
1761308917256871400,6.827871337890625,0.2042716957449913,-0.07250088032633066,-0.05862089659906924
1761308917266799400,6.83779931640625,0.18823942935466764,-0.03742869016230106,-0.07909213181752711
1761308917276728600,6.847728515625,0.09124328245818615,-0.03547083409279585,-0.06898271613754332
1761308917286656500,6.857656494140625,-0.014819383469223976,-0.004067103308439255,-0.005416399025544524
1761308917296584700,6.867584716796875,-0.08481354167163371,0.02047090642489493,0.02649750977065414
1761308917306512600,6.8775126953125,-0.08792261360287666,0.015563187573850154,0.060705630451254544
1761308917316440600,6.887440673828125,-0.05580255124270916,0.013320815474539994,0.07775744914766401
1761308917326368500,6.897368408203125,0.013435235634446143,0.023513635121658442,0.09604951369613408
1761308917336297500,6.90729736328125,0.1215484043508768,0.017961188626289367,0.11614797007944434
1761308917346225400,6.917225341796875,0.17690321182608604,-0.0030643560066819188,0.08680683438070118
1761308917356153600,6.927153564453125,0.11900631865262984,0.03869593361914157,0.07033782054092734
1761308917366081500,6.93708154296875,0.09040215545892714,0.052056788843125104,0.05904785330686718
1761308917376009500,6.947009521484375,-0.005831190371513366,0.027079583974927664,-0.01937430682722479
1761308917385937400,6.9569375,-0.05273088871240616,0.02912029602229595,-0.05073580590505153
1761308917395866600,6.96686669921875,-0.06752806034982205,0.04289630791842937,-0.06331299993805586
1761308917405794600,6.976794677734375,-0.07955342918634414,0.0600437690090388,-0.08081245280411094
1761308917415722500,6.986722412109375,-0.0799818837314844,0.06213869546167552,-0.06407952733114361
1761308917425650700,6.996650634765625,-0.06029401744306087,0.05491100923046469,-0.052219578189402815
1761308917435578600,7.00657861328125,0.0006195932030677795,0.03921740020997822,-0.08119235549978912
1761308917445506600,7.016506591796875,0.07165770750045776,0.024620719580724836,-0.0837818240037188
1761308917455435500,7.026435546875,0.1355611476123333,0.01018061775267124,-0.06526545374665875
1761308917465363500,7.036363525390625,0.17785305989682673,-0.008368161503225564,-0.06166241971943527
1761308917475291400,7.04629150390625,0.14396248073279858,0.006464958230406046,-0.06582187748644501
1761308917485219600,7.056219482421875,0.0998591351121664,0.016979922503978014,-0.04258833794780075
1761308917495147500,7.0661474609375,0.019034370815753935,0.020965850334987043,-0.009074889567052014
1761308917505075700,7.07607568359375,-0.06644552581012249,0.025280644794180986,-0.014203082768362947
1761308917515005000,7.0860048828125,-0.1435071381807327,0.029289368978887793,-0.021988544446229934
1761308917524932900,7.095932861328125,-0.16730360883176326,0.015856471432000398,-0.0010674465684220194
1761308917534860800,7.10586083984375,-0.10655366431474685,0.01907726010940969,-0.006122611066140234
1761308917544788700,7.115788818359375,-0.029547581523656843,0.011754077614471316,-0.05143072936665266
1761308917554717000,7.125717041015625,0.03073766809105873,-0.0003112579062581062,-0.044876631548069416
1761308917564644900,7.135644775390625,0.09218728531002998,-0.019856500853598115,-0.04631974302846938
1761308917574572800,7.14557275390625,0.08793664212822913,-0.04686491928845644,-0.04864924998853821
1761308917584501800,7.155501708984375,0.027657822254300114,-0.048537236414849756,-0.017648469415307046
1761308917594429700,7.1654296875,-0.022591771036386488,-0.026857611787319182,0.024140680978819728
1761308917604357600,7.175357666015625,-0.048852585974335665,0.0029961130760610103,0.04171469691842794
1761308917614285800,7.185285888671875,-0.06925532253384589,0.026359891398251054,0.0449305171597749
1761308917624213800,7.1952138671875,-0.09052022888064384,0.012204232534766197,0.022742614216543732
1761308917634141700,7.2051416015625,-0.0755903707742691,-0.013889116881787776,-0.009699629302695393
1761308917644071000,7.21507080078125,-0.06015197862386703,-0.04695230531096458,-0.05920373798832297
1761308917653998800,7.224998779296875,0.05192249493896961,-0.057398369066789745,-0.0491863114407286
1761308917663926800,7.2349267578125,0.16237784286737442,-0.031946678554639216,-0.01214563878190238
1761308917673854700,7.244854736328125,0.19095920970737934,-0.003336450946331024,-0.015366751686297355
1761308917683783000,7.254782958984375,0.1336515145987272,0.015257921016961336,0.0055716626524925225
1761308917693710800,7.2647109375,0.05334931287169456,0.01052848134227097,0.052992640354554164
1761308917703639800,7.274639892578125,0.028898177704215048,0.017084551922231912,0.04102861435040831
1761308917713567700,7.284567626953125,0.07696516625881195,0.02728190161399543,0.017379950105655007
1761308917723495700,7.29449560546875,0.04378945736587048,-0.004968289931863546,0.05293561750426888
1761308917733423600,7.304423583984375,0.04848784431517124,-0.05064407250098884,0.054919484797865147
1761308917743351800,7.314351806640625,-0.015432546931505203,-0.022392595202475784,0.034819567109830675
1761308917753279700,7.32427978515625,-0.11297522179484366,-0.01890942926183343,0.023098332319036123
1761308917763209000,7.334208984375,-0.11190730030238628,-0.028827012164145707,-0.03209313782062381
1761308917773137000,7.344136962890625,-0.09637480012774467,-0.01856178486794233,-0.06177987208664417
1761308917783064800,7.35406494140625,-0.08824819229543208,0.010869257603958248,-0.051728104878030715
1761308917792992800,7.36399267578125,-0.09188742558062075,0.03243928437717259,-0.03381817151494324
1761308917802920700,7.373920654296875,-0.04457330121994018,0.031232685066387055,-0.013100272625614888
1761308917812849000,7.383848876953125,0.005285246926546096,0.016987229027599096,0.04170103371925652
1761308917822776800,7.39377685546875,0.06603168431222438,0.010668182073906064,0.06520644900184125
1761308917832705800,7.403705810546875,0.12630465896725654,0.006474164450168609,0.02714695012271404
1761308917842633700,7.4136337890625,0.13940963973402976,0.000776318134739995,-0.024156864928640425
1761308917852561700,7.423561767578125,0.11698679552376269,-0.022337796275317668,-0.050965997931733724
1761308917862489600,7.433489501953125,0.0654079994559288,-0.02463021806143224,-0.056644518492184576
1761308917872417800,7.443417724609375,-0.0037426936596632,-0.01774827652797103,-0.047058651762269435
1761308917882345700,7.453345703125,-0.07304010176956653,-0.018502894287556408,-0.05626947463471442
1761308917892273700,7.463273681640625,-0.12937047627866266,-0.014575564775988458,-0.06394859899443109
1761308917902203000,7.473202880859375,-0.08902794449627399,-0.030539369039982556,-0.0113923727291869
1761308917912130800,7.483130859375,-0.011956395253539085,-0.040530601700395345,0.036909780854731795
1761308917922058800,7.493058837890625,0.06109773504137993,-0.029406711748242376,0.012370309816673397
1761308917931986700,7.502986572265625,0.10107143351137637,-0.03922901758253574,-0.0059482774125412105
1761308917941915000,7.512914794921875,0.10200783757865428,-0.0449750869538635,0.039393012505210934
1761308917951842800,7.5228427734375,0.0643494303137064,-0.029889526829123495,0.06235803273420315
1761308917961771800,7.532771728515625,0.016155600509047508,0.00845035989396274,0.04927003963484894
1761308917971699700,7.54269970703125,-0.03442658573687076,0.02465513330698013,0.0676256389727816
1761308917981627600,7.552627685546875,-0.10230477469861507,0.024776129338145256,0.07539093464545439
1761308917991555600,7.5625556640625,-0.15564882687330245,0.018571429479122162,0.019742555617727336
1761308918001483800,7.57248388671875,-0.1521083777874708,0.005007160637527704,-0.01832216742578894
1761308918011411700,7.58241162109375,-0.04988426710963249,-0.005144669412076473,-0.007483414557948708
1761308918021340000,7.59233984375,0.0707370855242014,0.0054677638866007326,-0.003348433645069599
1761308918031268900,7.602268798828125,0.08200374494791031,0.014660101254284382,-0.02104852364975959
1761308918041196800,7.61219677734375,0.06683247930109501,-0.009113134651631116,0.0015648381639271974
1761308918051124700,7.622124755859375,0.05184475352764129,-0.010689005666226149,0.03847684750836342
1761308918061052700,7.632052734375,0.029406711748242376,-0.016656828029453754,0.036488304039649665
1761308918070980900,7.64198095703125,0.028406010273098945,-0.0025801526863127944,-0.006149613237497397
1761308918080908800,7.65190869140625,0.031174305942654607,0.0057831134460866445,-0.008395670564658939
1761308918090836700,7.661836669921875,0.03228957370817661,-0.01288366616629064,-0.03077135573152918
1761308918100765700,7.671765625,0.004056581914424896,-0.020404051733762026,-0.05153466466516256
1761308918110693600,7.681693603515625,-0.0023690672188997268,-0.004646510631591081,-0.04317903384994715
1761308918120621600,7.69162158203125,-0.03831774795651435,0.013494272345304488,-0.0020821035036817192
1761308918130549800,7.7015498046875,-0.03923603184521198,0.01645677541270852,0.007347184425033629
1761308918140477700,7.711477783203125,0.02194996600151062,-0.0053904608666896815,-0.018117073307745157
1761308918150406000,7.721406005859375,0.045163668328523636,-0.01411927237585187,-0.012899630920402704
1761308918160333800,7.731333740234375,0.004925765964388847,-0.013159779693931341,0.01484999780319631
1761308918170262800,7.7412626953125,-0.02725684023797512,-0.023727497068047523,0.039669089500233526
1761308918180190700,7.751190673828125,-0.020720131945610044,-0.009131547091156244,-0.0012212534572230652
1761308918190119000,7.761118896484375,0.0049514849275350565,-0.015034487524628638,-0.00631133857127279
1761308918200046800,7.771046875,0.014206220006942749,-0.03284296980723739,0.0019354615746065974
1761308918209974800,7.780974853515625,0.02758358797430992,-0.022493790554627774,0.014829247276112437
1761308918219902700,7.79090283203125,0.013927403065562248,-0.0063530953537672755,0.03716737234499305
1761308918229830700,7.80083056640625,-0.01140636015534401,0.012149068281427025,0.029164756218530236
1761308918239759600,7.810759521484375,-0.0559095187485218,0.014081497648730873,0.021536234101466833
1761308918249687600,7.8206875,-0.0933107363820076,-0.014386764205619691,0.006851509862579405
1761308918259615700,7.83061572265625,-0.05207330158650875,-0.006035188511013984,0.013308467449620366
1761308918269544000,7.8405439453125,-0.014030863440036774,-0.014123071768134831,0.02287091677132994
1761308918279471900,7.850471923828125,-0.0059463411837816236,0.0003353694342076778,-0.021724669345654545
1761308918289399800,7.86039990234375,0.008603577694296836,0.012357815661281347,-0.06011091596111655
1761308918299327700,7.87032763671875,0.03547404896318912,0.019726590863615272,-0.04207410481534898
1761308918309256000,7.880255859375,0.021415128472447396,0.03324862799867988,-0.021194179198145865
1761308918319185000,7.890184814453125,-0.022388941940665243,0.04854045128524303,-0.006940612918138503
1761308918329112800,7.90011279296875,-0.06593173106908798,0.04613499757871031,0.009822378899529575
1761308918339040800,7.910040771484375,-0.03588847498297691,0.03557926290333271,0.020511128837428987
1761308918348968700,7.91996875,-0.0024456395864486695,0.03429959835633635,0.0035721228657290337
1761308918358896600,7.929896728515625,0.021878069809079168,0.037998233678564426,-0.02475990885570645
1761308918368824800,7.939824951171875,0.023315993657708166,0.045435617137700314,-0.03721197867169976
1761308918378752800,7.949752685546875,0.022825579792261123,0.05098441037125885,-0.043190870418213304
1761308918388682000,7.959681884765625,-0.0016039280652999878,0.06349770885519683,-0.0495663967994973
1761308918398610000,7.96960986328125,-0.032498248022794725,0.06804901548400522,-0.0676296940933913
1761308918408537900,7.979537841796875,-0.06315642113685607,0.05939663021191954,-0.053036995519511396
1761308918418465800,7.9894658203125,-0.04193769201934337,0.0772821963187307,-0.025310930334590375
1761308918428393700,7.999393798828125,0.03507598955631256,0.08300788048915564,-0.017492584733851253
1761308918438322000,8.009322021484374,0.13296177876889706,0.06872822991982103,-0.0021128639681264757
1761308918448249900,8.019249755859375,0.15285422771871088,0.032038813817501066,0.0027200360810384155
1761308918458178800,8.0291787109375,0.12975158455073832,0.021208134658262132,0.01814666472841054
1761308918468106800,8.039106689453124,0.10146364769935608,0.009668138185888528,0.024553134237229823
1761308918478034700,8.04903466796875,0.058657356151938435,-0.0010697481233626603,0.021602723466418682
1761308918487962600,8.058962646484375,0.013427636849880218,0.0019083178393542765,0.019776604017801583
1761308918497890800,8.068890869140626,-0.03769406310021877,0.01298135438710451,0.009305040494538843
1761308918507818200,8.078818359375,-0.08332768702805042,0.01694602023437619,0.018326807068288327
1761308918517746200,8.08874609375,-0.0632990444779396,-0.0018964082058519124,-0.008341383094154298
1761308918527675400,8.09867529296875,-0.032066286346316336,0.009290683175623416,-0.002700746858678758
1761308918537603300,8.108603271484375,-0.011904372805356979,0.024332331093400716,0.01945449592396617
1761308918547531300,8.11853125,-0.0025087679505348204,0.023991554831713436,0.054331236581131814
1761308918557459500,8.12845947265625,0.015575170272588729,0.004355564860999584,0.0474202881488949
1761308918567387400,8.138387451171875,0.016873393389582634,-0.016252192751318215,0.021337387061119078
1761308918577315300,8.1483154296875,0.01308335345685482,-0.029634456089511513,0.03507975241597742
1761308918587243300,8.1582431640625,0.04911094464957714,-0.011467515758052467,0.022526194986887276
1761308918597171200,8.168171142578124,0.06823650088012218,-0.0016164222206920384,-0.0004417895215708995
1761308918607100200,8.17810009765625,0.0798994661450386,0.01587356869727373,0.009436156060919165
1761308918617028400,8.1880283203125,0.09694704705774783,0.03667297642417252,0.057315001632273196
1761308918626956300,8.197956298828124,0.05521919839680194,0.05642294816337526,0.08851703583206981
1761308918636884200,8.20788427734375,0.029821137768030165,0.05734393546581268,0.10351597711928189
1761308918646812200,8.217812255859375,-0.019798340925574302,0.03988499727323651,0.1194482172012329
1761308918656740400,8.227740234375,-0.06788871035575866,0.023347119448333977,0.11397541181333362
1761308918666668300,8.237668212890625,-0.04550152198076248,-0.008697904914245009,0.097312738564983
1761308918676596500,8.247596435546875,-0.005768646529316902,-0.015129399266466498,0.06543075927700848
1761308918686525400,8.257525390625,-0.003765490013360977,-0.004098375229537487,-0.0009591638883575796
1761308918696453400,8.267453369140625,0.010320318484306335,-0.001889905399829149,-0.09658069796338677
1761308918706381300,8.27738134765625,0.006273673442006111,-0.01821443273499608,-0.16291995038744062
1761308918716309200,8.287309326171876,0.021654197925329206,-0.006057400342822075,-0.18140231334362178
1761308918726237200,8.2972373046875,0.02402560323178768,0.0012176321614533663,-0.21038977676648646
1761308918736165400,8.307165283203124,0.004568623089790344,0.009487667052447796,-0.2365215950299054
1761308918746093300,8.31709326171875,-0.025187048226594923,0.009520108017325401,-0.2147005891703069
1761308918756021200,8.327021240234375,-0.07826514294147491,0.012722338124737142,-0.15173709678966552
1761308918765950200,8.3369501953125,-0.12518822215795516,0.02463525956273079,-0.1182579845033586
1761308918775878400,8.34687841796875,-0.15235504602491853,0.02033449362888932,-0.10039963519703596
1761308918785806300,8.356806396484375,-0.15695698686242102,-0.004810761282593012,-0.04396821146626025
1761308918795734500,8.366734619140624,-0.09459551549553871,0.007557721903175115,-0.0032395299104973673
1761308918805662500,8.376662353515625,-0.04174421527385711,0.028247166449576616,0.005174187767505645
1761308918815590400,8.38659033203125,-0.007207154899835586,0.03655892159044742,0.0227315813658759
1761308918825518300,8.396518310546876,0.04628711940050125,0.020500863171741365,0.045955037901923054
1761308918835446300,8.4064462890625,0.08734919762909411,0.014434329674392938,0.04202365326974541
1761308918845374500,8.41637451171875,0.11171557712256908,0.025555808473750947,-0.01877867902163416
1761308918855303200,8.42630322265625,0.13182137656211854,0.016133096416294575,-0.09315667833145708
1761308918865231400,8.4362314453125,0.10563304233849048,-0.009317132791131734,-0.1265420844523236
1761308918875159300,8.4461591796875,0.08645838626921176,-0.015083514298126101,-0.11864059061277657
1761308918885087200,8.456087158203125,0.06797521959543228,-0.013993015647679567,-0.09312474882323295
1761308918895015200,8.46601513671875,0.01884030954837799,-0.03718772101327777,-0.08420410453639925
1761308918904943000,8.475943115234376,-0.048345220974087715,-0.07722374412976205,-0.07686744150537997
1761308918914871300,8.485871337890625,-0.07660042459964751,-0.10614617949239909,-0.027909093601629135
1761308918924799200,8.49579931640625,-0.03836450970768928,-0.11968399871848523,-0.007781484189070761
1761308918934728400,8.505728515625,0.011496961048245428,-0.12796616243869066,-0.02621686619836837
1761308918944656400,8.515656494140625,0.04740998595058918,-0.1407425688382238,-0.044647425902076064
1761308918954584300,8.525584228515624,0.06778758806884289,-0.14265527059175073,-0.021803981659561395
1761308918964512300,8.53551220703125,0.08432488137185573,-0.11755158979967235,-0.0014553864400833844
1761308918974440400,8.5454404296875,0.0645189416617155,-0.08159845208264886,0.006272139072045683
1761308918984368400,8.555368408203124,0.008184475499391556,-0.0747707980196923,0.034066593318060036
1761308918994296300,8.56529638671875,-0.05346913985908031,-0.05671016760692,0.08908095332514494
1761308919004224300,8.575224365234375,-0.07287000589966773,-0.050706543277949094,0.12082005354370921
1761308919014153200,8.5851533203125,-0.02651040578484535,-0.02567329737357795,0.13505685135200618
1761308919024081200,8.5950810546875,0.01686696364879608,0.049804772132635115,0.1577425112169236
1761308919034009300,8.60500927734375,0.02338087558746338,0.0563719486285001,0.15736469088047741
1761308919043937300,8.614937255859376,-0.024161796832084654,0.0428870286334306,0.10643412958830595
1761308919053865500,8.624865478515625,-0.0890840585976839,0.046370925226435065,0.04038903780523687
1761308919063793400,8.63479345703125,-0.10975567522644997,0.052587973110377786,0.02123538799136877
1761308919073721300,8.644721435546876,-0.08676993643641472,0.07165281212963164,0.014773060109466314
1761308919083649300,8.654649169921875,-0.07453530876338481,0.08965623246245086,0.010716733923368155
1761308919093577500,8.664577392578124,-0.14405892684459684,0.0995998996540904,0.04442380974665284
1761308919103506400,8.67450634765625,-0.12450199345946311,0.08158625018820166,0.12882066037617623
1761308919113434400,8.684434326171875,-0.05257365232408046,0.08656140825226903,0.0314240429200232
1761308919123362300,8.6943623046875,-0.027356793481111526,0.07066723515838384,0.047504605431482196
1761308919133290200,8.704290283203125,0.01357961254119873,0.010588467901200056,0.0865680571887642
1761308919143218200,8.71421826171875,0.19229425770342348,0.012501242719963192,0.07109857578035443
1761308919153146400,8.724146484375,0.27829554785490035,-0.01992956608980894,0.0623896745480597
1761308919163074300,8.73407421875,0.263700620791316,-0.024067542677372693,0.012920637175813316
1761308919173002200,8.744002197265624,0.24089082309007642,-0.032190351117402316,-0.06567918108012527
1761308919182930200,8.75393017578125,0.1772404809564352,-0.05184869905039668,-0.052441002387739716
1761308919192859400,8.763859375,0.09143383659422397,-0.015445406413078308,-0.015898593540675937
1761308919202787300,8.773787353515624,0.03800736683309078,0.023319208528101442,-0.005680018397793174
1761308919212715300,8.78371533203125,0.016256722795963286,0.041742900099605316,-0.015139445736445486
1761308919222643500,8.7936435546875,-0.028942016845941543,0.020367811376601458,0.0036278716409578918
1761308919232571400,8.8035712890625,-0.07993746006786823,-0.016150997399166225,0.02310267970059067
1761308919242499300,8.813499267578125,-0.06263152047991752,-0.042581981272250415,0.08581446234248578
1761308919252427300,8.82342724609375,0.005963292318582535,-0.06103153793737292,0.09386007736045866
1761308919262355200,8.833355224609376,0.05397592033743858,-0.08351224981471896,0.04634140687100589
1761308919272283400,8.843283447265625,0.02022328833937645,-0.11429309946037829,0.06341273398548364
1761308919282212400,8.85321240234375,-0.016438509103655814,-0.1116131396614015,0.06208342161048203
1761308919292140300,8.863140380859376,-0.02840484122931957,-0.06067213004045188,0.03301259075310081
1761308919302068200,8.873068115234375,-0.08995265812575817,-0.03150193046182394,0.03285407572314143
1761308919311996200,8.88299609375,-0.13769231442213056,-0.01705240321829915,-0.0011775924120098352
1761308919321924000,8.892924072265625,-0.16341653826534747,0.0019913199476897714,-0.03894530527032911
1761308919331852500,8.9028525390625,-0.10962006614804268,0.0025878976013511417,-0.03572630669120699
1761308919341780500,8.912780517578126,-0.03387771968245506,-0.005736936216801405,-0.008611614870280027
1761308919351708400,8.92270849609375,0.014335399344563484,-0.006353972136601806,0.004765351238287985
1761308919361636400,8.93263623046875,0.08460778996646404,-0.02486731475293636,-0.02047887053564191
1761308919371565300,8.9425654296875,0.1547229442000389,-0.03866992239505052,-0.023279607170075177
1761308919381493200,8.9524931640625,0.15780454360246657,-0.03908617504574358,-0.041728067856654526
1761308919391421400,8.96242138671875,0.12133739194869994,-0.02758526847474277,-0.06247516087442636
1761308919401349400,8.972349365234376,0.06640227119028567,-0.04837788113467395,-0.0758394501645118
1761308919411277300,8.98227734375,0.01389116270840168,-0.04774177518822253,-0.10009363798778503
1761308919421205200,8.992205322265624,-0.04551905763745308,-0.021330811189860105,-0.10522975876722485
1761308919431133200,9.00213330078125,-0.12657704616785048,0.0010202829584479332,-0.08288692099060863
1761308919441061400,9.012061279296875,-0.19106734625697136,0.009487520921975374,-0.09651844638213515
1761308919450989300,9.0219892578125,-0.2275210539072752,0.0022494594272226094,-0.07695343928840011
1761308919460918500,9.03191845703125,-0.18122867380976676,0.006457943967729807,-0.07022679791450501
1761308919470846500,9.041846435546875,-0.018995207849144935,0.02162256067804992,-0.08755155180077999
1761308919480774400,9.0517744140625,0.1044300962895155,0.030971769107878206,-0.06963507909905164
1761308919490702300,9.061702392578125,0.1461006618052721,0.06459646387733518,-0.07834628188628703
1761308919500630300,9.07163037109375,0.08041969062685966,0.06770509741716087,-0.05852792108599096
1761308919510558700,9.081558837890626,0.022668927925825116,0.06610504180938005,-0.05230506451576948
1761308919520486700,9.091486572265625,0.013154080605506897,0.0751218764796853,-0.01716839428078383
1761308919530414600,9.10141455078125,0.04084580512940884,0.050958910603821274,-0.000573744767345488
1761308919540342800,9.1113427734375,0.05808277113437652,0.03697853524200618,-0.01231712060800055
1761308919550270700,9.121270751953125,0.035925299862027166,0.03158544402681291,0.009948046539234928
1761308919560199700,9.13119970703125,0.05475801062583923,0.021586612581834197,0.07905647598225624
1761308919570127600,9.141127685546875,0.07571838106811046,0.01463438229113817,0.11736764806751161
1761308919580055800,9.151055908203125,0.041565936097502705,-0.005515110159665346,0.16109346561264246
1761308919589983700,9.160983642578126,0.04738894316256046,-0.017183263056352732,0.16319577165413646
1761308919599911700,9.17091162109375,0.09073241032660007,-0.023530732386931777,0.13840367756187916
1761308919609839600,9.180839599609374,0.13233926295638085,-0.020373218204081056,0.10680804093461484
1761308919619767600,9.190767578125,0.15113807145059108,-0.030040260411426423,0.04220828912165016
1761308919629695700,9.20069580078125,0.12747954796552657,-0.021103724435716866,0.007479469035193324
1761308919639623700,9.210623779296874,0.06098726040422916,-0.000536810290440917,-0.015470248593389987
1761308919649552600,9.220552734375,-0.027063948014378544,0.014775690457969903,-0.034652795708179474
1761308919659480800,9.230480712890625,-0.11481062052845954,0.008284136481583118,-0.042747948956303294
1761308919669408800,9.24040869140625,-0.15984043334424494,0.0072651686973869796,-0.038807796495780346
1761308919679336700,9.250336669921875,-0.13913608348965645,-0.013744593844562768,-0.027927907899953423
1761308919689265000,9.260264892578125,-0.08943301816582679,-0.039460488250851626,-0.021765841606259346
1761308919699192800,9.27019287109375,0.0016565350353717804,-0.06043203767426312,-0.01825925825741142
1761308919709120800,9.280120849609375,0.07200140637159347,-0.07482574307732284,0.004640079749160213
1761308919719048700,9.290048583984374,0.1606400592893362,-0.060772813935950395,0.03442939874846488
1761308919728976600,9.2999765625,0.19532558822333812,-0.038409225632250306,0.04609061044771224
1761308919738904800,9.30990478515625,0.1294435415148735,-0.02062039789818227,0.058122701285965736
1761308919748832800,9.319832763671876,-0.0011813187390565872,-0.013124562250077723,0.05638539263196289
1761308919758761700,9.32976171875,-0.11510112790763377,-0.011195932275056839,0.046056087123602624
1761308919768689700,9.339689697265625,-0.1909083563029766,0.01401098969578743,0.036068288529291746
1761308919778617600,9.34961767578125,-0.17712533014416693,0.04511391090266406,-0.012654313248180551
1761308919788545500,9.359545654296875,-0.07278817283511162,0.03243818839862943,-0.05419770986195653
1761308919798473500,9.369473388671874,0.0514262358546257,0.003058510787785053,-0.06535875348672271
1761308919808401700,9.379401611328126,0.13996084387600422,0.017746449897065756,-0.0484153636008501
1761308919818329900,9.389329833984375,0.161455467325449,0.03451104914993047,-0.0009112330934032797
1761308919828257800,9.3992578125,0.12529635870754718,0.02320434997677803,0.023320304506644605
1761308919838185700,9.409185791015625,0.04937631758749485,0.013857041243091225,0.04906980892159044
1761308919848113700,9.41911376953125,-0.04133504995107651,0.006569441518187523,0.07593381391707807
1761308919858042600,9.429042724609374,-0.09934475584924221,0.024868483796715735,0.06382215503659099
1761308919867970800,9.438970703125,-0.09267536108791828,0.03509294069111347,0.03592464227490127
1761308919877898800,9.448898681640625,-0.04360416392683983,0.03216667798087001,0.022083711916394532
1761308919887826700,9.45882666015625,0.00022796353697776794,0.024879224386438727,-0.005319112663529813
1761308919897754600,9.468754638671875,0.043376784911751745,0.025412819806486367,-0.018663418611511585
1761308919907682600,9.4786826171875,0.10027473017573356,0.030058965111896395,-0.03179627376589924
1761308919917610800,9.48861083984375,0.11703940249383449,0.06732691175453365,-0.033543190498463805
1761308919927538700,9.49853857421875,0.03164835319519043,0.0658960752338171,-0.030937206967861855
1761308919937466600,9.508466552734374,-0.02713642872869968,0.03314019918814301,-0.05183898137398064
1761308919947394600,9.51839453125,-0.06072247198820114,0.01265460665076971,-0.035040004927478725
1761308919957323800,9.52832373046875,-0.04609539622068405,0.014725567705929279,0.002352739421895239
1761308919967251700,9.538251708984374,-0.00953062941133976,0.03386069548241794,0.018149516555911394
1761308919977179600,9.5481796875,0.04785129997730255,0.05123407428339123,0.00887950855884701
1761308919987107800,9.55810791015625,0.06759411132335662,0.059155222671478984,0.006844933991320431
1761308919997035800,9.568035888671876,0.019636428362131118,0.05905402731932699,0.0138420263370499
1761308920006963700,9.577963623046875,-0.03380523896813392,0.050160892093926664,0.036967538923956454
1761308920016891600,9.5878916015625,-0.07047171258628368,0.0589824964530766,0.05349960806258022
1761308920026819600,9.597819580078125,-0.13528057710528374,0.04693783839419484,0.04160984830446541
1761308920036747800,9.607747802734375,-0.15357435868680477,0.02540777830518782,0.03375234202040592
1761308920046675700,9.61767578125,-0.11024959622323513,0.017589651900157332,0.010047273696586489
1761308920056603600,9.627603759765625,-0.040433717197179794,-0.006225304255634546,-0.010726999589055776
1761308920066532600,9.63753271484375,0.034487960535287854,-0.01491656023338437,-0.04598134138695895
1761308920076460500,9.64746044921875,0.06453413923084736,-0.014519450674578547,-0.09309190599955618
1761308920086388500,9.657388427734375,0.03213935158252716,-0.012818418910354375,-0.10988094557393342
1761308920096316700,9.667316650390624,0.017159224593639374,-0.007290157008171081,-0.09095821843910962
1761308920106244900,9.677244873046876,0.04757657468914985,-0.010288388976082205,-0.06190302354227751
1761308920116172800,9.6871728515625,0.09710194535851478,0.011692922011762856,-0.015481315693387294
1761308920126100700,9.697100830078124,0.08209668392837047,0.020291896596178412,0.03226038642959902
1761308920136028700,9.707028564453125,0.05262567477226257,0.0010652180787175892,0.01547814420547802
1761308920145956900,9.716956787109375,0.012750175979733467,-0.016660335160791875,-0.004380187845602631
1761308920155884800,9.726884765625,0.01620294678211212,-0.01936857120618224,0.03512907145041972
1761308920165812700,9.736812744140625,-0.01992693574130535,-0.0007454115398228168,0.02368840716667473
1761308920175741700,9.74674169921875,-0.046602761220932,0.012768150027841329,-0.007188194471038877
1761308920185669600,9.756669677734376,-0.0719786100178957,-0.0019009382504969834,-0.01169043779373169
1761308920195597600,9.76659765625,-0.10507307036817073,0.004684431489184499,-0.002469130059890449
1761308920205525800,9.77652587890625,-0.06256488498449325,0.04416647398471832,0.033828875572048125
1761308920215453700,9.78645361328125,0.06025543899834156,0.010535714800655842,-0.0095626319848001
1761308920225381600,9.796381591796875,0.10649404308199882,-0.010487272549048066,-0.01209031926493626
1761308920235309600,9.8063095703125,0.1877022537380457,0.03615150983333587,0.006906934410822577
1761308920245237500,9.816237548828125,0.17207623006105421,0.03393989819847047,0.01682305600841064
1761308920255165700,9.826165771484375,0.08216799559891223,0.005982873801887035,0.04393189804386347
1761308920265094000,9.836093994140626,-0.020597382348775863,0.008110606545582414,0.053366451236163265
1761308920275021800,9.846021728515625,-0.11398527562022208,0.0006146247670054436,0.03545958204641938
1761308920284950800,9.85595068359375,-0.1676069756925106,-0.02212561482936144,0.0677478771129623
1761308920294878700,9.865878662109376,-0.11607377233207225,-0.03060023238174617,0.05022701613269746
1761308920304806700,9.875806640625,-0.0834247176617384,-0.020152780386433006,0.005774165237939451
1761308920314734600,9.885734619140624,-0.08298106554746627,-0.025811317604780195,0.04923343851808458
1761308920324662800,9.895662841796875,-0.05143208107352257,-0.040569034014642236,0.08078220379631966
1761308920334590700,9.9055908203125,0.028880057525634766,-0.008168547277897596,0.005544665047712624
1761308920344518700,9.9155185546875,0.11697861221730708,0.01333995856642723,-0.05060118320733308
1761308920354446600,9.925446533203125,0.15212474440038204,0.017711963105574248,-0.06281344835150521
1761308920364374500,9.93537451171875,0.16887129653990268,0.025479089975729584,-0.09688815647736192
1761308920374302700,9.945302734375,0.13460896145403384,0.03619724867120385,-0.1071979535676539
1761308920384230700,9.955230712890625,0.1098281559407711,0.015943492128327488,-0.08703688027691095
1761308920394158600,9.96515869140625,0.07779752542972564,0.017560425805673,-0.042868908454850314
1761308920404087800,9.975087890625,-0.027353286349773406,0.03496222698353231,0.03078512396197766
1761308920414015700,9.985015625,-0.12460779192149639,0.030976737543940543,0.05047149241305887
1761308920423943700,9.994943603515624,-0.14503390935659408,0.01068644838295877,0.004664228951372206
1761308920433872000,10.004871826171875,-0.1157668983399868,0.009422565926983952,0.005689336498698685
1761308920443799800,10.0147998046875,-0.03407061190605164,0.02117328254058957,-0.017449403179250658
1761308920453727700,10.024727783203126,0.08680150061845779,0.00529978690855205,-0.04575118589289486
1761308920463655700,10.03465576171875,0.17136077526807783,-0.004382379802688956,-0.07200111411064863
1761308920473583600,10.04458349609375,0.2092161664098501,-0.004134615586698055,-0.08583338623866438
1761308920483511800,10.05451171875,0.17119360200762748,-0.0003021247517317533,-0.10040095037128775
1761308920493439700,10.064439697265625,0.12057751349210738,-0.013414923498779534,-0.09118267484474926
1761308920503367200,10.0743671875,0.010002338576316832,-0.03207899969741702,-0.03904438173063099
1761308920513295000,10.084295166015625,-0.12309621831476687,-0.01643814377747476,-0.01850453597208252
1761308920523224000,10.09422412109375,-0.21383856551349162,-0.01950973324254155,-0.00599796177316457
1761308920533152000,10.104152099609376,-0.23740356549620628,-0.048923166992515324,-0.0011453706428408623
1761308920543080200,10.114080078125,-0.17715046458542347,-0.05009681388176977,0.027850205304531844
1761308920553008000,10.124008056640625,-0.0690852266639471,-0.040124358987063166,0.05354045152962208
1761308920562936000,10.13393603515625,-0.04257131374776363,-0.05430931701026857,0.05995280278995633
1761308920572864000,10.143864013671875,-0.005643558844923973,-0.07113251458257436,0.070628474050574
1761308920582792000,10.1537919921875,0.018675474375486372,-0.10316942870393395,0.03255290310276905
1761308920592720100,10.16372021484375,0.028906945532560346,-0.07977262489497661,0.024103271577879785
1761308920602648000,10.17364794921875,-0.019296821144223212,-0.06271598389297724,-0.00008727642465382814
1761308920612576000,10.183575927734376,-0.08199673068523407,-0.08398746611103415,-0.044003940366767344
1761308920622504000,10.19350390625,-0.1302326460659504,-0.06629676498919725,-0.09113920102920382
1761308920632431900,10.203431884765624,-0.15598551148176193,-0.05568221279866993,-0.11059917684588581
1761308920642360000,10.213360107421876,-0.13545768723785875,-0.05894114152938127,-0.11346600098647176
1761308920652289300,10.223289306640625,-0.06578560059666633,-0.06567220335006714,-0.09174264681506901
1761308920662217200,10.23321728515625,0.03073065382838249,-0.0758820471972227,-0.0703408892808482
1761308920672145200,10.243145263671876,0.12572832038402557,-0.07976604902371763,-0.03100724228005856
1761308920682073000,10.253072998046875,0.18099720314145087,-0.06067132632285356,-0.0018597294572740791
1761308920692001000,10.2630009765625,0.1937882956534624,-0.0280479175504297,0.02353953903118381
1761308920701929200,10.27292919921875,0.20699206061959266,0.005106602424010634,0.013834317954629659
1761308920711857200,10.282857177734375,0.09771043264567851,0.03456467903330922,0.0027995675906538962
1761308920721785000,10.29278515625,-0.022248072165250776,0.011500760440528392,-0.00334985841717571
1761308920731713000,10.302713134765625,-0.1650017616301775,0.0254238526571542,0.020867139200866223
1761308920741641000,10.312640869140624,-0.22998306010663508,0.05803812827505171,0.043900260796584184
1761308920751569200,10.322569091796876,-0.20768764166831968,0.04667275771722197,0.048768853213638066
1761308920761497000,10.3324970703125,-0.16769699206352232,0.052981356342136854,0.043741964962333436
1761308920771425000,10.342425048828124,-0.09479074580669403,0.04984532333873212,0.05867408809103071
1761308920781354000,10.35235400390625,0.0421019426703453,0.047028073960915205,0.04162376723196357
1761308920791282200,10.3622822265625,0.16214871028661726,0.039610271985083816,0.026562501298263666
1761308920801210000,10.372210205078124,0.22427403481006622,0.03513480707146227,0.01821490994232008
1761308920811138000,10.382137939453125,0.22251287035644052,0.01972381438463926,0.013227365037426352
1761308920821066200,10.392066162109375,0.1853968994051218,0.014974135639518498,0.022256401602178812
1761308920830994200,10.401994140625,0.09774667300283908,0.005163374112546444,0.017978760815598068
1761308920840922000,10.411922119140625,0.07426175251901149,0.057076662831753486,0.03962875748984515
1761308920850850000,10.42185009765625,0.068994041249156,0.10586911611668764,0.060236113243363795
1761308920860778000,10.431778076171875,0.078209028840065,0.08694799641706048,0.03691303225774318
1761308920870706200,10.4417060546875,0.07260989365875721,0.0515248008582741,0.017437639676220713
1761308920880634000,10.451634033203124,0.029293899023532865,0.05436119332797825,-0.022795221186615526
1761308920890562000,10.46156201171875,0.023251111727952956,0.02363243919573724,-0.024941329837217925
1761308920900490000,10.471489990234375,0.008104396000504494,0.00487272060289979,-0.039706681564264
1761308920910419000,10.4814189453125,0.0036310499787330624,0.017813523783907294,-0.01770724811455002
1761308920920347000,10.491346923828125,-0.02342120759785175,-0.006253361306339502,-0.0026049948666244742
1761308920930275000,10.501275146484375,-0.011740122154355048,-0.02818623004257679,-0.0019383476514369248
1761308920940203000,10.511203125,-0.024642273825407027,-0.04235460225716233,-0.011067629720270634
1761308920950131200,10.521131103515625,-0.04104571161568164,-0.06441643113531172,-0.00039239685107022524
1761308920960059100,10.53105908203125,0.009465747481584548,-0.06559964957050979,-0.019878639620169995
1761308920969987000,10.540987060546875,0.059598436394333834,-0.039428266481682656,-0.04648607603870332
1761308920979915300,10.550915283203125,0.0643143590003252,-0.03173910021856427,-0.028116745002940296
1761308920989843200,10.56084326171875,0.027955928418040274,-0.03121376117020845,-0.008890212615951895
1761308920999771100,10.570771240234375,-0.025005261918902396,-0.02947342030890286,0.0218451904527843
1761308921009699000,10.580698974609374,-0.06545476120710372,-0.029530922649800777,0.01756751313358545
1761308921019627000,10.590626953125,-0.10630582703351973,-0.016261545101553202,0.017606274241395294
1761308921029555200,10.60055517578125,-0.12122048757076263,-0.024098083946108816,0.03559964810423553
1761308921039483100,10.610483154296874,-0.06526128446161747,-0.02672974762395024,0.03018807138428092
1761308921049411000,10.6204111328125,0.025142624562978742,-0.01505326529033482,0.007767384881770704
1761308921059340000,10.630340087890625,0.06713233903050422,-0.029223829462006686,-0.03832512754537165
1761308921069268000,10.64026806640625,0.06265490135550499,-0.026203458727523683,-0.004871076635085046
1761308921079196000,10.65019580078125,0.044779637446999546,-0.032646862713247536,0.03511179152205586
1761308921089123800,10.660123779296875,0.0038689503878355023,-0.0474803477730602,0.030466306087060364
1761308921099052000,10.670052001953126,-0.02751344534754753,-0.04481112856380641,-0.0021615619480609893
1761308921108980200,10.679980224609375,-0.04190495879352092,-0.03166077428534627,-0.02438004040935775
1761308921118908200,10.689908203125,-0.019994740280508995,0.004897855044156313,-0.02969776483339956
1761308921128836000,10.699836181640626,0.00457622187435627,0.025124431319162248,-0.011001213420554995
1761308921138764000,10.709763916015625,0.03332651554048061,0.027804391118139028,-0.00598035076794913
1761308921148692200,10.719692138671874,0.029025018954277036,0.036693288559839124,-0.05033347218185663
1761308921158620200,10.7296201171875,-0.012681786918640137,-0.0023034546367824075,-0.0887127410672605
1761308921168548000,10.739548095703125,-0.005893149691820144,-0.052824046888574956,-0.05235142440814525
1761308921178476000,10.74947607421875,0.004110942450165749,-0.037440380600094796,-0.010292663292400538
1761308921188404000,10.759404052734375,0.051016486009955404,-0.006801642838865518,-0.0480730529692024
1761308921198332200,10.769332275390624,0.04814356092214584,0.006563157907873392,-0.06730360394418239
1761308921208261000,10.77926123046875,0.03977028485238552,-0.0008897153813391923,-0.047696693937480446
1761308921218189000,10.78918896484375,0.044562779825925825,0.013810206426680087,-0.022266009680740533
1761308921228117000,10.799116943359374,0.07148410449922084,0.023057634982466695,-0.02631875567026436
1761308921238045000,10.809044921875,0.024296821388602254,0.020970599575340747,-0.0352673108773306
1761308921247972900,10.818972900390625,-0.023840309792757034,-0.016492650443688035,-0.02260996199691435
1761308921257901000,10.828901123046874,-0.05286357518136501,-0.01780446369461715,-0.020716184139566027
1761308921267829200,10.838829345703125,-0.04168576308488846,0.005951894141733646,-0.026443436929280868
1761308921277757200,10.848757080078125,-0.01768997046947479,0.017355770079046488,-0.02081778363380581
1761308921287685000,10.85868505859375,0.018269231662154196,0.028460516939312216,-0.028541180960088966
1761308921297613000,10.868613037109375,0.04838964463770389,0.03561689149998128,-0.040312899262527936
1761308921307541200,10.878541259765624,0.06254793384969234,0.027751491887122393,-0.009405578259564935
1761308921317469200,10.88846923828125,0.09112871616780757,0.033925650477409364,0.0322739742802456
1761308921327397000,10.898397216796875,0.10721592761576175,0.03336984322555363,0.010603119764348957
1761308921337325000,10.908324951171876,0.07652209866642952,0.024361118796467778,0.011296323909610509
1761308921347253000,10.9182529296875,0.004418985486030578,0.004877031451836228,0.010337091522593982
1761308921357181200,10.92818115234375,-0.04060030593574047,-0.012074176414310932,-0.003995353246480226
1761308921367109000,10.938109130859376,-0.07847790890932083,-0.012118161686509848,-0.021749694189056753
1761308921377038000,10.9480380859375,-0.08351239594519137,-0.014107289677113295,-0.009447481172531842
1761308921386966000,10.957966064453124,-0.04555529799461364,-0.001056304119899869,0.003091358178039081
1761308921396894000,10.96789404296875,-0.006152092888951301,0.017185747274383902,-0.00929678412284702
1761308921406822000,10.97782177734375,-0.008103811478614806,0.003949687473848462,-0.04621149231444578
1761308921416750000,10.98775,-0.01620119321644306,-0.01341813836917281,-0.06606869185436516
1761308921426678300,10.99767822265625,0.010890811848640441,0.026319705518335103,-0.02318984652739018
1761308921436606200,11.007606201171875,0.04356967713534832,0.02821311804950237,-0.009335033774003385
1761308921446534100,11.0175341796875,0.024821137523651123,0.015351809845492243,-0.018384930463694035
1761308921456462000,11.027462158203125,0.0265168355256319,-0.016140183744207025,0.024931872455705887
1761308921466390000,11.03739013671875,0.03100654816031456,-0.006947992506995797,0.023013654276845045
1761308921476318200,11.047318115234376,-0.009937456646561623,-0.0034339930366724726,0.028507465920154934
1761308921486246100,11.05724609375,-0.10360533590316771,-0.00393529362231493,0.045929026677832004
1761308921496174000,11.067174072265624,-0.13951952984929084,-0.002682370951771736,0.057321687101386486
1761308921506102800,11.077102783203125,-0.12531447888612746,-0.014218202705681323,0.021317294121161103
1761308921516030700,11.08703076171875,-0.07503565950095653,-0.02061937498487532,-0.03131817139275372
1761308921525959000,11.096958984375,0.07129588845074177,-0.029379823741316792,-0.010428381968662142
1761308921535887000,11.10688720703125,0.1943810008496046,-0.023130261827260256,0.015333178210258484
1761308921545816000,11.116816162109375,0.2515162620007992,0.004897562783211469,0.000576046322286129
1761308921555744000,11.126743896484374,0.19616145452558992,0.004152881895750761,-0.0015068243663758038
1761308921565672000,11.136671875,0.05754501099586486,-0.00758212569206953,0.005809599594213068
1761308921575599900,11.146599853515625,-0.03722586106657982,0.010701134495437145,0.02697849822062999
1761308921585527800,11.15652783203125,-0.0786620333045721,0.010894757371395825,0.03363185516260564
1761308921595456000,11.1664560546875,-0.10672609827220439,0.011944485620036721,0.029852957678399978
1761308921605384000,11.176384033203124,-0.08261924649775028,-0.0034382308203727003,0.010757833118736744
1761308921615312000,11.186311767578125,-0.02558803024291992,-0.01046367247775197,-0.010146094428561627
1761308921625239800,11.19623974609375,-0.006539630901813507,-0.00835442523881793,-0.011328911004960536
1761308921635167700,11.206167724609376,-0.023360417321324347,0.003105199473723769,0.013046935003180988
1761308921645096000,11.216095947265625,0.020585107389092444,0.012112097271904348,0.004321374897030182
1761308921655023900,11.22602392578125,0.04474105900228023,0.01993745713531971,-0.016993220376968383
1761308921664951800,11.235951904296876,0.02243570369184017,-0.000386076708137989,0.0005331570286303759
1761308921674879700,11.245879638671875,-0.0659352382004261,-0.011127689344435929,0.032402605628594754
1761308921684808000,11.255807861328124,-0.07803191870748996,-0.015280352044478057,0.027799865640071218
1761308921694736100,11.265736083984375,-0.02443301498889923,-0.01538454307131469,0.0013229967986466361
1761308921704664000,11.2756640625,0.018852584508061408,-0.03320164705179632,0.0009244579011574387
1761308921714592000,11.285592041015626,0.04844342065155506,-0.024466624997556207,0.021146179904532617
1761308921724520000,11.29552001953125,0.044593174964189526,-0.01800765811651945,0.01883289342690259
1761308921734447900,11.30544775390625,0.08465922789275646,0.002531345108523965,-0.010752572421729565
1761308921744376800,11.315376953125,0.08135258756279945,0.0017481588415801524,-0.025338548993878066
1761308921754304800,11.3253046875,0.0522977579921484,0.003848053730279207,0.006109861182421445
1761308921764233000,11.33523291015625,0.0229267020791769,-0.004507248291373253,-0.029182839864492414
1761308921774161000,11.345160888671876,0.015528408521413802,-0.024880101169273257,-0.049324550867639476
1761308921784088800,11.3550888671875,0.0523848517537117,-0.030326968398317694,-0.015135500213690102
1761308921794016800,11.365016845703124,0.07279518709778786,-0.031105113163962958,0.008371011047437786
1761308921803944700,11.37494482421875,0.05402268208861351,-0.03946538362167775,0.021969730147905646
1761308921813873000,11.384872802734375,0.036488778963685034,-0.0428418012522161,-0.0014339783258736133
1761308921823800800,11.39480078125,-0.022290742263197896,-0.0443999174144119,-0.01848813054326456
1761308921833728800,11.404728759765625,-0.0012988076388835907,-0.05350194615013897,-0.017487684796447866
1761308921843657000,11.414656982421874,0.04573766882419586,-0.032045681949704884,-0.07172653495296835
1761308921853585000,11.4245849609375,-0.027219430837035177,-0.016491700595617293,-0.06542538898214698
1761308921863513000,11.43451318359375,-0.05545008454322815,-0.021018165044113992,-0.07668616665434091
1761308921873441000,11.44444091796875,-0.04604337377250194,0.04878704645745456,-0.09293039529491215
1761308921883369000,11.454368896484375,-0.00551905568242073,0.007775017915666103,-0.11939392973072827
1761308921893297000,11.464296875,-0.07143325109481811,-0.03956877093091607,-0.05942834052443504
1761308921903224800,11.474224853515626,-0.08821370550394057,0.021219898161292074,-0.02466667761430144
1761308921913153000,11.484153076171875,-0.09581775076687335,0.05808963926658034,-0.02324614329189062
1761308921923081000,11.4940810546875,-0.12893734555840491,0.031081001636013388,-0.008064502952355541
1761308921933009000,11.5040087890625,-0.08951602027416229,-0.007160685409605502,-0.009644866908155381
1761308921942937900,11.513937744140625,-0.012060440149903297,-0.0001603781934827566,-0.01644881130196154
1761308921952865800,11.52386572265625,0.045028643772006036,-0.013893646926432848,-0.04260638506114483
1761308921962793700,11.533793701171875,0.060199324896931646,0.011727335738018154,0.020740297950804232
1761308921972722000,11.543721923828125,-0.05945405948758125,0.03860518659576773,0.13724504557866601
1761308921982649900,11.55364990234375,-0.02999474076926708,0.07897212216705084,0.09432159392498433
1761308921992577800,11.563577880859375,0.1704606115579605,0.14493768244050442,-0.030735476133972404
1761308922002506000,11.573506103515625,0.4153390429794788,0.002773191040381789,-0.07777151420563459
1761308922012434000,11.583433837890626,0.4656675467252731,-0.18337459979727863,-0.008384053192101419
1761308922022362000,11.593362060546875,0.2841547952771187,-0.19404446237161754,0.053459641378372905
1761308922032290000,11.6032900390625,-0.05851005663573742,-0.03341989291235804,0.01680924211218953
1761308922042218000,11.613218017578125,-0.4504793299436569,0.10551138872019945,0.08714541868530214
1761308922052146000,11.62314599609375,-0.4711871869295835,0.030835137116163966,0.11733338047172874
1761308922062073900,11.633073974609376,-0.24477614009082316,-0.004932049574702978,0.01983976891450584
1761308922072002000,11.643001953125,0.03253098124861717,0.01958981274142861,-0.00691803576014936
1761308922081930000,11.652929931640625,0.2896574843466282,0.01920680477321148,-0.01063015161845833
1761308922091858000,11.66285791015625,0.4302461047321558,-0.01185395779237151,-0.04524681656733155
1761308922101785900,11.672785888671875,0.41282793694138525,0.007499269714206456,-0.08378295651488006
1761308922111713800,11.6827138671875,0.2201174996525049,0.06375818642228842,-0.12144640528112649
1761308922121642000,11.69264208984375,-0.015488076511025428,0.055363794499263166,-0.12062942634243518
1761308922131570000,11.70256982421875,-0.26773382183015343,-0.04338540660962462,-0.05306691573373973
1761308922141497900,11.712497802734376,-0.4299620270937681,-0.08607873930186033,-0.00034695027414709327
1761308922151425800,11.72242578125,-0.4126823909908533,-0.024498554505780337,-0.025340996679291128
