time,seconds_elapsed,z,y,x
1761308910535428900,0.106428955078125,-0.038952771574258804,0.07910408079624176,-0.05757114291191101
1761308910545357800,0.11635791015625,-0.028248198330402374,0.06195199117064476,-0.04625643789768219
1761308910555285800,0.12628564453125,-0.016874317079782486,0.03535490110516548,-0.018330775201320648
1761308910565213700,0.136213623046875,-0.004825377371162176,0.00506863696500659,0.012096107006072998
1761308910575142700,0.146142578125,0.0030876388773322105,-0.002038185019046068,0.0437183678150177
1761308910585070600,0.156070556640625,0.002205333672463894,-0.002438457915559411,0.06417730450630188
1761308910594998500,0.16599853515625,0.002019670791924,-0.00470919581130147,0.075037382543087
1761308910604927700,0.175927734375,0.0038346152286976576,-0.015134405344724655,0.07674767076969147
1761308910614855700,0.185855712890625,0.0036961876321583986,-0.01644889824092388,0.06156574562191963
1761308910624784000,0.195783935546875,0.0031664848793298006,-0.0135500468313694,0.03983435407280922
1761308910634712600,0.205712646484375,0.00039052983629517257,0.003318019909784198,0.016595255583524704
1761308910644640800,0.215640869140625,-0.013261365704238415,0.0004932047449983656,-0.008151102811098099
1761308910654568700,0.225568603515625,-0.021370302885770798,-0.0020865323022007942,-0.04116690158843994
1761308910664497700,0.23549755859375,-0.018577711656689644,-0.01797974482178688,-0.0670805275440216
1761308910674425600,0.245425537109375,-0.006043936125934124,-0.03635995462536812,-0.07262247055768967
1761308910684354800,0.255354736328125,0.004419091157615185,-0.05621062591671944,-0.0682879164814949
1761308910694282800,0.26528271484375,0.01585518568754196,-0.085330069065094,-0.050340354442596436
1761308910704210700,0.275210693359375,0.02006111480295658,-0.11467543989419937,-0.034506529569625854
1761308910714139600,0.2851396484375,0.017725450918078423,-0.11813458055257797,-0.023304905742406845
1761308910724067600,0.295067626953125,0.016541410237550735,-0.10792668908834457,-0.017153270542621613
1761308910733995800,0.304995849609375,0.01603114791214466,-0.09456773847341537,-0.011706839315593243
1761308910743924700,0.3149248046875,0.011801782064139843,-0.07104163616895676,-0.012548664584755898
1761308910753852700,0.324852783203125,0.0068919602781534195,-0.04085550084710121,-0.006772441323846579
1761308910763780600,0.334780517578125,0.008578806184232235,-0.00460348604246974,-0.008877936750650406
1761308910773709800,0.344709716796875,0.010700813494622707,0.023337334394454956,-0.011705414392054081
1761308910783637800,0.3546376953125,0.011230782605707645,0.03268742561340332,-0.021588671952486038
1761308910793565700,0.364565673828125,0.012676007114350796,0.04119200259447098,-0.03462047874927521
1761308910803494700,0.37449462890625,0.014373506419360638,0.032980408519506454,-0.039125218987464905
1761308910813422600,0.384422607421875,0.010032771155238152,0.006398498546332121,-0.03823896497488022
1761308910823350800,0.394350830078125,-0.0014779438497498631,-0.01140393503010273,-0.03511960059404373
1761308910833279500,0.404279541015625,-0.010157330892980099,-0.024980129674077034,-0.03864248842000961
1761308910843207700,0.414207763671875,-0.013543006964027882,-0.038899410516023636,-0.034017644822597504
1761308910853135600,0.424135498046875,-0.009504623711109161,-0.042406704276800156,-0.032253675162792206
1761308910863064800,0.43406494140625,-0.002040581777691841,-0.05195360630750656,-0.020988505333662033
1761308910872992800,0.44399267578125,0.007116074673831463,-0.05166327580809593,-0.005745439790189266
1761308910882920700,0.453920654296875,0.018540237098932266,-0.047057073563337326,0.004315982572734356
1761308910892849700,0.463849609375,0.01866825856268406,-0.030566012486815453,0.019083071500062943
1761308910902777600,0.473777587890625,0.015288706868886948,-0.02231127768754959,0.019151512533426285
1761308910912705500,0.48370556640625,0.005640080664306879,-0.01369581837207079,0.01313511747866869
1761308910922634500,0.493634521484375,-0.008156958036124706,-0.0035268038045614958,-0.00028055720031261444
1761308910932562700,0.503562744140625,-0.015007946640253067,0.0045365821570158005,-0.012510809116065502
1761308910942490600,0.51349072265625,-0.02368692122399807,0.01217719167470932,-0.02456933632493019
1761308910952419800,0.523419921875,-0.027453890070319176,0.019793793559074402,-0.03264787048101425
1761308910962347800,0.53334765625,-0.022279368713498116,0.0371919609606266,-0.03304121643304825
1761308910972275700,0.543275634765625,-0.011370742693543434,0.04778752103447914,-0.027207285165786743
1761308910982204700,0.55320458984375,-0.008411171846091747,0.0466117337346077,-0.02351454645395279
1761308910992132600,0.563132568359375,-0.002813237253576517,0.04532504454255104,-0.017518300563097
1761308911002060500,0.573060546875,0.0023948405869305134,0.04531306028366089,-0.014172838069498539
1761308911011989500,0.582989501953125,0.006892867852002382,0.02605796977877617,-0.013233027420938015
1761308911021917700,0.592917724609375,0.008836442604660988,-0.0007994772167876363,-0.008796467445790768
1761308911031846000,0.602845947265625,0.010182226076722145,-0.020862247794866562,-0.007691688369959593
1761308911041774800,0.61277490234375,0.008420278318226337,-0.032419297844171524,-0.0030029271729290485
1761308911051702800,0.622702880859375,0.005254839081317186,-0.031486526131629944,-0.00258982228115201
1761308911061630700,0.632630615234375,0.0005293259746395051,-0.024100251495838165,-0.006344080436974764
1761308911071559700,0.6425595703125,-0.00971056055277586,-0.003673190250992775,-0.012752017937600613
1761308911081487600,0.652487548828125,-0.016734648495912552,0.007448436692357063,-0.022164959460496902
1761308911091415600,0.66241552734375,-0.01960688643157482,0.02659044787287712,-0.02060478739440441
1761308911101344500,0.672344482421875,-0.03549370542168617,0.030569477006793022,-0.017801012843847275
1761308911111272400,0.6822724609375,-0.04864449426531792,0.02030910924077034,-0.015646841377019882
1761308911121201000,0.692200927734375,-0.05391915142536163,0.006281706504523754,-0.014856148511171341
1761308911131129900,0.7021298828125,-0.049986451864242554,-0.0038216752000153065,-0.016186967492103577
1761308911141057800,0.712057861328125,-0.05137049779295921,-0.008455309085547924,-0.019773446023464203
1761308911150985700,0.72198583984375,-0.044585488736629486,-0.0043685236014425755,-0.02326039969921112
1761308911160914700,0.731914794921875,-0.03593234717845917,-0.004163193982094526,-0.02409583330154419
1761308911170842600,0.741842529296875,-0.025029044598340988,0.006669985596090555,-0.023130446672439575
1761308911180770600,0.7517705078125,-0.014083986170589924,0.002147938124835491,-0.016922619193792343
1761308911190699500,0.761699462890625,0.001826382358558476,-0.003911001607775688,-0.0003311755135655403
1761308911200627700,0.771627685546875,0.006225658114999533,-0.002742939395830035,0.014247234910726547
1761308911210556000,0.781555908203125,0.009563413448631763,0.003857626346871257,0.021045688539743423
1761308911220484600,0.791484619140625,0.005944443866610527,0.021485090255737305,0.017745766788721085
1761308911230412800,0.801412841796875,-0.005357993766665459,0.03201335668563843,0.008668022230267525
1761308911240340700,0.8113408203125,-0.018316935747861862,0.03481127321720123,-0.005254717078059912
1761308911250269700,0.821269775390625,-0.031236017122864723,0.045260295271873474,-0.009552091360092163
1761308911260197600,0.83119775390625,-0.04040421545505524,0.04252496361732483,-0.009993378072977066
1761308911270125600,0.84112548828125,-0.04871205613017082,0.03722905367612839,-0.006767467595636845
1761308911280054800,0.8510546875,-0.05786347761750221,0.035580556839704514,0.0022939378395676613
1761308911289982700,0.860982666015625,-0.05666487291455269,0.03283628076314926,0.011316095478832722
1761308911299910700,0.87091064453125,-0.05216546356678009,0.03293295577168465,0.010730200447142124
1761308911309839600,0.880839599609375,-0.047612063586711884,0.029323674738407135,0.002006026916205883
1761308911319767800,0.890767822265625,-0.04573399946093559,0.029064282774925232,-0.006199438124895096
1761308911329695700,0.90069580078125,-0.03369517996907234,0.028781721368432045,-0.012352671474218369
1761308911339624700,0.910624755859375,-0.02255997061729431,0.04053132236003876,-0.01934719830751419
1761308911349552600,0.920552734375,-0.015536204911768436,0.03514350578188896,-0.018434522673487663
1761308911359480600,0.93048046875,0.0013096204493194818,0.0033080782741308212,-0.01047566533088684
1761308911369409800,0.940409912109375,0.017173822969198227,-0.03196336701512337,-0.00469802925363183
1761308911379337700,0.950337646484375,0.025211775675415993,-0.046840850263834,-0.0016729445196688175
1761308911389265700,0.960265625,0.015663398429751396,-0.04679710790514946,0.005407274700701237
1761308911399194600,0.970194580078125,-0.003104429692029953,-0.036176953464746475,-0.0025870022363960743
1761308911409122800,0.980122802734375,-0.025182118639349937,-0.008662588894367218,-0.012279967777431011
1761308911419050800,0.99005078125,-0.04952847212553024,0.016077643260359764,-0.0224660262465477
1761308911428979700,0.999979736328125,-0.08256426453590393,0.02517177350819111,-0.03567491099238396
1761308911438907600,1.00990771484375,-0.10039492696523666,0.02013174258172512,-0.032305747270584106
1761308911448835600,1.019835693359375,-0.11083932220935822,-0.016428323462605476,-0.024616599082946777
1761308911458764800,1.029764892578125,-0.10949921607971191,-0.05592433363199234,-0.0038806945085525513
1761308911468692700,1.039692626953125,-0.09640093147754669,-0.08986109495162964,0.021957749500870705
1761308911478620700,1.04962060546875,-0.08605082333087921,-0.09183317422866821,0.031398922204971313
1761308911488549600,1.059549560546875,-0.08155730366706848,-0.054372794926166534,0.018439605832099915
1761308911498477600,1.0694775390625,-0.07435984164476395,0.003972270991653204,-0.009161662310361862
1761308911508406500,1.079406494140625,-0.0701856017112732,0.05957294628024101,-0.033966608345508575
1761308911518334500,1.08933447265625,-0.06279586255550385,0.07645819336175919,-0.043603524565696716
1761308911528262400,1.099262451171875,-0.04875914007425308,0.07207009941339493,-0.04833729565143585
1761308911538191600,1.109191650390625,-0.047805726528167725,0.05281144753098488,-0.04169243946671486
1761308911548119600,1.11911962890625,-0.0483647920191288,0.028448229655623436,-0.030962521210312843
1761308911558047500,1.129047607421875,-0.053445570170879364,0.01649436540901661,-0.007958135567605495
1761308911567976400,1.1389765625,-0.04687543213367462,0.027440819889307022,0.017273131757974625
1761308911577904400,1.148904296875,-0.044119592756032944,0.04711678624153137,0.038744598627090454
1761308911587832600,1.15883251953125,-0.04038715735077858,0.06173053756356239,0.05049014091491699
1761308911597761300,1.16876123046875,-0.03881349414587021,0.06376626342535019,0.05304890498518944
1761308911607689500,1.178689453125,-0.039381884038448334,0.052318230271339417,0.047140758484601974
1761308911617617400,1.188617431640625,-0.035773567855358124,0.04010444134473801,0.03387555480003357
1761308911627546600,1.198546630859375,-0.031285159289836884,0.018608583137392998,0.011889463290572166
1761308911637474600,1.208474609375,-0.026926899328827858,0.0052259331569075584,-0.006882891990244389
1761308911647402500,1.218402587890625,-0.032393112778663635,0.0060584042221307755,-0.027282845228910446
1761308911657331500,1.22833154296875,-0.027335237711668015,0.009629969485104084,-0.03336150944232941
1761308911667259400,1.23825927734375,-0.017138540744781494,0.01697690784931183,-0.03642008453607559
1761308911677187300,1.248187255859375,-0.008762367069721222,0.025575188919901848,-0.02683989331126213
1761308911687116300,1.2581162109375,-0.007289777975529432,0.03646665811538696,-0.009427462704479694
1761308911697044500,1.26804443359375,-0.014617466367781162,0.05081790313124657,0.005700090900063515
1761308911706972400,1.277972412109375,-0.017217367887496948,0.04838789999485016,0.014211641624569893
1761308911716901600,1.287901611328125,-0.018262658268213272,0.054569095373153687,0.013627344742417336
1761308911726829600,1.29782958984375,-0.022921573370695114,0.07112782448530197,0.013285567983984947
1761308911736757500,1.307757568359375,-0.024505889043211937,0.0738048329949379,0.017644628882408142
1761308911746686500,1.3176865234375,-0.031091462820768356,0.06226806715130806,0.014446461573243141
1761308911756614400,1.327614501953125,-0.03346114233136177,0.05084124207496643,0.012256011366844177
1761308911766542300,1.337542236328125,-0.026766186580061913,0.04103946313261986,0.012304829433560371
1761308911776471300,1.34747119140625,-0.022214043885469437,0.01600867696106434,0.007446158677339554
1761308911786399500,1.3573994140625,-0.018116503953933716,-0.0069253286346793175,0.0020508291199803352
1761308911796328400,1.367328369140625,-0.012082579545676708,-0.02176925539970398,-0.007601531688123941
1761308911806256600,1.377256591796875,-0.012059996835887432,-0.03458888828754425,-0.011383473873138428
1761308911816184600,1.3871845703125,-0.012768130749464035,-0.04215919226408005,-0.01118693221360445
1761308911826112500,1.397112548828125,-0.00917512085288763,-0.043692849576473236,-0.008984914980828762
1761308911836041500,1.40704150390625,-0.00470393942669034,-0.03205776587128639,-0.004614134784787893
1761308911845969400,1.416969482421875,-0.0020514647476375103,-0.023915860801935196,-0.0022839782759547234
1761308911855898400,1.4268984375,-0.0035433676093816757,-0.018268095329403877,-0.005496283061802387
1761308911865826300,1.436826416015625,-0.006868182215839624,-0.021043244749307632,-0.009491205215454102
1761308911875754200,1.446754150390625,-0.012037643231451511,-0.025392454117536545,-0.019298028200864792
1761308911885683500,1.456683349609375,-0.015768343582749367,-0.0436243899166584,-0.03450021147727966
1761308911895611600,1.466611572265625,-0.022621456533670425,-0.06582769751548767,-0.04277252033352852
1761308911905539600,1.47653955078125,-0.02278474159538746,-0.07849333435297012,-0.05588576942682266
1761308911915468500,1.486468505859375,-0.021145299077033997,-0.079007588326931,-0.06549738347530365
1761308911925396500,1.496396484375,-0.01948070153594017,-0.06433530151844025,-0.06899606436491013
1761308911935324400,1.506324462890625,-0.01785697229206562,-0.04247234761714935,-0.06396588683128357
1761308911945253400,1.51625341796875,-0.026117870584130287,0.016284659504890442,-0.04145876690745354
1761308911955181300,1.526181396484375,-0.03265593200922012,0.050057798624038696,-0.020509012043476105
1761308911965109200,1.536109130859375,-0.031293489038944244,0.0533624067902565,0.004388478584587574
1761308911975038500,1.54603857421875,-0.020577194169163704,0.038475338369607925,0.02274484932422638
1761308911984966400,1.55596630859375,-0.010249724611639977,0.012342465110123158,0.03299378603696823
1761308911994894600,1.56589453125,0.0032690141815692186,-0.02468745782971382,0.033435605466365814
1761308912004823600,1.575823486328125,0.010453281924128532,-0.04895830526947975,0.028878051787614822
1761308912014751500,1.58575146484375,0.01098138652741909,-0.07240210473537445,0.005659813992679119
1761308912024679400,1.595679443359375,0.017249226570129395,-0.08958513289690018,-0.008348609320819378
1761308912034608400,1.6056083984375,0.018382135778665543,-0.08009735494852066,-0.0141969108954072
1761308912044536300,1.615536376953125,0.003893861547112465,-0.053475528955459595,-0.020170442759990692
1761308912054464300,1.62546435546875,-0.0021168929524719715,-0.022812694311141968,-0.021620001643896103
1761308912064393500,1.6353935546875,-0.0011799902422353625,0.0180253516882658,-0.0169773381203413
1761308912074321400,1.6453212890625,-0.001937126973643899,0.041514165699481964,-0.012317072600126266
1761308912084249600,1.65524951171875,0.009866799227893353,0.042444873601198196,-0.004141941200941801
1761308912094178600,1.665178466796875,0.017728984355926514,0.04764203354716301,0.012924394570291042
1761308912104106500,1.6751064453125,0.022129254415631294,0.019412625581026077,0.028732994571328163
1761308912114034400,1.685034423828125,0.031404245644807816,-0.04746280983090401,0.0332193598151207
1761308912123963400,1.69496337890625,0.03311431407928467,-0.10604605823755264,0.04174068942666054
1761308912133891300,1.704891357421875,0.029238082468509674,-0.12939025461673737,0.03499889746308327
1761308912143819300,1.7148193359375,0.024673355743288994,-0.12530726194381714,0.015025531873106956
1761308912153748500,1.72474853515625,0.012490990571677685,-0.07883510738611221,-0.009873958304524422
1761308912163676400,1.734676513671875,0.0009492005920037627,-0.009693228639662266,-0.030436638742685318
1761308912173604600,1.7446044921875,-0.009032060392200947,0.04615006223320961,-0.0385049507021904
1761308912183533300,1.754533203125,-0.019759654998779297,0.07107972353696823,-0.03490062430500984
1761308912193461500,1.76446142578125,-0.01298590563237667,0.05950135737657547,-0.01979171112179756
1761308912203389400,1.774389404296875,-0.007827186025679111,0.028769051656126976,0.006718391552567482
1761308912213318400,1.784318359375,-0.0036630677059292793,-0.0076305014081299305,0.0346783846616745
1761308912223246300,1.794246337890625,0.00002187339123338461,-0.034278929233551025,0.05870236083865166
1761308912233174300,1.80417431640625,0.00035663272137753665,-0.048232559114694595,0.055331069976091385
1761308912243103500,1.814103515625,-0.0031654525082558393,-0.047328922897577286,0.03212908282876015
1761308912253031400,1.824031494140625,-0.004074655473232269,-0.03085167706012726,0.005663122050464153
1761308912262959400,1.83395947265625,-0.014650845900177956,0.001125755487009883,-0.013668881729245186
1761308912272888300,1.843888427734375,-0.02544943057000637,0.023705899715423584,-0.031346146017313004
1761308912282816500,1.85381640625,-0.02953288145363331,0.02439287304878235,-0.04119837284088135
1761308912292745500,1.863745361328125,-0.02876642346382141,0.01011406909674406,-0.03135266527533531
1761308912302673400,1.87367333984375,-0.03104393370449543,-0.004591784905642271,-0.012505080550909042
1761308912312601300,1.883601318359375,-0.03476836159825325,-0.000041774241253733635,0.015867169946432114
1761308912322530600,1.893530517578125,-0.03699995204806328,0.009226620197296143,0.036556318402290344
1761308912332458500,1.90345849609375,-0.028429634869098663,0.008915562182664871,0.03756938502192497
1761308912342386400,1.913386474609375,-0.014257460832595825,0.012016469612717628,0.029449108988046646
1761308912352315400,1.9233154296875,-0.004689522087574005,0.008243569172918797,0.010700986720621586
1761308912362243300,1.933243408203125,-0.0036362262908369303,-0.006914688274264336,-0.0037459288723766804
1761308912372171500,1.943171630859375,0.0028070255648344755,-0.023171955719590187,-0.01709875278174877
1761308912382100200,1.953100341796875,0.009692725725471973,-0.03201841935515404,-0.02377258613705635
1761308912392028400,1.9630283203125,0.014270699582993984,-0.05272742733359337,-0.03479328006505966
1761308912401956600,1.97295654296875,0.012222576886415482,-0.05568166822195053,-0.03949778899550438
1761308912411885600,1.982885498046875,0.008413458243012428,-0.03919670358300209,-0.043631281703710556
1761308912421813500,1.9928134765625,-0.0012776615330949426,-0.012077860534191132,-0.04520183801651001
1761308912431741400,2.002741455078125,-0.01202298328280449,0.02066650427877903,-0.041017476469278336
1761308912441670400,2.01267041015625,-0.023356741294264793,0.0550624318420887,-0.02735741063952446
1761308912451598300,2.022598388671875,-0.02406008169054985,0.07391894608736038,-0.017278946936130524
1761308912461526300,2.0325263671875,-0.02162112481892109,0.05944325029850006,-0.0072435177862644196
1761308912471455200,2.042455322265625,-0.010639847256243229,0.049609795212745667,0.005435526371002197
1761308912481383400,2.052383544921875,-0.0007370762177743018,0.02709459327161312,0.016247062012553215
1761308912491311600,2.0623115234375,0.010710522532463074,-0.0028670334722846746,0.025154003873467445
1761308912501240600,2.072240478515625,0.017646335065364838,-0.027607139199972153,0.022667495533823967
1761308912511168500,2.08216845703125,0.02176091820001602,-0.03843608498573303,0.016093485057353973
1761308912521096400,2.092096435546875,0.022132480517029762,-0.04154488071799278,-0.002623732201755047
1761308912531025400,2.102025390625,0.01952258311212063,-0.030690371990203857,-0.01088219415396452
1761308912540953300,2.111953369140625,0.01613946259021759,-0.012844143435359001,-0.015166692435741425
1761308912550881300,2.12188134765625,0.017322173342108727,-0.0008013292099349201,-0.01556083932518959
1761308912560810200,2.131810302734375,0.021130869165062904,0.012003893032670021,-0.011489950120449066
1761308912570738400,2.141738525390625,0.01791909709572792,0.01897365227341652,0.004300997592508793
1761308912580666400,2.151666259765625,0.016662273555994034,0.013114138506352901,0.022764548659324646
1761308912590594300,2.16159423828125,0.012044885195791721,0.013043032959103584,0.0405866876244545
1761308912600523500,2.1715234375,0.01021062396466732,0.004072046373039484,0.04561038687825203
1761308912610451500,2.181451416015625,0.011965647339820862,0.0016570920124650002,0.0361817330121994
1761308912620379400,2.19137939453125,0.011020743288099766,-0.002553028054535389,0.024889735504984856
1761308912630308400,2.201308349609375,0.006786583457142115,-0.0075097037479281425,0.008625542744994164
1761308912640236300,2.211236328125,-0.0005594433168880641,-0.011038144119083881,-0.0038462230004370213
1761308912650164500,2.22116455078125,0.0022177009377628565,-0.007382156793028116,-0.012512682005763054
1761308912660093200,2.23109326171875,0.001614830456674099,-0.011114144697785378,-0.015648899599909782
1761308912670021400,2.241021484375,0.00544392317533493,-0.01774088852107525,-0.01124030165374279
1761308912679949300,2.25094921875,0.0016729745548218489,-0.014778763055801392,-0.0008078059181571007
1761308912689878500,2.26087841796875,-0.0004050900461152196,-0.01194462738931179,0.02083490416407585
1761308912699806500,2.270806396484375,-0.0027476935647428036,0.0024211048148572445,0.03744521364569664
1761308912709734400,2.280734375,-0.007217276841402054,0.00022319803247228265,0.04002874344587326
1761308912719663400,2.290663330078125,-0.0059862034395337105,0.012997436337172985,0.03656663000583649
1761308912729591300,2.30059130859375,-0.006346262991428375,0.015546613372862339,0.0213027223944664
1761308912739519200,2.310519287109375,-0.006741324905306101,0.009898314252495766,0.006150700151920319
1761308912749448200,2.3204482421875,-0.011160573922097683,-0.0006608533440157771,-0.012998227030038834
1761308912759376400,2.33037646484375,-0.018577827140688896,-0.004992850124835968,-0.018161941319704056
1761308912769304600,2.3403046875,-0.021037789061665535,-0.014058517292141914,-0.02000218629837036
1761308912779233500,2.350233642578125,-0.023086434230208397,-0.02511449158191681,-0.024165326729416847
1761308912789161500,2.360161376953125,-0.021086933091282845,-0.023866800591349602,-0.021977540105581284
1761308912799089400,2.37008935546875,-0.014872859232127666,-0.01752307265996933,-0.02067399211227894
1761308912809018400,2.380018310546875,-0.0033235293813049793,-0.008161262609064579,-0.014618496410548687
1761308912818946300,2.3899462890625,0.004914541728794575,0.004635761491954327,-0.012428080663084984
1761308912828874200,2.399874267578125,0.004360071383416653,0.016588294878602028,-0.0028960946947336197
1761308912838803200,2.40980322265625,0.0005280025652609766,0.015004945918917656,0.005174833349883556
1761308912848731400,2.4197314453125,-0.0020486058201640844,-0.00030450173653662205,0.0015753041952848434
1761308912858659600,2.42965966796875,-0.004791454412043095,-0.019823655486106873,0.0014994489029049873
1761308912868588500,2.439588623046875,-0.004783198703080416,-0.03269817307591438,-0.01042591966688633
1761308912878516500,2.4495166015625,-0.008847503922879696,-0.05186944454908371,-0.019298765808343887
1761308912888444400,2.4594443359375,-0.015051869675517082,-0.04698067903518677,-0.025857333093881607
1761308912898373400,2.469373291015625,-0.018789447844028473,-0.02999824658036232,-0.031410083174705505
1761308912908301300,2.47930126953125,-0.020080547779798508,-0.012564128264784813,-0.03479975461959839
1761308912918229200,2.489229248046875,-0.019900266081094742,0.0005283061764203012,-0.03430859372019768
1761308912928158200,2.499158203125,-0.020584430545568466,0.009645105339586735,-0.02583254873752594
1761308912938086400,2.50908642578125,-0.02045043744146824,0.02621234580874443,-0.01984328217804432
1761308912948014600,2.5190146484375,-0.014574171975255013,0.04183178395032883,-0.014966501854360104
1761308912957943600,2.528943603515625,-0.009335119277238846,0.05053882300853729,-0.0022703027352690697
1761308912967871500,2.53887158203125,-0.004853019490838051,0.04268835857510567,0.00942843034863472
1761308912977799400,2.54879931640625,-0.009396280162036419,0.021906329318881035,0.012559320777654648
1761308912987727400,2.558727294921875,-0.006220194511115551,0.004224803298711777,0.006180517375469208
1761308912997656300,2.56865625,-0.006185133010149002,-0.010986855253577232,-0.003096415661275387
1761308913007584300,2.578584228515625,-0.00932846125215292,-0.0345584936439991,-0.014374103397130966
1761308913017512400,2.588512451171875,-0.012312620878219604,-0.03331548720598221,-0.019221151247620583
1761308913027441400,2.59844140625,-0.01769939623773098,-0.007149665616452694,-0.025294221937656403
1761308913037369600,2.60836962890625,-0.017421826720237732,0.005431542173027992,-0.029193971306085587
1761308913047297500,2.618297607421875,-0.016724077984690666,-0.0049819499254226685,-0.028650686144828796
1761308913057226500,2.6282265625,-0.013754927553236485,-0.021112503483891487,-0.022738724946975708
1761308913067154400,2.638154541015625,-0.01105581410229206,-0.009970637038350105,0.0018664868548512459
1761308913077082400,2.648082275390625,-0.015681322664022446,0.004017067141830921,0.021228354424238205
1761308913087011300,2.65801123046875,-0.011641839519143105,-0.0024701273068785667,0.03316943347454071
1761308913096939300,2.667939208984375,-0.0007292386726476252,-0.020792486146092415,0.029839251190423965
1761308913106867200,2.6778671875,0.004502008203417063,-0.03134606033563614,0.018569286912679672
1761308913116796400,2.68779638671875,0.000037955527659505606,-0.02111341990530491,0.009547046385705471
1761308913126724600,2.697724609375,-0.012225368991494179,0.009977388195693493,-0.0063970331102609634
1761308913136652500,2.707652587890625,-0.01713390275835991,0.028885183855891228,-0.02166646160185337
1761308913146581500,2.71758154296875,-0.018186116591095924,0.029710762202739716,-0.030414946377277374
1761308913156509400,2.727509521484375,-0.01442501600831747,0.017568867653608322,-0.021114815026521683
1761308913166437400,2.737437255859375,-0.012620192021131516,0.010770882479846478,-0.0018316647037863731
1761308913176366300,2.747366455078125,-0.008354314602911472,-0.012181528843939304,0.021524157375097275
1761308913186294300,2.757294189453125,-0.0007651046034879982,-0.018417853862047195,0.031765878200531006
1761308913196222200,2.76722216796875,0.0037122885696589947,-0.018851255998015404,0.026641514152288437
1761308913206150400,2.777150390625,0.0024470204953104258,-0.010222348384559155,0.007288055494427681
1761308913216079400,2.787079345703125,-0.000928232679143548,-0.0023625821340829134,-0.002531199250370264
1761308913226007600,2.797007568359375,-0.002908559050410986,0.0004901960492134094,-0.01633782498538494
1761308913235935500,2.806935546875,-0.00022574031027033925,-0.011846810579299927,-0.01541771087795496
1761308913245864400,2.816864501953125,0.00044191419146955013,-0.01879073679447174,-0.009382189251482487
1761308913255792400,2.82679248046875,0.005211592186242342,-0.03433803841471672,-0.007375303655862808
1761308913265720300,2.83672021484375,0.006236110348254442,-0.04643012210726738,-0.008907686918973923
1761308913275649300,2.846649169921875,0.006575137376785278,-0.04971827194094658,-0.016876142472028732
1761308913285577200,2.8565771484375,0.006752770394086838,-0.046678803861141205,-0.02438945323228836
1761308913295505400,2.86650537109375,0.0025620809756219387,-0.0346960611641407,-0.042516596615314484
1761308913305434400,2.876434326171875,0.00008054747013375163,-0.03208936005830765,-0.05518392473459244
1761308913315362600,2.886362548828125,-0.0066535030491650105,-0.02598434127867222,-0.06287069618701935
1761308913325290500,2.89629052734375,-0.007589603774249554,-0.0125175341963768,-0.06810247153043747
1761308913335218400,2.906218505859375,-0.003930079750716686,-0.0035174249205738306,-0.055694371461868286
1761308913345147400,2.9161474609375,-0.0030778683722019196,-0.014748241752386093,-0.03765624761581421
1761308913355075300,2.926075439453125,0.00020840889192186296,-0.007073827553540468,-0.014804181642830372
1761308913365003300,2.936003173828125,0.0012624880764633417,-0.005443706642836332,0.009707286022603512
1761308913374932200,2.94593212890625,0.005401246249675751,0.0031435349956154823,0.022815708070993423
1761308913384860400,2.9558603515625,0.004641447216272354,0.015431893989443779,0.02966109663248062
1761308913394788600,2.96578857421875,0.004340899642556906,0.03015425242483616,0.025377312675118446
1761308913404717600,2.975717529296875,0.011322109028697014,0.029758239164948463,0.012926502153277397
1761308913414645500,2.9856455078125,0.01335883978754282,0.023945391178131104,-0.00091527309268713
1761308913424573400,2.995573486328125,0.019613273441791534,0.014599825255572796,-0.009714357554912567
1761308913434501400,3.00550146484375,0.018766863271594048,0.004595428239554167,-0.01929640769958496
1761308913444430300,3.015430419921875,0.021930698305368423,-0.00007469143019989133,-0.024540171027183533
1761308913454358300,3.025358154296875,0.02397923357784748,-0.006781134754419327,-0.02319970726966858
1761308913464286200,3.0352861328125,0.020881710574030876,-0.00846025813370943,-0.0112940464168787
1761308913474215400,3.04521533203125,0.015317034907639027,-0.004349668510258198,0.0025027254596352577
1761308913484143600,3.0551435546875,0.011999801732599735,0.006272083148360252,0.016482988372445107
1761308913494071600,3.065071533203125,0.016911013051867485,0.00948940310627222,0.029531054198741913
1761308913504000300,3.075000244140625,0.01910039782524109,0.013525157235562801,0.04232940822839737
1761308913513928200,3.08492822265625,0.026149166747927666,0.03441083803772926,0.052426427602767944
1761308913523856100,3.094856201171875,0.034985270351171494,0.03240973874926567,0.05498838424682617
1761308913533785300,3.104785400390625,0.041945163160562515,0.014722836203873158,0.04761330410838127
1761308913543713300,3.11471337890625,0.03672536835074425,-0.00616833008825779,0.04759146645665169
1761308913553641200,3.12464111328125,0.028915811330080032,-0.02315571904182434,0.039737798273563385
1761308913563569400,3.1345693359375,0.01813453622162342,-0.02725379168987274,0.02221313677728176
1761308913573498400,3.144498291015625,0.010817489586770535,-0.03289191052317619,0.003435535356402397
1761308913583426300,3.15442626953125,0.009483778849244118,-0.02612774632871151,-0.013947183266282082
1761308913593354200,3.164354248046875,0.013933323323726654,-0.008703763596713543,-0.019549399614334106
1761308913603283200,3.174283203125,0.015189803205430508,0.008427286520600319,-0.011853130534291267
1761308913613211400,3.18421142578125,0.009015530347824097,0.02919994294643402,0.0029958561062812805
1761308913623139300,3.194139404296875,0.004996820352971554,0.02709444798529148,0.0252004936337471
1761308913633067300,3.2040673828125,-0.001054462045431137,0.015356114134192467,0.037988994270563126
1761308913642996200,3.213996337890625,-0.0008456702344119549,-0.007691947277635336,0.040385037660598755
1761308913652924400,3.22392431640625,-0.005646378733217716,-0.029207035899162292,0.02983856573700905
1761308913662852400,3.233852294921875,-0.014177548699080944,-0.04147089272737503,0.012426820583641529
1761308913672781300,3.24378125,-0.01571451686322689,-0.03530137985944748,-0.008573800325393677
1761308913682709200,3.253709228515625,-0.016749154776334763,-0.028241869062185287,-0.022689087316393852
1761308913692637200,3.26363720703125,-0.0168070700019598,-0.019159991294145584,-0.04038509353995323
1761308913702566400,3.27356640625,-0.014194243587553501,-0.000686441664583981,-0.03940638154745102
1761308913712494300,3.283494384765625,-0.012503496371209621,0.015444912947714329,-0.0354684479534626
1761308913722422300,3.29342236328125,-0.01336795836687088,0.025196611881256104,-0.029108287766575813
1761308913732350500,3.3033505859375,-0.009622858837246895,0.027456315234303474,-0.013303574174642563
1761308913742279200,3.313279052734375,-0.008263581432402134,0.017967207357287407,-0.0004602130502462387
1761308913752207400,3.323207275390625,-0.0027917656116187572,0.005827184766530991,0.004538445733487606
1761308913762135300,3.33313525390625,-0.006891968660056591,-0.02184705249965191,0.009688466787338257
1761308913772064300,3.343064208984375,-0.00571238761767745,-0.040285274386405945,0.001333777792751789
1761308913781992200,3.3529921875,0.00010129300062544644,-0.03401113301515579,-0.0020870529115200043
1761308913791920000,3.362920166015625,0.005492577329277992,-0.02253795973956585,-0.005958934314548969
1761308913801848000,3.37284814453125,0.00989957619458437,-0.007819199934601784,-0.011116146109998226
1761308913811777300,3.38277734375,0.00989240501075983,0.0034044142812490463,-0.013900035992264748
1761308913821705200,3.392705322265625,0.010502002201974392,0.0194877777248621,-0.016409000381827354
1761308913831633400,3.40263330078125,0.0050412570126354694,0.017019998282194138,-0.017719894647598267
1761308913841562400,3.412562255859375,0.00009123972267843783,0.005361745599657297,-0.009483803994953632
1761308913851490300,3.422490234375,-0.0007271025096997619,-0.003411851590499282,-0.001442919485270977
1761308913861418200,3.432418212890625,-0.005920266732573509,-0.00314313848502934,0.013516589067876339
1761308913871346200,3.44234619140625,-0.0007451166165992618,0.0031282794661819935,0.02724740095436573
1761308913881275100,3.452275146484375,0.00856982171535492,-0.006814365740865469,0.0374331921339035
1761308913891203000,3.462203125,0.008183092810213566,-0.014442168176174164,0.03775055706501007
1761308913901131300,3.47213134765625,0.009493367746472359,-0.013666655868291855,0.029103538021445274
1761308913911060200,3.482060302734375,0.013873790390789509,-0.01056606788188219,0.010939358733594418
1761308913920988400,3.491988525390625,0.012790949083864689,0.0036967573687434196,-0.00526038371026516
1761308913930916400,3.501916259765625,0.012538778595626354,0.01782165840268135,-0.012379102408885956
1761308913940844300,3.51184423828125,0.012191768735647202,0.032422974705696106,0.0007446892559528351
1761308913950773200,3.521773193359375,0.013996079564094543,0.03450208902359009,0.010499492287635803
1761308913960701200,3.531701171875,0.017085079103708267,0.030952628701925278,0.026097627356648445
1761308913970629000,3.541629150390625,0.019244294613599777,0.018536487594246864,0.03195427358150482
1761308913980558000,3.55155810546875,0.018613392487168312,-0.0007013885769993067,0.027213580906391144
1761308913990486300,3.561486328125,0.013704244047403336,-0.029187917709350586,0.006202832795679569
1761308914000414500,3.57141455078125,0.008977931924164295,-0.058021429926157,-0.017860159277915955
1761308914010342400,3.58134228515625,0.009380325675010681,-0.058544788509607315,-0.03298318013548851
1761308914020271400,3.591271240234375,0.01196412555873394,-0.0579727403819561,-0.04068690538406372
1761308914030199300,3.60119921875,0.011905374005436897,-0.04683631658554077,-0.041317541152238846
1761308914040127200,3.611127197265625,0.012633481994271278,-0.01854662038385868,-0.03684423118829727
1761308914050056200,3.62105615234375,0.002782427007332444,0.009190657176077366,-0.022895393893122673
1761308914059984100,3.630984130859375,-0.011351501569151878,0.033583614975214005,0.0024419203400611877
1761308914069912300,3.640912353515625,-0.018029479309916496,0.04814305528998375,0.021054841578006744
1761308914079840300,3.65084033203125,-0.02484291046857834,0.045820776373147964,0.03852544352412224
1761308914089769500,3.66076953125,-0.028339587152004242,0.03799308463931084,0.04011473432183266
1761308914099697400,3.670697509765625,-0.02181510627269745,0.015962086617946625,0.03135586157441139
1761308914109625300,3.680625244140625,-0.01475467812269926,0.004433134570717812,0.008149519562721252
1761308914119554300,3.69055419921875,-0.008772951550781727,-0.004088981077075005,-0.015042884275317192
1761308914129482200,3.700482177734375,-0.0029013953171670437,-0.016299676150083542,-0.03534886986017227
1761308914139410200,3.71041015625,-0.0037549384869635105,-0.0199588593095541,-0.04329973831772804
1761308914149338400,3.72033837890625,-0.006698244716972113,-0.016639241948723793,-0.03550368547439575
1761308914159267000,3.73026708984375,-0.005996767897158861,-0.007219374179840088,-0.019862141460180283
1761308914169195300,3.7401953125,-0.005668231286108494,0.0039041819982230663,0.003607938066124916
1761308914179123200,3.750123291015625,-0.009729551151394844,0.017880985513329506,0.026547342538833618
1761308914189051400,3.760051513671875,-0.013847585767507553,0.014981902204453945,0.040130000561475754
1761308914198980400,3.76998046875,-0.014179682359099388,0.019052810966968536,0.04334523528814316
1761308914208908300,3.779908203125,-0.012565034441649914,0.015186231583356857,0.03733811900019646
1761308914218836200,3.789836181640625,-0.005276761017739773,0.007853750139474869,0.01985393464565277
1761308914228765200,3.79976513671875,-0.002194333588704467,-0.000039428938180208206,0.006430094130337238
1761308914238693000,3.809693115234375,-0.0029938144143670797,-0.006281878333538771,-0.0008690971881151199
1761308914248621300,3.819621337890625,-0.006445128470659256,-0.014930632896721363,-0.001183261163532734
1761308914258549200,3.82954931640625,-0.00812132190912962,-0.021467097103595734,0.005133491009473801
1761308914268478500,3.839478515625,-0.005141750909388065,-0.013592991046607494,0.008129367604851723
1761308914278406400,3.849406494140625,-0.006651230622082949,-0.004253817722201347,0.009815415367484093
1761308914288334300,3.859334228515625,-0.0083810118958354,0.0005873151239939034,0.005943444557487965
1761308914298262300,3.86926220703125,-0.005530896596610546,0.012120134197175503,0.0050142677500844
1761308914308191200,3.879191162109375,-0.0030231215059757233,0.009779875166714191,-0.001454461831599474
1761308914318119200,3.889119140625,-0.008657571859657764,0.00967894122004509,0.0015948573127388954
1761308914328047400,3.89904736328125,-0.003979327157139778,0.017902426421642303,0.0007225852459669113
1761308914337976300,3.908976318359375,-0.0039092861115932465,0.020091811195015907,0.00381398294121027
1761308914347904300,3.918904296875,-0.005596912000328302,0.026755696162581444,0.0009446805343031883
1761308914357832200,3.928832275390625,-0.0006016206461936235,0.030610354617238045,-0.006368626374751329
1761308914367760100,3.938760009765625,0.0031563802622258663,0.030933694913983345,-0.004015983082354069
1761308914377689300,3.948689453125,0.009497100487351418,0.019862934947013855,-0.007310579530894756
1761308914387617300,3.9586171875,0.016233935952186584,0.021221566945314407,-0.01013113372027874
1761308914397545200,3.968545166015625,0.020562903955578804,0.021079087629914284,-0.014235331676900387
1761308914407473400,3.978473388671875,0.024299411103129387,0.03786630555987358,-0.01660642772912979
1761308914417402400,3.98840234375,0.026316488161683083,0.04243921861052513,-0.015478044748306274
1761308914427330300,3.998330322265625,0.027000490576028824,0.033929117023944855,-0.018912918865680695
1761308914437258200,4.00825830078125,0.022078702226281166,0.014603357762098312,-0.033488400280475616
1761308914447186200,4.018186279296875,0.02114371955394745,-0.012507088482379913,-0.05698404088616371
1761308914457115100,4.028115234375,0.02308543026447296,-0.031536173075437546,-0.07260534167289734
1761308914467043000,4.03804296875,0.023465756326913834,-0.035705141723155975,-0.07049976289272308
1761308914476971300,4.04797119140625,0.023414090275764465,-0.009066608734428883,-0.04990633949637413
1761308914486899500,4.0578994140625,0.02688373439013958,0.022109897807240486,-0.015704510733485222
1761308914496827600,4.06782763671875,0.03514299914240837,0.046057309955358505,0.014715447090566158
1761308914506755600,4.077755615234375,0.041363734751939774,0.05905687063932419,0.033447232097387314
1761308914516683500,4.08768359375,0.04448282718658447,0.06393285095691681,0.03973175957798958
1761308914526611500,4.097611572265625,0.054567087441682816,0.0537271723151207,0.032118938863277435
1761308914536540400,4.10754052734375,0.05521343648433685,0.04068407416343689,0.009752381592988968
1761308914546468600,4.117468505859375,0.05648796632885933,0.02905702032148838,-0.012212840840220451
1761308914556396500,4.127396484375,0.05138641595840454,0.01253982912749052,-0.035704851150512695
1761308914566325500,4.137325439453125,0.045621126890182495,0.007315786089748144,-0.05015544220805168
1761308914576253400,4.14725341796875,0.036954134702682495,0.0012573611456900835,-0.05473288521170616
1761308914586181600,4.157181640625,0.024672536179423332,0.0013560932129621506,-0.04173736274242401
1761308914596109600,4.167109619140625,0.021310562267899513,0.003351599909365177,-0.0087796775624156
1761308914606038500,4.17703857421875,0.02528291381895542,-0.0035241353325545788,0.022772211581468582
1761308914615966500,4.186966552734375,0.029713613912463188,-0.007205422967672348,0.0521271675825119
1761308914625894700,4.196894775390625,0.03243425488471985,-0.00391235388815403,0.06671436876058578
1761308914635822600,4.206822509765625,0.03438235819339752,-0.00023745809448882937,0.06521288305521011
1761308914645751600,4.21675146484375,0.03367551788687706,0.005568752530962229,0.04853038862347603
1761308914655679500,4.226679443359375,0.031234733760356903,0.014861054718494415,0.02375952899456024
1761308914665607400,4.236607421875,0.03370616212487221,0.016964444890618324,-0.0024092155508697033
1761308914675535400,4.246535400390625,0.03094526194036007,0.005015374626964331,-0.023775490000844002
1761308914685464600,4.256464599609375,0.026383887976408005,-0.012154429219663143,-0.032065391540527344
1761308914695392500,4.266392578125,0.023723656311631203,-0.013735015876591206,-0.03023926168680191
1761308914705320700,4.27632080078125,0.017427166923880577,-0.01305249985307455,-0.014965686947107315
1761308914715248600,4.28624853515625,0.01960749737918377,-0.008892642334103584,0.0033142510801553726
1761308914725177600,4.296177490234375,0.018140505999326706,0.0020597330294549465,0.012955517508089542
1761308914735105500,4.30610546875,0.015114089474081993,0.01834576204419136,0.024059303104877472
1761308914745033500,4.316033447265625,0.011444536969065666,0.03483075648546219,0.01339015830308199
1761308914754961400,4.32596142578125,0.01249408908188343,0.031068505719304085,0.00497084017843008
1761308914764890400,4.335890380859375,0.013845049776136875,0.02638271637260914,-0.0048146843910217285
1761308914774818300,4.345818359375,0.019894951954483986,0.015997719019651413,-0.005534803494811058
1761308914784746500,4.35574658203125,0.02215292677283287,0.0020087561570107937,0.0030096732079982758
1761308914794674700,4.3656748046875,0.03081432543694973,-0.006305099930614233,0.003376656211912632
1761308914804603600,4.375603759765625,0.029018139466643333,-0.02573210932314396,0.005858032964169979
1761308914814531600,4.385531494140625,0.03622465580701828,-0.022382386028766632,0.0009815189987421036
1761308914824459500,4.39545947265625,0.026024969294667244,-0.017514055594801903,-0.01049590203911066
1761308914834387500,4.405387451171875,0.019756687805056572,-0.020012900233268738,-0.020832162350416183
1761308914844316400,4.41531640625,0.022767620161175728,-0.014298036694526672,-0.02759358286857605
1761308914854244400,4.425244384765625,0.02549310028553009,-0.015085533261299133,-0.028953395783901215
1761308914864172500,4.435172607421875,0.032202016562223434,-0.02743399143218994,-0.022463548928499222
1761308914874100500,4.4451005859375,0.03844393417239189,-0.01972786895930767,0.0013461774215102196
1761308914884029700,4.45502978515625,0.048077017068862915,-0.018614059314131737,0.030159618705511093
1761308914893957600,4.46495751953125,0.03968007117509842,-0.00044517609057947993,0.0529584065079689
1761308914903885600,4.474885498046875,0.024859312921762466,0.011277792043983936,0.06488271057605743
1761308914913813500,4.4848134765625,0.012527812272310257,0.008521154522895813,0.05683010816574097
1761308914923742500,4.494742431640625,-0.0022015408612787724,-0.003944310825318098,0.03406285494565964
1761308914933670400,4.50467041015625,-0.011364412494003773,-0.012172945775091648,0.008524736389517784
1761308914943598600,4.5145986328125,-0.016993416473269463,-0.01566709764301777,-0.02006828412413597
1761308914953526500,4.524526611328125,-0.021986577659845352,-0.008186811581254005,-0.034543897956609726
1761308914963455500,4.53445556640625,-0.024568608030676842,-0.0011099610710516572,-0.039639249444007874
1761308914973383400,4.544383544921875,-0.026440011337399483,0.005033419001847506,-0.03899822756648064
1761308914983311400,4.554311279296875,-0.03587065637111664,0.010559869930148125,-0.03471071645617485
1761308914993239600,4.564239501953125,-0.042585548013448715,0.011584654450416565,-0.026687145233154297
1761308915003168500,4.57416845703125,-0.04200489819049835,0.015179294161498547,-0.01806320995092392
1761308915013096400,4.584096435546875,-0.040046144276857376,0.018882686272263527,-0.007532806135714054
1761308915023024600,4.594024658203125,-0.03728145360946655,0.016648780554533005,-0.00020484719425439835
1761308915032952600,4.60395263671875,-0.03336767107248306,0.015426390804350376,0.004979262128472328
1761308915042880500,4.613880615234375,-0.027789805084466934,0.011091688647866249,0.010648955591022968
1761308915052809500,4.6238095703125,-0.021773990243673325,0.005138458218425512,0.0138474116101861
1761308915062737400,4.6337373046875,-0.01867075264453888,-0.003778996178880334,0.008998238481581211
1761308915072665300,4.643665283203125,-0.01716473326086998,-0.003995777107775211,0.003143545240163803
1761308915082593500,4.653593505859375,-0.014896111562848091,0.0005687402444891632,-0.0031470186077058315
1761308915092522500,4.6635224609375,-0.009729046374559402,0.004831129685044289,-0.0049875290133059025
1761308915102450700,4.67345068359375,-0.013677079230546951,-0.0028008020017296076,-0.0039267935790121555
1761308915112378600,4.683378662109375,-0.019107796251773834,0.005499206017702818,-0.009264834225177765
1761308915122306600,4.693306640625,-0.017171289771795273,0.013251240365207195,-0.013874424621462822
1761308915132235500,4.703235595703125,-0.01419786922633648,0.008540640585124493,-0.014714651741087437
1761308915142163500,4.71316357421875,-0.010321272537112236,0.009599209763109684,-0.009882680140435696
1761308915152091400,4.72309130859375,-0.007524686865508556,0.00014312326675280929,-0.008348965086042881
1761308915162019600,4.73301953125,-0.005169343203306198,-0.005128706339746714,0.004882841370999813
1761308915171948500,4.742948486328125,0.0004027883696835488,-0.011519228108227253,0.01460976991802454
1761308915181876500,4.75287646484375,-0.00048511085333302617,-0.01692354679107666,0.013747540302574635
1761308915191804400,4.762804443359375,-0.007390421349555254,-0.02070363610982895,0.0073061538860201836
1761308915201732600,4.772732666015625,-0.004073391202837229,-0.014872226864099503,-0.003955753520131111
1761308915211661600,4.78266162109375,0.000007637194357812405,-0.011561118997633457,-0.018372509628534317
1761308915221589500,4.792589599609375,-0.003717695362865925,-0.0019901401828974485,-0.027085836976766586
1761308915231517400,4.802517333984375,-0.01349389273673296,0.014074048027396202,-0.027442166581749916
1761308915241445600,4.812445556640625,-0.014675640501081944,0.03087097965180874,-0.011886907741427422
1761308915251374600,4.82237451171875,-0.013324884697794914,0.014565509743988514,0.007738192565739155
1761308915261302500,4.832302490234375,-0.015829158946871758,-0.0032655743416398764,0.02242765948176384
1761308915271230500,4.84223046875,-0.019258243963122368,-0.014215960167348385,0.029930584132671356
1761308915281158400,4.852158447265625,-0.013959171250462532,-0.019859865307807922,0.026067152619361877
1761308915291086300,4.86208642578125,-0.012888846918940544,-0.021209022030234337,0.016351142898201942
1761308915301015600,4.872015625,-0.014712003991007805,-0.01723378896713257,0.011875424534082413
1761308915310943500,4.881943603515625,-0.018123246729373932,-0.011440880596637726,0.004430558532476425
1761308915320871700,4.89187158203125,-0.016374101862311363,0.003571338951587677,0.000011827796697616577
1761308915330799600,4.901799560546875,-0.016095003113150597,0.013672176748514175,-0.009076742455363274
1761308915340728600,4.911728515625,-0.01784193329513073,0.012717056088149548,-0.022503072395920753
1761308915350656500,4.921656494140625,-0.024535255506634712,0.020379237830638885,-0.027377989143133163
1761308915360584400,4.93158447265625,-0.02637074887752533,0.029251590371131897,-0.026303496211767197
1761308915370512400,4.941512451171875,-0.02715078927576542,0.02716979756951332,-0.011721093207597733
1761308915380441300,4.95144140625,-0.02928578108549118,0.01411253772675991,0.0043814517557621
1761308915390369500,4.96136962890625,-0.02759360894560814,0.0028540242929011583,0.016747042536735535
1761308915400297700,4.971297607421875,-0.025365673005580902,0.015203979797661304,0.025105200707912445
1761308915410225700,4.9812255859375,-0.022014349699020386,0.01454511471092701,0.02772921323776245
1761308915420153600,4.991153564453125,-0.0157756507396698,0.007556134834885597,0.02236974984407425
1761308915430082600,5.00108251953125,-0.017130667343735695,0.009567353874444962,0.019639741629362106
1761308915440010500,5.011010498046875,-0.013886322267353535,0.00065339490538463,0.01691887341439724
1761308915449938400,5.0209384765625,-0.014626148156821728,-0.007178695406764746,0.015870919451117516
1761308915459866600,5.03086669921875,-0.016234736889600754,-0.0003222968662157655,0.022233325988054276
1761308915469795600,5.040795654296875,-0.014213663525879383,-0.006220399867743254,0.02232387289404869
1761308915479723500,5.0507236328125,-0.013170134276151657,-0.013028615154325962,0.02466585487127304
1761308915489651500,5.0606513671875,-0.012713402509689331,-0.01851445995271206,0.015981551259756088
1761308915499580200,5.070580078125,-0.016242070123553276,-0.015210054814815521,0.0028551723808050156
1761308915509508000,5.080508056640625,-0.019469022750854492,-0.01562897115945816,-0.012560801580548286
1761308915519437000,5.09043701171875,-0.02146010287106037,-0.01190679706633091,-0.01622973009943962
1761308915529365000,5.100364990234375,-0.02181057631969452,-0.014249047264456749,-0.02025722898542881
1761308915539293000,5.11029296875,-0.012195195071399212,0.0005164924659766257,-0.007470710203051567
1761308915549221000,5.12022119140625,-0.00676314439624548,0.017744747921824455,0.01417599618434906
1761308915559150300,5.130150390625,-0.003848129417747259,0.02395000495016575,0.026380114257335663
1761308915569078300,5.140078369140625,-0.0019239959074184299,0.024731110781431198,0.03893638774752617
1761308915579006200,5.150006103515625,0.0011959993280470371,0.024864692240953445,0.036552589386701584
1761308915588934100,5.15993408203125,0.008489332161843777,0.015296487137675285,0.03458477929234505
1761308915598862000,5.169862060546875,0.008879278786480427,0.0016144213732331991,0.020722661167383194
1761308915608791000,5.179791015625,0.015595238655805588,-0.007888802327215672,0.011726503260433674
1761308915618719000,5.189718994140625,0.0175041314214468,-0.017664125189185143,0.011536717414855957
1761308915628647200,5.199647216796875,0.013211117126047611,-0.024735350161790848,0.008467424660921097
1761308915638575000,5.2095751953125,0.011698378250002861,-0.02469322457909584,0.019380781799554825
1761308915648504300,5.21950439453125,0.008593931794166565,-0.01963801123201847,0.028171878308057785
1761308915658432300,5.229432373046875,0.0074556791223585606,-0.017250679433345795,0.03164493665099144
1761308915668360200,5.239360107421875,0.007165394723415375,-0.018701836466789246,0.023809917271137238
1761308915678288100,5.2492880859375,0.006008946802467108,-0.007785194553434849,0.00678475946187973
1761308915688216300,5.25921630859375,0.009182102978229523,-0.0014319572364911437,-0.007438650354743004
1761308915698145000,5.26914501953125,0.014134068042039871,0.0029720491729676723,-0.01743330806493759
1761308915708073200,5.2790732421875,0.020172784104943275,-0.0004961856175214052,-0.01506815291941166
1761308915718001200,5.289001220703125,0.020892184227705002,-0.011318329721689224,-0.014377618208527565
1761308915727929000,5.29892919921875,0.02739056386053562,-0.019092362374067307,-0.0017462456598877907
1761308915737858000,5.308858154296875,0.026209985837340355,-0.027182217687368393,-0.0011626407504081726
1761308915747786000,5.318785888671875,0.023862676694989204,-0.030368423089385033,-0.014904551208019257
1761308915757714000,5.3287138671875,0.027120109647512436,-0.017588069662451744,-0.022008996456861496
1761308915767642400,5.338642333984375,0.01745469868183136,-0.021076543256640434,-0.03246217221021652
1761308915777570300,5.3485703125,0.01215082872658968,-0.02206440083682537,-0.042726173996925354
1761308915787499300,5.358499267578125,0.007644494064152241,-0.01935143955051899,-0.04614780843257904
1761308915797427200,5.36842724609375,0.007582648657262325,-0.013972311280667782,-0.03772759065032005
1761308915807355100,5.378355224609375,0.016271743923425674,-0.0029817111790180206,-0.03156210854649544
1761308915817283000,5.388282958984375,0.028730113059282303,0.006760822143405676,-0.022400304675102234
1761308915827212000,5.3982119140625,0.03817208856344223,0.010002688504755497,-0.007176343351602554
1761308915837140000,5.408139892578125,0.03180733323097229,0.011811290867626667,0.007114969193935394
1761308915847068200,5.418068115234375,0.027873843908309937,-0.0019143754616379738,0.018869629129767418
1761308915856996000,5.42799609375,0.02928902767598629,-0.021527208387851715,0.02529459074139595
1761308915866924000,5.437924072265625,0.02826184593141079,-0.02581942453980446,0.024006418883800507
1761308915876853200,5.447853271484375,0.01798964850604534,-0.01950039155781269,0.022994615137577057
1761308915886781200,5.45778125,0.01078712847083807,-0.006400568410754204,0.02312750369310379
1761308915896709000,5.467709228515625,0.009758041240274906,0.004999658092856407,0.018364349380135536
1761308915906637300,5.47763720703125,0.009375344961881638,0.011310816742479801,0.009972196072340012
1761308915916565200,5.487565185546875,0.0074098906479775906,0.008244751952588558,0.0013431934639811516
1761308915926494200,5.497494140625,0.00778220035135746,0.0006291766767390072,-0.007830863818526268
1761308915936422100,5.507422119140625,0.011595619842410088,-0.005385897122323513,-0.012953200377523899
1761308915946350000,5.51735009765625,0.010142332874238491,-0.016379160806536674,-0.012432286515831947
1761308915956278000,5.527278076171875,0.0066688889637589455,-0.014237326569855213,-0.008065699599683285
1761308915966206000,5.5372060546875,0.007103250827640295,-0.0013982270611450076,-0.00001949165016412735
1761308915976135200,5.54713525390625,0.01052201446145773,0.003731236094608903,0.015169058926403522
1761308915986063400,5.5570634765625,0.002765824319794774,0.008738512173295021,0.024160686880350113
1761308915995991300,5.5669912109375,0.002261372748762369,0.012145508080720901,0.032029327005147934
1761308916005919200,5.576919189453125,-0.0011040638200938702,0.019733652472496033,0.026202328503131866
1761308916015848200,5.58684814453125,-0.00404100539162755,0.0077436538413167,0.020903317257761955
1761308916025776000,5.596776123046875,-0.0014106008457019925,0.003060485003516078,0.008212555199861526
1761308916035704000,5.6067041015625,0.0003414927632547915,-0.004449362866580486,-0.0008025104179978371
1761308916045632000,5.616632080078125,0.00376685056835413,-0.008156749419867992,-0.004058225080370903
1761308916055560200,5.626560302734375,0.007965071126818657,-0.015446685254573822,-0.007952600717544556
1761308916065489200,5.6364892578125,0.008783726952970028,-0.0048885829746723175,-0.0013860450126230717
1761308916075417000,5.6464169921875,0.011958027258515358,0.006182088050991297,0.00479763001203537
1761308916085345300,5.65634521484375,0.01203073188662529,0.004367942456156015,0.012289101257920265
1761308916095273200,5.666273193359375,0.005975539796054363,0.007126656826585531,0.017681188881397247
1761308916105201200,5.676201171875,0.0001602611446287483,-0.008939395658671856,0.017676662653684616
1761308916115130000,5.686130126953125,0.0016340757720172405,-0.02144162356853485,0.015567086637020111
1761308916125058000,5.69605810546875,-0.002208865713328123,-0.03323569893836975,0.016507182270288467
1761308916134986200,5.705986328125,-0.00017354910960420966,-0.03894854709506035,0.0218159481883049
1761308916144914200,5.7159140625,-0.003495842684060335,-0.03265096992254257,0.02331637218594551
1761308916154842000,5.725842041015625,-0.0021802689880132675,-0.014646407216787338,0.017684027552604675
1761308916164771000,5.73577099609375,-0.004104136489331722,0.022325193509459496,0.01091107726097107
1761308916174699000,5.745698974609375,-0.0050191450864076614,0.0476611852645874,0.002322961576282978
1761308916184627000,5.755626953125,-0.007118514738976955,0.05469219386577606,0.0038886340335011482
1761308916194555100,5.76555517578125,-0.009759326465427876,0.04101448133587837,0.005875173024833202
1761308916204483000,5.775483154296875,-0.01336631178855896,0.016201011836528778,0.011681397445499897
1761308916214412300,5.785412353515625,-0.011975850909948349,-0.001571156084537506,0.014052973128855228
1761308916224340200,5.79534033203125,-0.007200536783784628,-0.014766586944460869,0.02106667309999466
1761308916234268200,5.80526806640625,-0.004857884719967842,-0.023179402574896812,0.023197714239358902
1761308916244196000,5.815196044921875,-0.006252315826714039,-0.033305540680885315,0.02203764021396637
1761308916254124300,5.825124267578125,-0.009979702532291412,-0.031750719994306564,0.01802491769194603
1761308916264053000,5.835052978515625,-0.011284385807812214,-0.01595018431544304,0.012515103444457054
1761308916273981200,5.844981201171875,-0.016261443495750427,0.0020084513816982508,0.01097810361534357
1761308916283909000,5.8549091796875,-0.013321581296622753,0.021252719685435295,0.0035191215574741364
1761308916293837000,5.864837158203125,-0.004664107691496611,0.03199028968811035,-0.0006502037867903709
1761308916303765000,5.874764892578125,-0.0012302279938012362,0.03229628503322601,0.00047684647142887115
1761308916313694200,5.884694091796875,0.0005583086749538779,0.02982863411307335,0.009865191765129566
1761308916323622100,5.8946220703125,0.007818086072802544,0.019754162058234215,0.025396481156349182
1761308916333550300,5.90455029296875,0.015578754246234894,-0.00003976788138970733,0.02987837605178356
1761308916343478300,5.914478271484375,0.016621915623545647,-0.024252962321043015,0.02241353504359722
1761308916353406200,5.92440625,0.014103369787335396,-0.047437090426683426,0.009574812836945057
1761308916363335200,5.934335205078125,0.013516675680875778,-0.049128998070955276,-0.014367004856467247
1761308916373263000,5.94426318359375,0.013536089099943638,-0.03560227155685425,-0.025116613134741783
1761308916383191000,5.95419091796875,0.010529379360377789,-0.015594208613038063,-0.03251807019114494
1761308916393119000,5.964118896484375,0.010571356862783432,-0.007939111441373825,-0.029446639120578766
1761308916403047200,5.974047119140625,0.013162346556782722,0.010959478095173836,-0.008613530546426773
1761308916412976400,5.983976318359375,0.010196815244853497,0.02562747709453106,0.007200057618319988
1761308916422904300,5.993904296875,0.012179538607597351,0.029577210545539856,0.021243970841169357
1761308916432832300,6.003832275390625,0.01043221727013588,0.027923671528697014,0.02116735652089119
1761308916442760200,6.01376025390625,0.011922522448003292,0.020539790391921997,0.01757102459669113
1761308916452688100,6.023688232421875,0.011390103958547115,0.02277739904820919,0.01488262228667736
1761308916462617000,6.0336171875,0.008746118284761906,0.01477406732738018,0.009736331179738045
1761308916472545000,6.043544921875,0.007087099831551313,0.007989022880792618,0.003367668017745018
1761308916482473200,6.05347314453125,0.007241829298436642,0.00044801674084737897,0.0008523128926753998
1761308916492401200,6.063401123046875,0.004626730922609568,-0.010880975052714348,-0.005759385414421558
1761308916502329600,6.07332958984375,0.004118333570659161,-0.01588718593120575,-0.00620386702939868
1761308916512258600,6.083258544921875,0.00018232216825708747,-0.02605975605547428,-0.006387490779161453
1761308916522186500,6.0931865234375,0.0009969831444323063,-0.035402391105890274,-0.00669801514595747
1761308916532114400,6.103114501953125,-0.0029387734830379486,-0.03207088261842728,-0.010406180284917355
1761308916542042400,6.11304248046875,0.0006253349129110575,-0.009315503761172295,-0.009582198224961758
1761308916551970600,6.122970458984375,0.004044258501380682,0.0033696999307721853,-0.013283821754157543
1761308916561898500,6.1328984375,0.011277137324213982,0.007608653511852026,-0.008892269805073738
1761308916571827500,6.142827392578125,0.0016168446745723486,0.014806040562689304,0.000969315879046917
1761308916581755600,6.152755615234375,0.00021016295067965984,0.024647219106554985,0.005317725241184235
1761308916591683600,6.16268359375,-0.004985664505511522,0.027463246136903763,0.006253293715417385
1761308916601611500,6.172611572265625,-0.012286719866096973,0.020204002037644386,0.01071036048233509
1761308916611539700,6.182539794921875,-0.014844032004475594,0.01594521850347519,0.018516525626182556
1761308916621468700,6.19246875,-0.016764970496296883,-0.000331756891682744,0.02040550857782364
1761308916631396600,6.202396728515625,-0.016152815893292427,-0.014466394670307636,0.01852201297879219
1761308916641324500,6.212324462890625,-0.010329017415642738,-0.01975596509873867,0.010841990821063519
1761308916651252500,6.22225244140625,-0.007488432805985212,-0.01680285483598709,0.007499887607991695
1761308916661180400,6.232180419921875,0.00362600339576602,-0.01270211860537529,0.005011162720620632
1761308916671109400,6.242109375,0.010822528973221779,-0.007133292034268379,-0.0025505945086479187
1761308916681037300,6.252037353515625,0.014698226936161518,-0.00202961009927094,-0.011023707687854767
1761308916690965500,6.261965576171875,0.012083003297448158,0.001997355604544282,-0.011414660140872002
1761308916700893700,6.271893798828125,0.004168886691331863,-0.004566270858049393,-0.013293519616127014
1761308916710821600,6.281821533203125,-0.005993966944515705,0.003445797599852085,-0.00987749919295311
1761308916720750600,6.29175048828125,-0.015596261247992516,0.004671118222177029,-0.007219664752483368
1761308916730678500,6.301678466796875,-0.01926104724407196,0.009343888610601425,-0.0022963923402130604
1761308916740606500,6.3116064453125,-0.023723706603050232,0.014451831579208374,-0.004764343611896038
1761308916750534700,6.32153466796875,-0.02412840723991394,0.009553107433021069,-0.010394005104899406
1761308916760462600,6.331462646484375,-0.020137660205364227,0.004466203972697258,-0.013749854639172554
1761308916770390500,6.341390625,-0.007305850740522146,-0.008690239861607552,-0.022424031049013138
1761308916780319500,6.351319580078125,-0.002154498128220439,-0.020069394260644913,-0.01917843520641327
1761308916790247400,6.361247314453125,-0.00017970899352803826,-0.020080115646123886,-0.020913055166602135
1761308916800175400,6.37117529296875,0.005392955616116524,-0.018881158903241158,-0.009320315904915333
1761308916810103300,6.381103271484375,0.007918364368379116,-0.011580538004636765,0.004410444758832455
1761308916820031700,6.39103173828125,0.009963938035070896,-0.00040804455056786537,0.01548014022409916
1761308916829960700,6.400960693359375,0.013001251965761185,0.005946808960288763,0.0262785442173481
1761308916839888600,6.410888671875,0.010480836033821106,0.014420987106859684,0.03922257199883461
1761308916849816600,6.420816650390625,0.0073801507242023945,0.02393614500761032,0.04531959816813469
1761308916859744500,6.43074462890625,-0.0038991349283605814,0.0215760525316,0.03841748088598251
1761308916869672400,6.44067236328125,-0.01018347404897213,0.011894483119249344,0.022758014500141144
1761308916879600600,6.4506005859375,-0.010487074963748455,0.0005392975290305912,-0.0026727761141955853
1761308916889529300,6.460529296875,-0.00858812965452671,0.005960294045507908,-0.021482888609170914
1761308916899457500,6.47045751953125,-0.0026596668176352978,0.022716904059052467,-0.030072113499045372
1761308916909385500,6.480385498046875,-0.0011013845214620233,0.036957036703825,-0.029891539365053177
1761308916919313400,6.4903134765625,0.001800395781174302,0.035914141684770584,-0.022246936336159706
1761308916929241300,6.500241455078125,0.00784964207559824,0.035123083740472794,-0.0065876804292202
1761308916939170600,6.510170654296875,0.015004756860435009,0.03809144347906113,0.005288420245051384
1761308916949098500,6.520098388671875,0.02095816470682621,0.03641186282038689,0.013974129222333431
1761308916959026700,6.530026611328125,0.024538518860936165,0.010408489964902401,0.014702769927680492
1761308916968954600,6.53995458984375,0.024604199454188347,-0.0019367537461221218,0.010255030356347561
1761308916978882600,6.549882568359375,0.025394892320036888,-0.01932453364133835,0.006380396895110607
1761308916988810500,6.559810546875,0.01734231598675251,-0.03852172568440437,-0.000760999508202076
1761308916998739500,6.569739501953125,0.011595213785767555,-0.048277683556079865,0.00006298255175352097
1761308917008667400,6.57966748046875,0.006551263853907585,-0.05154919624328613,-0.0030083628371357918
1761308917018595600,6.589595703125,0.004179985262453556,-0.035562772303819656,0.0007557487115263939
1761308917028523500,6.5995234375,-0.0023640887811779976,-0.009782401844859123,0.005912269465625286
1761308917038451500,6.609451416015625,-0.0030836749356240034,0.022276729345321655,0.001367052085697651
1761308917048380700,6.619380615234375,0.0005092830979265273,0.04884537681937218,0.00045266933739185333
1761308917058308600,6.62930859375,0.006520836614072323,0.058096665889024734,-0.0041221086867153645
1761308917068236500,6.639236572265625,0.015819985419511795,0.0534849539399147,-0.00734701007604599
1761308917078164500,6.64916455078125,0.01843840628862381,0.04865957424044609,-0.007492684759199619
1761308917088092700,6.6590927734375,0.019763503223657608,0.02092442661523819,-0.003566047176718712
1761308917098020600,6.6690205078125,0.024922046810388565,-0.009596996940672398,0.0008217766880989075
1761308917107949600,6.678949462890625,0.033240072429180145,-0.030582627281546593,0.0037609143182635307
1761308917117877500,6.68887744140625,0.028470085933804512,-0.03964776173233986,0.007482948713004589
1761308917127805400,6.698805419921875,0.024751048535108566,-0.03402988240122795,0.008069653995335102
1761308917137733400,6.7087333984375,0.024324411526322365,-0.023394282907247543,0.009403363801538944
1761308917147661600,6.71866162109375,0.021486513316631317,-0.004584822338074446,0.0066031161695718765
1761308917157589500,6.728589599609375,0.019294999539852142,0.010335004888474941,-0.00048435479402542114
1761308917167518700,6.738518798828125,0.02383550815284252,0.03249421715736389,0.005385350435972214
1761308917177446700,6.74844677734375,0.021215224638581276,0.04434794932603836,0.012971097603440285
1761308917187374600,6.75837451171875,0.017062945291399956,0.04730420187115669,0.028020795434713364
1761308917197302500,6.768302490234375,0.011231155134737492,0.03897836059331894,0.03442277014255524
1761308917207230500,6.77823046875,0.007978896610438824,0.020327772945165634,0.03645820543169975
1761308917217158700,6.78815869140625,0.0024160854518413544,-0.008520386181771755,0.03451383113861084
1761308917227087600,6.798087646484375,0.00036747095873579383,-0.0364062525331974,0.02317291870713234
1761308917237015600,6.808015625,0.0004577520885504782,-0.0495753176510334,0.012929069809615612
1761308917246943500,6.817943603515625,0.002172404434531927,-0.03852919116616249,0.0010879170149564743
1761308917256871400,6.827871337890625,0.01081010140478611,-0.009978771209716797,-0.010529324412345886
1761308917266799400,6.83779931640625,0.009687511250376701,0.02462320774793625,-0.01797926425933838
1761308917276728600,6.847728515625,0.004913528449833393,0.0574922040104866,-0.016096940264105797
1761308917286656500,6.857656494140625,0.004005191847681999,0.07096374779939651,0.00026446767151355743
1761308917296584700,6.867584716796875,-0.0003416194813326001,0.07315473258495331,0.017931079491972923
1761308917306512600,6.8775126953125,-0.006100827362388372,0.0627962276339531,0.03584225848317146
1761308917316440600,6.887440673828125,-0.010145369917154312,0.04974939674139023,0.04299364611506462
1761308917326368500,6.897368408203125,-0.012322158552706242,0.027215011417865753,0.037556931376457214
1761308917336297500,6.90729736328125,-0.00870398711413145,0.008261826820671558,0.01273520290851593
1761308917346225400,6.917225341796875,-0.003129127435386181,-0.023254914209246635,-0.011616776697337627
1761308917356153600,6.927153564453125,-0.0004364054184406996,-0.04446965828537941,-0.028165126219391823
1761308917366081500,6.93708154296875,0.0064582908526062965,-0.04537786543369293,-0.035165730863809586
1761308917376009500,6.947009521484375,0.015298920683562756,-0.03631379455327988,-0.03252760320901871
1761308917385937400,6.9569375,0.01576906628906727,-0.03284406661987305,-0.025137871503829956
1761308917395866600,6.96686669921875,0.010323435068130493,-0.012021873146295547,-0.01751750335097313
1761308917405794600,6.976794677734375,0.004572309087961912,-0.0014152589719742537,-0.00724274106323719
1761308917415722500,6.986722412109375,-0.0005090021877549589,-0.004248063545674086,0.0016444940119981766
1761308917425650700,6.996650634765625,-0.0014878585934638977,0.001680809073150158,0.013061108067631721
1761308917435578600,7.00657861328125,0.0022288488689810038,0.003427842864766717,0.026724988594651222
1761308917445506600,7.016506591796875,0.006941487081348896,0.004833539482206106,0.026627056300640106
1761308917455435500,7.026435546875,0.012971682474017143,-0.002287220675498247,0.013932565227150917
1761308917465363500,7.036363525390625,0.01798432134091854,0.0038769154343754053,0.001458616927266121
1761308917475291400,7.04629150390625,0.021124456077814102,0.003427373943850398,-0.015240734443068504
1761308917485219600,7.056219482421875,0.021205667406320572,-0.0013972122687846422,-0.03137774020433426
1761308917495147500,7.0661474609375,0.01927034743130207,-0.007644189056009054,-0.03848651796579361
1761308917505075700,7.07607568359375,0.014341826550662518,-0.0016687719617038965,-0.029313072562217712
1761308917515005000,7.0860048828125,0.007042634766548872,-0.01038316823542118,-0.00953563954681158
1761308917524932900,7.095932861328125,0.004744257777929306,-0.019900977611541748,0.013014132156968117
1761308917534860800,7.10586083984375,-0.00038259360007941723,-0.017768317833542824,0.027872972190380096
1761308917544788700,7.115788818359375,-0.0076447450555861,-0.010165014304220676,0.025026503950357437
1761308917554717000,7.125717041015625,-0.013375334441661835,-0.004220306407660246,0.018231980502605438
1761308917564644900,7.135644775390625,-0.011296882294118404,0.012513010762631893,-0.0031093526631593704
1761308917574572800,7.14557275390625,-0.008441707119345665,0.016279786825180054,-0.020823102444410324
1761308917584501800,7.155501708984375,-0.005857428535819054,0.010162567719817162,-0.02373356744647026
1761308917594429700,7.1654296875,-0.0015327213332057,-0.0016104686073958874,-0.01573076844215393
1761308917604357600,7.175357666015625,0.005730160046368837,-0.009034749120473862,-0.0005416236817836761
1761308917614285800,7.185285888671875,0.0035556890070438385,-0.008315162733197212,0.018295979127287865
1761308917624213800,7.1952138671875,-0.004037256818264723,-0.009034193120896816,0.027943480759859085
1761308917634141700,7.2051416015625,-0.01691790111362934,-0.0023331469856202602,0.02328374981880188
1761308917644071000,7.21507080078125,-0.029919864609837532,0.0005711733247153461,0.008696725592017174
1761308917653998800,7.224998779296875,-0.034396637231111526,0.0086349593475461,-0.013165431097149849
1761308917663926800,7.2349267578125,-0.03608015924692154,0.018572133034467697,-0.039072420448064804
1761308917673854700,7.244854736328125,-0.035156577825546265,0.025581039488315582,-0.04870161414146423
1761308917683783000,7.254782958984375,-0.029704492539167404,0.030205314978957176,-0.04151672124862671
1761308917693710800,7.2647109375,-0.02932712249457836,0.019414452835917473,-0.019591717049479485
1761308917703639800,7.274639892578125,-0.030826324597001076,0.023064658045768738,-0.0059808772057294846
1761308917713567700,7.284567626953125,-0.026608141139149666,0.004257149063050747,-0.007806740235537291
1761308917723495700,7.29449560546875,-0.012375839054584503,-0.01867492124438286,-0.007289762608706951
1761308917733423600,7.304423583984375,-0.0028065689839422703,-0.02416129782795906,-0.01276309136301279
1761308917743351800,7.314351806640625,0.004473494831472635,-0.022977830842137337,-0.026173874735832214
1761308917753279700,7.32427978515625,0.011597717180848122,-0.011378699913620949,-0.025923803448677063
1761308917763209000,7.334208984375,0.009978510439395905,-0.00034520303597673774,-0.02138610929250717
1761308917773137000,7.344136962890625,0.008062365464866161,0.01481377612799406,-0.0115627720952034
1761308917783064800,7.35406494140625,0.0026436548214405775,0.028287485241889954,-0.0017051654867827892
1761308917792992800,7.36399267578125,-0.007780490443110466,0.02182053215801716,0.011142722330987453
1761308917802920700,7.373920654296875,-0.014223719947040081,0.016692064702510834,0.016735542565584183
1761308917812849000,7.383848876953125,-0.013082289136946201,-0.01228419505059719,0.010134099051356316
1761308917822776800,7.39377685546875,-0.01185320969671011,-0.03493362292647362,-0.005514122545719147
1761308917832705800,7.403705810546875,-0.014419964514672756,-0.03902077674865723,-0.022892579436302185
1761308917842633700,7.4136337890625,-0.017832782119512558,-0.033347729593515396,-0.04023516923189163
1761308917852561700,7.423561767578125,-0.016488151624798775,-0.025632286444306374,-0.04581582546234131
1761308917862489600,7.433489501953125,-0.015441292896866798,-0.0147092891857028,-0.04715803638100624
1761308917872417800,7.443417724609375,-0.014269236475229263,0.000501355214510113,-0.030917281284928322
1761308917882345700,7.453345703125,-0.013673210516571999,0.0169343501329422,-0.005226437002420425
1761308917892273700,7.463273681640625,-0.013066542334854603,0.02709857001900673,0.018830962479114532
1761308917902203000,7.473202880859375,-0.007213902194052935,0.023762065917253494,0.03487345576286316
1761308917912130800,7.483130859375,-0.0019432402914389968,0.014656185172498226,0.043273597955703735
1761308917922058800,7.493058837890625,-0.007119343150407076,0.01327055599540472,0.028337843716144562
1761308917931986700,7.502986572265625,-0.010850698687136173,0.016538521274924278,0.004454615525901318
1761308917941915000,7.512914794921875,-0.011514279060065746,0.021011201664805412,-0.020256180316209793
1761308917951842800,7.5228427734375,-0.01108817383646965,0.008568646386265755,-0.038393374532461166
1761308917961771800,7.532771728515625,-0.013617816381156445,-0.009914841502904892,-0.0435091108083725
1761308917971699700,7.54269970703125,-0.007093337830156088,-0.023642903193831444,-0.0364765003323555
1761308917981627600,7.552627685546875,-0.006296015344560146,-0.023363232612609863,-0.018213588744401932
1761308917991555600,7.5625556640625,-0.006259796675294638,-0.016325563192367554,-0.004345177207142115
1761308918001483800,7.57248388671875,-0.0076261255890131,-0.010057136416435242,0.014511095359921455
1761308918011411700,7.58241162109375,-0.0025402866303920746,0.004496240057051182,0.01717665232717991
1761308918021340000,7.59233984375,-0.0014703397173434496,0.026757685467600822,0.01357920840382576
1761308918031268900,7.602268798828125,-0.001656228443607688,0.02878941036760807,0.008078183978796005
1761308918041196800,7.61219677734375,0.00403712410479784,0.01876682974398136,0.005486226640641689
1761308918051124700,7.622124755859375,0.0068680644035339355,0.005924800410866737,0.0015902882441878319
1761308918061052700,7.632052734375,0.007006359752267599,-0.0031657314393669367,-0.0020200172439217567
1761308918070980900,7.64198095703125,0.006611946038901806,-0.013234877027571201,-0.006622758693993092
1761308918080908800,7.65190869140625,0.006625432521104813,-0.015793556347489357,-0.011393209919333458
1761308918090836700,7.661836669921875,0.005770558025687933,-0.007913262583315372,-0.006389929447323084
1761308918100765700,7.671765625,-0.0009397135581821203,-0.00401847530156374,-0.004966006148606539
1761308918110693600,7.681693603515625,-0.004205814562737942,-0.0011305436491966248,0.0048778364434838295
1761308918120621600,7.69162158203125,-0.006793803069740534,0.0010699627455323935,0.004903681576251984
1761308918130549800,7.7015498046875,-0.007022302597761154,0.003195964265614748,0.0005930894985795021
1761308918140477700,7.711477783203125,-0.0019181855022907257,0.01011975109577179,-0.00284850737079978
1761308918150406000,7.721406005859375,0.003963405732065439,0.0037827601190656424,-0.005435235798358917
1761308918160333800,7.731333740234375,0.008683227933943272,0.0009955973364412785,-0.0014367583207786083
1761308918170262800,7.7412626953125,0.009371655061841011,-0.010691951960325241,0.006246461533010006
1761308918180190700,7.751190673828125,0.008476498536765575,-0.02133735828101635,0.009555753320455551
1761308918190119000,7.761118896484375,0.005435967352241278,-0.03529179096221924,0.010556835681200027
1761308918200046800,7.771046875,0.001868518302217126,-0.04632112383842468,-0.0007068272680044174
1761308918209974800,7.780974853515625,0.002154009183868766,-0.04090825095772743,-0.009308039210736752
1761308918219902700,7.79090283203125,0.003757060971111059,-0.022265944629907608,-0.01611355133354664
1761308918229830700,7.80083056640625,0.010466628707945347,-0.00759538821876049,-0.01414174772799015
1761308918239759600,7.810759521484375,0.011489743366837502,-0.011249979957938194,-0.008543528616428375
1761308918249687600,7.8206875,0.015396335162222385,-0.021543629467487335,0.006236216984689236
1761308918259615700,7.83061572265625,0.02525903843343258,-0.035208266228437424,0.013861813582479954
1761308918269544000,7.8405439453125,0.03368687629699707,-0.03905147314071655,0.020875513553619385
1761308918279471900,7.850471923828125,0.03646174818277359,-0.03680948168039322,0.01940855383872986
1761308918289399800,7.86039990234375,0.033659569919109344,-0.021801769733428955,0.014533637091517448
1761308918299327700,7.87032763671875,0.028839077800512314,-0.005664445459842682,0.003636774607002735
1761308918309256000,7.880255859375,0.024264831095933914,0.003742105793207884,-0.004266688600182533
1761308918319185000,7.890184814453125,0.0179787278175354,0.0023396778851747513,-0.003674549050629139
1761308918329112800,7.90011279296875,0.019331613555550575,-0.01072579063475132,0.0025684330612421036
1761308918339040800,7.910040771484375,0.018244054168462753,-0.021763339638710022,0.008231190964579582
1761308918348968700,7.91996875,0.0242374986410141,-0.027659578248858452,0.011310603469610214
1761308918358896600,7.929896728515625,0.025963637977838516,-0.030635006725788116,0.01099564228206873
1761308918368824800,7.939824951171875,0.02461235038936138,-0.026833346113562584,0.008753261528909206
1761308918378752800,7.949752685546875,0.02609807252883911,-0.014414682053029537,0.007066989317536354
1761308918388682000,7.959681884765625,0.024751579388976097,-0.009609274566173553,0.009501118212938309
1761308918398610000,7.96960986328125,0.01828322745859623,0.0005062425625510514,0.01645474322140217
1761308918408537900,7.979537841796875,0.011490301229059696,0.009905869141221046,0.025593379512429237
1761308918418465800,7.9894658203125,0.004438927862793207,0.0021993506234139204,0.030180703848600388
1761308918428393700,7.999393798828125,-0.003240297082811594,0.0057634590193629265,0.028356436640024185
1761308918438322000,8.009322021484374,-0.011485322378575802,0.004663717467337847,0.00887479167431593
1761308918448249900,8.019249755859375,-0.012040858156979084,0.009657144546508789,-0.004032750613987446
1761308918458178800,8.0291787109375,-0.011975391767919064,0.004282395821064711,-0.015604816377162933
1761308918468106800,8.039106689453124,-0.010076558217406273,-0.007673599291592836,-0.019210204482078552
1761308918478034700,8.04903466796875,-0.009133702144026756,-0.014841354452073574,-0.016229741275310516
1761308918487962600,8.058962646484375,-0.005206072703003883,-0.006737888790667057,-0.005773106124252081
1761308918497890800,8.068890869140626,-0.005052141845226288,-0.00403424771502614,-0.0007828753441572189
1761308918507818200,8.078818359375,-0.008256456814706326,-0.004839587491005659,0.00321346428245306
1761308918517746200,8.08874609375,-0.012554967775940895,0.0015114420093595982,0.003599223680794239
1761308918527675400,8.09867529296875,-0.016302036121487617,0.016839798539876938,0.006820317357778549
1761308918537603300,8.108603271484375,-0.017495496198534966,0.025663994252681732,0.004125330597162247
1761308918547531300,8.11853125,-0.021515006199479103,0.022057540714740753,0.002804935909807682
1761308918557459500,8.12845947265625,-0.01625589095056057,0.021713849157094955,0.003555561415851116
1761308918567387400,8.138387451171875,-0.015404477715492249,0.006072040181607008,0.010429979301989079
1761308918577315300,8.1483154296875,-0.015905344858765602,-0.0135041493922472,0.007346178404986858
1761308918587243300,8.1582431640625,-0.012928997166454792,-0.02765379101037979,0.005508065223693848
1761308918597171200,8.168171142578124,-0.011819305829703808,-0.021859506145119667,0.0032725101336836815
1761308918607100200,8.17810009765625,-0.00801284983754158,-0.00705872243270278,0.0026051225140690804
1761308918617028400,8.1880283203125,-0.012865565717220306,0.009813635610044003,0.0011097509413957596
1761308918626956300,8.197956298828124,-0.01722782291471958,0.012045363895595074,-0.0034815389662981033
1761308918636884200,8.20788427734375,-0.023853259161114693,0.011593724600970745,-0.00925152376294136
1761308918646812200,8.217812255859375,-0.027047988027334213,0.004204251803457737,-0.010290422476828098
1761308918656740400,8.227740234375,-0.02654046192765236,-0.015483099967241287,-0.010805224999785423
1761308918666668300,8.237668212890625,-0.0219664815813303,-0.04060656204819679,-0.013650014065206051
1761308918676596500,8.247596435546875,-0.011423971503973007,-0.06595358997583389,-0.011269772425293922
1761308918686525400,8.257525390625,-0.00215217680670321,-0.07505281269550323,-0.003007048275321722
1761308918696453400,8.267453369140625,-0.002216964028775692,-0.06924863904714584,-0.0016518430784344673
1761308918706381300,8.27738134765625,-0.009559032507240772,-0.05804338678717613,0.005285957828164101
1761308918716309200,8.287309326171876,-0.014962175861001015,-0.04608222097158432,0.008296282961964607
1761308918726237200,8.2972373046875,-0.026281144469976425,-0.0203318502753973,0.0019795307889580727
1761308918736165400,8.307165283203124,-0.03448435664176941,-0.002463758923113346,-0.000637114979326725
1761308918746093300,8.31709326171875,-0.03153703734278679,0.008158791810274124,-0.005442789290100336
1761308918756021200,8.327021240234375,-0.0360773429274559,0.01917855441570282,-0.008671902120113373
1761308918765950200,8.3369501953125,-0.031344905495643616,0.032092224806547165,-0.009324909187853336
1761308918775878400,8.34687841796875,-0.02907540276646614,0.04281071200966835,-0.007452929392457008
1761308918785806300,8.356806396484375,-0.02389369159936905,0.03494080528616905,-0.0006719892844557762
1761308918795734500,8.366734619140624,-0.017802873626351357,0.02732984535396099,0.010889394208788872
1761308918805662500,8.376662353515625,-0.009196336381137371,0.015313662588596344,0.02147146500647068
1761308918815590400,8.38659033203125,-0.0014837009366601706,0.0018501963932067156,0.030967939645051956
1761308918825518300,8.396518310546876,0.005788326729089022,-0.02045058086514473,0.034757617861032486
1761308918835446300,8.4064462890625,0.008134428411722183,-0.0409032367169857,0.030344873666763306
1761308918845374500,8.41637451171875,0.0069676972925662994,-0.0443219356238842,0.017959311604499817
1761308918855303200,8.42630322265625,-0.005900165997445583,-0.02466755360364914,0.008515805006027222
1761308918865231400,8.4362314453125,-0.019305186346173286,-0.00048338694614358246,-0.006666343193501234
1761308918875159300,8.4461591796875,-0.031390413641929626,0.01983741857111454,-0.02450406923890114
1761308918885087200,8.456087158203125,-0.04142200946807861,0.03391009196639061,-0.033634983003139496
1761308918895015200,8.46601513671875,-0.04527381807565689,0.03327392041683197,-0.02620178833603859
1761308918904943000,8.475943115234376,-0.05093063786625862,0.023034600540995598,-0.013179995119571686
1761308918914871300,8.485871337890625,-0.051214128732681274,0.0011864027474075556,0.004249543882906437
1761308918924799200,8.49579931640625,-0.05491885170340538,-0.017918316647410393,0.013444374315440655
1761308918934728400,8.505728515625,-0.04905042052268982,-0.01736396737396717,0.020216165110468864
1761308918944656400,8.515656494140625,-0.042352039366960526,-0.010125763714313507,0.02048620954155922
1761308918954584300,8.525584228515624,-0.035063982009887695,0.004251789767295122,0.009440910071134567
1761308918964512300,8.53551220703125,-0.0344378724694252,0.03402246907353401,0.009429456666111946
1761308918974440400,8.5454404296875,-0.02931387908756733,0.059549592435359955,0.005517086014151573
1761308918984368400,8.555368408203124,-0.025870943441987038,0.06500614434480667,0.010270029306411743
1761308918994296300,8.56529638671875,-0.024787884205579758,0.049624308943748474,0.022459689527750015
1761308919004224300,8.575224365234375,-0.02155347540974617,0.031039969995617867,0.036781635135412216
1761308919014153200,8.5851533203125,-0.024542151018977165,0.014639753848314285,0.04313278943300247
1761308919024081200,8.5950810546875,-0.02716802805662155,-0.01069063600152731,0.034310534596443176
1761308919034009300,8.60500927734375,-0.03290934860706329,-0.03949664905667305,0.0198583472520113
1761308919043937300,8.614937255859376,-0.038569096475839615,-0.052410583943128586,0.0034186532720923424
1761308919053865500,8.624865478515625,-0.047338880598545074,-0.05653420835733414,-0.010707677341997623
1761308919063793400,8.63479345703125,-0.05113920941948891,-0.04367806389927864,-0.029747415333986282
1761308919073721300,8.644721435546876,-0.04616592824459076,-0.022670358419418335,-0.03766680136322975
1761308919083649300,8.654649169921875,-0.043071601539850235,0.00877704843878746,-0.03632643073797226
1761308919093577500,8.664577392578124,-0.03847455605864525,0.02921903133392334,-0.021923454478383064
1761308919103506400,8.67450634765625,-0.029372401535511017,0.022326771169900894,-0.004636609926819801
1761308919113434400,8.684434326171875,-0.027170957997441292,0.03572453185915947,0.019458089023828506
1761308919123362300,8.6943623046875,-0.02516399882733822,0.03327761963009834,0.042180441319942474
1761308919133290200,8.704290283203125,-0.012179668061435223,0.003827749751508236,0.05794508010149002
1761308919143218200,8.71421826171875,0.004218213725835085,-0.01644796133041382,0.056402042508125305
1761308919153146400,8.724146484375,0.018596455454826355,-0.034111738204956055,0.04374796897172928
1761308919163074300,8.73407421875,0.02080235257744789,-0.03671737387776375,0.023486638441681862
1761308919173002200,8.744002197265624,0.013739914633333683,-0.02685728669166565,0.0028194421902298927
1761308919182930200,8.75393017578125,0.005608218722045422,-0.012188062071800232,-0.01828504353761673
1761308919192859400,8.763859375,-0.005848896689713001,0.005434798542410135,-0.033840492367744446
1761308919202787300,8.773787353515624,-0.015789678320288658,0.02571690082550049,-0.03855402022600174
1761308919212715300,8.78371533203125,-0.018935641273856163,0.03643716871738434,-0.027946796268224716
1761308919222643500,8.7936435546875,-0.02553042583167553,0.03895598649978638,-0.013816596008837223
1761308919232571400,8.8035712890625,-0.0235527865588665,0.0299563929438591,-0.0011832751333713531
1761308919242499300,8.813499267578125,-0.020404664799571037,0.022832702845335007,0.009492804296314716
1761308919252427300,8.82342724609375,-0.011582457460463047,0.016821734607219696,0.00700818095356226
1761308919262355200,8.833355224609376,-0.0017476696521043777,0.003689420875161886,-0.007592332549393177
1761308919272283400,8.843283447265625,0.0026415272150188684,-0.019138988107442856,-0.01463324110955
1761308919282212400,8.85321240234375,0.012263261713087559,-0.01922101341187954,-0.02098274976015091
1761308919292140300,8.863140380859376,0.014365636743605137,-0.024348998442292213,-0.01830998808145523
1761308919302068200,8.873068115234375,0.02465103194117546,-0.019835740327835083,-0.00888319592922926
1761308919311996200,8.88299609375,0.020267879590392113,-0.008509194478392601,0.008206933736801147
1761308919321924000,8.892924072265625,0.013800127431750298,-0.007302516605705023,0.02633054368197918
1761308919331852500,8.9028525390625,0.008273272775113583,-0.003982879687100649,0.03248051553964615
1761308919341780500,8.912780517578126,0.007393630687147379,-0.002077121753245592,0.03470159322023392
1761308919351708400,8.92270849609375,0.01037348248064518,-0.005750211421400309,0.029059110209345818
1761308919361636400,8.93263623046875,0.007130285259336233,-0.00520133413374424,0.016529206186532974
1761308919371565300,8.9425654296875,0.008272952400147915,-0.008475858718156815,-0.0012705568224191666
1761308919381493200,8.9524931640625,0.012164363637566566,-0.002548994030803442,-0.019574996083974838
1761308919391421400,8.96242138671875,0.014179683290421963,0.0017620055004954338,-0.03140152990818024
1761308919401349400,8.972349365234376,0.011676311492919922,0.000873308687005192,-0.043110646307468414
1761308919411277300,8.98227734375,0.011117898859083652,0.007737025618553162,-0.0425904355943203
1761308919421205200,8.992205322265624,0.002865295158699155,0.012322189286351204,-0.04039812460541725
1761308919431133200,9.00213330078125,0.00036588608054444194,0.009571734815835953,-0.01803397759795189
1761308919441061400,9.012061279296875,-0.006155396346002817,0.014198711141943932,0.015977784991264343
1761308919450989300,9.0219892578125,-0.006694640964269638,0.021556440740823746,0.04313313215970993
1761308919460918500,9.03191845703125,-0.0071039688773453236,0.02706785313785076,0.05601457878947258
1761308919470846500,9.041846435546875,-0.009073305875062943,0.020396292209625244,0.05283616855740547
1761308919480774400,9.0517744140625,-0.011482401750981808,0.017942987382411957,0.029203545302152634
1761308919490702300,9.061702392578125,-0.02096213772892952,0.013112234883010387,-0.009575708769261837
1761308919500630300,9.07163037109375,-0.031294140964746475,0.017408711835741997,-0.03441181778907776
1761308919510558700,9.081558837890626,-0.032570306211709976,0.027854401618242264,-0.046277016401290894
1761308919520486700,9.091486572265625,-0.0379304513335228,0.03951292112469673,-0.04807917773723602
1761308919530414600,9.10141455078125,-0.03529413789510727,0.0467287078499794,-0.03681630641222
1761308919540342800,9.1113427734375,-0.029488978907465935,0.06382620334625244,-0.012997793965041637
1761308919550270700,9.121270751953125,-0.021943382918834686,0.06704482436180115,0.009746803902089596
1761308919560199700,9.13119970703125,-0.004426706116646528,0.06042340397834778,0.03138392046093941
1761308919570127600,9.141127685546875,0.011566990986466408,0.05484960973262787,0.04394014552235603
1761308919580055800,9.151055908203125,0.02655446156859398,0.018899861723184586,0.04935754835605621
1761308919589983700,9.160983642578126,0.029294442385435104,-0.02373400516808033,0.040968239307403564
1761308919599911700,9.17091162109375,0.02861134149134159,-0.052471112459897995,0.021456852555274963
1761308919609839600,9.180839599609374,0.021792234852910042,-0.08484949171543121,-0.010494908317923546
1761308919619767600,9.190767578125,0.013647222891449928,-0.08839442580938339,-0.04131860285997391
1761308919629695700,9.20069580078125,0.001373601146042347,-0.07977063953876495,-0.06632339209318161
1761308919639623700,9.210623779296874,-0.006759692914783955,-0.06398368626832962,-0.07819816470146179
1761308919649552600,9.220552734375,-0.010846350342035294,-0.03685484454035759,-0.06680255383253098
1761308919659480800,9.230480712890625,-0.011080176569521427,-0.009299385361373425,-0.04067641496658325
1761308919669408800,9.24040869140625,-0.008589536882936954,0.0068017723970115185,-0.008089344017207623
1761308919679336700,9.250336669921875,-0.00588536262512207,0.003009165171533823,0.026648396626114845
1761308919689265000,9.260264892578125,-0.002173054264858365,-0.006722970400005579,0.04316047951579094
1761308919699192800,9.27019287109375,0.0032640553545206785,-0.008091302588582039,0.0464758463203907
1761308919709120800,9.280120849609375,0.014255959540605545,-0.018221383914351463,0.02668614313006401
1761308919719048700,9.290048583984374,0.02109122835099697,-0.019033115357160568,-0.0014522839337587357
1761308919728976600,9.2999765625,0.025417277589440346,-0.020511461421847343,-0.02682337909936905
1761308919738904800,9.30990478515625,0.030028540641069412,-0.02772197127342224,-0.0414675697684288
1761308919748832800,9.319832763671876,0.029768168926239014,-0.028503945097327232,-0.04175417125225067
1761308919758761700,9.32976171875,0.026833366602659225,-0.040140628814697266,-0.0241144597530365
1761308919768689700,9.339689697265625,0.021625056862831116,-0.04456419125199318,0.0025466689839959145
1761308919778617600,9.34961767578125,0.01594267040491104,-0.03531503304839134,0.025791537016630173
1761308919788545500,9.359545654296875,0.010303175076842308,-0.02307327650487423,0.03697189688682556
1761308919798473500,9.369473388671874,0.007536950055509806,-0.0027054192032665014,0.03143491595983505
1761308919808401700,9.379401611328126,0.006552448030561209,0.014600768685340881,0.016550954431295395
1761308919818329900,9.389329833984375,0.008860875852406025,0.024594280868768692,-0.0023284591734409332
1761308919828257800,9.3992578125,0.008008202537894249,0.021885795518755913,-0.01332228071987629
1761308919838185700,9.409185791015625,0.015637360513210297,0.020219456404447556,-0.014972907491028309
1761308919848113700,9.41911376953125,0.017717236652970314,-0.008289103396236897,-0.012529289349913597
1761308919858042600,9.429042724609374,0.014973116107285023,-0.04046914353966713,0.0009891828522086143
1761308919867970800,9.438970703125,0.015490972436964512,-0.055243708193302155,0.01665751077234745
1761308919877898800,9.448898681640625,0.008816291578114033,-0.06305982172489166,0.022112997248768806
1761308919887826700,9.45882666015625,0.012444410473108292,-0.05070657655596733,0.020712699741125107
1761308919897754600,9.468754638671875,0.011449187062680721,-0.03710607811808586,0.0038975002244114876
1761308919907682600,9.4786826171875,0.001984192058444023,-0.016078436747193336,-0.013832936063408852
1761308919917610800,9.48861083984375,0.0011969618499279022,0.009511610493063927,-0.02705872431397438
1761308919927538700,9.49853857421875,0.0049169170670211315,0.027388030663132668,-0.026543039828538895
1761308919937466600,9.508466552734374,0.00016823457553982735,0.026696406304836273,-0.01495669037103653
1761308919947394600,9.51839453125,0.007968273013830185,0.01921328715980053,-0.00045630428940057755
1761308919957323800,9.52832373046875,0.00962342694401741,0.011824880726635456,0.01114735472947359
1761308919967251700,9.538251708984374,0.012978852726519108,0.0020480568055063486,0.01789540797472
1761308919977179600,9.5481796875,0.015846012160182,0.0003612106083892286,0.0057282233610749245
1761308919987107800,9.55810791015625,0.010789577849209309,0.012864608317613602,-0.004187718033790588
1761308919997035800,9.568035888671876,0.007601507939398289,0.012420126236975193,-0.012155896052718163
1761308920006963700,9.577963623046875,0.0032286965288221836,0.010775280185043812,-0.019365182146430016
1761308920016891600,9.5878916015625,0.001271539367735386,-0.0032622413709759712,-0.01716354861855507
1761308920026819600,9.597819580078125,-0.0017445937264710665,-0.02633177675306797,-0.019266843795776367
1761308920036747800,9.607747802734375,0.0103685287758708,-0.038761015981435776,-0.012578314170241356
1761308920046675700,9.61767578125,0.01974421739578247,-0.042482826858758926,-0.010284310206770897
1761308920056603600,9.627603759765625,0.035284027457237244,-0.05052770674228668,-0.01424363162368536
1761308920066532600,9.63753271484375,0.035734210163354874,-0.045970603823661804,-0.01776413433253765
1761308920076460500,9.64746044921875,0.03692091256380081,-0.026882130652666092,-0.01577102392911911
1761308920086388500,9.657388427734375,0.04111640527844429,-0.0008845829288475215,-0.001597206573933363
1761308920096316700,9.667316650390624,0.04063890129327774,0.02172325924038887,0.01353620644658804
1761308920106244900,9.677244873046876,0.03723890334367752,0.024527795612812042,0.02403278648853302
1761308920116172800,9.6871728515625,0.03217357024550438,0.005579937249422073,0.026776641607284546
1761308920126100700,9.697100830078124,0.03489458188414574,-0.00034060573671013117,0.024157026782631874
1761308920136028700,9.707028564453125,0.023275475949048996,-0.020170237869024277,0.014494812116026878
1761308920145956900,9.716956787109375,0.020400885492563248,-0.02198999933898449,0.003430892713367939
1761308920155884800,9.726884765625,0.024611344560980797,-0.018175020813941956,-0.009658277034759521
1761308920165812700,9.736812744140625,0.025223832577466965,-0.017150472849607468,-0.015006291680037975
1761308920175741700,9.74674169921875,0.023184383288025856,-0.009031293913722038,-0.014504019170999527
1761308920185669600,9.756669677734376,0.013356052339076996,0.00245831161737442,-0.004806841257959604
1761308920195597600,9.76659765625,0.009015366435050964,-0.017022978514432907,0.01037317793816328
1761308920205525800,9.77652587890625,0.00547432154417038,-0.01274849008768797,0.02521287091076374
1761308920215453700,9.78645361328125,0.0019296540413051844,-0.007651465944945812,0.025839513167738914
1761308920225381600,9.796381591796875,-0.0024891302455216646,0.0037280262913554907,0.013905280269682407
1761308920235309600,9.8063095703125,-0.010507907718420029,0.015713315457105637,-0.001705370843410492
1761308920245237500,9.816237548828125,-0.00945328176021576,0.02085479348897934,-0.01793150044977665
1761308920255165700,9.826165771484375,-0.00446251779794693,0.026958759874105453,-0.026869602501392365
1761308920265094000,9.836093994140626,-0.0023105114232748747,0.030454784631729126,-0.02165459282696247
1761308920275021800,9.846021728515625,-0.00659207534044981,0.03402715176343918,-0.011458946391940117
1761308920284950800,9.85595068359375,-0.009967219084501266,0.020960204303264618,-0.011887624859809875
1761308920294878700,9.865878662109376,-0.014956118538975716,0.015831489115953445,-0.005970347672700882
1761308920304806700,9.875806640625,-0.01411351002752781,0.0017236815765500069,0.0013451119884848595
1761308920314734600,9.885734619140624,-0.006680094171315432,-0.017618324607610703,-0.00047862064093351364
1761308920324662800,9.895662841796875,0.002924862550571561,-0.03420955315232277,0.0023738909512758255
1761308920334590700,9.9055908203125,0.005223703105002642,-0.04692215099930763,0.003014114685356617
1761308920344518700,9.9155185546875,0.007703252136707306,-0.0446852408349514,0.0017875544726848602
1761308920354446600,9.925446533203125,0.006371405441313982,-0.020879777148365974,-0.0016204924322664738
1761308920364374500,9.93537451171875,0.0028409743681550026,0.007652128580957651,0.0012189187109470367
1761308920374302700,9.945302734375,-0.005562363658100367,0.03303764760494232,0.0007153144106268883
1761308920384230700,9.955230712890625,-0.015874763950705528,0.06476186215877533,-0.0120648592710495
1761308920394158600,9.96515869140625,-0.012387354858219624,0.08172086626291275,-0.02260138839483261
1761308920404087800,9.975087890625,-0.0033935518004000187,0.061084263026714325,-0.0251254141330719
1761308920414015700,9.985015625,-0.001468086615204811,0.032078709453344345,-0.015721792355179787
1761308920423943700,9.994943603515624,0.001306754071265459,0.004323418252170086,-0.0018959986045956612
1761308920433872000,10.004871826171875,0.010827021673321724,-0.02233242616057396,0.017713122069835663
1761308920443799800,10.0147998046875,0.01104674581438303,-0.03823285177350044,0.025057032704353333
1761308920453727700,10.024727783203126,0.006871707737445831,-0.03851274773478508,0.02294275164604187
1761308920463655700,10.03465576171875,-0.000025705667212605476,-0.025868229568004608,0.009233335964381695
1761308920473583600,10.04458349609375,-0.002677681390196085,-0.00825301744043827,-0.007273468188941479
1761308920483511800,10.05451171875,-0.005517636425793171,0.008288376964628696,-0.027737874537706375
1761308920493439700,10.064439697265625,-0.010138486512005329,0.01730078086256981,-0.042056359350681305
1761308920503367200,10.0743671875,-0.004264219664037228,0.026327423751354218,-0.041019704192876816
1761308920513295000,10.084295166015625,-0.0013267530594021082,0.028673935681581497,-0.020983412861824036
1761308920523224000,10.09422412109375,0.0004886965616606176,0.02987080067396164,0.0009464295580983162
1761308920533152000,10.104152099609376,0.005356688518077135,0.026663556694984436,0.020118258893489838
1761308920543080200,10.114080078125,0.011939768679440022,0.020185917615890503,0.035739582031965256
1761308920553008000,10.124008056640625,0.012692377902567387,0.01829906739294529,0.039640847593545914
1761308920562936000,10.13393603515625,0.01529986783862114,0.006417925003916025,0.033457543700933456
1761308920572864000,10.143864013671875,0.008832113817334175,-0.017905524000525475,0.01818431355059147
1761308920582792000,10.1537919921875,0.002491660648956895,-0.04899313300848007,-0.0033004721626639366
1761308920592720100,10.16372021484375,0.0006634006276726723,-0.06579422205686569,-0.01647539623081684
1761308920602648000,10.17364794921875,0.0023381817154586315,-0.07148825377225876,-0.02415943145751953
1761308920612576000,10.183575927734376,0.005161132663488388,-0.06227024644613266,-0.026047877967357635
1761308920622504000,10.19350390625,0.010749910026788712,-0.02937261387705803,-0.01035881694406271
1761308920632431900,10.203431884765624,0.01344422996044159,0.004770709201693535,0.010924368165433407
1761308920642360000,10.213360107421876,0.010366144590079784,0.03360234573483467,0.02358561009168625
1761308920652289300,10.223289306640625,0.010404227301478386,0.039350781589746475,0.03436661884188652
1761308920662217200,10.23321728515625,0.008050143718719482,0.029692424461245537,0.045540761202573776
1761308920672145200,10.243145263671876,0.01200413890182972,0.013847947120666504,0.040531884878873825
1761308920682073000,10.253072998046875,0.014906649477779865,0.0008310081320814788,0.023655932396650314
1761308920692001000,10.2630009765625,0.016734909266233444,0.005685418378561735,-0.008943824097514153
1761308920701929200,10.27292919921875,0.0072917151264846325,0.02202247641980648,-0.043243277817964554
1761308920711857200,10.282857177734375,-0.0065023936331272125,0.02213858999311924,-0.06774968653917313
1761308920721785000,10.29278515625,-0.015864165499806404,0.032533928751945496,-0.07321539521217346
1761308920731713000,10.302713134765625,-0.017197344452142715,0.018463650718331337,-0.05727424845099449
1761308920741641000,10.312640869140624,-0.01957767643034458,0.0019411337561905384,-0.02445877715945244
1761308920751569200,10.322569091796876,-0.01871854066848755,-0.00561744999140501,0.015317399054765701
1761308920761497000,10.3324970703125,-0.013585537672042847,-0.01732419990003109,0.04555937275290489
1761308920771425000,10.342425048828124,-0.012173529714345932,-0.020366594195365906,0.06472800672054291
1761308920781354000,10.35235400390625,-0.013334641233086586,-0.01200296264141798,0.06438331305980682
1761308920791282200,10.3622822265625,-0.01127628330141306,0.005260446108877659,0.051325831562280655
1761308920801210000,10.372210205078124,-0.012757213786244392,0.01524325367063284,0.029765509068965912
1761308920811138000,10.382137939453125,-0.006156036164611578,0.02660483308136463,0.013316760770976543
1761308920821066200,10.392066162109375,0.0024282890371978283,0.028798580169677734,0.00020475778728723526
1761308920830994200,10.401994140625,0.008249958977103233,0.0386621318757534,0.000613819807767868
1761308920840922000,10.411922119140625,0.013686004094779491,0.031924597918987274,0.005161699838936329
1761308920850850000,10.42185009765625,0.01210941281169653,0.0054112328216433525,0.009870966896414757
1761308920860778000,10.431778076171875,0.008830715902149677,-0.014766120351850986,0.010104737244546413
1761308920870706200,10.4417060546875,0.019855404272675514,-0.018694015219807625,0.007449566386640072
1761308920880634000,10.451634033203124,0.015488792210817337,-0.0212622731924057,0.010194760747253895
1761308920890562000,10.46156201171875,0.009954743087291718,-0.02077651210129261,0.005905472673475742
1761308920900490000,10.471489990234375,0.009055539034307003,-0.012308882549405098,0.0022565405815839767
1761308920910419000,10.4814189453125,0.00368846976198256,0.0011885503772646189,-0.0019693635404109955
1761308920920347000,10.491346923828125,0.0063534025102853775,0.004045151174068451,-0.0010598860681056976
1761308920930275000,10.501275146484375,0.010640558786690235,0.015166512690484524,0.008410047739744186
1761308920940203000,10.511203125,0.011945828795433044,0.0119704008102417,0.010998737998306751
1761308920950131200,10.521131103515625,0.013026273809373379,0.012262283824384212,0.016155149787664413
1761308920960059100,10.53105908203125,0.008960213512182236,0.011736523360013962,0.004912449978291988
1761308920969987000,10.540987060546875,0.005448834504932165,0.016801057383418083,-0.00470342580229044
1761308920979915300,10.550915283203125,0.004387005232274532,0.023546338081359863,-0.01499619334936142
1761308920989843200,10.56084326171875,0.0008050537435337901,0.00929416436702013,-0.02149590477347374
1761308920999771100,10.570771240234375,0.0000347480527125299,-0.0068247634917497635,-0.024128615856170654
1761308921009699000,10.580698974609374,-0.0006659296341240406,-0.01227758638560772,-0.00800477247685194
1761308921019627000,10.590626953125,0.008795274421572685,-0.020033052191138268,0.005722076632082462
1761308921029555200,10.60055517578125,0.01322251372039318,-0.02601158246397972,0.013807700015604496
1761308921039483100,10.610483154296874,0.01562024001032114,-0.019551364704966545,0.016085781157016754
1761308921049411000,10.6204111328125,0.015556856989860535,-0.003140433458611369,0.012387450784444809
1761308921059340000,10.630340087890625,0.01570500060915947,0.010802465490996838,0.003246472217142582
1761308921069268000,10.64026806640625,0.016650423407554626,0.012854165397584438,-0.007976621389389038
1761308921079196000,10.65019580078125,0.021160036325454712,0.005447567906230688,-0.013299467042088509
1761308921089123800,10.660123779296875,0.022258324548602104,-0.013050482608377934,-0.009791817516088486
1761308921099052000,10.670052001953126,0.02317078784108162,-0.017627989873290062,-0.0014472585171461105
1761308921108980200,10.679980224609375,0.021817103028297424,-0.021921271458268166,0.0069486228749156
1761308921118908200,10.689908203125,0.018572436645627022,-0.013728974387049675,0.014119850471615791
1761308921128836000,10.699836181640626,0.019968200474977493,-0.019998589530587196,0.01658007875084877
1761308921138764000,10.709763916015625,0.019697757437825203,-0.019817622378468513,0.013611831702291965
1761308921148692200,10.719692138671874,0.015600751154124737,-0.009280292317271233,0.013859772123396397
1761308921158620200,10.7296201171875,0.00919641088694334,-0.0019081765785813332,0.012392040342092514
1761308921168548000,10.739548095703125,0.009190285578370094,-0.004313010722398758,0.00984659232199192
1761308921178476000,10.74947607421875,0.005795370787382126,-0.0016600496601313353,-0.0054979948326945305
1761308921188404000,10.759404052734375,0.002252034842967987,-0.0015756274806335568,-0.014052335172891617
1761308921198332200,10.769332275390624,-0.003819109173491597,0.0014989250339567661,-0.01688959077000618
1761308921208261000,10.77926123046875,-0.007397332228720188,0.002590821124613285,-0.02201084978878498
1761308921218189000,10.78918896484375,-0.009343717247247696,0.0024881698191165924,-0.019473213702440262
1761308921228117000,10.799116943359374,-0.012256416492164135,0.0003597714239731431,-0.014495233073830605
1761308921238045000,10.809044921875,-0.014181175269186497,-0.0031326047610491514,-0.012362301349639893
1761308921247972900,10.818972900390625,-0.0076116896234452724,-0.00794973038136959,-0.0078580966219306
1761308921257901000,10.828901123046874,-0.007103844080120325,-0.006879375781863928,0.0006017442792654037
1761308921267829200,10.838829345703125,-0.003549855435267091,-0.007955026812851429,0.009338244795799255
1761308921277757200,10.848757080078125,0.0013263842556625605,-0.00687245512381196,0.013568448834121227
1761308921287685000,10.85868505859375,0.0037815524265170097,0.0030872344505041838,0.015301101841032505
1761308921297613000,10.868613037109375,0.0015506856143474579,0.01139276847243309,0.015212497673928738
1761308921307541200,10.878541259765624,-0.0004703872837126255,0.010796220041811466,0.005135095678269863
1761308921317469200,10.88846923828125,-0.0018189562251791358,0.0071052927523851395,-0.00562264584004879
1761308921327397000,10.898397216796875,-0.007166317664086819,-0.003809140995144844,-0.014438241720199585
1761308921337325000,10.908324951171876,-0.005373458378016949,-0.01573691889643669,-0.021695684641599655
1761308921347253000,10.9182529296875,-0.009156478568911552,-0.026525383815169334,-0.02599535882472992
1761308921357181200,10.92818115234375,-0.004399376921355724,-0.014769832603633404,-0.021823201328516006
1761308921367109000,10.938109130859376,-0.004938400816172361,-0.011448338627815247,-0.012529036030173302
1761308921377038000,10.9480380859375,0.0038318862207233906,-0.008865831419825554,-0.0004938393831253052
1761308921386966000,10.957966064453124,0.0067528411746025085,-0.009128686040639877,0.010680251754820347
1761308921396894000,10.96789404296875,0.007884776219725609,0.0014855163171887398,0.017706461250782013
1761308921406822000,10.97782177734375,0.004637317731976509,0.019362784922122955,0.02586585283279419
1761308921416750000,10.98775,-0.0056701535359025,0.02647712454199791,0.022562386468052864
1761308921426678300,10.99767822265625,-0.01616540551185608,0.016292665153741837,0.01880360208451748
1761308921436606200,11.007606201171875,-0.023242712020874023,0.004960065707564354,0.008492514491081238
1761308921446534100,11.0175341796875,-0.02352607250213623,0.0004912811564281583,0.002601335756480694
1761308921456462000,11.027462158203125,-0.01600024662911892,-0.0029170324560254812,-0.0137912193313241
1761308921466390000,11.03739013671875,-0.01389661617577076,-0.0019838607404381037,-0.02524654008448124
1761308921476318200,11.047318115234376,-0.008670140989124775,-0.00268561951816082,-0.028380878269672394
1761308921486246100,11.05724609375,0.0007830155664123595,-0.012738519348204136,-0.01199098490178585
1761308921496174000,11.067174072265624,0.0073973615653812885,-0.01610780507326126,0.0104117002338171
1761308921506102800,11.077102783203125,0.004994390998035669,-0.013191909529268742,0.03406482934951782
1761308921516030700,11.08703076171875,0.005434631835669279,-0.014248399063944817,0.044818345457315445
1761308921525959000,11.096958984375,0.005346214864403009,-0.01168803684413433,0.038027819246053696
1761308921535887000,11.10688720703125,0.003959708847105503,-0.008973942138254642,0.01661885529756546
1761308921545816000,11.116816162109375,0.001761269522830844,0.0033924467861652374,-0.010427940636873245
1761308921555744000,11.126743896484374,0.0021910977084189653,0.011710820719599724,-0.02868948131799698
1761308921565672000,11.136671875,-0.0028215041384100914,0.011621871031820774,-0.03668881952762604
1761308921575599900,11.146599853515625,-0.002207455923780799,0.006270071491599083,-0.028393905609846115
1761308921585527800,11.15652783203125,-0.000984798651188612,-0.010076943784952164,-0.01595987379550934
1761308921595456000,11.1664560546875,-0.0036571535747498274,-0.027740757912397385,-0.00929942075163126
1761308921605384000,11.176384033203124,-0.0015242279041558504,-0.03142683953046799,-0.005215729586780071
1761308921615312000,11.186311767578125,-0.0009162004571408033,-0.022698089480400085,-0.006721829995512962
1761308921625239800,11.19623974609375,0.0028854617848992348,-0.015505424700677395,-0.010123485699295998
1761308921635167700,11.206167724609376,0.002065152395516634,-0.0007471974240615964,-0.016671497374773026
1761308921645096000,11.216095947265625,0.0037386827170848846,0.014128155075013638,-0.010692435316741467
1761308921655023900,11.22602392578125,0.008799431845545769,0.0297793410718441,-0.003684424329549074
1761308921664951800,11.235951904296876,0.007484096568077803,0.024487638846039772,0.010007418692111969
1761308921674879700,11.245879638671875,0.005209014285355806,0.0038036121986806393,0.016308024525642395
1761308921684808000,11.255807861328124,0.001538645476102829,-0.009548146277666092,0.015416664071381092
1761308921694736100,11.265736083984375,0.001742321066558361,-0.017962615936994553,0.015041060745716095
1761308921704664000,11.2756640625,0.004781520459800959,-0.016160188242793083,0.009226847440004349
1761308921714592000,11.285592041015626,0.00933487992733717,-0.026854267343878746,-0.00020280387252569199
1761308921724520000,11.29552001953125,0.008073341101408005,-0.019221914932131767,-0.013117004185914993
1761308921734447900,11.30544775390625,0.010462109930813313,-0.0028694909997284412,-0.01686009019613266
1761308921744376800,11.315376953125,0.007935303263366222,0.00040912663098424673,-0.01830192655324936
1761308921754304800,11.3253046875,0.0007158328080549836,0.009672034531831741,-0.014294960536062717
1761308921764233000,11.33523291015625,-0.002787555567920208,0.022974258288741112,-0.011528735049068928
1761308921774161000,11.345160888671876,-0.0006717154174111784,0.03386051207780838,-0.009550129063427448
1761308921784088800,11.3550888671875,0.0016175378113985062,0.0351438894867897,-0.006143413484096527
1761308921794016800,11.365016845703124,0.0009191719582304358,0.018943699076771736,-0.008210038766264915
1761308921803944700,11.37494482421875,-0.00030774634797126055,0.012672221288084984,-0.013380832970142365
1761308921813873000,11.384872802734375,0.0002982359437737614,0.025744237005710602,-0.023357104510068893
1761308921823800800,11.39480078125,-0.0009334760252386332,0.025214001536369324,-0.023557905107736588
1761308921833728800,11.404728759765625,-0.0005613650428131223,0.026534855365753174,-0.026717690750956535
1761308921843657000,11.414656982421874,-0.005925770383328199,0.025879984721541405,-0.03011561743915081
1761308921853585000,11.4245849609375,-0.010295189917087555,0.03455174341797829,-0.03211174160242081
1761308921863513000,11.43451318359375,-0.018916107714176178,0.05936894193291664,-0.024110274389386177
1761308921873441000,11.44444091796875,-0.033935509622097015,0.07319258153438568,-0.017490271478891373
1761308921883369000,11.454368896484375,-0.03812173381447792,0.07005856931209564,-0.016736332327127457
1761308921893297000,11.464296875,-0.031085040420293808,0.061318788677453995,-0.007662150543183088
1761308921903224800,11.474224853515626,-0.03438309580087662,0.057597555220127106,0.010243079625070095
1761308921913153000,11.484153076171875,-0.04292610287666321,0.039176058024168015,0.021172519773244858
1761308921923081000,11.4940810546875,-0.051574721932411194,0.0203605554997921,0.030958302319049835
1761308921933009000,11.5040087890625,-0.06280923634767532,0.025610685348510742,0.031588587909936905
1761308921942937900,11.513937744140625,-0.06826924532651901,0.03762313723564148,0.022215060889720917
1761308921952865800,11.52386572265625,-0.06678741425275803,0.04374250769615173,0.001743994653224945
1761308921962793700,11.533793701171875,-0.05825198441743851,0.024793582037091255,-0.015465619042515755
1761308921972722000,11.543721923828125,-0.06355568766593933,-0.009033882059156895,0.004728908650577068
1761308921982649900,11.55364990234375,-0.06691020727157593,-0.016414565965533257,0.04642442613840103
1761308921992577800,11.563577880859375,-0.0670127123594284,0.01773112453520298,0.05148354917764664
1761308922002506000,11.573506103515625,-0.04403655230998993,0.058871373534202576,0.007571481168270111
1761308922012434000,11.583433837890626,-0.0008697638986632228,0.08449883759021759,-0.06796631217002869
1761308922022362000,11.593362060546875,0.03576920926570892,0.08625412732362747,-0.09626425802707672
1761308922032290000,11.6032900390625,0.040360208600759506,0.041110098361968994,-0.035113755613565445
1761308922042218000,11.613218017578125,0.03971332684159279,-0.037278447300195694,0.05530110001564026
1761308922052146000,11.62314599609375,0.03735645115375519,-0.07580401748418808,0.13643556833267212
1761308922062073900,11.633073974609376,0.036823820322752,-0.08401188254356384,0.15843354165554047
1761308922072002000,11.643001953125,0.030247414484620094,-0.07522106915712357,0.12944555282592773
1761308922081930000,11.652929931640625,0.021507451310753822,-0.0450141616165638,0.05875300616025925
1761308922091858000,11.66285791015625,0.0017750631086528301,0.0026145607698708773,-0.0479927584528923
1761308922101785900,11.672785888671875,-0.026335133239626884,0.04674260690808296,-0.14145240187644958
1761308922111713800,11.6827138671875,-0.05922413617372513,0.07756393402814865,-0.19209285080432892
1761308922121642000,11.69264208984375,-0.06753479689359665,0.07789096981287003,-0.20342673361301422
1761308922131570000,11.70256982421875,-0.04177436977624893,0.050552092492580414,-0.1545463353395462
1761308922141497900,11.712497802734376,-0.020719418302178383,0.02218010276556015,-0.061364203691482544
1761308922151425800,11.72242578125,-0.013378655537962914,0.003739024046808481,0.03448503091931343
