time,seconds_elapsed,z,y,x
1761838769276567600,0.076567626953125,0.8847177191823721,0.05751403133571147,-0.8802833899967372
1761838769286637600,0.086637451171875,1.0859078155249358,-0.09434387882202863,-0.8789639779612421
1761838769296706600,0.09670654296875,1.0488801073789595,-0.19107056112736462,-0.6884399448007344
1761838769306776600,0.106776611328125,0.9555822304785251,-0.1807543342962861,-0.4524566944312304
1761838769316845600,0.116845458984375,1.1096540172934533,-0.3111833797171712,-0.3116507415005937
1761838769326915600,0.12691552734375,1.0535089362233876,-0.4030713898196816,-0.21708167562056332
1761838769336985600,0.136985595703125,0.9885685542792081,-0.31510552159696814,-0.10595524176387115
1761838769347054600,0.1470546875,0.9980763873368501,-0.29896570317894217,-0.10242356050638482
1761838769357124600,0.15712451171875,0.9232885651171207,-0.250142051038146,-0.06766874746214598
1761838769367193300,0.167193359375,0.8138806804150343,-0.1370437873855233,0.02781069299476221
1761838769377263600,0.177263671875,0.8023971633702516,-0.011070260068774223,0.08254168774951248
1761838769387333600,0.187333740234375,0.70267831351161,0.08153349708765745,0.09642706917109899
1761838769397402600,0.197402587890625,0.6368927129149436,0.08736468745917081,0.1722639346528798
1761838769407472600,0.20747265625,0.6226701262950897,0.09525164131671189,0.2746954227373935
1761838769417541400,0.217541259765625,0.6149024149030446,0.11591653594374655,0.37074900982044634
1761838769427611600,0.227611572265625,0.6109118839621543,0.10045359387397766,0.49247755651120095
1761838769437681700,0.237681640625,0.5255319405794143,0.07709317655265331,0.6121436177141965
1761838769447750700,0.247750732421875,0.3425280737906694,0.06228957517445087,0.7501175986219197
1761838769457820700,0.257820556640625,0.2473363459676504,0.033141222101449964,0.8695756065648048
1761838769467890400,0.267890380859375,0.2526175012409687,0.010742927810549736,0.8846311368774622
1761838769477959700,0.277959716796875,0.25276830788850785,-0.008522329151630401,0.8733315250322222
1761838769488029400,0.288029541015625,0.24926351463794708,-0.031022037990391254,0.86979436388202
1761838769498098700,0.2980986328125,0.20781039126515388,-0.06817775643020868,0.8618554606415331
1761838769508168400,0.30816845703125,0.14056991568505764,-0.08468494685590267,0.8354618861693889
1761838769518238500,0.318238525390625,0.04633388115167617,-0.10037059176564216,0.8302246431030332
1761838769528307700,0.3283076171875,-0.06431669708788394,-0.15341010803580282,0.874314325524494
1761838769538377500,0.33837744140625,-0.1865332099586725,-0.18532032703757284,0.86829784171395
1761838769548446700,0.34844677734375,-0.2968237227141857,-0.17981500761955976,0.873143235918507
1761838769558516500,0.3585166015625,-0.35497429838776584,-0.19787790305465458,0.868975740975514
1761838769568586500,0.36858642578125,-0.5703560016900301,-0.24915873908922076,0.8523135061185807
1761838769578655500,0.378655517578125,-0.8474784141123294,-0.2574196408256888,0.7695834196574985
1761838769588725500,0.3887255859375,-1.022127709531784,-0.2471156889542937,0.639919805651158
1761838769598795800,0.398795654296875,-1.1834294476002454,-0.21852570041641592,0.4768510579101741
1761838769608864500,0.408864501953125,-1.278901745930314,-0.18690087422728538,0.29773126601316036
1761838769618934500,0.4189345703125,-1.3577268608421087,-0.13520955769568682,0.1545342349612154
1761838769629003500,0.42900341796875,-1.3799585663944482,-0.06925561479479074,0.018098569536674766
1761838769639073500,0.439073486328125,-1.382189686447382,0.019505495458841324,-0.10926272234404459
1761838769649143600,0.4491435546875,-1.2767238173693418,0.1543801221117377,-0.24638277156986294
1761838769659212500,0.459212646484375,-1.0923176825672387,0.2716536256223917,-0.39714360720589753
1761838769669282600,0.469282470703125,-0.953868412297964,0.34163653177842496,-0.5104099209018051
1761838769679351600,0.4793515625,-0.8410627018511295,0.3188021841578185,-0.5220025243442505
1761838769689421600,0.489421630859375,-0.6581295622110367,0.2350517416730523,-0.5191641591131687
1761838769699491600,0.49949169921875,-0.5004243873298168,0.1806950053244829,-0.4905854226216674
1761838769709560600,0.509560546875,-0.4404313986599445,0.17118614935353396,-0.4154888632463291
1761838769719630600,0.519630615234375,-0.3257721693009138,0.16829568860903382,-0.3771864224568009
1761838769729700600,0.52970068359375,-0.2359685642570257,0.1857189709663391,-0.35115525155626237
1761838769739769300,0.539769287109375,-0.10999883633255958,0.1969612266011536,-0.3116845341723412
1761838769749839600,0.549839599609375,0.10735387478172778,0.12511691048741339,-0.3048783795551397
1761838769759908600,0.55990869140625,0.3104401601344347,0.043470162283629175,-0.27963046798678115
1761838769769978600,0.569978515625,0.4448217425733804,-0.05748100584894418,-0.197096178092435
1761838769780048600,0.580048583984375,0.5333107578873634,-0.15917802391275762,-0.11365152275436557
1761838769790117400,0.590117431640625,0.5872212117731571,-0.26628040815144777,-0.029521278038620948
1761838769800187600,0.600187744140625,0.6372527783989906,-0.32903847762048244,0.04694795792941004
1761838769810256400,0.61025634765625,0.7212251930713653,-0.2947640137054026,0.04384634778541512
1761838769820326700,0.62032666015625,0.6907306860864162,-0.23890081831663845,0.112176490898896
1761838769830396700,0.630396728515625,0.5967302138745785,-0.22974647487178443,0.2222679374183528
1761838769840465700,0.640465576171875,0.44607904915809626,-0.22893881175071,0.3573454844985157
1761838769850535700,0.65053564453125,0.26544717219769953,-0.22333207778483627,0.49225236945319917
1761838769860605400,0.66060546875,0.07060264548957347,-0.22786519116982817,0.5607445986600592
1761838769870674700,0.6706748046875,-0.03426993387043476,-0.2025098006390035,0.5426140448162332
1761838769880744400,0.680744384765625,-0.06244798060655594,-0.12962591234445572,0.4892930081909522
1761838769890813700,0.690813720703125,-0.031551907083392144,-0.04181961859762669,0.40213673931807276
1761838769900883700,0.7008837890625,-0.023797055172920224,0.010015051927417517,0.30407446102742103
1761838769910953500,0.710953369140625,-0.1486357332408428,0.07219897477030754,0.23572498302580788
1761838769921022700,0.721022705078125,-0.28406477890610693,0.14899704083390533,0.1887100242747925
1761838769931092500,0.731092529296875,-0.3833312088221311,0.2508737263135612,0.0935291831719689
1761838769941162500,0.74116259765625,-0.519439468923211,0.3055458122216165,0.028670725623890756
1761838769951231500,0.7512314453125,-0.6500970624029636,0.31087248713709414,-0.012561229278892277
1761838769961301500,0.761301513671875,-0.6835176859676837,0.32893867050781844,-0.10684170574219896
1761838769971370500,0.77137060546875,-0.6684896281838416,0.3529552867155522,-0.1824869850414805
1761838769981440500,0.7814404296875,-0.6633177785038947,0.35252632071375845,-0.24023690749229862
1761838769991510500,0.791510498046875,-0.6000660802990198,0.3303796630963683,-0.32128998238556083
1761838770001579500,0.80157958984375,-0.5427554625809192,0.2983269668839872,-0.43199587100893255
1761838770011649500,0.8116494140625,-0.5139391179412603,0.2770807652376592,-0.4975413061741739
1761838770021718500,0.821718505859375,-0.4489724325120449,0.23677250105105338,-0.5214715592727065
1761838770031788500,0.83178857421875,-0.3345306452959776,0.1381015528101474,-0.5265022834489121
1761838770041858600,0.841858642578125,-0.22881343180537222,0.02857530242539942,-0.42897455042637883
1761838770051927600,0.851927490234375,-0.1369505561441183,-0.08638561329394578,-0.3405021939862519
1761838770061997600,0.86199755859375,-0.014165303474664687,-0.17370463498048483,-0.3231090145062655
1761838770072067600,0.872067626953125,-0.041107670935988425,-0.2788073698345572,-0.2798291688966565
1761838770082136600,0.882136474609375,-0.025464111602306366,-0.4154785245154053,-0.24083198730861766
1761838770092206600,0.89220654296875,0.006223989081382751,-0.5617809925030917,-0.2473755089342594
1761838770102275600,0.902275634765625,-0.027426351585984228,-0.6895036285094917,-0.224367192986235
1761838770112345300,0.912345458984375,-0.040164837127923965,-0.7836030310511588,-0.20158388143312184
1761838770122411800,0.922411865234375,-0.02861936076283455,-0.7897026631005107,-0.21151211359361186
1761838770132480800,0.932480712890625,-0.055468789243698115,-0.7803083003547042,-0.20153911070963368
1761838770142550800,0.94255078125,-0.13390870423018933,-0.807227140809968,-0.17524267646903172
1761838770152620800,0.952620849609375,-0.20952713205516338,-0.8562286337357013,-0.16820306015582753
1761838770162690000,0.96268994140625,-0.24922493619322775,-0.8965702887352556,-0.16284337801989168
1761838770172759800,0.972759765625,-0.2781020711094141,-0.8997503800760954,-0.15030923767732454
1761838770182828800,0.982828857421875,-0.2475280691474676,-0.8711281697690486,-0.09695270961355418
1761838770192898800,0.99289892578125,-0.16627894195914267,-0.8623618027284741,0.024250461496226488
1761838770202968800,1.00296875,-0.16035539712905883,-0.8091044059239327,0.1913629864689894
1761838770213037800,1.013037841796875,-0.13622984065413474,-0.6788806007515639,0.2933776373809203
1761838770223107800,1.02310791015625,-0.14106032955050468,-0.5675530000332742,0.3950927025580778
1761838770233177900,1.033177734375,-0.26255320432186124,-0.5403958207774907,0.5424384325210004
1761838770243246800,1.043246826171875,-0.22427345028817652,-0.5016913385257125,0.6111590636562556
1761838770253316900,1.05331689453125,-0.07364858905673026,-0.3460281178008765,0.5596800747010856
1761838770263385900,1.0633857421875,-0.07309972300231456,-0.11540149909369647,0.49820999921597536
1761838770273455900,1.073455810546875,-0.1464005215346813,0.11121055020987987,0.45276028048768635
1761838770283525600,1.083525634765625,-0.21957857047021387,0.28693346621021626,0.3811681490367278
1761838770293595000,1.093594970703125,-0.18929916754066942,0.3757140118166804,0.30855792658440767
1761838770303665000,1.103664794921875,-0.07812368864417076,0.40770124157741666,0.23882764348257332
1761838770313734700,1.113734619140625,0.12886018866896629,0.44365752109959716,0.2196980138651095
1761838770323804000,1.123803955078125,0.30753976251780984,0.44612062327750024,0.2211222014493309
1761838770333873700,1.133873779296875,0.31538579984307286,0.3750758600436151,0.2737632747201249
1761838770343943000,1.14394287109375,0.16817454644739627,0.2740241541460156,0.3314206965819001
1761838770354012700,1.1540126953125,0.06924129400849342,0.18970234151408075,0.30347901588492093
1761838770364082700,1.164082763671875,0.003951367974281311,0.08763824370354413,0.24485238366480916
1761838770374151700,1.174151611328125,-0.004032616516947746,-0.07012538336664438,0.24321517438441514
1761838770384221700,1.1842216796875,0.009161796098947525,-0.17755517292879522,0.22880908442381767
1761838770394292000,1.1942919921875,0.005966214928030967,-0.21233393310420215,0.21977675992343573
1761838770404360700,1.204360595703125,0.03450315810441971,-0.21925094595104455,0.21513755581546573
1761838770414431000,1.214430908203125,0.16933891405165194,-0.2276628735307604,0.13937800248675047
1761838770424500700,1.224500732421875,0.27055647803544997,-0.1961249219074845,0.05454287003781646
1761838770434569700,1.23456982421875,0.3178554048269987,-0.1867884268287569,0.050965121148899194
1761838770444640000,1.244639892578125,0.2698755100339651,-0.25431692556999624,0.12946505922693757
1761838770454708700,1.254708740234375,0.2301782904177904,-0.27829620544202627,0.19219046853538602
1761838770464779000,1.264779052734375,0.14469664022624493,-0.2237245111685246,0.2853934336939826
1761838770474848800,1.274848876953125,0.10368716896772384,-0.15608765668198465,0.3318338439600542
1761838770484917800,1.284917724609375,0.12941373089849947,-0.08451214757226407,0.3426702587403357
1761838770494987800,1.29498779296875,0.1670277144998312,-0.0011843874789774418,0.24336941509805618
1761838770505057800,1.305057861328125,0.3236971165925264,0.022002061514928936,0.06466419535130262
1761838770515126800,1.315126708984375,0.4456482565253973,0.019275632225722074,-0.018083901690505444
1761838770525196800,1.32519677734375,0.4671791203320026,0.039819823082536454,-0.056392918351292606
1761838770535266000,1.33526611328125,0.559624764317274,0.003127192109823227,-0.08526018946059048
1761838770545335800,1.345335693359375,0.6630325318217277,-0.02960793340876698,-0.12113280928730964
1761838770555405800,1.35540576171875,0.7050742687374353,0.01403462629970163,-0.2261689086459577
1761838770565474800,1.365474853515625,0.7205383798509836,0.12956004403401167,-0.35483839704841375
1761838770575544800,1.375544921875,0.8482049748212098,0.12937153572458773,-0.3284739756055176
1761838770585614800,1.38561474609375,0.9520774372279643,0.02306190929878503,-0.23708087288048116
1761838770595683800,1.395683837890625,0.893639861306548,0.04976469585057348,-0.2250003397906199
1761838770605753900,1.40575390625,0.7711679123699665,0.1685342283389531,-0.17824889081399886
1761838770615822800,1.41582275390625,0.5860626893877983,0.22023215727442874,-0.008080101809464394
1761838770625892900,1.425892822265625,0.264364637658,0.20882683829870075,0.1865400050256401
1761838770635962600,1.435962646484375,0.07008183648586273,0.17533693062374367,0.37780590606201436
1761838770646032000,1.446031982421875,-0.1094663368910551,0.10114546686196699,0.5438180137785151
1761838770656101600,1.4561015625,-0.21317747125625608,-0.024004925769940018,0.6630592736981809
1761838770666172000,1.466171875,-0.1886556089401245,-0.14990575317665933,0.668692457279563
1761838770676241000,1.476240966796875,-0.05921382099092006,-0.24359991765199226,0.5459318275947124
1761838770686310700,1.486310546875,0.21572364860773086,-0.34769320146888494,0.34388847542367873
1761838770696381000,1.496380859375,0.5518149673491716,-0.4333533865651116,0.1380531288248487
1761838770706449700,1.50644970703125,1.0352940650969744,-0.5075087926328182,-0.06433871712344698
1761838770716520000,1.51652001953125,1.4610042799651621,-0.546821689106524,-0.2205597269946709
1761838770726588700,1.526588623046875,1.8088421506017445,-0.570676575413905,-0.3446729037996381
1761838770736658700,1.53665869140625,2.192237656831741,-0.6315791166767477,-0.4239575990471989
1761838770746729000,1.54672900390625,2.5597534568846223,-0.7004708665952086,-0.4943574885062873
1761838770756797700,1.556797607421875,2.9412270551413298,-0.6891695742495357,-0.5185694811556488
1761838770766868000,1.566867919921875,3.3777357273995876,-0.5944725711409002,-0.5330540066473186
1761838770776937700,1.576937744140625,3.848723007842898,-0.4285546445138752,-0.5861636655442416
1761838770787007000,1.587007080078125,4.383288149705529,-0.22539240784812717,-0.5334847262147814
1761838770797076700,1.59707666015625,4.971933256801963,0.030027437462471423,-0.41998116969689725
1761838770807145700,1.607145751953125,5.41209811348021,0.17481747332690284,-0.30802933613304045
1761838770817216000,1.617216064453125,5.8646899055331945,0.31782606913466005,-0.1341609984908253
1761838770827285800,1.62728564453125,6.35713264645934,0.4806328414712101,0.04488751826826483
1761838770837355000,1.63735498046875,6.872508519205451,0.47245033873319625,0.16639873241391032
1761838770847424800,1.6474248046875,7.09481739142239,0.40901707341633736,0.32740689436327663
1761838770857494800,1.657494873046875,7.035644486963749,0.24584044485408812,0.4894226624526083
1761838770867563800,1.667563720703125,6.8632450162976975,0.23146679585836827,0.5221529656656086
1761838770877633800,1.6776337890625,6.939545581167936,0.3407430535374209,0.7220994186226278
1761838770887703800,1.687703857421875,6.748737178108096,0.18509302108772097,1.0138111320853234
1761838770897772800,1.697772705078125,6.1316889833480115,-0.23946020576506852,1.057954517455399
1761838770907842800,1.7078427734375,5.219158543610573,-0.8730535848736762,1.4108558089613914
1761838770917911800,1.717911865234375,4.059362485054135,-1.6059316602073608,2.213889224408567
1761838770927981800,1.72798193359375,2.348523612564802,-2.2392190421067175,2.8160777036890385
1761838770938051600,1.738051513671875,-0.41302842794954775,-2.574146139374375,2.3503613493859765
1761838770948120800,1.748120849609375,-3.3885289240926504,-2.9411417149454353,1.6298969115540385
1761838770958190800,1.75819091796875,-6.430951915907859,-4.10379550102055,1.1953387888416647
1761838770968260900,1.7682607421875,-10.110655158650875,-4.532942120078205,1.0356132871139794
1761838770978329900,1.778329833984375,-13.72939276829958,-3.7988632906526325,-0.14350370411463081
1761838770988399900,1.78839990234375,-16.340409963953494,-2.634537187451124,-2.1177928028307855
1761838770998470000,1.798469970703125,-18.521209696447848,-1.4377894085943699,-3.2086978421211243
1761838771008538600,1.80853857421875,-20.134770682489872,-0.25632958056665955,-3.0370564963459965
1761838771018609000,1.81860888671875,-21.960094596815107,0.9015573564328253,-2.3911247369289397
1761838771028677600,1.828677734375,-24.486910245215892,1.4292720478788017,-1.7770995432518422
1761838771038748000,1.838747802734375,-26.4807728631258,2.027981745132804,-1.9464450331747531
1761838771048818000,1.84881787109375,-26.91729147225618,3.5676737773656844,-3.138943337893486
1761838771058886700,1.85888671875,-26.35451145877838,4.591146471765637,-4.406396930353343
1761838771068957000,1.86895703125,-24.30026305348873,4.582196272590756,-5.626992910048365
1761838771079027000,1.87902685546875,-19.952776285004614,5.909910857006907,-6.220427004987001
1761838771089096000,1.889095947265625,-15.747185712373255,6.1379936364501715,-6.054689330297708
1761838771099166000,1.899166015625,-12.8227361890316,4.563496248295903,-5.767229063734412
1761838771109235700,1.909235595703125,-10.150430704200268,2.3779981288522483,-5.681620572292805
1761838771119305000,1.919304931640625,-6.233064368242025,1.292085637152195,-5.200496513238549
1761838771129376000,1.9293759765625,-2.9795500637948513,0.11491459235958755,-4.572805343911051
1761838771139445800,1.93944580078125,-0.10963877084851265,-0.6715369599904865,-3.9104900204479693
1761838771149515000,1.949514892578125,4.786119593289494,1.7087959684848784,-1.4852366578154266
1761838771159584800,1.959584716796875,5.676921600821614,1.0598002914525568,1.1846057979032396
1761838771169654000,1.969654052734375,2.8374621447622776,-2.4489219691202044,2.6699375866562125
1761838771179724000,1.97972412109375,3.2007711407750845,-2.2335851278729737,3.941807826514542
1761838771189793800,1.989793701171875,3.2813387154400346,-0.127106440336816,3.488705746851861
1761838771199863000,1.999863037109375,3.8527643921881913,1.300493546143919,3.0778923646032808
1761838771209932800,2.009932861328125,4.406386701220273,2.1611785017013547,2.958591446918249
1761838771220002800,2.0200029296875,5.340286092200875,2.8685888121709224,3.0326351727724075
1761838771230071800,2.03007177734375,6.474333961516618,3.2490129013746976,3.357434113126993
1761838771240141800,2.040141845703125,7.58208886719048,2.8746669630408284,3.9248894249394533
1761838771250211800,2.0502119140625,8.93335909923911,1.8421449930056928,4.5441912438452245
1761838771260280800,2.06028076171875,10.052726701295375,0.9334232979014515,4.6741737145423885
1761838771270350800,2.070350830078125,11.33987195943594,0.7794304946068674,4.092530010640621
1761838771280419800,2.080419921875,12.550845832043885,1.006342768966034,3.078703096464276
1761838771290489900,2.09048974609375,13.101735501241683,0.7837062722299247,2.257886479306221
1761838771300560000,2.100559814453125,13.06237145910263,0.7820072862923145,2.0140484968483445
1761838771310628900,2.11062890625,12.720401603716612,0.5708003113914281,1.4786663395144044
1761838771320699000,2.120698974609375,11.982212416362762,-0.41973603582940994,1.3140040389716625
1761838771330769000,2.130768798828125,11.226563560163974,-0.903776712982729,1.2783318370878696
1761838771340838000,2.140837890625,10.884552788245678,-1.4549457105785608,1.0840227324306964
1761838771350908000,2.150907958984375,10.609387939631938,-1.8886882791243493,0.31603776094578206
1761838771360978000,2.16097802734375,10.767868190538882,-2.5706863543093204,-1.88985717677325
1761838771371046700,2.171046630859375,8.925500202432275,-2.183768811433017,-3.648938686645031
1761838771381117000,2.181116943359375,13.285138596481085,-1.4320543720737098,-3.4769483813017605
1761838771391187000,2.19118701171875,15.998850442934035,-1.5440667401857673,-4.370568953385949
1761838771401256000,2.201255859375,13.625894984424113,-0.8779238212585448,-4.9317035377442835
1761838771411326000,2.211325927734375,11.58679738651514,0.14919512068927288,-3.775030871905386
1761838771421395000,2.22139501953125,11.223228278261422,0.4577212638959288,-2.20609667083621
1761838771431465000,2.23146484375,12.368846758383512,0.06576134293824434,-1.5669437579043208
1761838771441534700,2.24153466796875,12.053199092733859,0.05276303741633892,-1.7215315314173698
1761838771451604000,2.25160400390625,11.050629485630989,0.12665800244957207,-1.8270526378139853
1761838771461674000,2.261674072265625,10.041743534988164,0.4020882240012288,-1.5144759040422737
1761838771471743700,2.27174365234375,9.73089011787772,0.3755883396103978,-1.0588093807190655
1761838771481813000,2.28181298828125,9.246772137704491,-0.2480053312703967,-0.03735694010034203
1761838771491882800,2.2918828125,7.166552840334177,-0.9291223858371377,-0.01825878333337605
1761838771501952800,2.301952880859375,5.946062951362133,-0.07353212307021022,-0.07317680682651698
1761838771512021800,2.312021728515625,4.971193252089619,0.8897461418036371,-0.04467274300642311
1761838771522091800,2.322091796875,4.298116296115517,1.447751999682188,-0.3025863778941333
1761838771532162000,2.332162109375,3.478525421360135,1.8777334621287882,-0.5838527582533657
1761838771542230800,2.342230712890625,2.68723066676259,1.9150325345620511,-0.7891398415859788
1761838771552301000,2.352301025390625,2.06976453885138,1.5421934936597943,-0.625615020640567
1761838771562369800,2.362369873046875,1.555670522609353,0.594231638524495,-0.3895415712369606
1761838771572439800,2.372439697265625,1.2538894697487353,-0.3517673921052366,-0.4462378929816186
1761838771582509800,2.382509765625,1.2489303860366343,-1.2784136701524258,-0.5860196904962882
1761838771592578800,2.392578857421875,0.5850555581718683,-2.404189531815797,-0.4845263417784124
1761838771602649000,2.402649169921875,-0.4623492159575224,-3.875239551107585,-0.13940061617735772
1761838771612718800,2.41271875,-2.1292086614668366,-5.023306301164626,-0.07657006599400192
1761838771622787800,2.422787841796875,-5.170424031057953,-3.834797358343005,-1.0690905362367629
1761838771632857900,2.43285791015625,-7.224949499723315,-1.0571135365866124,-1.83641521718204
1761838771642927900,2.442927978515625,-8.909452738472819,2.347726178576797,-3.8503929868817326
1761838771652996900,2.452996826171875,-8.84646933581531,5.327880784136057,-5.627410843199491
1761838771663067000,2.46306689453125,-7.272097619867324,6.03946721124649,-5.4763908451706165
1761838771673137000,2.473136962890625,-9.062147391715646,5.179385336148739,-2.818642878001928
1761838771683206000,2.483205810546875,-9.014756110465527,4.6311277690202,-0.7244381637685
1761838771693276000,2.49327587890625,-8.494246381962299,5.086240603983402,0.9299471462234854
1761838771703345700,2.503345703125,-9.36283538864255,4.39443907379508,2.7572926295042035
1761838771713415000,2.513414794921875,-10.824420683366059,2.977211976236105,3.6334728219658134
1761838771723484700,2.523484619140625,-12.193171042525767,1.038671286445111,4.343831753107905
1761838771733555000,2.533554931640625,-13.345410986614226,0.13694236370450816,3.8729987864434716
1761838771743624000,2.5436240234375,-13.838696023583411,0.927721286867559,1.486126154001057
1761838771753693700,2.553693603515625,-13.001836034119128,2.2176696197301147,-1.7950357435673474
1761838771763763000,2.563762939453125,-12.01362228462696,2.601946000447869,-4.1152673276275396
1761838771773832700,2.573832763671875,-11.29787055453062,1.6345158035263418,-4.662546112851798
1761838771783903000,2.583903076171875,-9.734818104976416,0.3467306400470435,-4.15406759840399
1761838771793971700,2.5939716796875,-7.420238263067603,-0.481579986128211,-3.2884897562384605
1761838771804042000,2.6040419921875,-5.2192760325103995,-1.1967745937984435,-2.2207982731446623
1761838771814112000,2.614112060546875,-3.3654058226585386,-1.6308168028779326,-1.2590046208053827
1761838771824180700,2.6241806640625,-2.2897306473344563,-1.8495147911213337,-0.42808921895921226
1761838771834251000,2.6342509765625,-1.8285218335837126,-1.7998475277632473,0.14613193372637032
1761838771844320800,2.64432080078125,-1.4629139129787683,-1.582539532573521,0.42926761508882044
1761838771854390000,2.65439013671875,-0.9945318465977907,-1.4406333998486398,0.6047036769717932
1761838771864459800,2.664459716796875,-0.47245559943020343,-1.3877772773213684,0.682086776381731
1761838771874529800,2.67452978515625,0.08239595913589,-1.3381963770724832,0.6901476255014538
1761838771884599000,2.68459912109375,0.531646039545536,-1.3691928422302007,0.856238205281645
1761838771894668800,2.694668701171875,0.8481424309790134,-1.4695233942463992,0.9677123748637735
1761838771904738800,2.70473876953125,1.1681529680132865,-1.5521762507528065,0.9714683663964271
1761838771914807800,2.714807861328125,1.3154337795138358,-1.5879045667380094,1.0105696659460663
1761838771924877800,2.7248779296875,1.4512170454442501,-1.7284598693758249,1.0606545701943337
1761838771934946800,2.73494677734375,1.6609627886861562,-1.9416899476021527,1.1168275621846318
1761838771945016800,2.745016845703125,1.873805328899622,-2.0723104239419103,1.2491720858380198
1761838771955086800,2.7550869140625,1.9951228471040725,-2.0781752243220803,1.493312996765226
1761838771965155800,2.76515576171875,2.118539967936277,-1.8944483039557933,1.6562020040251313
1761838771975225900,2.775225830078125,1.7480092039763926,-1.9098603926211595,1.569684142653644
1761838771985296000,2.7852958984375,1.4184966791033744,-1.4051672419309615,1.7125009604826569
1761838771995364900,2.79536474609375,1.580314550000429,-0.6378013521924615,1.8036827220119536
1761838772005434600,2.8054345703125,1.5379121630787849,-0.5684522138953209,1.9735668488562106
1761838772015505000,2.8155048828125,0.9118652538269758,-0.31740123131871223,1.9146973112583159
1761838772025574000,2.825573974609375,0.9336188204735517,0.46281975607872006,1.4387994624197482
1761838772035644000,2.835643798828125,1.4027069892972708,1.200422083455324,0.6684066260755062
1761838772045714000,2.8457138671875,1.0790677403718232,1.6767700141489505,0.09887596929371356
1761838772055783000,2.855782958984375,0.32639702320098873,1.7658105258658527,-0.12916560135632751
1761838772065853000,2.86585302734375,-0.15815233412683008,1.6403738819047808,-0.23460662825405595
1761838772075923000,2.8759228515625,-0.5825099653422832,1.749716884677112,-0.3616556758478284
1761838772085992000,2.885991943359375,-0.7777589811980724,1.8402859211355447,-0.47068303679972884
1761838772096062000,2.89606201171875,-0.9442238011181354,1.7366235943481325,-0.5026759656488895
1761838772106131700,2.906131591796875,-1.1386024638801813,1.7175871777057647,-0.5487850981339812
1761838772116201000,2.916200927734375,-1.1789976026326416,1.775439062693715,-0.713137163683772
1761838772126269700,2.926269775390625,-1.0303180302500725,1.7283061401188373,-0.9939733359321952
1761838772136339700,2.936339599609375,-0.8913426902800798,1.506696502212435,-1.3396484755769371
1761838772146408400,2.946408447265625,-0.6274643748342991,1.29189888240844,-1.817942571902275
1761838772156478700,2.956478759765625,-0.1459872645586729,1.263246788419783,-2.2956132756322623
1761838772166547500,2.96654736328125,0.20171032082438467,1.1561166393913327,-2.5574223835885523
1761838772176617700,2.97661767578125,0.31577275333404536,0.935521585354954,-2.517463590426743
1761838772186687700,2.986687744140625,0.39105040489733217,0.7127303364485502,-2.3151088342189787
1761838772196756500,2.996756591796875,0.4868517890512943,0.48925388175696133,-2.045743319533765
1761838772206826800,3.00682666015625,0.5536994659215212,0.17254852374792098,-1.6804890346720813
1761838772216896500,3.016896484375,0.7638795089274645,-0.2585468912899494,-1.3674293396890163
1761838772226965800,3.0269658203125,1.0609089833468197,-0.6737538323223591,-1.1526011786162853
1761838772237035500,3.037035400390625,1.22976625136137,-0.976124521639198,-0.992489965506643
1761838772247105500,3.04710546875,1.201489420425892,-1.2341374521829187,-0.837562146384269
1761838772257174500,3.057174560546875,0.9550877249598503,-1.4511531864278018,-0.76549162029922
1761838772267244500,3.06724462890625,0.9259668444156646,-1.6057297078944741,-0.7995217540644108
1761838772277314600,3.077314453125,0.9582704466491937,-1.6708154896587133,-0.8806370257399976
1761838772287383600,3.087383544921875,0.7821376346737146,-1.7084418943502009,-0.8802741837769746
1761838772297453600,3.09745361328125,0.686721450445056,-1.7453382312014698,-0.870012317481637
1761838772307523800,3.10752392578125,0.6494032349199056,-1.6217762950710952,-0.912259367711097
1761838772317592600,3.117592529296875,0.5790501802772283,-1.4254399223700165,-0.9710103934958576
1761838772327662600,3.12766259765625,0.6167383981585502,-1.267666942949593,-1.0529252911165357
1761838772337732600,3.137732666015625,0.6947919441759586,-1.1472643476329742,-1.1058845817573368
1761838772347801600,3.147801513671875,0.8261737602770328,-1.0524094505488872,-1.0493993089474738
1761838772357871600,3.15787158203125,0.9509148231893777,-1.0724272794440388,-0.8985184271283447
1761838772367941600,3.167941650390625,0.9825678525596856,-1.1016795312829315,-0.6833810539759695
1761838772378010600,3.1780107421875,1.0058587117761373,-1.0710556988298892,-0.4470611920632422
1761838772388080600,3.18808056640625,0.9803706347763538,-1.0499724326603115,-0.25644538896605373
1761838772398150700,3.198150634765625,0.6926140156149864,-0.9488486844398081,-0.11764438264966011
1761838772408219600,3.2082197265625,0.43304362649619577,-0.8278935698069632,-0.055709320001304144
1761838772418289700,3.21828955078125,0.25983459301292894,-0.6553954610720276,-0.03381196096986532
1761838772428359400,3.228359375,0.06201543440818786,-0.48451764701530337,-0.05539543174654245
1761838772438428700,3.2384287109375,-0.11760054350793361,-0.3688246906943619,-0.12201412216648459
1761838772448498700,3.248498779296875,-0.2885322797089815,-0.2599384917788207,-0.18218992005735635
1761838772458567700,3.258567626953125,-0.6257645851790905,-0.14651421104222534,-0.21018661887720225
1761838772468637700,3.2686376953125,-0.9942202964305877,-0.02325155011937022,-0.22966800280809402
1761838772478707500,3.27870751953125,-1.1580898391604424,0.17482962042242287,-0.28979718507826324
1761838772488776700,3.288776611328125,-1.4029144945681093,0.3897149185098707,-0.25780805562138553
1761838772498846500,3.298846435546875,-1.6606038922458886,0.5102902400448918,-0.23559563929140567
1761838772508916700,3.308916748046875,-1.7963778058260678,0.6409609852671623,-0.2715671163827181
1761838772518985500,3.3189853515625,-1.798477408453822,0.6917625133521854,-0.37390886209085583
1761838772529055500,3.329055419921875,-1.668197416114807,0.6622387510955333,-0.5023639770902693
1761838772539125800,3.339125732421875,-1.5072323626548052,0.6506739855080843,-0.663087038487941
1761838772549194500,3.349194580078125,-1.372582484668493,0.6122140526019036,-0.7417395733118057
1761838772559264800,3.3592646484375,-1.183564472156763,0.534517357198149,-0.7788415157377719
1761838772569334500,3.36933447265625,-0.8801987804532051,0.4688062831424176,-0.797213623252511
1761838772579403500,3.379403564453125,-0.5584376003593207,0.3450258819557726,-0.7921326667264104
1761838772589473800,3.389473876953125,-0.2955646625638008,0.17262684968113898,-0.814795895563811
1761838772599543600,3.39954345703125,-0.07492109321057797,0.041187165912985796,-0.8675780760720372
1761838772609612800,3.40961279296875,0.11760872681438922,-0.007109101352840662,-0.9180927500396966
1761838772619682600,3.4196826171875,0.3545142796605825,0.031126959669589994,-0.9530039044231176
1761838772629752600,3.429752685546875,0.5510480746299028,0.02520736036226153,-0.8980800357110797
1761838772639821600,3.439821533203125,0.7005413014829158,-0.017117577408999204,-0.7603251774467528
1761838772649891600,3.4498916015625,0.6799164466053247,-0.05535276164859533,-0.5039794494628906
1761838772659961600,3.459961669921875,0.7833604544669389,-0.059629708315432066,-0.2500216395288706
1761838772670030600,3.470030517578125,0.9754401926368474,-0.013142390167713165,-0.011308744999766349
1761838772680100600,3.4801005859375,1.0173691168278456,-0.06217201320938766,0.25673063564822074
1761838772690170600,3.490170654296875,0.9563485386759042,-0.15640183719769118,0.5803047103829682
1761838772700239600,3.500239501953125,0.9763777657479047,-0.18834588540382682,0.8780904099971055
1761838772710309600,3.5103095703125,1.154658695667982,-0.15672968091256917,1.047410473217815
1761838772720379600,3.520379638671875,1.5028203914314509,-0.06806129044368862,1.1028785318091512
1761838772730448600,3.53044873046875,1.8401245930939911,-0.023948007950931785,1.0829331836283207
1761838772740518700,3.5405185546875,1.967365071606636,-0.10409991448707878,1.1329860853031277
1761838772750588700,3.550588623046875,2.137031902438402,-0.23180917955525218,1.2133788879230618
1761838772760657700,3.56065771484375,2.278628823083639,-0.336426542045176,1.2724325499162077
1761838772770727700,3.570727783203125,2.2886334997475144,-0.5220098308678716,1.3487354528740048
1761838772780797700,3.580797607421875,2.450693947228789,-0.7392311706874519,1.3754741144567728
1761838772790866700,3.59086669921875,2.732227746352553,-0.922727935559675,1.2963625838190316
1761838772800936700,3.600936767578125,3.0122540635228154,-1.0599977137207985,1.1641864024698734
1761838772811006500,3.61100634765625,3.2566759833484884,-1.185634556429088,1.0009750313878059
1761838772821075700,3.62107568359375,3.556885256847739,-1.2828987066119908,0.8085401961699128
1761838772831145500,3.6311455078125,3.936677185627818,-1.3871042003653942,0.6085162209972739
1761838772841214700,3.641214599609375,4.324959294855594,-1.5438792547896503,0.49670302871912714
1761838772851284500,3.651284423828125,4.607781964746117,-1.7182921111047267,0.509310873618722
1761838772861354500,3.6613544921875,4.787969605070352,-1.8116300277546047,0.5421379152044653
1761838772871423700,3.671423828125,4.876969492515921,-1.8802347774252295,0.6349006623148917
1761838772881493500,3.681493408203125,4.794797989785671,-1.8955046811409293,0.8596642342075705
1761838772891563800,3.691563720703125,4.717670326441526,-1.9307747319646178,1.1338175676912068
1761838772901632500,3.701632568359375,4.7555175342768425,-1.9282173025667666,1.4446465810127556
1761838772911702500,3.71170263671875,4.826874213004112,-1.8700373546682296,1.7658068726040421
1761838772921772800,3.721772705078125,4.7812739068239924,-1.7397680298537015,2.0697548942402
1761838772931841500,3.731841552734375,4.7156046260833735,-1.572891998784244,2.4279557534590364
1761838772941911800,3.741911865234375,4.459437907928228,-1.3631919943802058,2.841444784657657
1761838772951981600,3.751981689453125,3.9123488000571727,-1.0774215805999934,3.297165230125189
1761838772962050600,3.762050537109375,3.1516385688155886,-0.7694375814460217,3.933402109479904
1761838772972120600,3.77212060546875,1.8014648998320102,-0.4211006752461195,4.836395490065216
1761838772982190600,3.782190673828125,0.37863340639472004,0.5624992968402802,5.877762737596035
1761838772992259600,3.792259521484375,-0.7504226459830999,1.4729618442624806,6.396122010067105
1761838773002329600,3.80232958984375,-2.3953064065277574,1.6404766116268932,7.007752271431684
1761838773012399600,3.812399658203125,-3.419744146567583,2.369875904934108,7.507941680961847
1761838773022468600,3.822468505859375,-3.3844027840733526,3.0904782899320122,7.457662277054786
1761838773032538600,3.83253857421875,-4.052828114849329,2.5551117685586213,6.908184812742471
1761838773042608400,3.8426083984375,-4.852481532469391,2.1284515594892204,5.68455721026659
1761838773052677600,3.852677734375,-5.549749511370062,1.3440461260139942,4.066777729746699
1761838773062747600,3.86274755859375,-7.143105913773178,-0.2937338669400662,2.3293580165848136
1761838773072817700,3.872817626953125,-10.23595327092409,-2.156630190747231,0.32184885837733745
1761838773082886700,3.88288671875,-13.98098034197092,-3.3327950541719793,-2.0409198449000714
1761838773092956400,3.892956298828125,-17.978180677622557,-3.02932064139694,-4.717049564194679
1761838773103026700,3.903026611328125,-21.39856078400612,-1.6747170271418987,-7.425977683502436
1761838773113095400,3.913095458984375,-24.07621815125942,-0.14592691267356275,-9.944690689468382
1761838773123166500,3.92316650390625,-26.159066043567655,1.2440040355503559,-11.574017399919033
1761838773133236700,3.93323681640625,-26.336489479875564,2.6129128001421686,-12.350377035713196
1761838773143305500,3.943305419921875,-25.3394284070611,3.3959219569534063,-12.47381169220209
1761838773153375700,3.953375732421875,-23.4365244094491,3.6023715812593697,-11.89834638467431
1761838773163445500,3.963445556640625,-20.607372996914386,3.6879251276433465,-11.24846793345809
1761838773173514500,3.973514404296875,-17.221118447494504,4.221474370461702,-10.75561894981861
1761838773183584500,3.98358447265625,-13.773621201604604,5.135635041749477,-10.418064572787284
1761838773193654500,3.993654541015625,-10.472048676431179,5.6898161537081,-10.49388641422987
1761838773203723800,4.003723876953125,-6.611020898288488,6.354542629966139,-10.64599420749545
1761838773213791500,4.01379150390625,-2.6545307586878537,7.016236606660485,-10.60723806812167
1761838773223860500,4.023860595703125,0.3793114517867565,6.506754468128085,-10.045524222570657
1761838773233930500,4.033930419921875,2.544865684354305,4.518488062790036,-8.844590682461858
1761838773244000800,4.044000732421875,4.084790356299281,1.9813157094173133,-7.6367258817851535
1761838773254070500,4.054070556640625,5.014503401505947,-0.2233762091875076,-6.55555210904479
1761838773264139800,4.064139892578125,5.323251955291629,-1.9032362983062863,-5.92247457050383
1761838773274209500,4.07420947265625,5.730158100968599,-1.7790122450053691,-5.905128883427381
1761838773284279600,4.084279541015625,6.195926185458898,-0.08822824548594653,-6.342485112425685
1761838773294348500,4.0943486328125,6.961895360141992,1.6492387408837674,-6.458956359642744
1761838773304418600,4.10441845703125,7.050604155686497,2.892459517101943,-5.784995606571435
1761838773314487600,4.114487548828125,5.794853568241,1.7853456858105956,-4.146539248725771
1761838773324557600,4.1245576171875,2.9868209315806626,-1.8617460577934979,-1.91137927275151
1761838773334627600,4.134627685546875,1.1051795022279023,-2.28383954346925,-1.9584147263012825
1761838773344696600,4.144696533203125,2.425464813426137,0.10725925530083477,-3.7984786752492186
1761838773354766600,4.1547666015625,4.563237889620662,2.0393892743319273,-5.426033699852228
1761838773364836400,4.16483642578125,6.4617123803526155,2.437984687781334,-5.947880814439058
1761838773374905600,4.174905517578125,7.475435834154486,1.478989141727984,-4.83013263027817
1761838773384975600,4.1849755859375,7.882776864117384,0.8271727812517434,-3.27769188337028
1761838773395045600,4.195045654296875,8.955188653731346,1.17747353487052,-2.169490695233643
1761838773405114600,4.205114501953125,10.57875899261236,2.268524777698517,-1.3964219176784156
1761838773415184400,4.215184326171875,11.963034253162144,3.265245366512239,-0.5598506820276379
1761838773425254700,4.225254638671875,12.921631447547673,3.4819840373814106,0.2523844231374562
1761838773435323400,4.235323486328125,13.651893349033593,3.170217012557387,0.9977873412624001
1761838773445393700,4.2453935546875,14.043394420307873,2.728948286290467,1.4515291801333428
1761838773455463700,4.255463623046875,14.148608360451458,2.180618822969496,1.6370855078838764
1761838773465532400,4.265532470703125,13.903739281380176,1.698141157349199,1.5935127620086074
1761838773475602700,4.275602783203125,13.344923495358229,1.778130201473832,1.1386547785893082
1761838773485672400,4.28567236328125,13.094122688150405,1.8154263512976467,0.5867606815893203
1761838773495741700,4.29574169921875,12.562543284100293,2.5254578040510416,0.24573928603455422
1761838773505811500,4.3058115234375,9.558273205068707,3.2321924072161314,-0.18985775127150117
1761838773515881500,4.315881591796875,9.474329431968927,3.0981133148550986,0.7875614863533527
1761838773525950700,4.32595068359375,10.743318271172045,2.9577766234040257,1.9703338582843541
1761838773536020500,4.3360205078125,11.373137100178003,2.45804080286026,2.615480604803562
1761838773546090500,4.346090576171875,11.439530603539943,2.0701178823336956,3.4174694796338674
1761838773556159500,4.356159423828125,11.363907499539852,1.7058976166948676,3.880148365937173
1761838773566229500,4.3662294921875,11.024264041274785,1.816299188609421,3.899348448708653
1761838773576299800,4.3762998046875,10.97834049448967,2.0316195171132683,3.801723648519814
1761838773586368500,4.386368408203125,10.728307749044895,2.334795823724568,3.6926845971301194
1761838773596438500,4.3964384765625,10.251113430655002,2.755061801712215,3.541162787058949
1761838773606508500,4.406508544921875,9.73600059275925,2.817295262785256,3.5138124233186243
1761838773616577500,4.41657763671875,8.965093961673974,2.6012042421698567,3.4845173552513122
1761838773626647600,4.4266474609375,7.848140435022115,2.425026860400289,3.333192821317911
1761838773636717600,4.436717529296875,6.832295751282572,2.121101635117829,3.1056127306997774
1761838773646786600,4.44678662109375,5.7884448702424764,2.0064824455082415,2.864436953188479
1761838773656856600,4.456856689453125,4.50391476303637,2.224155766879022,2.598626500636339
1761838773666926600,4.466926513671875,3.243545283618569,2.4193381472393867,2.524813368667662
1761838773676995600,4.47699560546875,2.1977572970360515,2.3725492157965897,3.0789684694021937
1761838773687065600,4.487065673828125,1.061719715207815,1.7336279196634887,4.372000447493791
1761838773697135600,4.497135498046875,-0.40047991202175615,0.16287329823412,6.472200456619262
1761838773707204600,4.50720458984375,-3.3882641356766223,-1.5897896498322486,8.316925821506977
1761838773717274600,4.517274658203125,-7.088275422433019,-2.330751809030771,8.936651711043716
1761838773727344600,4.5273447265625,-9.426527231830358,-2.0780086355835197,8.104815102699398
1761838773737413600,4.53741357421875,-11.842088490879535,0.6512609185505658,4.002980380357801
1761838773747483400,4.5474833984375,-12.303043622130154,2.474650284616649,-0.024108313079178333
1761838773757553700,4.5575537109375,-11.596671130275725,1.6805223524197934,-2.678307355594635
1761838773767622400,4.567622314453125,-11.398578999948501,1.5923577467545866,-4.261402768485248
1761838773777692700,4.577692626953125,-11.58082824897766,2.906465830622613,-4.871990535059571
1761838773787762700,4.5877626953125,-12.578839754384756,4.430011322435736,-4.0888106978565455
1761838773797831400,4.59783154296875,-13.59648885719776,3.4556720767781135,-2.9547856248944995
1761838773807901700,4.607901611328125,-14.495841250932216,1.7382932811260223,-3.0661060652196404
1761838773817971500,4.617971435546875,-14.814977343219518,0.5322744005769491,-3.435905884556472
1761838773828040700,4.628040771484375,-14.861852491641043,0.2231039681173861,-3.7703058892101047
1761838773838110700,4.63811083984375,-15.26774098470807,-0.35602687618061896,-4.273536566132306
1761838773848180500,4.648180419921875,-15.49309170883894,-0.952787777454406,-4.746919217279554
1761838773858250500,4.65825048828125,-15.05802037590742,-1.4107612625457346,-4.8443446955040095
1761838773868320500,4.668320556640625,-14.228172311031818,-1.7586682528957724,-4.463921483083069
1761838773878389500,4.678389404296875,-12.85600717499256,-1.7160400943942367,-3.760443543626368
1761838773888459800,4.688459716796875,-11.063629252457618,-1.5490490586429833,-2.825501073333621
1761838773898529500,4.698529541015625,-9.190630563765763,-1.5424062596276402,-1.8694982793554662
1761838773908599600,4.708599609375,-7.4086121226817365,-1.6929671157121657,-0.9761554282341152
1761838773918668500,4.71866845703125,-6.059549629810452,-1.6500382206983863,-0.4715345390625298
1761838773928738600,4.728738525390625,-4.8629742849111555,-1.52967800321877,-0.2972515927374363
1761838773938808600,4.73880859375,-3.4156700289964674,-1.5453918513096867,-0.43044769171886144
1761838773948877600,4.748877685546875,-2.0561171217709777,-1.4908913225762546,-0.7087178128715604
1761838773958947600,4.758947509765625,-1.529592078500986,-1.2363527901448308,-0.6142864749617875
1761838773969017600,4.769017578125,-1.7588579302489757,-0.9550906475692987,-0.6155692813139408
1761838773979086600,4.779086669921875,-1.5523621287137268,-0.46647447919398544,-0.8779531934835016
1761838773989156600,4.789156494140625,-1.188589022320509,0.1774794042788446,-1.0106939499128609
1761838773999226600,4.7992265625,-0.8232149104714394,0.48789764484241605,-1.021239090128988
1761838774009295400,4.80929541015625,-0.3174152598440647,0.60839288687855,-0.9682260965395718
1761838774019365600,4.81936572265625,0.3100695732563734,0.5954832825534045,-0.7682263059601188
1761838774029435600,4.829435546875,1.1063520531386137,0.4435599059440195,-0.5768261475522071
1761838774039504600,4.839504638671875,2.0366823534607885,0.33755145442187784,-0.4128521580671891
1761838774049574700,4.84957470703125,3.011104308965802,0.28590996838137506,-0.17494203128833322
1761838774059644400,4.85964453125,3.855448516705632,0.1967849932514131,0.050176505221589465
1761838774069713700,4.869713623046875,4.542674409541488,0.12198226572349667,0.2651266715390608
1761838774079783700,4.87978369140625,5.073600318118929,0.08855119382999836,0.4533121787494048
1761838774089853400,4.889853515625,5.460875880652666,0.08935827242918312,0.6403329164966941
1761838774099922700,4.899922607421875,5.738936450707912,0.23148325380282475,0.8479574298009276
1761838774109992400,4.909992431640625,5.722473976206779,0.46282731833066787,0.998056951984018
1761838774120062500,4.9200625,5.6093771738588805,0.5822412314034998,1.1258529454875736
1761838774130131000,4.930130859375,5.7113797507405275,0.8023634072311222,1.1031144594568758
1761838774140201200,4.940201171875,5.923951657319068,1.171880829429999,1.0008183795213699
1761838774150271200,4.950271240234375,6.184636145159602,1.380442696649581,1.028185402135551
1761838774160340000,4.960340087890625,6.209336286652087,1.4441232877910137,1.2158138599850237
1761838774170410200,4.97041015625,5.829806808200479,1.479741567530483,1.4471538876585661
1761838774180480000,4.98047998046875,5.193714890274405,1.2626700114451348,1.7247247745007275
1761838774190549200,4.99054931640625,4.205753654238581,0.8507229489915072,1.8302303910672664
1761838774200619300,5.000619384765625,3.639326224169135,0.7565100030727684,1.580407050589472
1761838774210689000,5.01068896484375,3.545298279428482,1.2486667666643858,1.0242233666367828
1761838774220758300,5.02075830078125,3.2575504280954597,1.7701814344264566,0.3177197226833552
1761838774230828000,5.030828125,2.913719455012679,2.0249369706094265,-0.3115248866312206
1761838774240898000,5.04089794921875,2.4795336727440356,2.22899940751791,-0.7647975005552172
1761838774250967000,5.050967041015625,1.735046846550703,2.4335807537339624,-0.9624306350685655
1761838774261037000,5.061037109375,0.8959235883295535,2.568730544066429,-1.005131858806312
1761838774271107000,5.071107177734375,0.011382979279756546,2.705763225536048,-1.0723889932602644
1761838774281176000,5.081176025390625,-0.9006406799793243,2.864465887022018,-1.0910400638468563
1761838774291246000,5.09124609375,-1.3277514092952012,3.044775400160253,-1.1192815312080084
1761838774301316000,5.101316162109375,-1.587688878160715,3.011602321615815,-0.9661528704620898
1761838774311385000,5.111385009765625,-1.9769711043417453,2.5445167247861624,-0.7013654773473739
1761838774321455000,5.121455078125,-2.3699463398218152,1.9626332207791506,-0.3904891908179968
1761838774331525000,5.131525146484375,-2.443392684304714,1.3399680629201232,-0.2290880109630525
1761838774341594000,5.141593994140625,-2.2182301762223244,0.7968725547298788,-0.19612061105854808
1761838774351664000,5.1516640625,-2.140702699905634,0.29442404116131365,-0.2247162256196141
1761838774361734100,5.161734130859375,-2.0499206052184102,-0.22158866818360984,-0.33333836677148937
1761838774371803100,5.17180322265625,-2.0494185009151695,-0.6173132754370569,-0.537558880318515
1761838774381873200,5.181873046875,-2.0094313584417103,-0.8018380681827664,-1.016315369991213
1761838774391943200,5.191943115234375,-1.6509925988137721,-0.8499336252447217,-1.6089374178946017
1761838774402012200,5.20201220703125,-1.3560305783182383,-0.8252572299540042,-2.1136457661539314
1761838774412082200,5.212082275390625,-1.1976309914320706,-0.8233067534733564,-2.4276031406290826
1761838774422152000,5.22215185546875,-0.9938397726804017,-0.8917787436097859,-2.535559511348605
1761838774432221200,5.23222119140625,-0.6518301698058844,-1.0173700666759162,-2.4010322368286547
1761838774442291000,5.242291015625,-0.4184329173415899,-1.190692059014365,-2.0805277787975966
1761838774452361200,5.252361328125,-0.1657201390326023,-1.2192195037100464,-1.7627148979380727
1761838774462430000,5.262429931640625,0.23667642026543617,-1.1082107596825808,-1.4549164844840765
1761838774472500000,5.2725,0.5851473281085491,-1.0295525257702915,-1.1410754298649728
1761838774482570200,5.2825703125,0.8572726628959179,-0.9552454728048294,-0.8141663654886185
1761838774492639000,5.292638916015625,1.03024788762331,-0.8862683096252382,-0.47350068803634493
1761838774502709200,5.302709228515625,1.0328203684598207,-0.7664961942318826,-0.12780662449542432
1761838774512779000,5.312779052734375,1.0346820706784725,-0.6287998612217605,0.12363993327002971
1761838774522848300,5.32284814453125,0.9491524896919726,-0.4767117955699563,0.33419417988322675
1761838774532918300,5.332918212890625,0.8451514324694871,-0.3902615926072001,0.48318574082441623
1761838774542988000,5.342988037109375,0.7943705087810754,-0.30010259825438257,0.5725796325562521
1761838774553058000,5.35305810546875,0.7179840191930532,-0.22433497121706603,0.6584529489465057
1761838774563127000,5.363126953125,0.6806722334086894,-0.18912936393171548,0.7205490473754703
1761838774573197000,5.373197021484375,0.5675935512393713,-0.18794073866903782,0.7733905568554997
1761838774583267300,5.383267333984375,0.415756391608715,-0.21780220844745635,0.8204726260259747
1761838774593336000,5.393336181640625,0.4300549660742283,-0.21061244307383895,0.793187509541586
1761838774603406000,5.403406005859375,0.4537696036607027,-0.22103856002017855,0.7964497992731631
1761838774613476000,5.41347607421875,0.3584194704055786,-0.2784592139840126,0.7964883777178824
1761838774623545000,5.423545166015625,0.30204291866719724,-0.3060981854073703,0.7681570401161909
1761838774633615000,5.433614990234375,0.26402503044009207,-0.2789567882426083,0.739427350846678
1761838774643685000,5.44368505859375,0.22060265282094477,-0.26795930114910005,0.7419459095388651
1761838774653754000,5.453754150390625,0.2707815189629793,-0.24609102208167313,0.7554551602575927
1761838774663824100,5.46382421875,0.4131780655533075,-0.1767423221759498,0.7991990249160676
1761838774673894100,5.47389404296875,0.5036071090191603,-0.11375687369182705,0.8649565684620291
1761838774683963100,5.483963134765625,0.6469061574071645,-0.15712182203531264,0.9071787765111774
1761838774694033200,5.494033203125,0.8380302022874355,-0.20730843309238553,0.8477236941102891
1761838774704103000,5.50410302734375,0.8676689692258834,-0.25290771635919806,0.8100967048969119
1761838774714172200,5.514172119140625,0.8863666554331779,-0.3109298433475196,0.7564924674160778
1761838774724242200,5.5242421875,0.9984428825616836,-0.24567323506101965,0.6526265808805823
1761838774734312000,5.53431201171875,1.0765800152093172,-0.1378666480757296,0.6209094732981175
1761838774744381200,5.544381103515625,1.1955033317536115,-0.12819792536795138,0.6516043982259929
1761838774754451000,5.554450927734375,1.3594172981470822,-0.15245836026892065,0.7237359337832778
1761838774764521200,5.564521240234375,1.5614830082803963,-0.1822759909056127,0.7979903067134321
1761838774774590000,5.57458984375,1.7966718203365801,-0.1760677839152515,0.8550820209838449
1761838774784660200,5.58466015625,2.016123549556732,-0.2101503785200417,0.9189386993445455
1761838774794730200,5.594730224609375,2.1699317169994115,-0.2700185717664659,0.9896355259235948
1761838774804799000,5.604799072265625,2.2684482053309676,-0.3416496104557067,1.070030082109198
1761838774814869200,5.614869140625,2.3757301839202642,-0.40377310834825036,1.1269525042273103
1761838774824939000,5.62493896484375,2.5125410393327474,-0.47004963426701724,1.1482677525218576
1761838774835008300,5.63500830078125,2.6568454653710125,-0.5464093819785862,1.1574851512655615
1761838774845078000,5.645078125,2.7634412152618166,-0.5365331539999694,1.0901616005118935
1761838774855148000,5.65514794921875,2.878811807760596,-0.4298256142977625,0.975418200000748
1761838774865217300,5.66521728515625,3.090242143088579,-0.3423160019425675,0.8268327356424182
1761838774875287000,5.675287109375,3.368333108282089,-0.2357929884944111,0.605642492191866
1761838774885357000,5.685357177734375,3.7327211317032574,-0.13991147004263474,0.4432249018359929
1761838774895426000,5.695426025390625,4.102496693381667,-0.129061620392045,0.2842326097536832
1761838774905496000,5.70549609375,4.45650477708578,-0.12603756899628787,0.21123225547261534
1761838774915566000,5.715566162109375,4.635346263498068,-0.1981939467338845,0.33619989368245
1761838774925635000,5.725635009765625,4.603906584617495,-0.3123785808511078,0.42586847416982054
1761838774935705000,5.735705078125,4.507294468602538,-0.2363892373545095,0.4582335973322391
1761838774945775000,5.745775146484375,4.72327589136362,0.08136354734823108,0.4176587911639362
1761838774955845000,5.75584521484375,5.176441683912277,0.36032924954965706,0.4398436618998646
1761838774965914000,5.7659140625,5.3449172591328615,0.6114706868886948,0.5433803895462304
1761838774975984000,5.775984130859375,5.4407794335633515,0.8086910028174519,0.6587042202938348
1761838774986054100,5.78605419921875,5.627139625042677,0.876519215157628,0.8990981997776776
1761838774996123100,5.796123046875,5.588998987218737,0.960945364946872,1.2033869976755232
1761838775006193200,5.806193115234375,5.3256566783457995,0.886429053144902,1.8694599931716918
1761838775016263000,5.816262939453125,4.801578443706036,0.49034087327606973,2.640395265829563
1761838775026332200,5.826332275390625,3.9193057795882225,0.5322916439726948,3.1059654896602034
1761838775036402200,5.836402099609375,3.1929175046652554,0.9069248748153448,3.489778636780381
1761838775046472200,5.84647216796875,2.0428163261711596,0.6587300853874534,4.017631129261851
1761838775056541200,5.856541259765625,-1.4465724345088005,0.5893222391730174,4.3888799783632155
1761838775066611000,5.86661083984375,-4.525447964930534,1.4377695348501205,4.289910777828097
1761838775076681200,5.87668115234375,-6.45946664725244,1.2484919946193693,4.704701247014105
1761838775086750000,5.88675,-9.486386364987492,-1.1994530922926963,5.141964244771003
1761838775096820200,5.8968203125,-12.166138074171542,-3.1668329230770467,4.198456190706789
1761838775106890200,5.90689013671875,-13.663524165594577,-3.4762253277242183,1.5122782478675245
1761838775116959000,5.916958984375,-15.285522140592336,-3.579323590888083,-1.289651395742595
1761838775127029200,5.927029296875,-17.091804669839142,-3.8391561380743977,-3.1033591065540906
1761838775137102000,5.93710205078125,-19.397001181852815,-3.895989785930514,-3.2531998316705226
1761838775147171300,5.94717138671875,-22.06889750136137,-4.0436487830936905,-2.0801105762988326
1761838775157241000,5.957240966796875,-24.01029109636545,-3.7680467121064662,-0.5903442391645163
1761838775167311000,5.96731103515625,-24.95549338712692,-3.0336069404140114,0.4876363635577261
1761838775177380000,5.977380126953125,-25.099458790469168,-2.478270228679478,0.9456449199624359
1761838775187450000,5.9874501953125,-24.29595629620552,-1.7102639952108263,0.9184745889641344
1761838775197520400,5.997520263671875,-23.017267900764942,-0.5140742886282503,0.4229886809498071
1761838775207589000,6.007589111328125,-20.63989111868143,0.869623464294523,-0.7005166054330766
1761838775217659100,6.0176591796875,-17.525975839060543,1.973786336825788,-1.855981210656464
1761838775227729200,6.027729248046875,-14.137631039363145,2.7292583751529453,-2.5337735047146674
1761838775237798100,6.037798095703125,-10.312637866675853,2.903732314005494,-2.7780142227545377
1761838775247868400,6.047868408203125,-6.4957701327770945,2.4405932628445326,-2.679941094276309
1761838775257938200,6.057938232421875,-3.3383781150013205,2.0129908044889566,-2.5046593461722133
1761838775268007200,6.068007080078125,-0.7408645440429449,2.0575056535199283,-2.4554192221850157
1761838775278077200,6.0780771484375,1.6986527601331471,2.4381249730348586,-2.3774684058897195
1761838775288147200,6.088147216796875,3.7424727103888986,2.8458117476955054,-2.1338877591937777
1761838775298217200,6.09821728515625,5.1742935659676785,3.0265812795609235,-1.8181655670031904
1761838775308286200,6.1082861328125,5.673001797029376,2.7075089001595973,-1.5677328624553977
1761838775318356200,6.118356201171875,5.659384775087237,1.9164517537102101,-1.811336305505037
1761838775328426200,6.12842626953125,5.285126515036821,1.4614226515077053,-2.446199266158044
1761838775338495200,6.1384951171875,5.214581737214327,1.8214792215958238,-3.4837966397613287
1761838775348565000,6.14856494140625,5.29478807735145,2.8762957332864403,-4.663333463837206
1761838775358635300,6.15863525390625,5.165874697190523,3.7356133460134266,-5.351980037125945
1761838775368704000,6.1687041015625,4.906169283515214,4.122197711412609,-5.223973250415921
1761838775378774300,6.178774169921875,5.293178304067253,4.001823319277167,-4.26594011965394
1761838775388844300,6.18884423828125,6.181454592514037,4.07969186411649,-2.9322493834376333
1761838775398913000,6.1989130859375,6.926593160614371,4.361452165472508,-1.3369360017478464
1761838775408983300,6.2089833984375,7.52242613338828,3.235852975550294,0.04090425731837749
1761838775419053000,6.219052978515625,7.5063845146477215,1.3855252606108783,1.5197098591729998
1761838775429122300,6.229122314453125,7.688824902334809,0.5674217748690397,2.2759213176906106
1761838775439192300,6.2391923828125,8.481707802906632,-0.17272333232555537,2.18217832737118
1761838775449262000,6.249261962890625,9.332425052809715,-0.12672664723899216,1.705775451619923
1761838775459331300,6.259331298828125,10.327643712627887,0.5087680719789117,0.7114838435187936
1761838775469401000,6.269401123046875,11.455952161508797,0.7900634592369198,-0.2182562358252704
1761838775479471000,6.27947119140625,12.12391805807948,0.6222887257620692,-0.9882678177669644
1761838775489540000,6.2895400390625,12.540526682603359,0.2222486664623022,-1.6257783703193067
1761838775499610000,6.299610107421875,12.52260290337801,0.004103635926544666,-2.1788930220901963
1761838775509680400,6.309680419921875,12.19697043480873,-0.023066256680339573,-2.708249781654775
1761838775519749000,6.3197490234375,11.687662483799457,-0.16510010743811726,-3.177332689781487
1761838775529819100,6.329819091796875,11.031730723893642,-0.1507723068781197,-3.6181080795735117
1761838775539889200,6.33988916015625,10.376917738884687,-0.1682518494673073,-4.519375074757635
1761838775549959200,6.349959228515625,9.09764774416387,-0.9587542846433817,-5.486749157577753
1761838775560028200,6.360028076171875,7.844387804490327,-0.906175663883239,-5.9833858430624005
1761838775570098200,6.37009814453125,9.264688318145275,-1.0015468399263918,-5.813685109961033
1761838775580168200,6.380168212890625,10.99342466637492,-1.207533669026196,-5.342574495398998
1761838775590237200,6.3902373046875,11.947724455827474,-0.4242980099827051,-4.9459378148019315
1761838775600307200,6.40030712890625,12.417419358372687,0.40430268518030643,-4.30049939185977
1761838775610377200,6.410377197265625,11.926311080920696,0.5547071816593409,-3.3429531678318973
1761838775620446200,6.4204462890625,11.052236920827626,0.04658025712817907,-2.0845684324905274
1761838775630516200,6.43051611328125,9.944641589629649,-0.481164098803699,-1.0008706211652607
1761838775640586200,6.440586181640625,8.795326593077183,-0.3048167672947049,-0.26269487781487405
1761838775650655200,6.4506552734375,7.718464838317036,0.24889964976161716,0.27455753037035463
1761838775660725000,6.46072509765625,6.64367287556827,0.7764426379024982,0.5869340653948486
1761838775670795300,6.470795166015625,5.551397863098979,1.4389729192905127,0.7119192392613738
1761838775680864000,6.480864013671875,4.5924885340243575,1.9688751839086411,0.5609686532068997
1761838775690934300,6.490934326171875,4.11616223064065,2.3278001196183262,0.4544467722699046
1761838775701004300,6.50100439453125,3.810481247732043,2.607267487731576,0.46507104213684797
1761838775711073300,6.5110732421875,3.7791555506199597,2.6615415142327548,0.7774578793596476
1761838775721143300,6.521143310546875,3.653091130149364,2.1985924326859414,1.5297648047193884
1761838775731213000,6.531213134765625,3.119265408477187,1.4747414211556316,2.7044547732859847
1761838775741282300,6.5412822265625,2.5594863303810356,0.7078826041564344,4.360025639800727
1761838775751352300,6.551352294921875,1.5138146636545657,-0.5923975914977491,6.365884692713618
1761838775761422000,6.561422119140625,-0.48789165349304675,-2.5266180800020694,8.45623433895409
1761838775771491300,6.5714912109375,-3.5781250287532806,-4.342717069864273,9.447097726172208
1761838775781561000,6.58156103515625,-6.0534904759019605,-4.465089942340552,9.30496304538846
1761838775791631000,6.591631103515625,-8.174415877670048,-3.9238276409268376,8.075672594845294
1761838775801701400,6.601701416015625,-9.926519072961806,-2.873132885341346,4.1072792514830825
1761838775811770000,6.61177001953125,-9.123709237137437,0.2505114688724279,-1.8446626749150454
1761838775821840400,6.62184033203125,-8.63227245838344,2.328970040180534,-5.2100271426498885
1761838775831910100,6.63191015625,-10.142476530325412,1.1818092990525066,-5.9705000580042595
1761838775841979400,6.6419794921875,-10.552563059604168,0.6674597006142139,-5.929272560080886
1761838775852049200,6.652049072265625,-10.828265668356417,0.8900245934188366,-5.079817877459526
1761838775862119200,6.662119140625,-11.06621985347271,-0.21024521719664335,-3.855441794703901
1761838775872188200,6.672188232421875,-11.533292590820789,-0.45333676520138977,-2.968509322081506
1761838775882258200,6.682258056640625,-11.986405776399373,0.19960224262923001,-2.240615172640234
1761838775892328200,6.692328125,-12.589993601083755,0.0854163664029911,-1.2655845837175845
1761838775902397200,6.702397216796875,-13.07096743801236,-0.4530650721205398,-0.48005613756179805
1761838775912467200,6.71246728515625,-13.181255028158425,-1.070165325861424,-0.07087116023264825
1761838775922537200,6.722537109375,-13.13344347566962,-1.6672195109933614,-0.058608256313204765
1761838775932606200,6.732606201171875,-12.749659262382984,-1.7860836446963249,-0.8509070733867585
1761838775942676200,6.74267626953125,-11.640928789675234,-1.4935454903468488,-1.9898289784796535
1761838775952746200,6.752746337890625,-11.085698460924625,-1.1817334573373197,-2.6087372680231926
1761838775962815200,6.762815185546875,-10.063970564365386,-0.9307390272535383,-2.901173569433391
1761838775972885200,6.77288525390625,-8.70422534943819,-0.737996368195489,-2.9126106169879433
1761838775982955300,6.782955322265625,-7.893965782129764,-0.5711066739268601,-2.63268863697499
1761838775993024000,6.79302392578125,-6.885917451354861,-0.3023131139107048,-2.4882953636094927
1761838776003094300,6.80309423828125,-5.5324342194318765,0.0024051614455878733,-2.2743055530570446
1761838776013164300,6.813164306640625,-4.478825329965352,0.10566519104242324,-1.6804761751905082
1761838776023233300,6.8232333984375,-3.6568648034691806,0.012199117968231438,-0.9570578559890389
1761838776033303300,6.83330322265625,-2.637804664814472,-0.14306962354630232,-0.40446521879825736
1761838776043373000,6.843373046875,-1.6383482212960718,-0.35738888524882495,-0.01515931948069483
1761838776053443000,6.853443115234375,-0.7707178305149078,-0.6303559315573424,0.20210637093726544
1761838776063512000,6.863511962890625,0.03804010005891323,-0.8396848376266658,0.243364154401049
1761838776073582000,6.87358203125,0.9366261855959892,-0.92452073726058,0.06916815570704639
1761838776083652400,6.88365234375,1.8379717989742754,-0.8483191027201712,-0.17483400433659552
1761838776093721000,6.89372119140625,2.5813942108064887,-0.8342465920954942,-0.3817506616324186
1761838776103791400,6.903791259765625,3.1043308741956945,-0.8921689119711518,-0.6387213896468281
1761838776113861000,6.913861083984375,3.3227088367044924,-0.741217741394788,-0.9843335470579564
1761838776123930000,6.92393017578125,3.381408278432488,-0.5468845252096652,-1.2925425871394574
1761838776133997600,6.93399755859375,3.6946786935567855,-0.5243989910267293,-1.557557651530206
1761838776144067600,6.944067626953125,3.9029157858014103,-0.5227797192618251,-1.4942862257115541
1761838776154136600,6.954136474609375,3.8627094476193187,-0.6324241891987621,-1.1780373062331229
1761838776164206600,6.96420654296875,3.937555137506127,-0.8990104484289884,-0.8283528578817844
1761838776174276600,6.974276611328125,4.1020466115266085,-1.2653335315659642,-0.48977388704307373
1761838776184345600,6.984345703125,4.132976002797484,-1.597347810126841,-0.202216078389436
1761838776194415600,6.99441552734375,4.161920942252874,-1.7235507622852921,-0.07532966487831436
1761838776204485600,7.004485595703125,4.432432996624708,-1.6485826150625944,-0.09244332416402175
1761838776214555400,7.014555419921875,4.668977314943075,-1.5105863492578266,-0.167240443935059
1761838776224624600,7.024624755859375,4.647063589298725,-1.2995695631667972,-0.24958500167727468
1761838776234694400,7.0346943359375,4.496085676845908,-1.0638454751901327,-0.3257331159321591
1761838776244764700,7.0447646484375,4.3490135396599765,-1.0016386098630725,-0.2524534880519844
1761838776254833400,7.05483349609375,4.217950287988781,-1.0704904661625623,-0.07466695861930493
1761838776264903400,7.0649033203125,3.951763695600629,-1.1895901621870695,0.17712470908965913
1761838776274973700,7.0749736328125,3.6882536289453505,-1.2727942228354512,0.4059024850597605
1761838776285042400,7.08504248046875,3.400045758885145,-1.2289961437717078,0.5954192043412476
1761838776295112700,7.09511279296875,2.8519273079663514,-1.1002305745836347,0.7477130216982215
1761838776305182500,7.105182373046875,2.4012235216170548,-1.0377018568910659,0.7893086222816258
1761838776315251700,7.115251708984375,1.8519295971781013,-0.8005953015800565,0.8306403842970729
1761838776325321700,7.12532177734375,1.1617542068868876,-0.3936407136514783,0.9385730818800627
1761838776335391500,7.1353916015625,0.5709510449737311,-0.20729666958935558,1.106320927347988
1761838776345460700,7.145460693359375,-0.472364998537302,-0.22256832687072456,1.4921785859078167
1761838776355530500,7.155530517578125,-1.723248856729269,-0.25414237272068857,1.83674649496302
1761838776365600500,7.1656005859375,-2.3701176047354937,-0.1720816368885338,1.9037275889545677
1761838776375670800,7.1756708984375,-2.854145568537712,0.08140738648995757,1.5842992357224226
1761838776385739500,7.185739501953125,-3.1874194917708634,0.621894611877948,0.8156737013116478
1761838776395809500,7.1958095703125,-2.948825839707255,1.1890581011369823,-0.055304173266515134
1761838776405879600,7.205879638671875,-2.440518590173125,1.5708885500073433,-0.7902133160363882
1761838776415948500,7.215948486328125,-2.0500129596769807,1.863321198155731,-1.285250530435145
1761838776426018600,7.2260185546875,-2.0106413187533616,2.116229352906346,-1.4197175992004571
1761838776436088600,7.236088623046875,-2.1461545355707408,2.2914393509484827,-1.1204920029763132
1761838776446157600,7.246157470703125,-2.1464532262563703,2.3822198382005095,-0.694855510931462
1761838776456227600,7.2562275390625,-1.8286311391770838,2.4363982953727246,-0.33618973761461673
1761838776466297600,7.266297607421875,-1.3855647158384323,2.4308194723270833,-0.0740896473551169
1761838776476366600,7.27636669921875,-0.854437731730938,2.338850505942851,0.103119196354039
1761838776486436600,7.2864365234375,-0.33006957423388955,2.081886499930173,0.2758845411904156
1761838776496506400,7.29650634765625,0.25061083759367464,1.6549550727039575,0.42119229905232786
1761838776506576600,7.30657666015625,0.6421545789659023,1.1917922753412276,0.5826602605331689
1761838776516645600,7.316645751953125,0.6513245583713054,0.7589033279500901,0.7891123690571635
1761838776526715400,7.32671533203125,0.7035808153092861,0.37178646310940383,0.9238787130299955
1761838776536785700,7.33678564453125,0.9878162746071815,0.10663213637843727,0.8662973155464977
1761838776546854400,7.3468544921875,1.2801917857408522,0.09668737320825457,0.5778829631287604
1761838776556924700,7.356924560546875,1.5063058954596518,0.09830138427615165,0.1629009899586439
1761838776566994700,7.36699462890625,1.6145324614226817,0.03311301892027259,-0.22697657176703212
1761838776577063700,7.377063720703125,1.5940426311016083,0.06472089397460222,-0.6451771416574716
1761838776587133700,7.3871337890625,1.4715607452929018,0.29623832404166456,-1.0320418583679944
1761838776597203500,7.397203369140625,1.2564409077972174,0.560609683701396,-1.2493050645679236
1761838776607272700,7.407272705078125,0.8601695533812046,0.669599489121884,-1.2141857473265378
1761838776617342500,7.417342529296875,0.4677408458679914,0.6607546500176191,-0.9058936320714652
1761838776627412500,7.42741259765625,0.27740649006068707,0.6241694249421358,-0.5532573481772095
1761838776637482800,7.437482666015625,0.26595862885117527,0.5726578488916159,-0.29100948347747324
1761838776647551500,7.447551513671875,0.32515257609784604,0.5132124111019074,-0.10495105142369866
1761838776657621500,7.45762158203125,0.3178770321369171,0.5094361074335872,-0.00043342298120260233
1761838776667691500,7.46769140625,0.35383448070287704,0.509924329341948,0.020202976203709838
1761838776677760500,7.477760498046875,0.3430085507839918,0.5336886512890457,-0.04149133649133146
1761838776687830800,7.487830810546875,0.35554011557698245,0.5591805276811123,-0.16467735198140143
1761838776697900500,7.497900634765625,0.3259539556086063,0.5899510751284659,-0.2570440855115652
1761838776707969800,7.5079697265625,0.29334757103621956,0.5786969829253852,-0.3070352470617741
1761838776718039600,7.51803955078125,0.3494184178262949,0.5652706612497568,-0.35287045797631145
1761838776728109600,7.528109619140625,0.3975023575156927,0.5438800826966762,-0.36583990272991357
1761838776738178600,7.538178466796875,0.43544075076580047,0.5183329689860343,-0.3373244407329708
1761838776748248600,7.54824853515625,0.4731044187277555,0.49118353464528913,-0.2785260686751455
1761838776758318600,7.558318603515625,0.46373862448930736,0.4467521261140704,-0.18219737271144984
1761838776768388600,7.568388671875,0.395858681961894,0.3758617497242987,-0.09630969900228083
1761838776778457600,7.57845751953125,0.30217911226749417,0.27492081072479485,-0.044837212853133676
1761838776788527600,7.588527587890625,0.29518764594495295,0.219696790022403,-0.00030497429594397545
1761838776798597600,7.59859765625,0.2656143454581499,0.20583456114754078,-0.031766134355962275
1761838776808666400,7.608666259765625,0.3656161039113998,0.1553385918803513,-0.08130019978843629
1761838776818736600,7.618736572265625,0.3903431334108114,0.09739859021753072,-0.09502740410678089
1761838776828806700,7.628806640625,0.4210305326193571,0.03859817233309149,-0.03099069300405681
1761838776838875600,7.638875732421875,0.5529886873036622,-0.031084143441170452,0.04442877818271517
1761838776848945700,7.648945556640625,0.7660346411347388,-0.03807049519717693,0.09571502104476094
1761838776859015400,7.659015380859375,1.0227835430920122,0.07661430699452758,0.10750504675544797
1761838776869084700,7.669084716796875,1.42292501693964,0.2284939905926585,0.08380546060763298
1761838776879154700,7.67915478515625,1.900524993520975,0.47365547673925756,0.05287442536894232
1761838776889224400,7.689224365234375,2.352794129490852,0.7310364660549908,0.08313238365165888
1761838776899294700,7.699294677734375,2.711131182309985,0.8537818251054734,0.1390614473508671
1761838776909363500,7.709363525390625,2.980606294849515,0.9141203392773866,0.24056071435287593
1761838776919433500,7.71943359375,3.2516677997976537,0.9171372759457677,0.4134790943264961
1761838776929503700,7.729503662109375,3.5043957756757735,0.8896347903836518,0.5366527252590283
1761838776939572500,7.739572509765625,3.787937407490611,0.8895501808401197,0.5762291680397466
1761838776949642800,7.749642822265625,4.141056433400512,0.9398726201713085,0.5054586186373606
1761838776959712500,7.75971240234375,4.501057035517692,1.0242794076729564,0.35995767629090697
1761838776969781800,7.76978173828125,4.81607984726727,1.1042805806268006,0.19504987655449657
1761838776979851500,7.7798515625,5.143640069028735,1.1546528504490852,-0.013405169289745389
1761838776989921500,7.789921630859375,5.560660196962952,1.1928933684509246,-0.25048070840798314
1761838776999990500,7.799990478515625,6.008403964462876,1.149321864684671,-0.46974929961357265
1761838777010060500,7.810060546875,6.395952498719096,1.1392963644284755,-0.6285938903208822
1761838777020130600,7.820130615234375,6.711423638758063,1.1009759861234576,-0.7986883719801903
1761838777030200600,7.83020068359375,6.9715598450660705,1.0244576137840746,-0.8534422909528017
1761838777040269600,7.84026953125,7.176302665454148,0.9795726893316954,-0.8737010889969765
1761838777050339600,7.850339599609375,7.235465048518776,0.9378426487136632,-0.841786193820089
1761838777060409600,7.86040966796875,7.0685261813461775,0.7586345209460705,-0.7476447057023644
1761838777070478600,7.870478515625,6.725394296443462,0.49784379625208675,-0.6292300693325698
1761838777080548600,7.880548583984375,6.251565655094385,0.11131700625903904,-0.4750102523490786
1761838777090618600,7.89061865234375,5.432834612038731,-0.5113512934051454,-0.08890088405050336
1761838777100687600,7.9006875,4.320629156696796,-1.4352281798042357,0.2423548312280327
1761838777110757600,7.910757568359375,2.9736487307965755,-2.2092772005684673,0.2820182216398418
1761838777120827600,7.92082763671875,1.7335224134624003,-2.6929253712728616,0.22415362330079078
1761838777130896400,7.930896484375,0.23218963024020195,-3.123077660241723,0.3394616719573736
1761838777140965400,7.94096533203125,-2.1864514746457338,-3.658015727069974,0.6838099469125271
1761838777151035600,7.95103564453125,-4.964830146798491,-4.1404035224497315,0.7506738442651927
1761838777161105400,7.96110546875,-7.860495474204421,-4.377165867432952,0.5868094161018729
1761838777171174400,7.97117431640625,-10.268681820571421,-4.1908293490901585,0.15524590862821785
1761838777181244400,7.981244384765625,-12.234501416301727,-3.867300867062807,-0.470810974028334
1761838777191314400,7.991314453125,-14.14486040609479,-3.2812837703824043,-1.0862785485334694
1761838777201383400,8.001383544921875,-15.704297003239393,-2.3472860335938632,-1.6511907517343758
1761838777211453400,8.011453369140625,-17.344751841425893,-1.6355835788883268,-1.929666040070355
1761838777221522400,8.0215224609375,-19.32367641792297,-0.9447980938747524,-2.0423054540395738
1761838777231592400,8.031592529296875,-21.347207028865814,0.10080927544385195,-2.492420042324066
1761838777241661400,8.041661376953124,-23.705128584372996,1.4347536941602825,-3.0588290599539874
1761838777251731500,8.0517314453125,-27.340976318776605,3.498242221482098,-3.849060861495137
1761838777261801500,8.061801513671876,-30.487965015959738,5.831417166006565,-4.593818905845284
1761838777271871200,8.071871337890625,-31.170317165279386,7.428738964909314,-4.968392807716131
1761838777281940500,8.0819404296875,-29.4016264078021,8.46576496836543,-5.326358689135312
1761838777292010500,8.092010498046875,-26.050120515680312,8.796684437426924,-5.30062686650753
1761838777302080500,8.10208056640625,-21.622979780244826,7.857111676985025,-5.079140416589379
1761838777312149500,8.1121494140625,-16.515808616435528,6.38706718147397,-5.225331679287552
1761838777322219300,8.12221923828125,-11.811616195726394,4.530810368746518,-5.304643700933456
1761838777332289500,8.13228955078125,-7.601780240610242,2.5903154761478304,-5.935311255723238
1761838777342358300,8.142358154296875,-3.595640811699629,0.1492695741649717,-7.39334967162013
1761838777352428500,8.152428466796875,-0.08194003206193447,-1.6797069443836807,-8.778684670355915
1761838777362498600,8.16249853515625,3.148818250697851,-2.2110728518135843,-9.756681561738253
1761838777372568300,8.172568359375,7.150397824347019,-2.179901030088961,-10.485843393027782
1761838777382637600,8.182637451171875,10.697501107370853,-1.4601716285333037,-10.088701685518025
1761838777392707300,8.192707275390624,11.964103928220272,-0.32903727204408495,-8.153319313627481
1761838777402777300,8.20277734375,11.299137797987461,1.3527141472466289,-5.317264113053679
1761838777412846300,8.212846435546876,10.067978046441077,2.557652685213089,-2.8582375140264626
1761838777422916400,8.222916259765626,8.681349500763416,3.2194512913256883,-0.9286967077709734
1761838777432986600,8.232986572265625,7.927078947180509,3.778345111019909,-0.021769421802833675
1761838777443055400,8.243055419921875,7.568605700761079,4.139545152054727,0.35798159044496713
1761838777453125400,8.25312548828125,7.231758010694384,4.0831662622287865,0.8794918012276292
1761838777463195600,8.263195556640625,6.74410367308855,3.1399162745788693,1.6670350943371652
1761838777473265400,8.273265380859375,6.588306377655267,1.7178383759878575,2.4725033357158304
1761838777483334700,8.283334716796874,7.129585337942839,0.503015792062506,3.0214082608371973
1761838777493404400,8.293404296875,8.454189681383967,-0.002591185536980629,3.2013319895282386
1761838777503474400,8.303474365234376,10.38450483301282,0.39778373174034054,2.8686428804457185
1761838777513543400,8.31354345703125,12.021847676658629,1.01672672727108,2.6414120416566726
1761838777523613400,8.323613525390625,12.913832756495475,1.3692965948656202,2.7017951986879107
1761838777533683500,8.333683349609375,13.481854762279987,1.5102002725496888,2.776729735901952
1761838777543752400,8.34375244140625,13.764365882003306,1.4376739655211568,2.9225042344927785
1761838777553822500,8.353822509765624,13.610821333932876,1.328178987057507,3.132624364005029
1761838777563892500,8.363892578125,13.037571364367007,1.4131225848495959,3.309173355565965
1761838777573962500,8.37396240234375,12.138197927844523,1.4096771205708383,3.6991529163613914
1761838777584031200,8.38403125,11.0756002607584,1.3738871375262736,4.169281534148753
1761838777594101500,8.3941015625,10.001725997376441,1.4763414036981761,4.51089950735718
1761838777604171500,8.404171630859375,9.240860283312202,1.4569908065401016,4.704399341458082
1761838777614240500,8.414240478515625,8.612888543477654,1.267936261410266,4.746909280407428
1761838777624310500,8.424310546875,8.109759573364258,1.21645025819242,4.656977665069699
1761838777634380300,8.43438037109375,7.876079412305355,1.2494753065682946,4.538933177186548
1761838777644449500,8.444449462890624,7.686568647840619,1.3762372077837586,4.282014471620321
1761838777654519600,8.45451953125,7.411914086836576,1.6087006865292786,3.916077465191483
1761838777664589300,8.46458935546875,7.242819502934813,1.871210636231303,3.5289442337378856
1761838777674659600,8.47465966796875,7.099711593204736,2.0245541087716816,3.3753947172313925
1761838777684728300,8.484728271484375,6.894807444775104,2.105707812761515,3.3744550982937214
1761838777694798600,8.494798583984375,6.785857825234532,2.2151706425212323,3.4027067947879432
1761838777704868600,8.50486865234375,6.616763825854659,2.245215213781595,3.490278402996063
1761838777714937300,8.514937255859374,6.461856757259368,2.050653449537605,3.603057809957862
1761838777725007600,8.525007568359374,6.294847162938118,1.6913832075215876,3.647022916151583
1761838777735077400,8.535077392578126,6.13922522407174,1.3593041931614278,3.4980788476139306
1761838777745146600,8.545146728515626,6.2195923077285284,1.108091590282321,3.137514474134147
1761838777755216400,8.55521630859375,6.095291389799118,0.9417115260362624,2.711325243577361
1761838777765286400,8.565286376953125,5.720191418227553,0.42490854309648274,2.513560445508361
1761838777775356400,8.5753564453125,5.22610149461627,-0.9247092455700039,2.8265245711624623
1761838777785425400,8.58542529296875,4.166299011206626,-3.3884815778195856,3.8968209760576484
1761838777795495400,8.595495361328124,2.514290513348579,-6.9126412076294415,5.139419236463308
1761838777805565400,8.6055654296875,-0.3659405135601759,-7.36466718249321,3.6305937593981623
1761838777815634400,8.615634521484376,-1.7388415626585483,-6.0636956435739995,0.6614188130147755
1761838777825704400,8.625704345703125,-4.66436134558022,-4.2560903412908315,-2.0266730006217957
1761838777835774500,8.6357744140625,-8.326893673291801,-0.7209416999548673,-5.79276507152915
1761838777845846500,8.645846435546876,-9.853456174838543,3.060409899404645,-8.952176027911902
1761838777855915500,8.65591552734375,-10.700231993639468,4.8942368536591525,-8.80398277774155
1761838777865985300,8.6659853515625,-12.561604541945457,3.9303012208551165,-5.380388970008492
1761838777876055600,8.6760556640625,-14.511320559614896,3.789119895273447,-1.8982253382764755
1761838777886124300,8.686124267578125,-14.957157616710662,4.085918483546376,0.8312200838811695
1761838777896194600,8.696194580078124,-16.095897443234918,3.564154955589771,2.998317892628908
1761838777906264600,8.7062646484375,-16.01583431096077,3.0732696732386944,2.6866537436574696
1761838777916334300,8.716334228515626,-14.288254147028923,2.6732322442874312,0.5280221499599516
1761838777926403600,8.726403564453125,-13.156382452708481,1.2382605234622954,-2.0322933247216044
1761838777936473300,8.736473388671875,-12.291831323242187,0.9559393002878874,-5.003676302543282
1761838777946543400,8.74654345703125,-11.591244429051875,1.35848425508067,-7.36123486995697
1761838777956612400,8.7566123046875,-11.586076086503267,1.3436653100028633,-7.942093560960888
1761838777966682400,8.766682373046875,-11.923652675366402,1.030148445836827,-6.680159316444397
1761838777976752600,8.776752685546874,-11.849402028763294,0.6954728391122073,-4.795637947741151
1761838777986822400,8.786822509765624,-10.841008245551585,0.6540489418338984,-3.162549838930368
1761838777996891400,8.796891357421876,-9.222085440215468,0.5885624337816611,-1.9487030412346122
1761838778006961400,8.80696142578125,-7.343250300455093,0.23448851829972117,-1.1591865483559667
1761838778017031400,8.817031494140625,-5.243391067591309,-0.11991367928851396,-0.8000220317367464
1761838778027100700,8.8271005859375,-3.2481378721058367,-0.3257901798816398,-0.6567906417574733
1761838778037170400,8.83717041015625,-1.3852274467080832,-1.040239485609904,-0.3930006621822715
1761838778047240400,8.847240478515625,0.13995967483222485,-1.8218039235055445,-0.11844656587801873
1761838778057309400,8.857309326171874,1.1817226436823607,-0.6803403711058199,-0.6228670371066779
1761838778067379500,8.86737939453125,2.644945184218883,0.05682681625653058,-1.080513555265963
1761838778077449500,8.877449462890626,3.8247967733323573,0.019545023751631377,-1.2955110815562307
1761838778087519500,8.88751953125,4.362438838422298,0.11456979750990867,-1.4517716105870901
1761838778097588500,8.89758837890625,4.827971945112943,0.2671493730057031,-1.5047913992434738
1761838778107658500,8.907658447265625,5.3176048893153665,0.679081310955435,-1.2934982804290949
1761838778117728500,8.917728515625,5.3812569850146765,1.006440457186848,-1.0552716350469737
1761838778127797200,8.92779736328125,5.1908162462234495,1.0316351041980087,-0.9581945318687707
1761838778137868300,8.937868408203125,5.127298590558767,1.1034002175956963,-0.8796930228881538
1761838778147938000,8.94793798828125,5.178224475675821,1.187953793156892,-0.7978074974924325
1761838778158007000,8.958007080078126,5.124429172602295,1.0963489839099347,-0.7329823394257575
1761838778168077000,8.9680771484375,4.967161220094561,1.0236641253188252,-0.7157778143856675
1761838778178147000,8.97814697265625,4.727524780979753,0.9627207040563225,-0.7600903457775712
1761838778188217000,8.988217041015625,4.4128439145356415,0.8200801195770502,-0.7821772360317408
1761838778198286000,8.9982861328125,3.775273740750551,0.7887821872547268,-0.8585720550566911
1761838778208356000,9.008356201171875,3.0256290934026238,0.9380635249227285,-0.8896702270232141
1761838778218426000,9.018426025390625,2.3616449599444866,1.0706731292530893,-0.7990502640951425
1761838778228495000,9.0284951171875,1.944555858427286,0.9729580204322934,-0.7730664394676685
1761838778238564900,9.03856494140625,1.781418137103319,0.8290966619864105,-0.7362457982011139
1761838778248635100,9.04863525390625,1.7341005056113004,0.722365303017199,-0.7324293086528778
1761838778258705200,9.058705078125,1.6501239992856978,0.5693377645581961,-0.7040179646175354
1761838778268774100,9.068774169921875,1.4606547358751296,0.5056541046768427,-0.5238522803967818
1761838778278844200,9.07884423828125,1.2287801629334687,0.5157739321529865,-0.4034492466887459
1761838778288914000,9.088913818359375,1.0409247644603252,0.38577860197424885,-0.19025502522708848
1761838778298983200,9.098983154296874,0.7938362557739019,0.12658669077903031,-0.08326402894100174
1761838778309053200,9.10905322265625,0.5519277800738811,-0.012526888617873192,-0.23679646644853053
1761838778319123000,9.119123046875,0.2484440149486065,0.06750643303990364,-0.31086061403620985
1761838778329193200,9.129193115234376,-0.20770283923745153,0.13151537935286758,-0.3167523389559239
1761838778339262000,9.139261962890625,-0.5894383033007383,0.07760726355463266,-0.26189819274554027
1761838778349332000,9.14933203125,-1.044013378125429,-0.16598200483918188,-0.06600983780659735
1761838778359402200,9.15940234375,-1.4041712166309357,-0.5303378795564174,-0.04607354971505701
1761838778369471000,9.169470947265625,-1.258220776951313,-0.6969114205479622,-0.7135185642167925
1761838778379541200,9.179541259765625,-0.509273464217782,-0.807825325898826,-1.4909610268115996
1761838778389611000,9.189611083984374,-1.0448141731142997,-0.13041414011269806,-2.1578449733644725
1761838778399680300,9.19968017578125,-2.3721429730832577,0.7033616196006536,-2.027664349746704
1761838778409750000,9.20975,-1.3467588921040297,0.13428572084903717,-1.3720765809729694
1761838778419820000,9.219820068359375,-0.853404297029972,0.09529548045843839,-1.218676994331181
1761838778429890000,9.22989013671875,-0.8105132498085499,0.4098740555718541,-1.0700356350671498
1761838778439959000,9.239958984375,-0.30152620131671426,0.49862961286753416,-0.7520140068277716
1761838778450029000,9.250029052734375,0.30933833637237546,0.5174529712811112,-0.4863225044801831
1761838778460099000,9.26009912109375,0.3856920927345753,0.4573451240599155,-0.27231289324872193
1761838778470168000,9.27016796875,0.7573200042814016,0.3247518863424659,0.0626893881469965
1761838778480238000,9.280238037109376,0.8806389254361391,0.5074100084334612,0.21170140735432505
1761838778490308000,9.29030810546875,0.8525362820237874,0.5260372597530484,0.08389715747907757
1761838778500378000,9.300378173828125,1.2820336142152546,0.4965028299719095,-0.04704115263819694
1761838778510447000,9.310447021484375,1.4185913716495036,0.6275859553873538,-0.3684351068548858
1761838778520517000,9.32051708984375,1.4828630605518818,0.6044821431756019,-0.5473385525874793
1761838778530587000,9.3305869140625,1.279720661097765,0.3340408159524202,-0.4351239399015903
1761838778540656000,9.34065625,0.8551748138338326,0.024926935985684393,-0.1407329972922802
1761838778550726100,9.35072607421875,0.6180336986660957,-0.20710136621296404,0.10776245558261871
1761838778560796000,9.3607958984375,0.2340741288125515,-0.4103083553358912,0.3198413179472089
1761838778570865200,9.370865234375,0.36546295917630195,-0.5191451621517539,0.5531130443356931
1761838778580935000,9.380934814453125,0.48308337642848487,-0.520463551273942,0.46776656483113765
1761838778591005200,9.391005126953125,0.667127692180872,-0.4327247698053717,0.3089320936590433
1761838778601075200,9.4010751953125,0.7879530429542064,-0.34701486381590363,0.3001175035625696
1761838778611144200,9.411144287109375,0.43105274493992324,-0.34512510454654693,0.45417665009163316
1761838778621214200,9.421214111328124,-0.05137304436266422,-0.4273506755515933,0.6481905711945146
1761838778631284000,9.431283935546874,-0.29576223096251486,-0.5363400425806641,0.7552641677301377
1761838778641353200,9.441353271484376,-0.2364478722065687,-0.6010235271543264,0.7471872442584484
1761838778651423000,9.451423095703126,-0.12588029607534407,-0.5952057807862758,0.6950674731817096
1761838778661493000,9.461492919921875,-0.2574175949990749,-0.5460132953330874,0.638506139460951
1761838778671563300,9.471563232421875,-0.4968997203350067,-0.5086787131950259,0.6365981138825416
1761838778681632000,9.481632080078125,-0.5481126056998967,-0.42473786270469427,0.6640707888282835
1761838778691702000,9.491701904296875,-0.39419747075140477,-0.24469576833099124,0.7072473019275813
1761838778701772000,9.50177197265625,-0.1939268273413181,-0.0798927441433072,0.6728748575307428
1761838778711841000,9.511841064453124,0.07198328619301318,0.006546937425434589,0.6201611391488462
1761838778721911000,9.5219111328125,0.1905330932497978,-0.04501783011704683,0.6646941814236342
1761838778731981000,9.53198095703125,0.18364684086740016,-0.20555150642246006,0.7207458851218224
1761838778742051000,9.542051025390625,0.24851065044403076,-0.34182080230414863,0.739234312492609
1761838778752120000,9.5521201171875,0.4257996467173099,-0.3504392853066325,0.6812791132606566
1761838778762190000,9.562190185546875,0.5035743757933377,-0.3144152012452483,0.6810369020026177
1761838778772259800,9.572259765625,0.41173020483255385,-0.23215777379721403,0.7089318209484219
1761838778782329000,9.5823291015625,0.48115971488952636,-0.09429331767857074,0.7314223235674202
1761838778792399000,9.592399169921874,0.6527461156070232,0.04147913459688425,0.7222798166908323
1761838778802469000,9.60246923828125,0.7558610376447439,0.11585720697194338,0.7062504729099571
1761838778812539100,9.6125390625,0.8883084371507167,0.025519348920881747,0.7069438620015979
1761838778822608000,9.62260791015625,1.0330588533908127,-0.10176321516782044,0.6903312384400516
1761838778832678100,9.63267822265625,1.0310457600027323,-0.1602910997211933,0.6285407718941569
1761838778842748200,9.642748046875,0.9021902475088834,-0.13087445110082627,0.5799702907968313
1761838778852817200,9.652817138671875,0.6391939755946398,-0.05325228223800659,0.5731350744819268
1761838778862887200,9.66288720703125,0.38923955608308314,0.09491232635974883,0.5360341915018856
1761838778872957000,9.67295703125,0.29814941835999487,0.2751391296505928,0.47129470242466776
1761838778883026200,9.683026123046876,0.3423158923447132,0.4644301138848066,0.3805704023392871
1761838778893096000,9.693095947265626,0.3708849842250347,0.5381219575613737,0.2892804311951622
1761838778903166000,9.703166015625,0.4559083692550659,0.4776961304321885,0.19907606333065778
1761838778913236200,9.713236328125,0.5614128167778253,0.33579145901203156,0.13018636837196534
1761838778923305000,9.723304931640625,0.6440040062248706,0.1294847503080964,0.05892917709695175
1761838778933375200,9.733375244140625,0.557772998970747,0.0028515900388360023,-0.021219496302492917
1761838778943445000,9.743445068359375,0.49602410654425616,-0.23861586389541625,0.008214267849456518
1761838778953514000,9.753513916015624,0.516843607211113,-0.28325843095928427,0.019574980498477817
1761838778963584300,9.763584228515626,0.5166828636914491,-0.4155740207791328,0.06432179338810964
1761838778973654000,9.773654052734376,0.34831133336722847,-0.7013420964717865,0.15497456260723994
1761838778983724000,9.78372412109375,0.2074088247269392,-1.004318496596813,0.0529455361100845
1761838778993793000,9.79379296875,0.07787818945050239,-1.2308084538906812,-0.03421195660550147
1761838779003863000,9.803863037109375,-0.10391162537336349,-1.209799275870621,-0.14566462674187494
1761838779013933000,9.81393310546875,-0.07994856598377227,-1.0601432596713305,-0.15362532168906182
1761838779024002000,9.824001953125,-0.01475508606135845,-0.7759080926343798,-0.20174601319227367
1761838779034072000,9.834072021484374,0.015595044016838073,-0.9596662849217653,-0.39105486187674104
1761838779044142000,9.84414208984375,-0.016895020699501037,-1.2472305963814259,-0.531182331023924
1761838779054212000,9.854212158203126,-0.10819091012775897,-1.3323425364777446,-0.8111812852632254
1761838779064281000,9.864281005859375,0.00017535656690597534,-1.4020283593833445,-1.002336090607941
1761838779074351000,9.87435107421875,0.05800386067926883,-1.4256354449421167,-0.9829951380610465
1761838779084421000,9.884421142578125,-0.003877718216180801,-1.4403583822995423,-0.7627196713678538
1761838779094490000,9.894489990234375,-0.030032150170207023,-1.5148863845393061,-0.4337156074736267
1761838779104560000,9.90456005859375,-0.02398644026517868,-1.497631590616703,-0.13592420877106487
1761838779114630000,9.9146298828125,-0.04700841941237449,-1.3197493046253919,0.10442103620022535
1761838779124699100,9.92469921875,0.004989478850364684,-1.1309051873758436,0.19769187896326182
1761838779134769400,9.934769287109376,-0.042162148424983024,-1.0201987872958183,0.20285108835734425
1761838779144839200,9.944839111328125,0.020016367590427398,-0.8870771417900919,0.1153808216318488
1761838779154909400,9.954909423828125,0.013833879563212394,-0.7792971505507826,0.07595321273729205
1761838779164978200,9.964978271484375,0.020350714111328123,-0.73071870534271,0.08883417548984289
1761838779175048400,9.97504833984375,0.09046879095435142,-0.693114658613503,0.2039274123519659
1761838779185118500,9.985118408203125,0.13677344601154326,-0.7232733577728271,0.4290696082986891
1761838779195187500,9.9951875,0.025805472385883328,-0.590600917339325,0.3821403916023671
1761838779205257500,10.005257568359376,-0.014193360525369644,-0.4919678168907761,0.27740261760316787
1761838779215327200,10.0153271484375,0.1329857441663742,-0.5544017689719796,0.24700265703387558
1761838779225397200,10.025397216796875,0.2663449978202581,-0.487204840272665,0.09480850065909326
1761838779235466200,10.03546630859375,0.34542262618839736,-0.37923750976771115,-0.025511384810134766
1761838779245536300,10.045536376953125,0.382359733441472,-0.25466946533471346,-0.11454181352443993
1761838779255606500,10.0556064453125,0.3025958763748407,-0.07299480132311582,-0.19524200159311295
1761838779265675300,10.06567529296875,0.09326572819650172,0.13224544719308615,-0.21049363899976015
1761838779275745300,10.075745361328124,0.07672200515270233,0.3536918573617935,-0.22640293659754096
1761838779285815600,10.085815673828124,0.17809739004671574,0.482758674518764,-0.29561215496733784
1761838779295885300,10.09588525390625,0.27783436008393764,0.4595163306191563,-0.3056271338295191
1761838779305954600,10.10595458984375,0.3858370541632175,0.40718233226984735,-0.24230587751977145
1761838779316024300,10.1160244140625,0.3716162211090326,0.3021569004356861,-0.15235964913479982
1761838779326094300,10.12609423828125,0.35743572006523605,0.137812725931406,-0.03396510570496321
1761838779336163300,10.136163330078125,0.3751134155750274,0.011877777059376239,0.04870528645813465
1761838779346233300,10.1462333984375,0.4189034574627876,-0.0336909649387002,0.07626973134055733
1761838779356303400,10.156303466796874,0.35525019271969793,-0.059354398505389684,0.11180544736310839
1761838779366373400,10.166373291015624,0.2596989839345217,-0.06540303101986646,0.14680135742053388
1761838779376442400,10.1764423828125,0.32264205458164213,-0.08633446762859821,0.10598097899332642
1761838779386512400,10.186512451171875,0.31005028403401375,-0.11140694956481456,0.04652355850487947
1761838779396582400,10.19658251953125,0.30268063204884527,-0.09648673606961965,-0.03727861416712403
1761838779406651100,10.206651123046875,0.31048984449505806,-0.07351151867359876,-0.08975757394507526
1761838779416721400,10.216721435546875,0.06884381912350654,0.018261048355698584,-0.17697415817044673
1761838779426791400,10.22679150390625,-0.16072949113845825,0.0960685106575489,-0.2637215174488723
1761838779436860400,10.2368603515625,-0.13605506860911845,0.16249124011397362,-0.3181585524920374
1761838779446930400,10.246930419921876,-0.19212240826785562,0.13991612795144318,-0.1950890760537237
1761838779457000200,10.257000244140626,-0.32473288938105105,0.08128332171887159,-0.06112732646204531
1761838779467070500,10.267070556640626,-0.39691140588521956,-0.006591653349995613,0.0003789163149893284
1761838779477139500,10.277139404296875,-0.37984979644715783,0.08343114740252494,-0.006701251204311847
1761838779487209200,10.287209228515625,-0.5391670827001332,0.10814414837658405,0.07424867384172976
1761838779497279500,10.297279541015625,-0.5820780036658049,0.13894026865661144,0.1330627549253404
