time,seconds_elapsed,z,y,x
1761838769266497500,0.06649755859375,-0.8729095458984375,-0.32562255859375,-0.0325164794921875
1761838769276567600,0.076567626953125,-0.838592529296875,-0.3413848876953125,-0.05010986328125
1761838769286637600,0.086637451171875,-0.8247833251953125,-0.3609466552734375,-0.0447540283203125
1761838769296706600,0.09670654296875,-0.8343963623046875,-0.3694305419921875,-0.0247955322265625
1761838769306776600,0.106776611328125,-0.8342132568359375,-0.3700103759765625,-0.0062103271484375
1761838769316845600,0.116845458984375,-0.822723388671875,-0.3891754150390625,0.00054931640625
1761838769326915600,0.12691552734375,-0.83306884765625,-0.38671875,0.008636474609375
1761838769336985600,0.136985595703125,-0.83660888671875,-0.377197265625,0.01220703125
1761838769347054600,0.1470546875,-0.8386993408203125,-0.373748779296875,0.0083465576171875
1761838769357124600,0.15712451171875,-0.850494384765625,-0.362518310546875,0.0112457275390625
1761838769367193300,0.167193359375,-0.8592681884765625,-0.3466644287109375,0.0174713134765625
1761838769377263600,0.177263671875,-0.8633880615234375,-0.3305511474609375,0.016448974609375
1761838769387333600,0.187333740234375,-0.8759918212890625,-0.320037841796875,0.0166778564453125
1761838769397402600,0.197402587890625,-0.88134765625,-0.3170166015625,0.0234832763671875
1761838769407472600,0.20747265625,-0.883819580078125,-0.3100738525390625,0.0315704345703125
1761838769417541400,0.217541259765625,-0.8859710693359375,-0.3046875,0.040283203125
1761838769427611600,0.227611572265625,-0.8897247314453125,-0.301544189453125,0.0521087646484375
1761838769437681700,0.237681640625,-0.90557861328125,-0.297943115234375,0.062774658203125
1761838769447750700,0.247750732421875,-0.92449951171875,-0.292633056640625,0.0759429931640625
1761838769457820700,0.257820556640625,-0.9318695068359375,-0.2894439697265625,0.0825347900390625
1761838769467890400,0.267890380859375,-0.9328155517578125,-0.283447265625,0.0800018310546875
1761838769477959700,0.277959716796875,-0.9358062744140625,-0.27740478515625,0.0780792236328125
1761838769488029400,0.288029541015625,-0.9387664794921875,-0.271514892578125,0.075653076171875
1761838769498098700,0.2980986328125,-0.947296142578125,-0.26611328125,0.0730133056640625
1761838769508168400,0.30816845703125,-0.9575958251953125,-0.2577972412109375,0.0690460205078125
1761838769518238500,0.318238525390625,-0.9699554443359375,-0.2512969970703125,0.0697784423828125
1761838769528307700,0.3283076171875,-0.98419189453125,-0.2477264404296875,0.072509765625
1761838769538377500,0.33837744140625,-0.9991455078125,-0.239715576171875,0.0705108642578125
1761838769548446700,0.34844677734375,-1.009185791015625,-0.2307586669921875,0.071044921875
1761838769558516500,0.3585166015625,-1.020965576171875,-0.2261505126953125,0.06951904296875
1761838769568586500,0.36858642578125,-1.0498199462890625,-0.2228240966796875,0.065704345703125
1761838769578655500,0.378655517578125,-1.0756988525390625,-0.2146453857421875,0.0532073974609375
1761838769588725500,0.3887255859375,-1.0935516357421875,-0.206329345703125,0.037994384765625
1761838769598795800,0.398795654296875,-1.109283447265625,-0.1963958740234375,0.0180816650390625
1761838769608864500,0.408864501953125,-1.1189117431640625,-0.1867828369140625,-0.0001068115234375
1761838769618934500,0.4189345703125,-1.1259765625,-0.1752166748046875,-0.015655517578125
1761838769629003500,0.42900341796875,-1.12811279296875,-0.16302490234375,-0.0305328369140625
1761838769639073500,0.439073486328125,-1.1262054443359375,-0.147308349609375,-0.0438232421875
1761838769649143600,0.4491435546875,-1.1116485595703125,-0.129486083984375,-0.058502197265625
1761838769659212500,0.459212646484375,-1.0938720703125,-0.1157379150390625,-0.072265625
1761838769669282600,0.469282470703125,-1.0826568603515625,-0.1086273193359375,-0.07855224609375
1761838769679351600,0.4793515625,-1.0693817138671875,-0.1113739013671875,-0.075103759765625
1761838769689421600,0.489421630859375,-1.0498504638671875,-0.1181488037109375,-0.0721435546875
1761838769699491600,0.49949169921875,-1.03863525390625,-0.1201019287109375,-0.0634765625
1761838769709560600,0.509560546875,-1.0315399169921875,-0.11956787109375,-0.05377197265625
1761838769719630600,0.519630615234375,-1.01959228515625,-0.1191253662109375,-0.049835205078125
1761838769729700600,0.52970068359375,-1.0111083984375,-0.1165771484375,-0.043609619140625
1761838769739769300,0.539769287109375,-0.9938812255859375,-0.118621826171875,-0.0395050048828125
1761838769749839600,0.549839599609375,-0.97100830078125,-0.1282806396484375,-0.037139892578125
1761838769759908600,0.55990869140625,-0.9527587890625,-0.13726806640625,-0.0300445556640625
1761838769769978600,0.569978515625,-0.94122314453125,-0.14837646484375,-0.018646240234375
1761838769780048600,0.580048583984375,-0.93377685546875,-0.1585235595703125,-0.0080108642578125
1761838769790117400,0.590117431640625,-0.9289398193359375,-0.1687469482421875,0.0046234130859375
1761838769800187600,0.600187744140625,-0.9222869873046875,-0.17034912109375,0.0118408203125
1761838769810256400,0.61025634765625,-0.916473388671875,-0.1645355224609375,0.016387939453125
1761838769820326700,0.62032666015625,-0.922882080078125,-0.1598663330078125,0.030303955078125
1761838769830396700,0.630396728515625,-0.9351043701171875,-0.159637451171875,0.04522705078125
1761838769840465700,0.640465576171875,-0.9513702392578125,-0.1582794189453125,0.062774658203125
1761838769850535700,0.65053564453125,-0.9712371826171875,-0.1579437255859375,0.075775146484375
1761838769860605400,0.66060546875,-0.989166259765625,-0.1566314697265625,0.08038330078125
1761838769870674700,0.6706748046875,-0.99609375,-0.150848388671875,0.075927734375
1761838769880744400,0.680744384765625,-0.996826171875,-0.14044189453125,0.0694580078125
1761838769890813700,0.690813720703125,-0.9933319091796875,-0.1313629150390625,0.059967041015625
1761838769900883700,0.7008837890625,-0.997314453125,-0.12445068359375,0.0512847900390625
1761838769910953500,0.710953369140625,-1.01312255859375,-0.11553955078125,0.046905517578125
1761838769921022700,0.721022705078125,-1.0246734619140625,-0.1042938232421875,0.04083251953125
1761838769931092500,0.731092529296875,-1.03607177734375,-0.0919036865234375,0.031707763671875
1761838769941162500,0.74116259765625,-1.0515594482421875,-0.0860595703125,0.027008056640625
1761838769951231500,0.7512314453125,-1.0619354248046875,-0.0826416015625,0.0204620361328125
1761838769961301500,0.761301513671875,-1.0625152587890625,-0.0767364501953125,0.0102081298828125
1761838769971370500,0.77137060546875,-1.061981201171875,-0.07232666015625,0.0030517578125
1761838769981440500,0.7814404296875,-1.0598907470703125,-0.070648193359375,-0.0034942626953125
1761838769991510500,0.791510498046875,-1.052947998046875,-0.0708160400390625,-0.0137481689453125
1761838770001579500,0.80157958984375,-1.048675537109375,-0.0715179443359375,-0.023773193359375
1761838770011649500,0.8116494140625,-1.0457763671875,-0.0714874267578125,-0.0287322998046875
1761838770021718500,0.821718505859375,-1.0365142822265625,-0.07574462890625,-0.0301513671875
1761838770031788500,0.83178857421875,-1.0249176025390625,-0.08526611328125,-0.0263824462890625
1761838770041858600,0.841858642578125,-1.0154876708984375,-0.095855712890625,-0.0141143798828125
1761838770051927600,0.851927490234375,-1.0035247802734375,-0.10595703125,-0.006683349609375
1761838770061997600,0.86199755859375,-0.9968109130859375,-0.114501953125,-0.00445556640625
1761838770072067600,0.872067626953125,-0.99981689453125,-0.1264190673828125,0.0017242431640625
1761838770082136600,0.882136474609375,-0.9962310791015625,-0.1411590576171875,0.003387451171875
1761838770092206600,0.89220654296875,-0.9954376220703125,-0.1552276611328125,0.0024871826171875
1761838770102275600,0.902275634765625,-0.999114990234375,-0.1672821044921875,0.004669189453125
1761838770112345300,0.912345458984375,-0.9990997314453125,-0.173614501953125,0.0044708251953125
1761838770122411800,0.922411865234375,-0.9986572265625,-0.1714324951171875,0.0022125244140625
1761838770132480800,0.932480712890625,-1.00390625,-0.171630859375,0.00299072265625
1761838770142550800,0.94255078125,-1.0125885009765625,-0.174835205078125,0.0037689208984375
1761838770152620800,0.952620849609375,-1.019256591796875,-0.1796722412109375,0.0033111572265625
1761838770162690000,0.96268994140625,-1.02215576171875,-0.1821136474609375,0.002777099609375
1761838770172759800,0.972759765625,-1.024078369140625,-0.1806488037109375,0.0055389404296875
1761838770182828800,0.982828857421875,-1.0177764892578125,-0.1784820556640625,0.013458251953125
1761838770192898800,0.99289892578125,-1.011322021484375,-0.1776275634765625,0.030181884765625
1761838770202968800,1.00296875,-1.011932373046875,-0.1695098876953125,0.046661376953125
1761838770213037800,1.013037841796875,-1.008056640625,-0.1569366455078125,0.05670166015625
1761838770223107800,1.02310791015625,-1.013702392578125,-0.1492156982421875,0.069427490234375
1761838770233177900,1.033177734375,-1.024139404296875,-0.1490020751953125,0.08441162109375
1761838770243246800,1.043246826171875,-1.0114898681640625,-0.1418609619140625,0.0849151611328125
1761838770253316900,1.05331689453125,-1.0009613037109375,-0.122894287109375,0.0785980224609375
1761838770263385900,1.0633857421875,-1.0048370361328125,-0.0987548828125,0.072601318359375
1761838770273455900,1.073455810546875,-1.013519287109375,-0.07696533203125,0.066558837890625
1761838770283525600,1.083525634765625,-1.0178070068359375,-0.0615234375,0.0576629638671875
1761838770293595000,1.093594970703125,-1.01141357421875,-0.0542755126953125,0.0498046875
1761838770303665000,1.103664794921875,-0.996124267578125,-0.0499725341796875,0.0446929931640625
1761838770313734700,1.113734619140625,-0.9743499755859375,-0.0461273193359375,0.0455169677734375
1761838770323804000,1.123803955078125,-0.960845947265625,-0.0478515625,0.049652099609375
1761838770333873700,1.133873779296875,-0.9685821533203125,-0.057098388671875,0.0594329833984375
1761838770343943000,1.14394287109375,-0.9824676513671875,-0.0669708251953125,0.0649871826171875
1761838770354012700,1.1540126953125,-0.9908599853515625,-0.075592041015625,0.0608978271484375
1761838770364082700,1.164082763671875,-0.996337890625,-0.0885772705078125,0.058563232421875
1761838770374151700,1.174151611328125,-0.9945220947265625,-0.1046295166015625,0.058074951171875
1761838770384221700,1.1842216796875,-0.9942169189453125,-0.11279296875,0.0571441650390625
1761838770394292000,1.1942919921875,-0.994293212890625,-0.1150970458984375,0.056182861328125
1761838770404360700,1.204360595703125,-0.986907958984375,-0.1166229248046875,0.0536651611328125
1761838770414431000,1.214430908203125,-0.9729766845703125,-0.11627197265625,0.04400634765625
1761838770424500700,1.224500732421875,-0.964752197265625,-0.1121368408203125,0.038665771484375
1761838770434569700,1.23456982421875,-0.9640045166015625,-0.1124114990234375,0.0433197021484375
1761838770444640000,1.244639892578125,-0.969024658203125,-0.1172637939453125,0.053314208984375
1761838770454708700,1.254708740234375,-0.9747772216796875,-0.11334228515625,0.06201171875
1761838770464779000,1.264779052734375,-0.983673095703125,-0.10369873046875,0.0733642578125
1761838770474848800,1.274848876953125,-0.9843292236328125,-0.0941925048828125,0.0766754150390625
1761838770484917800,1.284917724609375,-0.9822845458984375,-0.0832366943359375,0.076690673828125
1761838770494987800,1.29498779296875,-0.974334716796875,-0.07421875,0.0601959228515625
1761838770505057800,1.305057861328125,-0.9565887451171875,-0.072052001953125,0.0455780029296875
1761838770515126800,1.315126708984375,-0.9503021240234375,-0.0691680908203125,0.038482666015625
1761838770525196800,1.32519677734375,-0.9464569091796875,-0.06640625,0.0352630615234375
1761838770535266000,1.33526611328125,-0.9353790283203125,-0.067840576171875,0.0304107666015625
1761838770545335800,1.345335693359375,-0.9273681640625,-0.065032958984375,0.0241241455078125
1761838770555405800,1.35540576171875,-0.9254913330078125,-0.0512237548828125,0.0082550048828125
1761838770565474800,1.365474853515625,-0.9212493896484375,-0.0352935791015625,-0.000701904296875
1761838770575544800,1.375544921875,-0.90625,-0.0357208251953125,0.005889892578125
1761838770585614800,1.38561474609375,-0.901763916015625,-0.0375823974609375,0.014190673828125
1761838770595683800,1.395683837890625,-0.9123382568359375,-0.023284912109375,0.0158538818359375
1761838770605753900,1.40575390625,-0.9246978759765625,-0.0087738037109375,0.0272064208984375
1761838770615822800,1.41582275390625,-0.95159912109375,-0.0027008056640625,0.0465087890625
1761838770625892900,1.425892822265625,-0.9811248779296875,-0.002471923828125,0.0642852783203125
1761838770635962600,1.435962646484375,-0.9983367919921875,-0.0049896240234375,0.0792388916015625
1761838770646032000,1.446031982421875,-1.0167083740234375,-0.0137481689453125,0.089874267578125
1761838770656101600,1.4561015625,-1.0212554931640625,-0.0273284912109375,0.0913848876953125
1761838770666172000,1.466171875,-1.015716552734375,-0.0386505126953125,0.0798492431640625
1761838770676241000,1.476240966796875,-0.9966278076171875,-0.04937744140625,0.05523681640625
1761838770686310700,1.486310546875,-0.966156005859375,-0.0609283447265625,0.027557373046875
1761838770696381000,1.496380859375,-0.9261016845703125,-0.0713653564453125,-0.0000457763671875
1761838770706449700,1.50644970703125,-0.87603759765625,-0.0802459716796875,-0.023651123046875
1761838770716520000,1.51652001953125,-0.8372039794921875,-0.08538818359375,-0.042205810546875
1761838770726588700,1.526588623046875,-0.80029296875,-0.0898895263671875,-0.0561676025390625
1761838770736658700,1.53665869140625,-0.7615814208984375,-0.097900390625,-0.066925048828125
1761838770746729000,1.54672900390625,-0.724212646484375,-0.101531982421875,-0.075164794921875
1761838770756797700,1.556797607421875,-0.683502197265625,-0.09552001953125,-0.078399658203125
1761838770766868000,1.566867919921875,-0.63665771484375,-0.08184814453125,-0.0842132568359375
1761838770776937700,1.576937744140625,-0.5884857177734375,-0.062652587890625,-0.0885162353515625
1761838770787007000,1.587007080078125,-0.5277862548828125,-0.038177490234375,-0.0789794921875
1761838770797076700,1.59707666015625,-0.4750823974609375,-0.0165557861328125,-0.07049560546875
1761838770807145700,1.607145751953125,-0.42926025390625,-0.005767822265625,-0.058319091796875
1761838770817216000,1.617216064453125,-0.3839263916015625,0.009490966796875,-0.044586181640625
1761838770827285800,1.62728564453125,-0.3280487060546875,0.01666259765625,-0.0355377197265625
1761838770837355000,1.63735498046875,-0.284271240234375,0.00921630859375,-0.0316162109375
1761838770847424800,1.6474248046875,-0.27386474609375,-0.0035400390625,-0.022186279296875
1761838770857494800,1.657494873046875,-0.2861785888671875,-0.02337646484375,-0.020965576171875
1761838770867563800,1.667563720703125,-0.2950897216796875,-0.0197296142578125,-0.024566650390625
1761838770877633800,1.6776337890625,-0.287689208984375,-0.02154541015625,-0.001129150390625
1761838770887703800,1.687703857421875,-0.32562255859375,-0.054290771484375,0.0145263671875
1761838770897772800,1.697772705078125,-0.399383544921875,-0.1150360107421875,0.0216217041015625
1761838770907842800,1.7078427734375,-0.5026397705078125,-0.1931610107421875,0.08160400390625
1761838770917911800,1.717911865234375,-0.632110595703125,-0.2790374755859375,0.171356201171875
1761838770927981800,1.72798193359375,-0.8480224609375,-0.3429107666015625,0.1976776123046875
1761838770938051600,1.738051513671875,-1.1474151611328125,-0.3818817138671875,0.1193084716796875
1761838770948120800,1.748120849609375,-1.447845458984375,-0.4510955810546875,0.050384521484375
1761838770958190800,1.75819091796875,-1.77288818359375,-0.5712127685546875,0.0105438232421875
1761838770968260900,1.7682607421875,-2.1683349609375,-0.5548248291015625,-0.04095458984375
1761838770978329900,1.778329833984375,-2.4942474365234375,-0.4464263916015625,-0.216644287109375
1761838770988399900,1.78839990234375,-2.74468994140625,-0.3069305419921875,-0.3987579345703125
1761838770998470000,1.798469970703125,-2.946990966796875,-0.170135498046875,-0.442352294921875
1761838771008538600,1.80853857421875,-3.108551025390625,-0.0313873291015625,-0.3694000244140625
1761838771018609000,1.81860888671875,-3.329803466796875,0.0849151611328125,-0.2702178955078125
1761838771028677600,1.828677734375,-3.58795166015625,0.1373748779296875,-0.2014312744140625
1761838771038748000,1.838747802734375,-3.7338714599609375,0.25,-0.2482757568359375
1761838771048818000,1.84881787109375,-3.7322540283203125,0.4180908203125,-0.3769683837890625
1761838771058886700,1.85888671875,-3.6371612548828125,0.4673004150390625,-0.5062255859375
1761838771068957000,1.86895703125,-3.32781982421875,0.4967803955078125,-0.6145477294921875
1761838771079027000,1.87902685546875,-2.8616485595703125,0.614837646484375,-0.654632568359375
1761838771089096000,1.889095947265625,-2.475677490234375,0.5429229736328125,-0.6273651123046875
1761838771099166000,1.899166015625,-2.2148284912109375,0.317230224609375,-0.630645751953125
1761838771109235700,1.909235595703125,-1.8915252685546875,0.1210479736328125,-0.6298065185546875
1761838771119305000,1.919304931640625,-1.478668212890625,0.032470703125,-0.580657958984375
1761838771129376000,1.9293759765625,-1.2225494384765625,-0.1250762939453125,-0.5473785400390625
1761838771139445800,1.93944580078125,-0.8090972900390625,-0.0436553955078125,-0.4118499755859375
1761838771149515000,1.949514892578125,-0.39306640625,0.1895294189453125,-0.1026458740234375
1761838771159584800,1.959584716796875,-0.548248291015625,-0.0530853271484375,0.127838134765625
1761838771169654000,1.969654052734375,-0.7141876220703125,-0.2762603759765625,0.31549072265625
1761838771179724000,1.97972412109375,-0.6673126220703125,-0.1084747314453125,0.392730712890625
1761838771189793800,1.989793701171875,-0.646270751953125,0.117919921875,0.3443603515625
1761838771199863000,1.999863037109375,-0.58197021484375,0.2532958984375,0.3259735107421875
1761838771209932800,2.009932861328125,-0.516265869140625,0.347198486328125,0.3260650634765625
1761838771220002800,2.0200029296875,-0.405792236328125,0.4133453369140625,0.34429931640625
1761838771230071800,2.03007177734375,-0.295196533203125,0.41973876953125,0.3889617919921875
1761838771240141800,2.040141845703125,-0.1718902587890625,0.335693359375,0.453857421875
1761838771250211800,2.0502119140625,-0.041778564453125,0.202056884765625,0.503082275390625
1761838771260280800,2.06028076171875,0.0717926025390625,0.11419677734375,0.485107421875
1761838771270350800,2.070350830078125,0.2068023681640625,0.10400390625,0.396240234375
1761838771280419800,2.080419921875,0.3121185302734375,0.1056365966796875,0.289581298828125
1761838771290489900,2.09048974609375,0.3391265869140625,0.06158447265625,0.222320556640625
1761838771300560000,2.100559814453125,0.3208770751953125,0.0819091796875,0.1971282958984375
1761838771310628900,2.11062890625,0.27642822265625,0.012298583984375,0.143585205078125
1761838771320699000,2.120698974609375,0.1855316162109375,-0.06866455078125,0.1529998779296875
1761838771330769000,2.130768798828125,0.1322021484375,-0.1169586181640625,0.148712158203125
1761838771340838000,2.140837890625,0.095062255859375,-0.1855926513671875,0.131439208984375
1761838771350908000,2.150907958984375,0.10736083984375,-0.264190673828125,-0.00628662109375
1761838771360978000,2.16097802734375,0.011932373046875,-0.3667755126953125,-0.26898193359375
1761838771371046700,2.171046630859375,0.019561767578125,-0.32928466796875,-0.3865203857421875
1761838771381117000,2.181116943359375,0.5615692138671875,-0.3637542724609375,-0.4107818603515625
1761838771391187000,2.19118701171875,0.6060028076171875,-0.4093170166015625,-0.5531005859375
1761838771401256000,2.201255859375,0.347564697265625,-0.3546142578125,-0.5617218017578125
1761838771411326000,2.211325927734375,0.2037200927734375,-0.3015594482421875,-0.4383697509765625
1761838771421395000,2.22139501953125,0.267578125,-0.3216552734375,-0.3199615478515625
1761838771431465000,2.23146484375,0.3467254638671875,-0.3571319580078125,-0.310516357421875
1761838771441534700,2.24153466796875,0.267578125,-0.3386993408203125,-0.33929443359375
1761838771451604000,2.25160400390625,0.1492919921875,-0.3016815185546875,-0.33282470703125
1761838771461674000,2.261674072265625,0.06304931640625,-0.25103759765625,-0.284759521484375
1761838771471743700,2.27174365234375,0.0340728759765625,-0.23193359375,-0.2093658447265625
1761838771481813000,2.28181298828125,-0.10595703125,-0.28680419921875,-0.089691162109375
1761838771491882800,2.2918828125,-0.3025054931640625,-0.261627197265625,-0.0980072021484375
1761838771501952800,2.301952880859375,-0.421875,-0.1081390380859375,-0.0594329833984375
1761838771512021800,2.312021728515625,-0.5125579833984375,-0.00067138671875,-0.0532073974609375
1761838771522091800,2.322091796875,-0.586822509765625,0.0836029052734375,-0.0592193603515625
1761838771532162000,2.332162109375,-0.67596435546875,0.131805419921875,-0.0731201171875
1761838771542230800,2.342230712890625,-0.7496337890625,0.1341400146484375,-0.0671234130859375
1761838771552301000,2.352301025390625,-0.8077545166015625,0.0739898681640625,-0.036041259765625
1761838771562369800,2.362369873046875,-0.855743408203125,-0.034759521484375,-0.0189208984375
1761838771572439800,2.372439697265625,-0.8699493408203125,-0.137176513671875,-0.0395355224609375
1761838771582509800,2.382509765625,-0.8830718994140625,-0.2543487548828125,-0.0562744140625
1761838771592578800,2.392578857421875,-0.9744720458984375,-0.401275634765625,-0.0522613525390625
1761838771602649000,2.402649169921875,-1.088287353515625,-0.577301025390625,-0.03607177734375
1761838771612718800,2.41271875,-1.30816650390625,-0.6490631103515625,-0.1017608642578125
1761838771622787800,2.422787841796875,-1.612274169921875,-0.448486328125,-0.237152099609375
1761838771632857900,2.43285791015625,-1.77020263671875,-0.158660888671875,-0.384429931640625
1761838771642927900,2.442927978515625,-1.92205810546875,0.198150634765625,-0.6476898193359375
1761838771652996900,2.452996826171875,-1.777679443359375,0.4076995849609375,-0.7921600341796875
1761838771663067000,2.46306689453125,-1.7530975341796875,0.406646728515625,-0.6739044189453125
1761838771673137000,2.473136962890625,-1.9184417724609375,0.300018310546875,-0.384613037109375
1761838771683206000,2.483205810546875,-1.8497772216796875,0.32000732421875,-0.211334228515625
1761838771693276000,2.49327587890625,-1.858551025390625,0.359619140625,-0.0117340087890625
1761838771703345700,2.503345703125,-1.98260498046875,0.2853546142578125,0.133392333984375
1761838771713415000,2.513414794921875,-2.135650634765625,0.15631103515625,0.199310302734375
1761838771723484700,2.523484619140625,-2.2649688720703125,0.013671875,0.2272796630859375
1761838771733555000,2.533554931640625,-2.3619842529296875,0.0352325439453125,0.0735015869140625
1761838771743624000,2.5436240234375,-2.3519439697265625,0.182861328125,-0.2456207275390625
1761838771753693700,2.553693603515625,-2.2366943359375,0.3181915283203125,-0.59027099609375
1761838771763763000,2.563762939453125,-2.1461639404296875,0.3156585693359375,-0.7697906494140625
1761838771773832700,2.573832763671875,-2.051422119140625,0.194580078125,-0.7837677001953125
1761838771783903000,2.583903076171875,-1.8488311767578125,0.0868988037109375,-0.7174072265625
1761838771793971700,2.5939716796875,-1.6116485595703125,0.0134429931640625,-0.6175689697265625
1761838771804042000,2.6040419921875,-1.398284912109375,-0.041748046875,-0.5048828125
1761838771814112000,2.614112060546875,-1.235565185546875,-0.065582275390625,-0.4044647216796875
1761838771824180700,2.6241806640625,-1.1564483642578125,-0.0606689453125,-0.3191986083984375
1761838771834251000,2.6342509765625,-1.1177978515625,-0.025543212890625,-0.2646636962890625
1761838771844320800,2.64432080078125,-1.0748443603515625,0.0216217041015625,-0.2322998046875
1761838771854390000,2.65439013671875,-1.0230560302734375,0.05767822265625,-0.205322265625
1761838771864459800,2.664459716796875,-0.965240478515625,0.0924072265625,-0.1882476806640625
1761838771874529800,2.67452978515625,-0.906707763671875,0.1236724853515625,-0.1672210693359375
1761838771884599000,2.68459912109375,-0.8636474609375,0.147613525390625,-0.130584716796875
1761838771894668800,2.694668701171875,-0.8249664306640625,0.1654052734375,-0.1094207763671875
1761838771904738800,2.70473876953125,-0.7914581298828125,0.186553955078125,-0.0922698974609375
1761838771914807800,2.714807861328125,-0.77313232421875,0.205230712890625,-0.074798583984375
1761838771924877800,2.7248779296875,-0.749176025390625,0.2064666748046875,-0.06060791015625
1761838771934946800,2.73494677734375,-0.7195892333984375,0.2032318115234375,-0.0472869873046875
1761838771945016800,2.745016845703125,-0.696319580078125,0.206207275390625,-0.0285797119140625
1761838771955086800,2.7550869140625,-0.6793670654296875,0.2203521728515625,-0.0065460205078125
1761838771965155800,2.76515576171875,-0.676361083984375,0.23663330078125,-0.015380859375
1761838771975225900,2.775225830078125,-0.724365234375,0.239044189453125,-0.0334014892578125
1761838771985296000,2.7852958984375,-0.7326812744140625,0.3109283447265625,-0.042633056640625
1761838771995364900,2.79536474609375,-0.712493896484375,0.3516845703125,-0.057586669921875
1761838772005434600,2.8054345703125,-0.741363525390625,0.3376007080078125,-0.0723419189453125
1761838772015505000,2.8155048828125,-0.7938232421875,0.371185302734375,-0.1224517822265625
1761838772025574000,2.825573974609375,-0.7566986083984375,0.435882568359375,-0.213104248046875
1761838772035644000,2.835643798828125,-0.729217529296875,0.4826202392578125,-0.3112335205078125
1761838772045714000,2.8457138671875,-0.7933807373046875,0.498687744140625,-0.3729095458984375
1761838772055783000,2.855782958984375,-0.8590240478515625,0.4761810302734375,-0.401641845703125
1761838772065853000,2.86585302734375,-0.907989501953125,0.4554595947265625,-0.4207763671875
1761838772075923000,2.8759228515625,-0.946319580078125,0.4589691162109375,-0.43585205078125
1761838772085992000,2.885991943359375,-0.9662017822265625,0.4492950439453125,-0.4410858154296875
1761838772096062000,2.89606201171875,-0.99163818359375,0.4304351806640625,-0.43524169921875
1761838772106131700,2.906131591796875,-1.0146026611328125,0.4265289306640625,-0.4326171875
1761838772116201000,2.916200927734375,-1.0164794921875,0.4241943359375,-0.4423980712890625
1761838772126269700,2.926269775390625,-1.0066986083984375,0.4073486328125,-0.45928955078125
1761838772136339700,2.936339599609375,-0.9973602294921875,0.3778076171875,-0.4862823486328125
1761838772146408400,2.946408447265625,-0.96636962890625,0.360870361328125,-0.522308349609375
1761838772156478700,2.956478759765625,-0.9235992431640625,0.35693359375,-0.5492095947265625
1761838772166547500,2.96654736328125,-0.9043731689453125,0.3387451171875,-0.5468597412109375
1761838772176617700,2.97661767578125,-0.90185546875,0.3141326904296875,-0.51629638671875
1761838772186687700,2.986687744140625,-0.8979644775390625,0.2910919189453125,-0.47625732421875
1761838772196756500,2.996756591796875,-0.893951416015625,0.265869140625,-0.4276123046875
1761838772206826800,3.00682666015625,-0.88739013671875,0.22943115234375,-0.376220703125
1761838772216896500,3.016896484375,-0.861663818359375,0.18585205078125,-0.3341522216796875
1761838772226965800,3.0269658203125,-0.837158203125,0.1509552001953125,-0.3033905029296875
1761838772237035500,3.037035400390625,-0.827239990234375,0.125823974609375,-0.2761993408203125
1761838772247105500,3.04710546875,-0.8417510986328125,0.105438232421875,-0.2540435791015625
1761838772257174500,3.057174560546875,-0.8635101318359375,0.0882415771484375,-0.243927001953125
1761838772267244500,3.06724462890625,-0.85797119140625,0.078887939453125,-0.2444000244140625
1761838772277314600,3.077314453125,-0.864288330078125,0.075653076171875,-0.245758056640625
1761838772287383600,3.087383544921875,-0.8830108642578125,0.06951904296875,-0.2404937744140625
1761838772297453600,3.09745361328125,-0.8892059326171875,0.069183349609375,-0.24017333984375
1761838772307523800,3.10752392578125,-0.895843505859375,0.0815277099609375,-0.2462158203125
1761838772317592600,3.117592529296875,-0.9003753662109375,0.09637451171875,-0.2549896240234375
1761838772327662600,3.12766259765625,-0.8954925537109375,0.103546142578125,-0.2674560546875
1761838772337732600,3.137732666015625,-0.8863983154296875,0.1074066162109375,-0.272796630859375
1761838772347801600,3.147801513671875,-0.8737640380859375,0.10491943359375,-0.2673797607421875
1761838772357871600,3.15787158203125,-0.8653564453125,0.091552734375,-0.253631591796875
1761838772367941600,3.167941650390625,-0.8649139404296875,0.0825653076171875,-0.235687255859375
1761838772378010600,3.1780107421875,-0.8615570068359375,0.0778961181640625,-0.218414306640625
1761838772388080600,3.18808056640625,-0.87445068359375,0.076416015625,-0.2083892822265625
1761838772398150700,3.198150634765625,-0.9058685302734375,0.084136962890625,-0.20367431640625
1761838772408219600,3.2082197265625,-0.9259490966796875,0.0952606201171875,-0.20751953125
1761838772418289700,3.21828955078125,-0.9435272216796875,0.112945556640625,-0.21240234375
1761838772428359400,3.228359375,-0.9627838134765625,0.126739501953125,-0.221832275390625
1761838772438428700,3.2384287109375,-0.9786224365234375,0.1380767822265625,-0.232025146484375
1761838772448498700,3.248498779296875,-1.000274658203125,0.1507110595703125,-0.2393798828125
1761838772458567700,3.258567626953125,-1.0394744873046875,0.16400146484375,-0.2415924072265625
1761838772468637700,3.2686376953125,-1.0685577392578125,0.1807098388671875,-0.2459564208984375
1761838772478707500,3.27870751953125,-1.0843505859375,0.205810546875,-0.2479248046875
1761838772488776700,3.288776611328125,-1.114410400390625,0.22454833984375,-0.2413177490234375
1761838772498846500,3.298846435546875,-1.1353759765625,0.237945556640625,-0.2397613525390625
1761838772508916700,3.308916748046875,-1.1455078125,0.2497711181640625,-0.2442626953125
1761838772518985500,3.3189853515625,-1.1400146484375,0.25042724609375,-0.2538299560546875
1761838772529055500,3.329055419921875,-1.1251678466796875,0.2462615966796875,-0.26617431640625
1761838772539125800,3.339125732421875,-1.11053466796875,0.2440643310546875,-0.2777099609375
1761838772549194500,3.349194580078125,-1.0973052978515625,0.2355499267578125,-0.2788543701171875
1761838772559264800,3.3592646484375,-1.075408935546875,0.22515869140625,-0.2785186767578125
1761838772569334500,3.36933447265625,-1.04278564453125,0.2145233154296875,-0.2740020751953125
1761838772579403500,3.379403564453125,-1.014862060546875,0.1944427490234375,-0.2706451416015625
1761838772589473800,3.389473876953125,-0.9895477294921875,0.1741180419921875,-0.2703704833984375
1761838772599543600,3.39954345703125,-0.970916748046875,0.15850830078125,-0.27532958984375
1761838772609612800,3.40961279296875,-0.9498443603515625,0.1533203125,-0.2796630859375
1761838772619682600,3.4196826171875,-0.92681884765625,0.151580810546875,-0.2831878662109375
1761838772629752600,3.429752685546875,-0.907989501953125,0.144012451171875,-0.2783203125
1761838772639821600,3.439821533203125,-0.8990631103515625,0.1351470947265625,-0.2648468017578125
1761838772649891600,3.4498916015625,-0.8992919921875,0.127349853515625,-0.2433319091796875
1761838772659961600,3.459961669921875,-0.881622314453125,0.1251373291015625,-0.225982666015625
1761838772670030600,3.470030517578125,-0.8651275634765625,0.12335205078125,-0.207305908203125
1761838772680100600,3.4801005859375,-0.8655853271484375,0.110687255859375,-0.1854095458984375
1761838772690170600,3.490170654296875,-0.86944580078125,0.1002960205078125,-0.159393310546875
1761838772700239600,3.500239501953125,-0.8590850830078125,0.0963897705078125,-0.141815185546875
1761838772710309600,3.5103095703125,-0.8335113525390625,0.1004791259765625,-0.1371307373046875
1761838772720379600,3.520379638671875,-0.7921600341796875,0.107391357421875,-0.1422271728515625
1761838772730448600,3.53044873046875,-0.765594482421875,0.1055908203125,-0.14825439453125
1761838772740518700,3.5405185546875,-0.7527618408203125,0.0923919677734375,-0.14471435546875
1761838772750588700,3.550588623046875,-0.732635498046875,0.0796051025390625,-0.1412811279296875
1761838772760657700,3.56065771484375,-0.7238922119140625,0.06573486328125,-0.137054443359375
1761838772770727700,3.570727783203125,-0.719696044921875,0.044403076171875,-0.1330718994140625
1761838772780797700,3.580797607421875,-0.6952362060546875,0.0240325927734375,-0.1361846923828125
1761838772790866700,3.59086669921875,-0.665252685546875,0.0091552734375,-0.1490020751953125
1761838772800936700,3.600936767578125,-0.6380157470703125,-0.0010528564453125,-0.1646575927734375
1761838772811006500,3.61100634765625,-0.611175537109375,-0.0101165771484375,-0.1815643310546875
1761838772821075700,3.62107568359375,-0.5778045654296875,-0.0146026611328125,-0.2008819580078125
1761838772831145500,3.6311455078125,-0.5369873046875,-0.021820068359375,-0.215789794921875
1761838772841214700,3.641214599609375,-0.501739501953125,-0.0345306396484375,-0.2165374755859375
1761838772851284500,3.651284423828125,-0.47784423828125,-0.0428466796875,-0.2080230712890625
1761838772861354500,3.6613544921875,-0.463043212890625,-0.0448150634765625,-0.1977691650390625
1761838772871423700,3.671423828125,-0.460968017578125,-0.0421600341796875,-0.1774139404296875
1761838772881493500,3.681493408203125,-0.4715576171875,-0.03558349609375,-0.14715576171875
1761838772891563800,3.691563720703125,-0.4745941162109375,-0.0299835205078125,-0.115234375
1761838772901632500,3.701632568359375,-0.46612548828125,-0.0186920166015625,-0.079681396484375
1761838772911702500,3.71170263671875,-0.462432861328125,-0.0017852783203125,-0.045928955078125
1761838772921772800,3.721772705078125,-0.4664764404296875,0.0218963623046875,-0.012664794921875
1761838772931841500,3.731841552734375,-0.47723388671875,0.0461883544921875,0.0284423828125
1761838772941911800,3.741911865234375,-0.513336181640625,0.0751800537109375,0.07159423828125
1761838772951981600,3.751981689453125,-0.575897216796875,0.10986328125,0.1188201904296875
1761838772962050600,3.762050537109375,-0.667266845703125,0.1399383544921875,0.18499755859375
1761838772972120600,3.77212060546875,-0.819580078125,0.1857452392578125,0.27044677734375
1761838772982190600,3.782190673828125,-0.9427642822265625,0.29388427734375,0.3343048095703125
1761838772992259600,3.792259521484375,-1.0629425048828125,0.3282928466796875,0.349822998046875
1761838773002329600,3.80232958984375,-1.2252197265625,0.3201751708984375,0.3748779296875
1761838773012399600,3.812399658203125,-1.2580718994140625,0.3809967041015625,0.36920166015625
1761838773022468600,3.822468505859375,-1.2587738037109375,0.3571319580078125,0.3107757568359375
1761838773032538600,3.83253857421875,-1.3375701904296875,0.250518798828125,0.2054901123046875
1761838773042608400,3.8426083984375,-1.3983306884765625,0.170745849609375,0.0482330322265625
1761838773052677600,3.852677734375,-1.48944091796875,0.0278472900390625,-0.1231536865234375
1761838773062747600,3.86274755859375,-1.713714599609375,-0.1693572998046875,-0.3000335693359375
1761838773072817700,3.872817626953125,-2.07574462890625,-0.344024658203125,-0.5064544677734375
1761838773082886700,3.88288671875,-2.469085693359375,-0.40142822265625,-0.7441558837890625
1761838773092956400,3.892956298828125,-2.8900146484375,-0.304595947265625,-1.00628662109375
1761838773103026700,3.903026611328125,-3.1988525390625,-0.1383514404296875,-1.258880615234375
1761838773113095400,3.913095458984375,-3.4800262451171875,0.0161285400390625,-1.4650421142578125
1761838773123166500,3.92316650390625,-3.63128662109375,0.1613311767578125,-1.56695556640625
1761838773133236700,3.93323681640625,-3.6063385009765625,0.273406982421875,-1.5919647216796875
1761838773143305500,3.943305419921875,-3.4786224365234375,0.3170013427734375,-1.541778564453125
1761838773153375700,3.953375732421875,-3.2579803466796875,0.3032073974609375,-1.441070556640625
1761838773163445500,3.963445556640625,-2.94781494140625,0.3045501708984375,-1.34356689453125
1761838773173514500,3.973514404296875,-2.5979156494140625,0.35198974609375,-1.2684173583984375
1761838773183584500,3.98358447265625,-2.256927490234375,0.412078857421875,-1.2167816162109375
1761838773193654500,3.993654541015625,-1.907257080078125,0.4375152587890625,-1.210601806640625
1761838773203723800,4.003723876953125,-1.49371337890625,0.500030517578125,-1.1955108642578125
1761838773213791500,4.01379150390625,-1.119415283203125,0.522064208984375,-1.1557769775390625
1761838773223860500,4.023860595703125,-0.849609375,0.4085540771484375,-1.046661376953125
1761838773233930500,4.033930419921875,-0.6553802490234375,0.1742706298828125,-0.89459228515625
1761838773244000800,4.044000732421875,-0.5246124267578125,-0.0604705810546875,-0.7547760009765625
1761838773254070500,4.054070556640625,-0.4613494873046875,-0.2500762939453125,-0.6369476318359375
1761838773264139800,4.064139892578125,-0.4352874755859375,-0.340545654296875,-0.579986572265625
1761838773274209500,4.07420947265625,-0.395294189453125,-0.2187652587890625,-0.58856201171875
1761838773284279600,4.084279541015625,-0.3379669189453125,0.0083770751953125,-0.6204681396484375
1761838773294348500,4.0943486328125,-0.271240234375,0.211639404296875,-0.5854339599609375
1761838773304418600,4.10441845703125,-0.3078155517578125,0.3239593505859375,-0.4677581787109375
1761838773314487600,4.114487548828125,-0.495025634765625,0.105560302734375,-0.2336273193359375
1761838773324557600,4.1245576171875,-0.791656494140625,-0.174407958984375,-0.047943115234375
1761838773334627600,4.134627685546875,-0.853546142578125,-0.03692626953125,-0.140960693359375
1761838773344696600,4.144696533203125,-0.6510009765625,0.2227783203125,-0.32061767578125
1761838773354766600,4.1547666015625,-0.4401397705078125,0.3711395263671875,-0.44964599609375
1761838773364836400,4.16483642578125,-0.267120361328125,0.3348846435546875,-0.421661376953125
1761838773374905600,4.174905517578125,-0.207550048828125,0.206787109375,-0.2685089111328125
1761838773384975600,4.1849755859375,-0.1482391357421875,0.14678955078125,-0.116851806640625
1761838773395045600,4.195045654296875,-0.0140380859375,0.1778717041015625,-0.02642822265625
1761838773405114600,4.205114501953125,0.151702880859375,0.256500244140625,0.0467071533203125
1761838773415184400,4.215184326171875,0.27166748046875,0.2880096435546875,0.1231689453125
1761838773425254700,4.225254638671875,0.3642578125,0.2434844970703125,0.1915435791015625
1761838773435323400,4.235323486328125,0.427398681640625,0.1683349609375,0.2506866455078125
1761838773445393700,4.2453935546875,0.4622344970703125,0.0924224853515625,0.2742919921875
1761838773455463700,4.255463623046875,0.45977783203125,0.012664794921875,0.27947998046875
1761838773465532400,4.265532470703125,0.4272613525390625,-0.026763916015625,0.258544921875
1761838773475602700,4.275602783203125,0.363006591796875,-0.0211944580078125,0.1981201171875
1761838773485672400,4.28567236328125,0.38201904296875,-0.0220184326171875,0.1538238525390625
1761838773495741700,4.29574169921875,0.1907806396484375,0.0694122314453125,0.1077880859375
1761838773505811500,4.3058115234375,-0.0240631103515625,0.063507080078125,0.0858612060546875
1761838773515881500,4.315881591796875,0.05584716796875,0.02838134765625,0.2091217041015625
1761838773525950700,4.32595068359375,0.1844329833984375,-0.03094482421875,0.2740936279296875
1761838773536020500,4.3360205078125,0.22259521484375,-0.0999755859375,0.336578369140625
1761838773546090500,4.346090576171875,0.2310638427734375,-0.1547698974609375,0.3931884765625
1761838773556159500,4.356159423828125,0.2084503173828125,-0.180816650390625,0.4166412353515625
1761838773566229500,4.3662294921875,0.1851654052734375,-0.157135009765625,0.407196044921875
1761838773576299800,4.3762998046875,0.173431396484375,-0.12359619140625,0.4059295654296875
1761838773586368500,4.386368408203125,0.1307220458984375,-0.065826416015625,0.4027252197265625
1761838773596438500,4.3964384765625,0.072052001953125,-0.0068206787109375,0.407623291015625
1761838773606508500,4.406508544921875,0.007293701171875,0.0133514404296875,0.42626953125
1761838773616577500,4.41657763671875,-0.095977783203125,0.0263671875,0.43603515625
1761838773626647600,4.4266474609375,-0.2154541015625,0.038665771484375,0.4333038330078125
1761838773636717600,4.436717529296875,-0.3212127685546875,0.0432586669921875,0.4199676513671875
1761838773646786600,4.44678662109375,-0.4389190673828125,0.0777740478515625,0.402191162109375
1761838773656856600,4.456856689453125,-0.5798187255859375,0.130767822265625,0.381561279296875
1761838773666926600,4.466926513671875,-0.697235107421875,0.1626739501953125,0.395416259765625
1761838773676995600,4.47699560546875,-0.807403564453125,0.152099609375,0.48126220703125
1761838773687065600,4.487065673828125,-0.9283294677734375,0.052520751953125,0.6460113525390625
1761838773697135600,4.497135498046875,-1.1197662353515625,-0.1408843994140625,0.8631744384765625
1761838773707204600,4.50720458984375,-1.4886322021484375,-0.294586181640625,0.9809417724609375
1761838773717274600,4.517274658203125,-1.815032958984375,-0.34381103515625,0.9696197509765625
1761838773727344600,4.5273447265625,-2.04998779296875,-0.23260498046875,0.7138671875
1761838773737413600,4.53741357421875,-2.2579345703125,0.088165283203125,0.194976806640625
1761838773747483400,4.5474833984375,-2.2133636474609375,0.1539764404296875,-0.187896728515625
1761838773757553700,4.5575537109375,-2.16796875,0.08001708984375,-0.4319000244140625
1761838773767622400,4.567622314453125,-2.15704345703125,0.147247314453125,-0.5526580810546875
1761838773777692700,4.577692626953125,-2.20562744140625,0.344940185546875,-0.549560546875
1761838773787762700,4.5877626953125,-2.3280029296875,0.457427978515625,-0.4168853759765625
1761838773797831400,4.59783154296875,-2.4178924560546875,0.3308258056640625,-0.3314971923828125
1761838773807901700,4.607901611328125,-2.4946441650390625,0.216522216796875,-0.368896484375
1761838773817971500,4.617971435546875,-2.50140380859375,0.171173095703125,-0.3991546630859375
1761838773828040700,4.628040771484375,-2.5082855224609375,0.1849212646484375,-0.446929931640625
1761838773838110700,4.63811083984375,-2.5523223876953125,0.1431121826171875,-0.502685546875
1761838773848180500,4.648180419921875,-2.5401763916015625,0.1159515380859375,-0.544708251953125
1761838773858250500,4.65825048828125,-2.479644775390625,0.077056884765625,-0.536102294921875
1761838773868320500,4.668320556640625,-2.37371826171875,0.058990478515625,-0.4841156005859375
1761838773878389500,4.678389404296875,-2.2171630859375,0.06549072265625,-0.402587890625
1761838773888459800,4.688459716796875,-2.02935791015625,0.067840576171875,-0.3085784912109375
1761838773898529500,4.698529541015625,-1.8426055908203125,0.0450897216796875,-0.2154388427734375
1761838773908599600,4.708599609375,-1.6757049560546875,0.021148681640625,-0.143829345703125
1761838773918668500,4.71866845703125,-1.5543060302734375,0.023773193359375,-0.116729736328125
1761838773928738600,4.728738525390625,-1.421539306640625,0.0270538330078125,-0.117828369140625
1761838773938808600,4.73880859375,-1.271148681640625,0.02801513671875,-0.1484527587890625
1761838773948877600,4.748877685546875,-1.150390625,0.0489959716796875,-0.1686248779296875
1761838773958947600,4.758947509765625,-1.1386871337890625,0.0908660888671875,-0.1504669189453125
1761838773969017600,4.769017578125,-1.1502227783203125,0.1329498291015625,-0.1615142822265625
1761838773979086600,4.779086669921875,-1.1139984130859375,0.203643798828125,-0.174835205078125
1761838773989156600,4.789156494140625,-1.080596923828125,0.261474609375,-0.1699981689453125
1761838773999226600,4.7992265625,-1.039154052734375,0.2776031494140625,-0.1534881591796875
1761838774009295400,4.80929541015625,-0.987335205078125,0.277130126953125,-0.12884521484375
1761838774019365600,4.81936572265625,-0.9190826416015625,0.253753662109375,-0.09344482421875
1761838774029435600,4.829435546875,-0.8370819091796875,0.2209625244140625,-0.0668487548828125
1761838774039504600,4.839504638671875,-0.741119384765625,0.1931915283203125,-0.039642333984375
1761838774049574700,4.84957470703125,-0.649261474609375,0.16552734375,-0.00830078125
1761838774059644400,4.85964453125,-0.571990966796875,0.1333465576171875,0.019012451171875
1761838774069713700,4.869713623046875,-0.509857177734375,0.1038665771484375,0.045562744140625
1761838774079783700,4.87978369140625,-0.464324951171875,0.077301025390625,0.0675506591796875
1761838774089853400,4.889853515625,-0.429351806640625,0.056060791015625,0.091278076171875
1761838774099922700,4.899922607421875,-0.4110565185546875,0.0515289306640625,0.1110382080078125
1761838774109992400,4.909992431640625,-0.422454833984375,0.046142578125,0.1232147216796875
1761838774120062500,4.9200625,-0.4257049560546875,0.03350830078125,0.126190185546875
1761838774130131000,4.930130859375,-0.408660888671875,0.0399169921875,0.110748291015625
1761838774140201200,4.940201171875,-0.3825836181640625,0.0521240234375,0.0932159423828125
1761838774150271200,4.950271240234375,-0.358154296875,0.043243408203125,0.094146728515625
1761838774160340000,4.960340087890625,-0.3701324462890625,0.030181884765625,0.103912353515625
1761838774170410200,4.97041015625,-0.4161224365234375,0.0093841552734375,0.11749267578125
1761838774180480000,4.98047998046875,-0.491851806640625,-0.039520263671875,0.1277618408203125
1761838774190549200,4.99054931640625,-0.5868682861328125,-0.08905029296875,0.1079254150390625
1761838774200619300,5.000619384765625,-0.61297607421875,-0.0849151611328125,0.0514678955078125
1761838774210689000,5.01068896484375,-0.62347412109375,-0.032318115234375,-0.032318115234375
1761838774220758300,5.02075830078125,-0.6559600830078125,0.00653076171875,-0.1205902099609375
1761838774230828000,5.030828125,-0.6889801025390625,0.02838134765625,-0.1934661865234375
1761838774240898000,5.04089794921875,-0.7442474365234375,0.0563201904296875,-0.241485595703125
1761838774250967000,5.050967041015625,-0.8279876708984375,0.084625244140625,-0.2603912353515625
1761838774261037000,5.061037109375,-0.9149932861328125,0.110076904296875,-0.2681732177734375
1761838774271107000,5.071107177734375,-1.01300048828125,0.1401519775390625,-0.2718658447265625
1761838774281176000,5.081176025390625,-1.093780517578125,0.1727447509765625,-0.2693939208984375
1761838774291246000,5.09124609375,-1.127288818359375,0.2028656005859375,-0.25726318359375
1761838774301316000,5.101316162109375,-1.1619110107421875,0.197265625,-0.2227020263671875
1761838774311385000,5.111385009765625,-1.207183837890625,0.1545257568359375,-0.1781768798828125
1761838774321455000,5.121455078125,-1.2425994873046875,0.1074981689453125,-0.1352996826171875
1761838774331525000,5.131525146484375,-1.23486328125,0.05517578125,-0.1089019775390625
1761838774341594000,5.141593994140625,-1.2178192138671875,0.0114593505859375,-0.0938873291015625
1761838774351664000,5.1516640625,-1.2124786376953125,-0.036224365234375,-0.0867462158203125
1761838774361734100,5.161734130859375,-1.2047119140625,-0.0858612060546875,-0.0887908935546875
1761838774371803100,5.17180322265625,-1.209136962890625,-0.11846923828125,-0.111602783203125
1761838774381873200,5.181873046875,-1.1915435791015625,-0.135223388671875,-0.1629791259765625
1761838774391943200,5.191943115234375,-1.152984619140625,-0.141693115234375,-0.219024658203125
1761838774402012200,5.20201220703125,-1.1284637451171875,-0.145111083984375,-0.2630767822265625
1761838774412082200,5.212082275390625,-1.1134796142578125,-0.1543121337890625,-0.2882080078125
1761838774422152000,5.22215185546875,-1.0850677490234375,-0.17047119140625,-0.291748046875
1761838774432221200,5.23222119140625,-1.0520477294921875,-0.1931304931640625,-0.2707366943359375
1761838774442291000,5.242291015625,-1.029754638671875,-0.2154388427734375,-0.237762451171875
1761838774452361200,5.252361328125,-0.99725341796875,-0.2177581787109375,-0.20654296875
1761838774462430000,5.262429931640625,-0.9547576904296875,-0.2141876220703125,-0.1752777099609375
1761838774472500000,5.2725,-0.9223480224609375,-0.2125244140625,-0.141845703125
1761838774482570200,5.2825703125,-0.8966522216796875,-0.211151123046875,-0.106231689453125
1761838774492639000,5.292638916015625,-0.88580322265625,-0.2062530517578125,-0.06866455078125
1761838774502709200,5.302709228515625,-0.8862762451171875,-0.19696044921875,-0.034393310546875
1761838774512779000,5.312779052734375,-0.8876495361328125,-0.1846160888671875,-0.0098419189453125
1761838774522848300,5.32284814453125,-0.8993377685546875,-0.1739959716796875,0.0099334716796875
1761838774532918300,5.332918212890625,-0.9066925048828125,-0.1686248779296875,0.0222625732421875
1761838774542988000,5.342988037109375,-0.9122314453125,-0.161895751953125,0.02996826171875
1761838774553058000,5.35305810546875,-0.9184722900390625,-0.1590423583984375,0.0363311767578125
1761838774563127000,5.363126953125,-0.9227142333984375,-0.1585540771484375,0.0397796630859375
1761838774573197000,5.373197021484375,-0.93792724609375,-0.1630096435546875,0.043548583984375
1761838774583267300,5.383267333984375,-0.94781494140625,-0.1659088134765625,0.0434417724609375
1761838774593336000,5.393336181640625,-0.94189453125,-0.167449951171875,0.0397186279296875
1761838774603406000,5.403406005859375,-0.945037841796875,-0.17193603515625,0.0410614013671875
1761838774613476000,5.41347607421875,-0.95452880859375,-0.179290771484375,0.03997802734375
1761838774623545000,5.423545166015625,-0.9582672119140625,-0.179931640625,0.03765869140625
1761838774633615000,5.433614990234375,-0.962890625,-0.1785888671875,0.0370330810546875
1761838774643685000,5.44368505859375,-0.9652557373046875,-0.177581787109375,0.0388336181640625
1761838774653754000,5.453754150390625,-0.95489501953125,-0.1740875244140625,0.042327880859375
1761838774663824100,5.46382421875,-0.9420013427734375,-0.1657562255859375,0.04833984375
1761838774673894100,5.47389404296875,-0.9319915771484375,-0.1636199951171875,0.0561676025390625
1761838774683963100,5.483963134765625,-0.9141387939453125,-0.168792724609375,0.05609130859375
1761838774694033200,5.494033203125,-0.89935302734375,-0.172119140625,0.0486907958984375
1761838774704103000,5.50410302734375,-0.900970458984375,-0.17578125,0.04461669921875
1761838774714172200,5.514172119140625,-0.8943328857421875,-0.176055908203125,0.034515380859375
1761838774724242200,5.5242421875,-0.8839111328125,-0.1622467041015625,0.0244140625
1761838774734312000,5.53431201171875,-0.87615966796875,-0.1516265869140625,0.022613525390625
1761838774744381200,5.544381103515625,-0.861968994140625,-0.14984130859375,0.025299072265625
1761838774754451000,5.554450927734375,-0.8443756103515625,-0.1495819091796875,0.0326690673828125
1761838774764521200,5.564521240234375,-0.8224334716796875,-0.147613525390625,0.0370025634765625
1761838774774590000,5.57458984375,-0.7991790771484375,-0.1429290771484375,0.041595458984375
1761838774784660200,5.58466015625,-0.779327392578125,-0.1430816650390625,0.0460357666015625
1761838774794730200,5.594730224609375,-0.766632080078125,-0.14373779296875,0.051300048828125
1761838774804799000,5.604799072265625,-0.757965087890625,-0.1439971923828125,0.0568084716796875
1761838774814869200,5.614869140625,-0.7459564208984375,-0.1429443359375,0.056610107421875
1761838774824939000,5.62493896484375,-0.731964111328125,-0.1421661376953125,0.0548248291015625
1761838774835008300,5.63500830078125,-0.7187347412109375,-0.139617919921875,0.0481719970703125
1761838774845078000,5.645078125,-0.7093353271484375,-0.1243133544921875,0.03265380859375
1761838774855148000,5.65514794921875,-0.693695068359375,-0.10321044921875,0.0140838623046875
1761838774865217300,5.66521728515625,-0.6699066162109375,-0.0831146240234375,-0.0121612548828125
1761838774875287000,5.675287109375,-0.6381072998046875,-0.057861328125,-0.04052734375
1761838774885357000,5.685357177734375,-0.5993194580078125,-0.037078857421875,-0.0631256103515625
1761838774895426000,5.695426025390625,-0.5619659423828125,-0.019256591796875,-0.0840301513671875
1761838774905496000,5.70549609375,-0.5286102294921875,-0.0023651123046875,-0.0879974365234375
1761838774915566000,5.715566162109375,-0.5204315185546875,0.0057220458984375,-0.0748138427734375
1761838774925635000,5.725635009765625,-0.526519775390625,0.0168304443359375,-0.0689239501953125
1761838774935705000,5.735705078125,-0.5299530029296875,0.0527801513671875,-0.0650177001953125
1761838774945775000,5.745775146484375,-0.4912261962890625,0.099884033203125,-0.063140869140625
1761838774955845000,5.75584521484375,-0.453277587890625,0.13671875,-0.0481109619140625
1761838774965914000,5.7659140625,-0.444183349609375,0.169403076171875,-0.0281982421875
1761838774975984000,5.775984130859375,-0.42901611328125,0.1894683837890625,-0.002288818359375
1761838774986054100,5.78605419921875,-0.4154205322265625,0.19696044921875,0.0331878662109375
1761838774996123100,5.796123046875,-0.4314727783203125,0.205963134765625,0.0819091796875
1761838775006193200,5.806193115234375,-0.4647674560546875,0.179534912109375,0.1689605712890625
1761838775016263000,5.816262939453125,-0.536834716796875,0.141021728515625,0.2425384521484375
1761838775026332200,5.826332275390625,-0.6258392333984375,0.1605377197265625,0.2881011962890625
1761838775036402200,5.836402099609375,-0.6986541748046875,0.166961669921875,0.3385772705078125
1761838775046472200,5.84647216796875,-0.894866943359375,0.111724853515625,0.39642333984375
1761838775056541200,5.856541259765625,-1.29351806640625,0.1222076416015625,0.4125518798828125
1761838775066611000,5.86661083984375,-1.5272674560546875,0.1747283935546875,0.4088287353515625
1761838775076681200,5.87668115234375,-1.766632080078125,0.027984619140625,0.4654541015625
1761838775086750000,5.88675,-2.0771331787109375,-0.2729949951171875,0.46923828125
1761838775096820200,5.8968203125,-2.3076629638671875,-0.42486572265625,0.296051025390625
1761838775106890200,5.90689013671875,-2.4405059814453125,-0.4474334716796875,-0.001251220703125
1761838775116959000,5.916958984375,-2.6238250732421875,-0.476959228515625,-0.2434234619140625
1761838775127029200,5.927029296875,-2.8135528564453125,-0.49639892578125,-0.3463592529296875
1761838775137102000,5.93710205078125,-3.0796966552734375,-0.5022735595703125,-0.267730712890625
1761838775147171300,5.94717138671875,-3.3285064697265625,-0.506256103515625,-0.088836669921875
1761838775157241000,5.957240966796875,-3.4867095947265625,-0.4482269287109375,0.0858154296875
1761838775167311000,5.96731103515625,-3.5490570068359375,-0.37493896484375,0.2053680419921875
1761838775177380000,5.977380126953125,-3.519317626953125,-0.31915283203125,0.2562713623046875
1761838775187450000,5.9874501953125,-3.4162445068359375,-0.2310791015625,0.258148193359375
1761838775197520400,5.997520263671875,-3.246734619140625,-0.109771728515625,0.196380615234375
1761838775207589000,6.007589111328125,-2.959197998046875,-0.0003509521484375,0.076995849609375
1761838775217659100,6.0176591796875,-2.6287384033203125,0.073699951171875,-0.017547607421875
1761838775227729200,6.027729248046875,-2.260009765625,0.1013641357421875,-0.0712890625
1761838775237798100,6.037798095703125,-1.856170654296875,0.0641632080078125,-0.081298828125
1761838775247868400,6.047868408203125,-1.4821319580078125,-0.0145721435546875,-0.0704345703125
1761838775257938200,6.057938232421875,-1.1853179931640625,-0.057342529296875,-0.0612640380859375
1761838775268007200,6.068007080078125,-0.925506591796875,-0.043487548828125,-0.06451416015625
1761838775278077200,6.0780771484375,-0.690093994140625,0.0033721923828125,-0.0548095703125
1761838775288147200,6.088147216796875,-0.50933837890625,0.052703857421875,-0.0330352783203125
1761838775298217200,6.09821728515625,-0.4008026123046875,0.083465576171875,-0.004852294921875
1761838775308286200,6.1082861328125,-0.3890380859375,0.060272216796875,-0.0048980712890625
1761838775318356200,6.118356201171875,-0.413116455078125,0.02581787109375,-0.05548095703125
1761838775328426200,6.12842626953125,-0.4533538818359375,0.0528411865234375,-0.1403961181640625
1761838775338495200,6.1384951171875,-0.4529571533203125,0.1679534912109375,-0.260711669921875
1761838775348565000,6.14856494140625,-0.4499053955078125,0.3195343017578125,-0.3599853515625
1761838775358635300,6.15863525390625,-0.472198486328125,0.424896240234375,-0.3907318115234375
1761838775368704000,6.1687041015625,-0.4784698486328125,0.471588134765625,-0.32501220703125
1761838775378774300,6.178774169921875,-0.4040069580078125,0.476348876953125,-0.1869049072265625
1761838775388844300,6.18884423828125,-0.3106231689453125,0.511932373046875,-0.016571044921875
1761838775398913000,6.1989130859375,-0.2337646484375,0.5096435546875,0.166748046875
1761838775408983300,6.2089833984375,-0.1845245361328125,0.3286285400390625,0.329803466796875
1761838775419053000,6.219052978515625,-0.1969757080078125,0.1562347412109375,0.4783935546875
1761838775429122300,6.229122314453125,-0.1477813720703125,0.0598602294921875,0.515716552734375
1761838775439192300,6.2391923828125,-0.062286376953125,-0.0301513671875,0.48870849609375
1761838775449262000,6.249261962890625,0.021209716796875,-0.022918701171875,0.4021759033203125
1761838775459331300,6.259331298828125,0.1318206787109375,0.0041656494140625,0.279876708984375
1761838775469401000,6.269401123046875,0.2295684814453125,-0.014404296875,0.1749114990234375
1761838775479471000,6.27947119140625,0.284881591796875,-0.06219482421875,0.0874176025390625
1761838775489540000,6.2895400390625,0.3130645751953125,-0.114227294921875,0.0192108154296875
1761838775499610000,6.299610107421875,0.2984161376953125,-0.128997802734375,-0.0345916748046875
1761838775509680400,6.309680419921875,0.2574310302734375,-0.13427734375,-0.07818603515625
1761838775519749000,6.3197490234375,0.20294189453125,-0.1496124267578125,-0.1071624755859375
1761838775529819100,6.329819091796875,0.1460113525390625,-0.1407318115234375,-0.145599365234375
1761838775539889200,6.33988916015625,0.0638275146484375,-0.2005157470703125,-0.2450103759765625
1761838775549959200,6.349959228515625,-0.0864410400390625,-0.2897491455078125,-0.328948974609375
1761838775560028200,6.360028076171875,-0.1225128173828125,-0.3086700439453125,-0.3760528564453125
1761838775570098200,6.37009814453125,0.0831756591796875,-0.375152587890625,-0.3601226806640625
1761838775580168200,6.380168212890625,0.220428466796875,-0.39306640625,-0.3478546142578125
1761838775590237200,6.3902373046875,0.3120880126953125,-0.3208770751953125,-0.32073974609375
1761838775600307200,6.40030712890625,0.3231964111328125,-0.273101806640625,-0.265625
1761838775610377200,6.410377197265625,0.25079345703125,-0.2923583984375,-0.16790771484375
1761838775620446200,6.4204462890625,0.1512451171875,-0.3508758544921875,-0.04864501953125
1761838775630516200,6.43051611328125,0.027618408203125,-0.3709869384765625,0.040313720703125
1761838775640586200,6.440586181640625,-0.091949462890625,-0.3110809326171875,0.107452392578125
1761838775650655200,6.4506552734375,-0.2078704833984375,-0.235137939453125,0.153106689453125
1761838775660725000,6.46072509765625,-0.3238067626953125,-0.151947021484375,0.1806182861328125
1761838775670795300,6.470795166015625,-0.440887451171875,-0.0611572265625,0.1833648681640625
1761838775680864000,6.480864013671875,-0.5270233154296875,0.0072174072265625,0.1665191650390625
1761838775690934300,6.490934326171875,-0.5674591064453125,0.0611572265625,0.162322998046875
1761838775701004300,6.50100439453125,-0.5941162109375,0.097503662109375,0.1733551025390625
1761838775711073300,6.5110732421875,-0.59271240234375,0.09332275390625,0.227447509765625
1761838775721143300,6.521143310546875,-0.6226654052734375,0.0279541015625,0.321044921875
1761838775731213000,6.531213134765625,-0.6789093017578125,-0.051116943359375,0.461029052734375
1761838775741282300,6.5412822265625,-0.74493408203125,-0.1570587158203125,0.6402435302734375
1761838775751352300,6.551352294921875,-0.882354736328125,-0.329742431640625,0.8372802734375
1761838775761422000,6.561422119140625,-1.1323089599609375,-0.55609130859375,0.998504638671875
1761838775771491300,6.5714912109375,-1.450469970703125,-0.692474365234375,0.9974365234375
1761838775781561000,6.58156103515625,-1.6655120849609375,-0.6580352783203125,0.9068603515625
1761838775791631000,6.591631103515625,-1.8942718505859375,-0.6014251708984375,0.6403656005859375
1761838775801701400,6.601701416015625,-1.9785308837890625,-0.4173736572265625,0.083465576171875
1761838775811770000,6.61177001953125,-1.841339111328125,-0.0879974365234375,-0.5030059814453125
1761838775821840400,6.62184033203125,-1.8967132568359375,-0.0207061767578125,-0.7232513427734375
1761838775831910100,6.63191015625,-2.0228424072265625,-0.1569061279296875,-0.7700653076171875
1761838775841979400,6.6419794921875,-2.0469970703125,-0.1319580078125,-0.74066162109375
1761838775852049200,6.652049072265625,-2.0831756591796875,-0.1280975341796875,-0.62603759765625
1761838775862119200,6.662119140625,-2.1203460693359375,-0.205352783203125,-0.5053253173828125
1761838775872188200,6.672188232421875,-2.17864990234375,-0.128265380859375,-0.416534423828125
1761838775882258200,6.682258056640625,-2.2326812744140625,-0.0413665771484375,-0.3182525634765625
1761838775892328200,6.692328125,-2.2998046875,-0.0386199951171875,-0.2001190185546875
1761838775902397200,6.702397216796875,-2.3380126953125,-0.061614990234375,-0.1164093017578125
1761838775912467200,6.71246728515625,-2.339019775390625,-0.09844970703125,-0.066864013671875
1761838775922537200,6.722537109375,-2.3305206298828125,-0.122528076171875,-0.080474853515625
1761838775932606200,6.732606201171875,-2.2568817138671875,-0.0943603515625,-0.178314208984375
1761838775942676200,6.74267626953125,-2.1514434814453125,-0.0457611083984375,-0.28204345703125
1761838775952746200,6.752746337890625,-2.09765625,-0.0037384033203125,-0.3314361572265625
1761838775962815200,6.762815185546875,-1.96136474609375,0.0306854248046875,-0.3626556396484375
1761838775972885200,6.77288525390625,-1.8408203125,0.0544281005859375,-0.35601806640625
1761838775982955300,6.782955322265625,-1.7628173828125,0.079132080078125,-0.333892822265625
1761838775993024000,6.79302392578125,-1.63946533203125,0.111663818359375,-0.322021484375
1761838776003094300,6.80309423828125,-1.5075225830078125,0.13726806640625,-0.282318115234375
1761838776013164300,6.813164306640625,-1.4157257080078125,0.1365203857421875,-0.20538330078125
1761838776023233300,6.8232333984375,-1.3266448974609375,0.1220855712890625,-0.131195068359375
1761838776033303300,6.83330322265625,-1.21978759765625,0.1016693115234375,-0.075469970703125
1761838776043373000,6.843373046875,-1.1242523193359375,0.0756988525390625,-0.039581298828125
1761838776053443000,6.853443115234375,-1.038970947265625,0.047821044921875,-0.0211029052734375
1761838776063512000,6.863511962890625,-0.9552459716796875,0.03057861328125,-0.0256805419921875
1761838776073582000,6.87358203125,-0.859710693359375,0.029510498046875,-0.0484771728515625
1761838776083652400,6.88365234375,-0.7732696533203125,0.0404205322265625,-0.07281494140625
1761838776093721000,6.89372119140625,-0.70458984375,0.039642333984375,-0.0941162109375
1761838776103791400,6.903791259765625,-0.6607208251953125,0.0421905517578125,-0.124053955078125
1761838776113861000,6.913861083984375,-0.650482177734375,0.068695068359375,-0.155364990234375
1761838776123930000,6.92393017578125,-0.6352081298828125,0.0826873779296875,-0.1833038330078125
1761838776133997600,6.93399755859375,-0.60125732421875,0.084625244140625,-0.1942291259765625
1761838776144067600,6.944067626953125,-0.5925140380859375,0.079925537109375,-0.1678619384765625
1761838776154136600,6.954136474609375,-0.5971832275390625,0.060333251953125,-0.12652587890625
1761838776164206600,6.96420654296875,-0.583038330078125,0.02349853515625,-0.086456298828125
1761838776174276600,6.974276611328125,-0.5709381103515625,-0.019256591796875,-0.04791259765625
1761838776184345600,6.984345703125,-0.5727691650390625,-0.0537109375,-0.0222015380859375
1761838776194415600,6.99441552734375,-0.5611572265625,-0.0638427734375,-0.0145721435546875
1761838776204485600,7.004485595703125,-0.53143310546875,-0.06048583984375,-0.0189666748046875
1761838776214555400,7.014555419921875,-0.51715087890625,-0.0535125732421875,-0.0260467529296875
1761838776224624600,7.024624755859375,-0.5279083251953125,-0.0394744873046875,-0.0352935791015625
1761838776234694400,7.0346943359375,-0.5454559326171875,-0.0319061279296875,-0.0361785888671875
1761838776244764700,7.0447646484375,-0.5587005615234375,-0.0457000732421875,-0.0228729248046875
1761838776254833400,7.05483349609375,-0.577728271484375,-0.0702056884765625,0.0013580322265625
1761838776264903400,7.0649033203125,-0.6082000732421875,-0.099365234375,0.027435302734375
1761838776274973700,7.0749736328125,-0.63226318359375,-0.1204986572265625,0.048583984375
1761838776285042400,7.08504248046875,-0.672454833984375,-0.1284027099609375,0.065582275390625
1761838776295112700,7.09511279296875,-0.72845458984375,-0.1339569091796875,0.072021484375
1761838776305182500,7.105182373046875,-0.77093505859375,-0.142730712890625,0.0698699951171875
1761838776315251700,7.115251708984375,-0.8370208740234375,-0.1238250732421875,0.0723724365234375
1761838776325321700,7.12532177734375,-0.9002685546875,-0.106109619140625,0.0820465087890625
1761838776335391500,7.1353916015625,-0.968719482421875,-0.1147308349609375,0.1032257080078125
1761838776345460700,7.145460693359375,-1.093902587890625,-0.13787841796875,0.1430206298828125
1761838776355530500,7.155530517578125,-1.1978759765625,-0.1522674560546875,0.16046142578125
1761838776365600500,7.1656005859375,-1.2485504150390625,-0.1524200439453125,0.1464691162109375
1761838776375670800,7.1756708984375,-1.29693603515625,-0.12353515625,0.0845489501953125
1761838776385739500,7.185739501953125,-1.307098388671875,-0.0684051513671875,-0.0115509033203125
1761838776395809500,7.1958095703125,-1.2695159912109375,-0.0180206298828125,-0.1004180908203125
1761838776405879600,7.205879638671875,-1.21490478515625,0.0183563232421875,-0.1650543212890625
1761838776415948500,7.215948486328125,-1.1924285888671875,0.0526580810546875,-0.195068359375
1761838776426018600,7.2260185546875,-1.197998046875,0.0833740234375,-0.1755218505859375
1761838776436088600,7.236088623046875,-1.2145233154296875,0.1060028076171875,-0.1172637939453125
1761838776446157600,7.246157470703125,-1.201446533203125,0.12152099609375,-0.05474853515625
1761838776456227600,7.2562275390625,-1.163848876953125,0.1323089599609375,0.0003814697265625
1761838776466297600,7.266297607421875,-1.113616943359375,0.1323089599609375,0.0443878173828125
1761838776476366600,7.27636669921875,-1.05908203125,0.1201019287109375,0.0825347900390625
1761838776486436600,7.2864365234375,-1.0019378662109375,0.084716796875,0.1172943115234375
1761838776496506400,7.29650634765625,-0.9430999755859375,0.03460693359375,0.1474456787109375
1761838776506576600,7.30657666015625,-0.917724609375,-0.0180511474609375,0.1757354736328125
1761838776516645600,7.316645751953125,-0.9192047119140625,-0.06805419921875,0.2012481689453125
1761838776526715400,7.32671533203125,-0.903289794921875,-0.1131591796875,0.2079315185546875
1761838776536785700,7.33678564453125,-0.870330810546875,-0.1381683349609375,0.189361572265625
1761838776546854400,7.3468544921875,-0.84259033203125,-0.142547607421875,0.1458892822265625
1761838776556924700,7.356924560546875,-0.823822021484375,-0.15191650390625,0.0955352783203125
1761838776566994700,7.36699462890625,-0.81689453125,-0.160919189453125,0.0480804443359375
1761838776577063700,7.377063720703125,-0.824554443359375,-0.15228271484375,-0.000946044921875
1761838776587133700,7.3871337890625,-0.8391571044921875,-0.1258544921875,-0.037261962890625
1761838776597203500,7.397203369140625,-0.8678436279296875,-0.1053924560546875,-0.05120849609375
1761838776607272700,7.407272705078125,-0.9115753173828125,-0.101470947265625,-0.0338134765625
1761838776617342500,7.417342529296875,-0.9431915283203125,-0.1066436767578125,0.0042724609375
1761838776627412500,7.42741259765625,-0.9552459716796875,-0.112152099609375,0.0391693115234375
1761838776637482800,7.437482666015625,-0.95062255859375,-0.1210479736328125,0.063690185546875
1761838776647551500,7.447551513671875,-0.94744873046875,-0.1259765625,0.0796661376953125
1761838776657621500,7.45762158203125,-0.9466400146484375,-0.1273193359375,0.086761474609375
1761838776667691500,7.46769140625,-0.9437103271484375,-0.1265716552734375,0.084442138671875
1761838776677760500,7.477760498046875,-0.9458160400390625,-0.1238861083984375,0.07470703125
1761838776687830800,7.487830810546875,-0.9439544677734375,-0.1202545166015625,0.0614166259765625
1761838776697900500,7.497900634765625,-0.9499969482421875,-0.118377685546875,0.05438232421875
1761838776707969800,7.5079697265625,-0.9491119384765625,-0.1187591552734375,0.048797607421875
1761838776718039600,7.51803955078125,-0.943145751953125,-0.1187744140625,0.0458526611328125
1761838776728109600,7.528109619140625,-0.93951416015625,-0.1188201904296875,0.0464019775390625
1761838776738178600,7.538178466796875,-0.9355010986328125,-0.117645263671875,0.0512237548828125
1761838776748248600,7.54824853515625,-0.9345245361328125,-0.11663818359375,0.0595703125
1761838776758318600,7.558318603515625,-0.936798095703125,-0.1180419921875,0.07073974609375
1761838776768388600,7.568388671875,-0.949066162109375,-0.1214752197265625,0.0785675048828125
1761838776778457600,7.57845751953125,-0.95361328125,-0.127349853515625,0.084014892578125
1761838776788527600,7.588527587890625,-0.95721435546875,-0.12579345703125,0.085235595703125
1761838776798597600,7.59859765625,-0.955810546875,-0.1244354248046875,0.079071044921875
1761838776808666400,7.608666259765625,-0.947052001953125,-0.126617431640625,0.073333740234375
1761838776818736600,7.618736572265625,-0.9475860595703125,-0.1287384033203125,0.0723114013671875
1761838776828806700,7.628806640625,-0.941436767578125,-0.132110595703125,0.077606201171875
1761838776838875600,7.638875732421875,-0.924041748046875,-0.13616943359375,0.080902099609375
1761838776848945700,7.648945556640625,-0.902801513671875,-0.1294403076171875,0.0807037353515625
1761838776859015400,7.659015380859375,-0.8712158203125,-0.11444091796875,0.076324462890625
1761838776869084700,7.669084716796875,-0.8271484375,-0.0942535400390625,0.0682373046875
1761838776879154700,7.67915478515625,-0.77880859375,-0.0647430419921875,0.062530517578125
1761838776889224400,7.689224365234375,-0.73626708984375,-0.0401611328125,0.0638580322265625
1761838776899294700,7.699294677734375,-0.7044219970703125,-0.0277557373046875,0.065948486328125
1761838776909363500,7.709363525390625,-0.6782073974609375,-0.018768310546875,0.07635498046875
1761838776919433500,7.71943359375,-0.652008056640625,-0.0146636962890625,0.0900421142578125
1761838776929503700,7.729503662109375,-0.6270751953125,-0.009368896484375,0.096099853515625
1761838776939572500,7.739572509765625,-0.595855712890625,0.0008087158203125,0.0931549072265625
1761838776949642800,7.749642822265625,-0.55963134765625,0.0171356201171875,0.0799407958984375
1761838776959712500,7.75971240234375,-0.52569580078125,0.037017822265625,0.0633087158203125
1761838776969781800,7.76978173828125,-0.4947509765625,0.055572509765625,0.04449462890625
1761838776979851500,7.7798515625,-0.459228515625,0.074493408203125,0.0223541259765625
1761838776989921500,7.789921630859375,-0.4144287109375,0.090087890625,-0.0004119873046875
1761838776999990500,7.799990478515625,-0.3707275390625,0.1024932861328125,-0.0158843994140625
1761838777010060500,7.810060546875,-0.3341217041015625,0.11859130859375,-0.0294952392578125
1761838777020130600,7.820130615234375,-0.3035888671875,0.1315765380859375,-0.0382843017578125
1761838777030200600,7.83020068359375,-0.277984619140625,0.1425018310546875,-0.0355224609375
1761838777040269600,7.84026953125,-0.2605438232421875,0.158843994140625,-0.030120849609375
1761838777050339600,7.850339599609375,-0.2600250244140625,0.1679840087890625,-0.019073486328125
1761838777060409600,7.86040966796875,-0.284576416015625,0.1638641357421875,-0.0020599365234375
1761838777070478600,7.870478515625,-0.320159912109375,0.15081787109375,0.0127105712890625
1761838777080548600,7.880548583984375,-0.3784332275390625,0.1208953857421875,0.0375213623046875
1761838777090618600,7.89061865234375,-0.4714813232421875,0.0599365234375,0.0803375244140625
1761838777100687600,7.9006875,-0.5948638916015625,-0.019561767578125,0.0986328125
1761838777110757600,7.910757568359375,-0.72821044921875,-0.073333740234375,0.091033935546875
1761838777120827600,7.92082763671875,-0.8541717529296875,-0.105987548828125,0.08203125
1761838777130896400,7.930896484375,-1.0386962890625,-0.1467437744140625,0.09942626953125
1761838777140965400,7.94096533203125,-1.3071441650390625,-0.1979217529296875,0.11846923828125
1761838777151035600,7.95103564453125,-1.598114013671875,-0.2400360107421875,0.1015167236328125
1761838777161105400,7.96110546875,-1.88372802734375,-0.2515716552734375,0.0612030029296875
1761838777171174400,7.97117431640625,-2.10638427734375,-0.2305755615234375,-0.011383056640625
1761838777181244400,7.981244384765625,-2.307373046875,-0.2030792236328125,-0.093109130859375
1761838777191314400,7.991314453125,-2.49188232421875,-0.136749267578125,-0.171173095703125
1761838777201383400,8.001383544921875,-2.6458587646484375,-0.056732177734375,-0.2364959716796875
1761838777211453400,8.011453369140625,-2.8314208984375,-0.002685546875,-0.2592010498046875
1761838777221522400,8.0215224609375,-3.035797119140625,0.0722808837890625,-0.2851715087890625
1761838777231592400,8.031592529296875,-3.2486114501953125,0.1812286376953125,-0.333038330078125
1761838777241661400,8.041661376953124,-3.5326690673828125,0.3322906494140625,-0.3927001953125
1761838777251731500,8.0517314453125,-3.9242095947265625,0.560394287109375,-0.4783782958984375
1761838777261801500,8.061801513671876,-4.1610565185546875,0.764129638671875,-0.5415496826171875
1761838777271871200,8.071871337890625,-4.1307373046875,0.87939453125,-0.578765869140625
1761838777281940500,8.0819404296875,-3.8820953369140625,0.942657470703125,-0.60906982421875
1761838777292010500,8.092010498046875,-3.4972686767578125,0.8908843994140625,-0.5805816650390625
1761838777302080500,8.10208056640625,-3.011138916015625,0.74114990234375,-0.568511962890625
1761838777312149500,8.1121494140625,-2.494781494140625,0.5450286865234375,-0.5666961669921875
1761838777322219300,8.12221923828125,-2.0376739501953125,0.334442138671875,-0.5751495361328125
1761838777332289500,8.13228955078125,-1.6175384521484375,0.104095458984375,-0.6600341796875
1761838777342358300,8.142358154296875,-1.2197265625,-0.154266357421875,-0.8139190673828125
1761838777352428500,8.152428466796875,-0.8847503662109375,-0.293304443359375,-0.9316558837890625
1761838777362498600,8.16249853515625,-0.530548095703125,-0.3202056884765625,-1.0301666259765625
1761838777372568300,8.172568359375,-0.113372802734375,-0.2861175537109375,-1.071380615234375
1761838777382637600,8.182637451171875,0.1723480224609375,-0.1726226806640625,-0.96478271484375
1761838777392707300,8.192707275390624,0.2101898193359375,-0.0108795166015625,-0.7036895751953125
1761838777402777300,8.20277734375,0.107574462890625,0.19427490234375,-0.4066009521484375
1761838777412846300,8.212846435546876,-0.02557373046875,0.3235015869140625,-0.1576385498046875
1761838777422916400,8.222916259765626,-0.148345947265625,0.4240875244140625,0.015472412109375
1761838777432986600,8.232986572265625,-0.19879150390625,0.5052642822265625,0.087738037109375
1761838777443055400,8.243055419921875,-0.2272796630859375,0.5578460693359375,0.13720703125
1761838777453125400,8.25312548828125,-0.2672119140625,0.5319671630859375,0.20599365234375
1761838777463195600,8.263195556640625,-0.3116302490234375,0.40972900390625,0.2894744873046875
1761838777473265400,8.273265380859375,-0.30450439453125,0.250457763671875,0.3529815673828125
1761838777483334700,8.283334716796874,-0.226531982421875,0.12286376953125,0.3789520263671875
1761838777493404400,8.293404296875,-0.06341552734375,0.073486328125,0.3535003662109375
1761838777503474400,8.303474365234376,0.1302642822265625,0.09521484375,0.2899169921875
1761838777513543400,8.31354345703125,0.2663116455078125,0.10986328125,0.2570037841796875
1761838777523613400,8.323613525390625,0.3433380126953125,0.1023712158203125,0.2446136474609375
1761838777533683500,8.333683349609375,0.3935546875,0.0785064697265625,0.2360687255859375
1761838777543752400,8.34375244140625,0.4099578857421875,0.04327392578125,0.2447052001953125
1761838777553822500,8.353822509765624,0.37945556640625,0.024749755859375,0.25750732421875
1761838777563892500,8.363892578125,0.3078155517578125,0.0242156982421875,0.2808074951171875
1761838777573962500,8.37396240234375,0.209136962890625,0.0131072998046875,0.3295440673828125
1761838777584031200,8.38403125,0.097076416015625,0.0108642578125,0.3770599365234375
1761838777594101500,8.3941015625,-0.0013427734375,0.018218994140625,0.4077911376953125
1761838777604171500,8.404171630859375,-0.071319580078125,0.00299072265625,0.4229736328125
1761838777614240500,8.414240478515625,-0.131256103515625,-0.015411376953125,0.4194183349609375
1761838777624310500,8.424310546875,-0.1724700927734375,-0.0192108154296875,0.4062347412109375
1761838777634380300,8.43438037109375,-0.1895751953125,-0.0162506103515625,0.386474609375
1761838777644449500,8.444449462890624,-0.212677001953125,-0.003204345703125,0.3510284423828125
1761838777654519600,8.45451953125,-0.2374114990234375,0.01824951171875,0.3085174560546875
1761838777664589300,8.46458935546875,-0.2492828369140625,0.036163330078125,0.2728118896484375
1761838777674659600,8.47465966796875,-0.2671051025390625,0.04034423828125,0.26605224609375
1761838777684728300,8.484728271484375,-0.2820892333984375,0.040618896484375,0.2661285400390625
1761838777694798600,8.494798583984375,-0.29400634765625,0.0425872802734375,0.2715911865234375
1761838777704868600,8.50486865234375,-0.3077239990234375,0.0261383056640625,0.279693603515625
1761838777714937300,8.514937255859374,-0.32232666015625,-0.0122528076171875,0.2887725830078125
1761838777725007600,8.525007568359374,-0.335968017578125,-0.0635833740234375,0.28131103515625
1761838777735077400,8.535077392578126,-0.3416290283203125,-0.107330322265625,0.255462646484375
1761838777745146600,8.545146728515626,-0.327484130859375,-0.1429443359375,0.2071990966796875
1761838777755216400,8.55521630859375,-0.353546142578125,-0.1792144775390625,0.1658782958984375
1761838777765286400,8.565286376953125,-0.38494873046875,-0.273193359375,0.1563720703125
1761838777775356400,8.5753564453125,-0.455047607421875,-0.45867919921875,0.2097320556640625
1761838777785425400,8.58542529296875,-0.5708770751953125,-0.776763916015625,0.34039306640625
1761838777795495400,8.595495361328124,-0.7999725341796875,-1.073455810546875,0.376617431640625
1761838777805565400,8.6055654296875,-1.049530029296875,-0.9884185791015625,0.1065521240234375
1761838777815634400,8.615634521484376,-1.19683837890625,-0.8510589599609375,-0.2020111083984375
1761838777825704400,8.625704345703125,-1.5797882080078125,-0.5793304443359375,-0.5278167724609375
1761838777835774500,8.6357744140625,-1.8763275146484375,-0.163604736328125,-0.950347900390625
1761838777845846500,8.645846435546876,-1.9833221435546875,0.197723388671875,-1.1761474609375
1761838777855915500,8.65591552734375,-2.1020660400390625,0.2852020263671875,-1.007476806640625
1761838777865985300,8.6659853515625,-2.338287353515625,0.2086181640625,-0.608489990234375
1761838777876055600,8.6760556640625,-2.473907470703125,0.2688140869140625,-0.2752838134765625
1761838777886124300,8.686124267578125,-2.5408172607421875,0.3001556396484375,0.0096282958984375
1761838777896194600,8.696194580078124,-2.649383544921875,0.25201416015625,0.1629180908203125
1761838777906264600,8.7062646484375,-2.5572357177734375,0.2504119873046875,0.032623291015625
1761838777916334300,8.716334228515626,-2.3849334716796875,0.18304443359375,-0.2144775390625
1761838777926403600,8.726403564453125,-2.2956695556640625,0.0811309814453125,-0.5036773681640625
1761838777936473300,8.736473388671875,-2.19879150390625,0.12451171875,-0.8057403564453125
1761838777946543400,8.74654345703125,-2.1577911376953125,0.173980712890625,-0.9870758056640625
1761838777956612400,8.7566123046875,-2.174346923828125,0.1733551025390625,-0.959320068359375
1761838777966682400,8.766682373046875,-2.2077484130859375,0.1465301513671875,-0.780059814453125
1761838777976752600,8.776752685546874,-2.1646575927734375,0.126922607421875,-0.580169677734375
1761838777986822400,8.786822509765624,-2.036712646484375,0.126220703125,-0.4185028076171875
1761838777996891400,8.796891357421876,-1.859375,0.1030120849609375,-0.2982330322265625
1761838778006961400,8.80696142578125,-1.6626129150390625,0.0513763427734375,-0.2251129150390625
1761838778017031400,8.817031494140625,-1.44793701171875,0.0097198486328125,-0.1859283447265625
1761838778027100700,8.8271005859375,-1.2552642822265625,-0.0362548828125,-0.1600189208984375
1761838778037170400,8.83717041015625,-1.0693817138671875,-0.155975341796875,-0.1078338623046875
1761838778047240400,8.847240478515625,-0.945648193359375,-0.1846160888671875,-0.0981597900390625
1761838778057309400,8.857309326171874,-0.822967529296875,-0.070037841796875,-0.145050048828125
1761838778067379500,8.86737939453125,-0.6732635498046875,-0.0619354248046875,-0.167633056640625
1761838778077449500,8.877449462890626,-0.58026123046875,-0.0832977294921875,-0.173431396484375
1761838778087519500,8.88751953125,-0.5332183837890625,-0.0926971435546875,-0.175384521484375
1761838778097588500,8.89758837890625,-0.4775848388671875,-0.0878753662109375,-0.159942626953125
1761838778107658500,8.907658447265625,-0.4391326904296875,-0.0639495849609375,-0.1251373291015625
1761838778117728500,8.917728515625,-0.442840576171875,-0.0631103515625,-0.099853515625
1761838778127797200,8.92779736328125,-0.458282470703125,-0.0838623046875,-0.091064453125
1761838778137868300,8.937868408203125,-0.4518280029296875,-0.092376708984375,-0.0823974609375
1761838778147938000,8.94793798828125,-0.4463043212890625,-0.110504150390625,-0.07843017578125
1761838778158007000,8.958007080078126,-0.450897216796875,-0.1402740478515625,-0.0764617919921875
1761838778168077000,8.9680771484375,-0.46600341796875,-0.1623992919921875,-0.0835418701171875
1761838778178147000,8.97814697265625,-0.4879302978515625,-0.18719482421875,-0.091156005859375
1761838778188217000,8.988217041015625,-0.52587890625,-0.213897705078125,-0.0967864990234375
1761838778198286000,8.9982861328125,-0.5958099365234375,-0.22174072265625,-0.10748291015625
1761838778208356000,9.008356201171875,-0.6665191650390625,-0.2159881591796875,-0.1032562255859375
1761838778218426000,9.018426025390625,-0.7219696044921875,-0.222930908203125,-0.09552001953125
1761838778228495000,9.0284951171875,-0.7506103515625,-0.2479705810546875,-0.09283447265625
1761838778238564900,9.03856494140625,-0.7572479248046875,-0.2695159912109375,-0.0870819091796875
1761838778248635100,9.04863525390625,-0.75909423828125,-0.28887939453125,-0.0874176025390625
1761838778258705200,9.058705078125,-0.77001953125,-0.3083953857421875,-0.074005126953125
1761838778268774100,9.068774169921875,-0.79132080078125,-0.3118133544921875,-0.0558624267578125
1761838778278844200,9.07884423828125,-0.8125152587890625,-0.31500244140625,-0.039276123046875
1761838778288914000,9.088913818359375,-0.8341217041015625,-0.333251953125,-0.01708984375
1761838778298983200,9.098983154296874,-0.862091064453125,-0.3564605712890625,-0.01885986328125
1761838778309053200,9.10905322265625,-0.886505126953125,-0.3562469482421875,-0.035186767578125
1761838778319123000,9.119123046875,-0.9279327392578125,-0.34088134765625,-0.0424957275390625
1761838778329193200,9.129193115234376,-0.9749908447265625,-0.3306121826171875,-0.046844482421875
1761838778339262000,9.139261962890625,-1.0198516845703125,-0.3330230712890625,-0.045166015625
1761838778349332000,9.14933203125,-1.068450927734375,-0.3537139892578125,-0.0349578857421875
1761838778359402200,9.15940234375,-1.0927276611328125,-0.3767547607421875,-0.0706024169921875
1761838778369471000,9.169470947265625,-1.0668182373046875,-0.371795654296875,-0.163421630859375
1761838778379541200,9.179541259765625,-0.982421875,-0.3785858154296875,-0.2390289306640625
1761838778389611000,9.189611083984374,-1.1385650634765625,-0.2574462890625,-0.2984619140625
1761838778399680300,9.19968017578125,-1.1666717529296875,-0.243133544921875,-0.2485504150390625
1761838778409750000,9.20975,-1.0555419921875,-0.29998779296875,-0.205230712890625
1761838778419820000,9.219820068359375,-1.0333251953125,-0.2864837646484375,-0.20135498046875
1761838778429890000,9.22989013671875,-1.017333984375,-0.269195556640625,-0.1840667724609375
1761838778439959000,9.239958984375,-0.9378814697265625,-0.277862548828125,-0.15765380859375
1761838778450029000,9.250029052734375,-0.9044342041015625,-0.2866058349609375,-0.1443328857421875
1761838778460099000,9.26009912109375,-0.868804931640625,-0.316192626953125,-0.1257171630859375
1761838778470168000,9.27016796875,-0.83990478515625,-0.330718994140625,-0.1056060791015625
1761838778480238000,9.280238037109376,-0.8291015625,-0.3264312744140625,-0.11529541015625
1761838778490308000,9.29030810546875,-0.804443359375,-0.3444671630859375,-0.135955810546875
1761838778500378000,9.300378173828125,-0.7649688720703125,-0.350738525390625,-0.164764404296875
1761838778510447000,9.310447021484375,-0.7453765869140625,-0.347808837890625,-0.197357177734375
1761838778520517000,9.32051708984375,-0.7497100830078125,-0.3701019287109375,-0.206756591796875
1761838778530587000,9.3305869140625,-0.7734375,-0.4068145751953125,-0.18243408203125
1761838778540656000,9.34065625,-0.814483642578125,-0.4404754638671875,-0.1482696533203125
1761838778550726100,9.35072607421875,-0.8413848876953125,-0.463531494140625,-0.125274658203125
1761838778560796000,9.3607958984375,-0.8670196533203125,-0.4818115234375,-0.095611572265625
1761838778570865200,9.370865234375,-0.84649658203125,-0.4869537353515625,-0.0814666748046875
1761838778580935000,9.380934814453125,-0.8394622802734375,-0.4809722900390625,-0.09283447265625
1761838778591005200,9.391005126953125,-0.817840576171875,-0.4673004150390625,-0.0994415283203125
1761838778601075200,9.4010751953125,-0.825592041015625,-0.458038330078125,-0.085540771484375
1761838778611144200,9.411144287109375,-0.876739501953125,-0.4578399658203125,-0.05865478515625
1761838778621214200,9.421214111328124,-0.9210205078125,-0.4631805419921875,-0.03350830078125
1761838778631284000,9.431283935546874,-0.9376220703125,-0.4693756103515625,-0.0216217041015625
1761838778641353200,9.441353271484376,-0.92718505859375,-0.4675445556640625,-0.0190887451171875
1761838778651423000,9.451423095703126,-0.9263458251953125,-0.459442138671875,-0.0217132568359375
1761838778661493000,9.461492919921875,-0.9510040283203125,-0.448150634765625,-0.0214385986328125
1761838778671563300,9.471563232421875,-0.9733428955078125,-0.438507080078125,-0.0186309814453125
1761838778681632000,9.481632080078125,-0.9718475341796875,-0.4202117919921875,-0.011627197265625
1761838778691702000,9.491701904296875,-0.9554290771484375,-0.3963775634765625,-0.0057220458984375
1761838778701772000,9.50177197265625,-0.934173583984375,-0.378692626953125,-0.00811767578125
1761838778711841000,9.511841064453124,-0.9104766845703125,-0.3726348876953125,-0.0039215087890625
1761838778721911000,9.5219111328125,-0.9068756103515625,-0.3822784423828125,0.0082855224609375
1761838778731981000,9.53198095703125,-0.9071197509765625,-0.3996429443359375,0.0188446044921875
1761838778742051000,9.542051025390625,-0.8942413330078125,-0.4098968505859375,0.0230560302734375
1761838778752120000,9.5521201171875,-0.876953125,-0.4102783203125,0.023468017578125
1761838778762190000,9.562190185546875,-0.87646484375,-0.4083404541015625,0.02923583984375
1761838778772259800,9.572259765625,-0.8810577392578125,-0.4014434814453125,0.03594970703125
1761838778782329000,9.5823291015625,-0.865631103515625,-0.3913116455078125,0.0389862060546875
1761838778792399000,9.592399169921874,-0.8484039306640625,-0.3833160400390625,0.0403594970703125
1761838778802469000,9.60246923828125,-0.8364105224609375,-0.386077880859375,0.0414276123046875
1761838778812539100,9.6125390625,-0.8187255859375,-0.4033050537109375,0.04449462890625
1761838778822608000,9.62260791015625,-0.8074798583984375,-0.4177398681640625,0.0445098876953125
1761838778832678100,9.63267822265625,-0.8117218017578125,-0.4228363037109375,0.0418548583984375
1761838778842748200,9.642748046875,-0.8297271728515625,-0.4191741943359375,0.0431671142578125
1761838778852817200,9.652817138671875,-0.85772705078125,-0.4102020263671875,0.0460205078125
1761838778862887200,9.66288720703125,-0.8778533935546875,-0.3940277099609375,0.045257568359375
1761838778872957000,9.67295703125,-0.880340576171875,-0.3758697509765625,0.041473388671875
1761838778883026200,9.683026123046876,-0.8746795654296875,-0.3595428466796875,0.0369110107421875
1761838778893096000,9.693095947265626,-0.8714447021484375,-0.358642578125,0.0313720703125
1761838778903166000,9.703166015625,-0.860137939453125,-0.366790771484375,0.0269012451171875
1761838778913236200,9.713236328125,-0.8526153564453125,-0.3837738037109375,0.0243682861328125
1761838778923305000,9.723304931640625,-0.847503662109375,-0.3961944580078125,0.02008056640625
1761838778933375200,9.733375244140625,-0.8644561767578125,-0.4114532470703125,0.01739501953125
1761838778943445000,9.743445068359375,-0.8661041259765625,-0.422607421875,0.0262908935546875
1761838778953514000,9.753513916015624,-0.8679962158203125,-0.4204254150390625,0.0271759033203125
1761838778963584300,9.763584228515626,-0.8757171630859375,-0.4326324462890625,0.039154052734375
1761838778973654000,9.773654052734376,-0.900115966796875,-0.4549407958984375,0.04168701171875
1761838778983724000,9.78372412109375,-0.9136199951171875,-0.474884033203125,0.030181884765625
1761838778993793000,9.79379296875,-0.9359283447265625,-0.4788818359375,0.02093505859375
1761838779003863000,9.803863037109375,-0.9528350830078125,-0.4610595703125,0.010498046875
1761838779013933000,9.81393310546875,-0.946685791015625,-0.4257659912109375,0.017486572265625
1761838779024002000,9.824001953125,-0.9483489990234375,-0.40008544921875,0.0017852783203125
1761838779034072000,9.834072021484374,-0.9476470947265625,-0.4199066162109375,-0.00872802734375
1761838779044142000,9.84414208984375,-0.9611358642578125,-0.4305572509765625,-0.0252685546875
1761838779054212000,9.854212158203126,-0.964111328125,-0.4274444580078125,-0.0465240478515625
1761838779064281000,9.864281005859375,-0.9552154541015625,-0.42462158203125,-0.0498809814453125
1761838779074351000,9.87435107421875,-0.955230712890625,-0.418304443359375,-0.029571533203125
1761838779084421000,9.884421142578125,-0.96380615234375,-0.415496826171875,0.0102691650390625
1761838779094490000,9.894489990234375,-0.963134765625,-0.4177398681640625,0.054443359375
1761838779104560000,9.90456005859375,-0.9658660888671875,-0.404754638671875,0.0926055908203125
1761838779114630000,9.9146298828125,-0.963104248046875,-0.3824615478515625,0.1203155517578125
1761838779124699100,9.92469921875,-0.9618072509765625,-0.3656463623046875,0.1305389404296875
1761838779134769400,9.934769287109376,-0.962646484375,-0.355987548828125,0.13336181640625
1761838779144839200,9.944839111328125,-0.955108642578125,-0.344482421875,0.1269073486328125
1761838779154909400,9.954909423828125,-0.95703125,-0.3406219482421875,0.1305084228515625
1761838779164978200,9.964978271484375,-0.9506988525390625,-0.3408203125,0.135009765625
1761838779175048400,9.97504833984375,-0.94158935546875,-0.34552001953125,0.1563720703125
1761838779185118500,9.985118408203125,-0.9398193359375,-0.350921630859375,0.1729736328125
1761838779195187500,9.9951875,-0.9524383544921875,-0.3388214111328125,0.159271240234375
1761838779205257500,10.005257568359376,-0.94537353515625,-0.3426971435546875,0.1516265869140625
1761838779215327200,10.0153271484375,-0.9292144775390625,-0.3504180908203125,0.1415557861328125
1761838779225397200,10.025397216796875,-0.9159088134765625,-0.3433685302734375,0.1223602294921875
1761838779235466200,10.03546630859375,-0.9096527099609375,-0.3354949951171875,0.1111907958984375
1761838779245536300,10.045536376953125,-0.9083251953125,-0.321929931640625,0.0997161865234375
1761838779255606500,10.0556064453125,-0.9219207763671875,-0.3040924072265625,0.093597412109375
1761838779265675300,10.06567529296875,-0.940582275390625,-0.2835845947265625,0.092437744140625
1761838779275745300,10.075745361328124,-0.9321746826171875,-0.2633819580078125,0.089813232421875
1761838779285815600,10.085815673828124,-0.9240264892578125,-0.257476806640625,0.084075927734375
1761838779295885300,10.09588525390625,-0.909759521484375,-0.263153076171875,0.0900115966796875
1761838779305954600,10.10595458984375,-0.903717041015625,-0.2708892822265625,0.099517822265625
1761838779316024300,10.1160244140625,-0.90521240234375,-0.2860870361328125,0.112823486328125
1761838779326094300,10.12609423828125,-0.90545654296875,-0.3043365478515625,0.12603759765625
1761838779336163300,10.136163330078125,-0.9000091552734375,-0.3158721923828125,0.1336669921875
1761838779346233300,10.1462333984375,-0.897918701171875,-0.3212890625,0.13720703125
1761838779356303400,10.156303466796874,-0.908172607421875,-0.3250732421875,0.14190673828125
1761838779366373400,10.166373291015624,-0.9100799560546875,-0.3280487060546875,0.1429443359375
1761838779376442400,10.1764423828125,-0.904815673828125,-0.3320465087890625,0.137359619140625
1761838779386512400,10.186512451171875,-0.906768798828125,-0.3345947265625,0.1291656494140625
1761838779396582400,10.19658251953125,-0.906219482421875,-0.3328857421875,0.1208953857421875
1761838779406651100,10.206651123046875,-0.9088134765625,-0.329345703125,0.1133575439453125
1761838779416721400,10.216721435546875,-0.9465179443359375,-0.318267822265625,0.10308837890625
1761838779426791400,10.22679150390625,-0.95184326171875,-0.311065673828125,0.0922088623046875
1761838779436860400,10.2368603515625,-0.95489501953125,-0.30621337890625,0.09185791015625
1761838779446930400,10.246930419921876,-0.9615478515625,-0.309326171875,0.10687255859375
1761838779457000200,10.257000244140626,-0.978912353515625,-0.3171844482421875,0.115692138671875
1761838779467070500,10.267070556640626,-0.9779205322265625,-0.3181304931640625,0.1178436279296875
1761838779477139500,10.277139404296875,-0.9856109619140625,-0.30621337890625,0.1164398193359375
1761838779487209200,10.287209228515625,-1.000213623046875,-0.303741455078125,0.1264801025390625
1761838779497279500,10.297279541015625,-1.00506591796875,-0.2942657470703125,0.12744140625
