time,seconds_elapsed,z,y,x
1761384915626623200,0.051623291015625,-1.0009765625,-0.02288818359375,0.0161590576171875
1761384915636698000,0.061697998046875,-0.9993133544921875,-0.025299072265625,0.0155487060546875
1761384915646769200,0.07176904296875,-0.999481201171875,-0.025482177734375,0.0157623291015625
1761384915656835000,0.0818349609375,-0.9991302490234375,-0.02471923828125,0.0161895751953125
1761384915666904000,0.091904052734375,-0.9996337890625,-0.0235137939453125,0.0157318115234375
1761384915676972800,0.101972900390625,-0.9985198974609375,-0.0226593017578125,0.0156707763671875
1761384915687042000,0.1120419921875,-0.9985504150390625,-0.0216522216796875,0.01531982421875
1761384915697110000,0.122110107421875,-0.999664306640625,-0.0219573974609375,0.0149688720703125
1761384915707179000,0.132178955078125,-0.9993438720703125,-0.0234527587890625,0.015899658203125
1761384915717248000,0.142248046875,-0.9992218017578125,-0.0250091552734375,0.01531982421875
1761384915727316700,0.152316650390625,-0.9999542236328125,-0.025726318359375,0.0175018310546875
1761384915737385000,0.162385009765625,-1.0001068115234375,-0.025177001953125,0.0167388916015625
1761384915747454000,0.172453857421875,-1.000396728515625,-0.02313232421875,0.0154571533203125
1761384915757523000,0.18252294921875,-0.9991302490234375,-0.0228424072265625,0.0157318115234375
1761384915767592000,0.192592041015625,-0.999298095703125,-0.0218505859375,0.0149993896484375
1761384915777661200,0.2026611328125,-0.99993896484375,-0.0229949951171875,0.0159759521484375
1761384915787729200,0.212729248046875,-0.999847412109375,-0.02392578125,0.015716552734375
1761384915797798000,0.2227978515625,-0.9997406005859375,-0.025360107421875,0.016021728515625
1761384915807867100,0.2328671875,-0.999969482421875,-0.02569580078125,0.0177001953125
1761384915817936000,0.242935791015625,-0.999053955078125,-0.0241851806640625,0.016510009765625
1761384915828005000,0.253005126953125,-0.99896240234375,-0.0238800048828125,0.01519775390625
1761384915838073000,0.263072998046875,-1.0001220703125,-0.02239990234375,0.015869140625
1761384915848141800,0.273141845703125,-0.9993743896484375,-0.02313232421875,0.0148773193359375
1761384915858211000,0.283211181640625,-0.99957275390625,-0.0237274169921875,0.014801025390625
1761384915868279800,0.29327978515625,-0.999969482421875,-0.024688720703125,0.01483154296875
1761384915878349000,0.30334912109375,-0.9987640380859375,-0.025299072265625,0.015472412109375
1761384915888417000,0.3134169921875,-0.9991455078125,-0.0236968994140625,0.0159454345703125
1761384915898486000,0.323486083984375,-1,-0.0237884521484375,0.0163421630859375
1761384915908555000,0.333554931640625,-0.9990081787109375,-0.02294921875,0.01605224609375
1761384915918624000,0.3436240234375,-1.000274658203125,-0.0231475830078125,0.0151519775390625
1761384915928693000,0.35369287109375,-1.00030517578125,-0.0238494873046875,0.0149078369140625
1761384915938761000,0.363760986328125,-0.99957275390625,-0.0244903564453125,0.01531982421875
1761384915948830000,0.373829833984375,-0.999603271484375,-0.0233612060546875,0.0155181884765625
1761384915958899000,0.38389892578125,-1.0001220703125,-0.02410888671875,0.015716552734375
1761384915968968000,0.393968017578125,-0.99920654296875,-0.0245361328125,0.0164031982421875
1761384915979037000,0.404036865234375,-1.000701904296875,-0.0244598388671875,0.016632080078125
1761384915989105000,0.41410498046875,-1.0002288818359375,-0.0239105224609375,0.0159912109375
1761384915999174000,0.424173828125,-1.0003509521484375,-0.0234832763671875,0.0145416259765625
1761384916009243100,0.4342431640625,-1.0009002685546875,-0.0234375,0.014251708984375
1761384916019311900,0.444311767578125,-1.0008544921875,-0.0248870849609375,0.015838623046875
1761384916029381000,0.454381103515625,-1.0006561279296875,-0.0243682861328125,0.016387939453125
1761384916039449000,0.464448974609375,-1.0005645751953125,-0.0235137939453125,0.0162506103515625
1761384916049517800,0.474517822265625,-0.99896240234375,-0.023834228515625,0.015472412109375
1761384916059587000,0.484587158203125,-1.0002899169921875,-0.023529052734375,0.015045166015625
1761384916069655800,0.49465576171875,-1.000762939453125,-0.0239105224609375,0.0152130126953125
1761384916079725000,0.50472509765625,-0.9993896484375,-0.0227203369140625,0.01531982421875
1761384916089793000,0.51479296875,-0.999847412109375,-0.0238800048828125,0.0159149169921875
1761384916099861800,0.52486181640625,-1,-0.02490234375,0.015716552734375
1761384916109931000,0.534930908203125,-0.9996490478515625,-0.02386474609375,0.0173797607421875
1761384916120000000,0.545,-0.999664306640625,-0.02410888671875,0.016326904296875
1761384916130069000,0.555069091796875,-0.9996185302734375,-0.0243682861328125,0.015777587890625
1761384916140137000,0.565136962890625,-0.999176025390625,-0.023345947265625,0.0159912109375
1761384916150206000,0.5752060546875,-0.99969482421875,-0.0241546630859375,0.0151519775390625
1761384916160275000,0.58527490234375,-0.9995880126953125,-0.023773193359375,0.015289306640625
1761384916170344000,0.595343994140625,-0.9997100830078125,-0.02374267578125,0.0166015625
1761384916180413000,0.605412841796875,-0.9992218017578125,-0.0240936279296875,0.01617431640625
1761384916190481000,0.61548095703125,-0.9996185302734375,-0.0235443115234375,0.0159912109375
1761384916200550100,0.625550048828125,-0.999603271484375,-0.023681640625,0.0160064697265625
1761384916210619000,0.635618896484375,-1.00018310546875,-0.0244140625,0.015655517578125
1761384916220688000,0.64568798828125,-1.00006103515625,-0.0239715576171875,0.015411376953125
1761384916230757000,0.655757080078125,-1.0004425048828125,-0.0237274169921875,0.0156402587890625
1761384916240825900,0.665825927734375,-1.0001373291015625,-0.023681640625,0.0152740478515625
1761384916250894000,0.67589404296875,-0.999481201171875,-0.02435302734375,0.01611328125
1761384916260963000,0.685963134765625,-0.999786376953125,-0.0243988037109375,0.0159759521484375
1761384916271031800,0.69603173828125,-0.9994964599609375,-0.0245513916015625,0.016082763671875
1761384916281101000,0.70610107421875,-0.9991912841796875,-0.0232391357421875,0.015960693359375
1761384916291169800,0.716169677734375,-0.99993896484375,-0.0237579345703125,0.01580810546875
1761384916301238000,0.726238037109375,-0.99896240234375,-0.023651123046875,0.015228271484375
1761384916311307000,0.73630712890625,-0.9988250732421875,-0.023406982421875,0.0160064697265625
1761384916321376000,0.7463759765625,-1.0002593994140625,-0.0233917236328125,0.0158843994140625
1761384916331445000,0.756445068359375,-0.9995880126953125,-0.0243072509765625,0.01580810546875
1761384916341514000,0.766513916015625,-0.9998779296875,-0.024658203125,0.01654052734375
1761384916351582000,0.77658203125,-1.0009307861328125,-0.0244293212890625,0.01611328125
1761384916361651000,0.78665087890625,-0.999786376953125,-0.02374267578125,0.0158538818359375
1761384916371720200,0.79672021484375,-0.9992218017578125,-0.0239410400390625,0.015838623046875
1761384916381789000,0.806788818359375,-0.9996337890625,-0.023773193359375,0.0162200927734375
1761384916391858000,0.81685791015625,-0.999969482421875,-0.0243682861328125,0.0160064697265625
1761384916401926100,0.826926025390625,-0.9993133544921875,-0.0236968994140625,0.0156097412109375
1761384916411995000,0.836994873046875,-1.0000457763671875,-0.023651123046875,0.0159912109375
1761384916422064000,0.847064208984375,-1.0004425048828125,-0.0244598388671875,0.0156097412109375
1761384916432132900,0.8571328125,-1.0008697509765625,-0.024017333984375,0.0160675048828125
1761384916442201900,0.867201904296875,-1.0000762939453125,-0.0241241455078125,0.0159454345703125
1761384916452271000,0.87727099609375,-0.999847412109375,-0.0234375,0.0162506103515625
1761384916462338800,0.8873388671875,-0.99896240234375,-0.0241241455078125,0.01568603515625
1761384916472408000,0.897407958984375,-1.0003662109375,-0.0239105224609375,0.0157012939453125
1761384916482477000,0.90747705078125,-0.9921875,-0.023590087890625,0.01422119140625
1761384916492546000,0.917546142578125,-1.0081024169921875,-0.025177001953125,0.0189361572265625
1761384916502615000,0.927614990234375,-1.001312255859375,-0.02490234375,0.015716552734375
1761384916512683000,0.93768310546875,-1.00213623046875,-0.0228729248046875,0.01531982421875
1761384916522752000,0.947751953125,-1.0000152587890625,-0.02117919921875,0.01434326171875
1761384916532821000,0.957821044921875,-0.996795654296875,-0.022674560546875,0.0145111083984375
1761384916542890000,0.967889892578125,-1.0020599365234375,-0.02532958984375,0.016845703125
1761384916552959000,0.977958984375,-0.9963836669921875,-0.0254974365234375,0.01666259765625
1761384916563028000,0.988028076171875,-0.9996795654296875,-0.0250244140625,0.016387939453125
1761384916573096000,0.998095947265625,-1.000335693359375,-0.025054931640625,0.0171356201171875
1761384916583165000,1.0081650390625,-0.998779296875,-0.0236663818359375,0.015655517578125
1761384916593234200,1.018234130859375,-0.9989166259765625,-0.0221099853515625,0.0135650634765625
1761384916603303000,1.028302978515625,-1.0015106201171875,-0.022003173828125,0.0135955810546875
1761384916613372200,1.0383720703125,-0.999481201171875,-0.02362060546875,0.0145416259765625
1761384916623440100,1.048440185546875,-1.001708984375,-0.0255889892578125,0.0166778564453125
1761384916633508900,1.0585087890625,-1.00006103515625,-0.0257568359375,0.0167388916015625
1761384916643575300,1.0685751953125,-1.0001678466796875,-0.0244598388671875,0.01666259765625
1761384916653644300,1.078644287109375,-1.0002593994140625,-0.0232696533203125,0.01611328125
1761384916663713300,1.08871337890625,-0.99993896484375,-0.0226898193359375,0.0152435302734375
1761384916673782000,1.098781982421875,-0.9998931884765625,-0.0228424072265625,0.0147247314453125
1761384916683850200,1.108850341796875,-1.000518798828125,-0.022674560546875,0.0141143798828125
1761384916693919200,1.118919189453125,-0.9997100830078125,-0.023681640625,0.01568603515625
1761384916703988200,1.12898828125,-0.9993743896484375,-0.02587890625,0.0163421630859375
1761384916714057200,1.13905712890625,-1.0001983642578125,-0.0254974365234375,0.016937255859375
1761384916724126200,1.149126220703125,-1.0003204345703125,-0.02410888671875,0.0170440673828125
1761384916734194200,1.159194091796875,-0.999664306640625,-0.0234375,0.0155029296875
1761384916744263200,1.16926318359375,-1.000244140625,-0.02288818359375,0.0157318115234375
1761384916754332400,1.17933251953125,-0.9999847412109375,-0.02239990234375,0.0143280029296875
1761384916764401200,1.189401123046875,-0.9994659423828125,-0.0234527587890625,0.014251708984375
1761384916774470400,1.199470458984375,-1.000152587890625,-0.0244293212890625,0.015716552734375
1761384916784539100,1.2095390625,-1.001007080078125,-0.025421142578125,0.016876220703125
1761384916794607000,1.219607177734375,-1.0001373291015625,-0.025238037109375,0.0165557861328125
1761384916804676400,1.22967626953125,-1.00018310546875,-0.02386474609375,0.0159454345703125
1761384916814745000,1.2397451171875,-0.9999542236328125,-0.023406982421875,0.0151519775390625
1761384916824814300,1.249814453125,-1.0008087158203125,-0.022918701171875,0.0145111083984375
1761384916834883300,1.25988330078125,-1.0003662109375,-0.0237884521484375,0.0149993896484375
1761384916844952000,1.2699521484375,-0.99969482421875,-0.02362060546875,0.015350341796875
1761384916855020300,1.280020263671875,-0.9995269775390625,-0.0230712890625,0.01568603515625
1761384916865089300,1.29008935546875,-0.999755859375,-0.0244140625,0.017669677734375
1761384916875158300,1.300158203125,-0.999755859375,-0.0255126953125,0.0170135498046875
1761384916885227300,1.310227294921875,-1.0004119873046875,-0.02423095703125,0.0158843994140625
1761384916895296300,1.320296142578125,-0.999420166015625,-0.023345947265625,0.0159912109375
1761384916905364200,1.3303642578125,-1.000457763671875,-0.0237274169921875,0.01483154296875
1761384916915433200,1.34043310546875,-0.9998321533203125,-0.0240478515625,0.0147857666015625
1761384916925502200,1.350502197265625,-0.999969482421875,-0.0245819091796875,0.0163421630859375
1761384916935571200,1.3605712890625,-0.999725341796875,-0.0240936279296875,0.0168609619140625
1761384916945640400,1.370640380859375,-0.999786376953125,-0.0245513916015625,0.0159149169921875
1761384916955709200,1.380709228515625,-0.999755859375,-0.02435302734375,0.0162506103515625
1761384916965777200,1.390777099609375,-1.000091552734375,-0.02374267578125,0.0164031982421875
1761384916975846400,1.400846435546875,-1.0001983642578125,-0.0235443115234375,0.015472412109375
1761384916985915100,1.4109150390625,-1.00006103515625,-0.023681640625,0.014373779296875
1761384916995984400,1.420984375,-0.999847412109375,-0.0242462158203125,0.01446533203125
1761384917006053000,1.43105322265625,-0.99853515625,-0.0242462158203125,0.0155029296875
1761384917016122000,1.4411220703125,-0.999725341796875,-0.023712158203125,0.0164947509765625
1761384917026190300,1.4511904296875,-0.9996795654296875,-0.023681640625,0.0167388916015625
1761384917036259000,1.461259033203125,-1.0001373291015625,-0.02349853515625,0.01556396484375
1761384917046328300,1.471328369140625,-0.999359130859375,-0.0240020751953125,0.01495361328125
1761384917056397300,1.481397216796875,-0.9992218017578125,-0.023773193359375,0.0152587890625
1761384917066466300,1.49146630859375,-1.0004425048828125,-0.023406982421875,0.014556884765625
1761384917076535300,1.501535400390625,-1.0001220703125,-0.0239715576171875,0.015899658203125
1761384917086603300,1.511603271484375,-0.999267578125,-0.0243377685546875,0.0160369873046875
1761384917096672300,1.52167236328125,-0.9996337890625,-0.0237579345703125,0.0162811279296875
1761384917106741200,1.5317412109375,-1.000213623046875,-0.024627685546875,0.0156707763671875
1761384917116810200,1.541810302734375,-0.9991912841796875,-0.0240478515625,0.0148162841796875
1761384917126879200,1.551879150390625,-0.9999237060546875,-0.0237274169921875,0.0161285400390625
1761384917136947200,1.561947265625,-0.999908447265625,-0.0239715576171875,0.0160980224609375
1761384917147016200,1.57201611328125,-0.999542236328125,-0.024444580078125,0.015594482421875
1761384917157085200,1.582085205078125,-0.9995880126953125,-0.02362060546875,0.0164794921875
1761384917167154400,1.592154541015625,-1.0006561279296875,-0.024078369140625,0.0160675048828125
1761384917177223200,1.60222314453125,-0.9994049072265625,-0.0247650146484375,0.015655517578125
1761384917187292400,1.61229248046875,-0.999969482421875,-0.023773193359375,0.01519775390625
1761384917197360400,1.6223603515625,-1.0005035400390625,-0.0238800048828125,0.01611328125
1761384917207429000,1.63242919921875,-1.0002288818359375,-0.0237884521484375,0.01593017578125
1761384917217498400,1.642498291015625,-0.9998016357421875,-0.02276611328125,0.015838623046875
1761384917227567000,1.652567138671875,-0.9993133544921875,-0.0240936279296875,0.0154876708984375
1761384917237636400,1.66263623046875,-0.999786376953125,-0.0240936279296875,0.015960693359375
1761384917247705300,1.672705322265625,-1.000396728515625,-0.02410888671875,0.0166168212890625
1761384917257773000,1.68277294921875,-1.0001678466796875,-0.0242462158203125,0.015869140625
1761384917267842300,1.69284228515625,-1.0009307861328125,-0.023651123046875,0.015625
1761384917277911300,1.702911376953125,-1.0006103515625,-0.0247039794921875,0.015045166015625
1761384917287980300,1.712980224609375,-1.00006103515625,-0.0230255126953125,0.0157318115234375
1761384917298049300,1.72304931640625,-1.000152587890625,-0.0239105224609375,0.0150299072265625
1761384917308118000,1.733117919921875,-1.00201416015625,-0.0234222412109375,0.0153961181640625
1761384917318186200,1.743186279296875,-1.0000457763671875,-0.023681640625,0.0160064697265625
1761384917328255200,1.753255126953125,-1.00030517578125,-0.0241241455078125,0.0155487060546875
1761384917338324200,1.76332421875,-1.0006561279296875,-0.02410888671875,0.0151519775390625
1761384917348393200,1.773393310546875,-1.0003509521484375,-0.024200439453125,0.0153350830078125
1761384917358462200,1.783462158203125,-0.999908447265625,-0.0238037109375,0.016815185546875
1761384917368531200,1.79353125,-1.0004425048828125,-0.0230865478515625,0.0158233642578125
1761384917378599200,1.80359912109375,-0.9996185302734375,-0.0235137939453125,0.015411376953125
1761384917388668400,1.81366845703125,-0.99957275390625,-0.0240325927734375,0.0151519775390625
1761384917398737200,1.823737060546875,-1.0004119873046875,-0.0236663818359375,0.015838623046875
1761384917408806400,1.833806396484375,-0.9995574951171875,-0.0238800048828125,0.01556396484375
1761384917418875100,1.843875244140625,-0.9995880126953125,-0.0239105224609375,0.0157318115234375
1761384917428944100,1.853944091796875,-0.9993438720703125,-0.023834228515625,0.0149688720703125
1761384917439012400,1.864012451171875,-1.000091552734375,-0.023406982421875,0.0158843994140625
1761384917449081000,1.8740810546875,-0.999481201171875,-0.0237884521484375,0.0162200927734375
1761384917459150300,1.884150390625,-1.00067138671875,-0.0236663818359375,0.0155487060546875
1761384917469219300,1.89421923828125,-1.0005035400390625,-0.0244293212890625,0.01611328125
1761384917479288000,1.9042880859375,-0.999786376953125,-0.02349853515625,0.01611328125
1761384917489357300,1.914357421875,-0.9996795654296875,-0.023834228515625,0.016021728515625
1761384917499425300,1.92442529296875,-0.9994354248046875,-0.0241546630859375,0.0159759521484375
1761384917509494300,1.934494384765625,-0.999786376953125,-0.0236358642578125,0.014739990234375
1761384917519563300,1.944563232421875,-0.9994964599609375,-0.0239715576171875,0.0156707763671875
1761384917529632300,1.95463232421875,-0.9996490478515625,-0.024261474609375,0.0163726806640625
1761384917539701200,1.964701171875,-1.0004119873046875,-0.0240478515625,0.0155487060546875
1761384917549770200,1.974770263671875,-1.000244140625,-0.02362060546875,0.0156402587890625
1761384917559838200,1.984838134765625,-0.9998321533203125,-0.023468017578125,0.015472412109375
1761384917569907200,1.9949072265625,-0.999359130859375,-0.022979736328125,0.016326904296875
1761384917579976400,2.0049765625,-1.0002288818359375,-0.023956298828125,0.01513671875
1761384917590045200,2.015045166015625,-0.9994964599609375,-0.0233306884765625,0.0150146484375
1761384917600114200,2.0251142578125,-1.0005645751953125,-0.02392578125,0.0159149169921875
1761384917610183200,2.03518310546875,-1.0003509521484375,-0.024322509765625,0.0159454345703125
1761384917620251100,2.045251220703125,-1.0003204345703125,-0.0244903564453125,0.016021728515625
1761384917630320400,2.0553203125,-0.9994354248046875,-0.0238189697265625,0.01519775390625
1761384917640389000,2.06538916015625,-0.999298095703125,-0.0229644775390625,0.0145416259765625
1761384917650461000,2.0754609375,-1.0002288818359375,-0.0242462158203125,0.015411376953125
1761384917660530200,2.0855302734375,-0.999237060546875,-0.0236053466796875,0.015716552734375
1761384917670599000,2.095598876953125,-0.999847412109375,-0.024566650390625,0.015960693359375
1761384917680667000,2.1056669921875,-0.9994964599609375,-0.024383544921875,0.0158538818359375
1761384917690736000,2.115736083984375,-0.9998626708984375,-0.0242919921875,0.01593017578125
1761384917700804900,2.125804931640625,-1.000396728515625,-0.0232391357421875,0.0152130126953125
1761384917710874000,2.1358740234375,-0.9992828369140625,-0.02264404296875,0.0148773193359375
1761384917720942800,2.14594287109375,-0.9991455078125,-0.0233154296875,0.015228271484375
1761384917731012000,2.15601220703125,-0.99896240234375,-0.0239410400390625,0.015655517578125
1761384917741080000,2.166080078125,-0.9997711181640625,-0.024139404296875,0.0160369873046875
1761384917751149000,2.176149169921875,-1.0004119873046875,-0.0244293212890625,0.015838623046875
1761384917761218000,2.186218017578125,-1.000335693359375,-0.024505615234375,0.015533447265625
1761384917771287000,2.196287109375,-1.0004119873046875,-0.0248565673828125,0.015167236328125
1761384917781356000,2.20635595703125,-1.00054931640625,-0.024322509765625,0.015380859375
1761384917791425000,2.216425048828125,-0.9998321533203125,-0.0240325927734375,0.0157318115234375
1761384917801493000,2.226492919921875,-1.000640869140625,-0.0239410400390625,0.01605224609375
1761384917811562000,2.23656201171875,-1.00048828125,-0.0236358642578125,0.0156097412109375
1761384917821631000,2.246630859375,-1.000396728515625,-0.0239715576171875,0.0164031982421875
1761384917831700000,2.256699951171875,-1.0011444091796875,-0.0242767333984375,0.0161895751953125
1761384917841769000,2.26676904296875,-1.0005950927734375,-0.0245361328125,0.016265869140625
1761384917851838200,2.276838134765625,-1.0005950927734375,-0.0240478515625,0.015899658203125
1761384917861907000,2.286906982421875,-1.0008087158203125,-0.0239105224609375,0.016021728515625
1761384917871975000,2.296974853515625,-0.99969482421875,-0.0237579345703125,0.01568603515625
1761384917882044200,2.307044189453125,-1.00048828125,-0.0238037109375,0.015533447265625
1761384917892113000,2.31711279296875,-1.0001373291015625,-0.023712158203125,0.015960693359375
1761384917902182100,2.32718212890625,-0.9997406005859375,-0.0240478515625,0.016082763671875
1761384917912251000,2.3372509765625,-1.0008697509765625,-0.0238037109375,0.015899658203125
1761384917922320100,2.347320068359375,-1.000579833984375,-0.02471923828125,0.0153350830078125
1761384917932388000,2.35738818359375,-0.999908447265625,-0.02410888671875,0.0147552490234375
1761384917942457000,2.36745703125,-0.9994964599609375,-0.02325439453125,0.0159759521484375
1761384917952526000,2.377526123046875,-0.9991912841796875,-0.023223876953125,0.0162506103515625
1761384917962595000,2.387594970703125,-1.0001983642578125,-0.0232391357421875,0.01531982421875
1761384917972664000,2.3976640625,-1.00048828125,-0.0240631103515625,0.0164031982421875
1761384917982733000,2.407733154296875,-1.00030517578125,-0.0244903564453125,0.0164642333984375
1761384917992801000,2.417801025390625,-1.0003662109375,-0.0240325927734375,0.015472412109375
1761384918002870000,2.4278701171875,-1.000335693359375,-0.0246734619140625,0.0162506103515625
1761384918012939000,2.43793896484375,-1.0005950927734375,-0.0235595703125,0.0159454345703125
1761384918023008000,2.448008056640625,-1.0001220703125,-0.0236053466796875,0.016632080078125
1761384918033077000,2.458076904296875,-0.9996337890625,-0.02410888671875,0.01617431640625
1761384918043146000,2.46814599609375,-0.9991302490234375,-0.0232391357421875,0.0154571533203125
1761384918053214000,2.4782138671875,-0.999603271484375,-0.0236663818359375,0.0157623291015625
1761384918063283000,2.488282958984375,-1.0003662109375,-0.02423095703125,0.0153045654296875
1761384918073352200,2.498352294921875,-1.00030517578125,-0.02423095703125,0.016082763671875
1761384918083421000,2.5084208984375,-0.999298095703125,-0.0243682861328125,0.0169830322265625
1761384918093490200,2.518490234375,-1.000518798828125,-0.0238494873046875,0.0161895751953125
1761384918103559000,2.528558837890625,-1.0005035400390625,-0.0230560302734375,0.0149078369140625
1761384918113628000,2.5386279296875,-0.999053955078125,-0.0240936279296875,0.015838623046875
1761384918123696000,2.548696044921875,-0.999908447265625,-0.0240936279296875,0.01593017578125
1761384918133764900,2.558764892578125,-1.00091552734375,-0.02447509765625,0.0163726806640625
1761384918143834000,2.568834228515625,-1.0011749267578125,-0.0243988037109375,0.016082763671875
1761384918153903000,2.578903076171875,-1.00054931640625,-0.0240631103515625,0.015380859375
1761384918163971800,2.588971923828125,-1.0003814697265625,-0.0240631103515625,0.0163726806640625
1761384918174041000,2.599041015625,-1.0000457763671875,-0.0234527587890625,0.01544189453125
1761384918184109000,2.609109130859375,-1.0009918212890625,-0.023895263671875,0.015594482421875
1761384918194178000,2.619177978515625,-0.9997711181640625,-0.024505615234375,0.0164337158203125
1761384918204247000,2.6292470703125,-1.0001220703125,-0.0237579345703125,0.0157623291015625
1761384918214316000,2.63931591796875,-1.000823974609375,-0.0234375,0.015411376953125
1761384918224385000,2.649385009765625,-0.9998626708984375,-0.02435302734375,0.0143890380859375
1761384918234454000,2.6594541015625,-0.9996337890625,-0.0241241455078125,0.016357421875
1761384918244522000,2.66952197265625,-0.999603271484375,-0.0248565673828125,0.01568603515625
1761384918254591000,2.679591064453125,-1.000244140625,-0.02337646484375,0.0156097412109375
1761384918264660200,2.68966015625,-0.9999542236328125,-0.0234222412109375,0.0158233642578125
1761384918274729000,2.69972900390625,-1.0008544921875,-0.0236053466796875,0.015625
1761384918284798000,2.7097978515625,-1.00018310546875,-0.0241546630859375,0.015289306640625
1761384918294867000,2.719866943359375,-1.000518798828125,-0.0233917236328125,0.015899658203125
1761384918304935000,2.729934814453125,-0.999420166015625,-0.0241851806640625,0.015625
1761384918315004200,2.740004150390625,-0.9995574951171875,-0.02447509765625,0.0155181884765625
1761384918325073000,2.750072998046875,-1.000213623046875,-0.023773193359375,0.01605224609375
1761384918335142000,2.760141845703125,-0.9994964599609375,-0.023834228515625,0.0163726806640625
1761384918345211100,2.770211181640625,-1.00067138671875,-0.024322509765625,0.0154266357421875
1761384918355280000,2.78027978515625,-1.000396728515625,-0.0240478515625,0.0158538818359375
1761384918365349000,2.79034912109375,-1.0002899169921875,-0.023651123046875,0.01641845703125
1761384918375417000,2.8004169921875,-1.00030517578125,-0.024078369140625,0.0158233642578125
1761384918385486000,2.810486083984375,-0.9993133544921875,-0.0237274169921875,0.015960693359375
1761384918395555000,2.82055517578125,-1.00048828125,-0.0238800048828125,0.015777587890625
1761384918405623800,2.830623779296875,-1.0004425048828125,-0.023529052734375,0.01544189453125
1761384918415693000,2.840693115234375,-1.000274658203125,-0.02288818359375,0.015869140625
1761384918425762000,2.850761962890625,-0.9997406005859375,-0.024749755859375,0.0164031982421875
1761384918435830000,2.860830078125,-1.0006103515625,-0.02484130859375,0.0162811279296875
1761384918445899000,2.87089892578125,-1.0001220703125,-0.023651123046875,0.0164947509765625
1761384918455968000,2.880968017578125,-1.00091552734375,-0.0231170654296875,0.01593017578125
1761384918466037000,2.891037109375,-1.0001983642578125,-0.0238800048828125,0.0160980224609375
1761384918476106000,2.90110595703125,-1.000396728515625,-0.0238189697265625,0.0163421630859375
1761384918486175000,2.911175048828125,-1.000152587890625,-0.0235748291015625,0.0148773193359375
1761384918496243000,2.921242919921875,-0.999969482421875,-0.0239105224609375,0.015625
1761384918506312000,2.93131201171875,-1.00091552734375,-0.023529052734375,0.0158233642578125
1761384918516381000,2.941380859375,-0.9998626708984375,-0.0240936279296875,0.0160980224609375
1761384918526450000,2.951449951171875,-1.0005340576171875,-0.0242156982421875,0.0157928466796875
1761384918536519200,2.961519287109375,-0.999542236328125,-0.0239715576171875,0.0157928466796875
1761384918546588000,2.971587890625,-1.0007476806640625,-0.0237579345703125,0.0158843994140625
1761384918556657200,2.9816572265625,-1.000244140625,-0.0233154296875,0.01513671875
1761384918566725000,2.99172509765625,-0.999908447265625,-0.0238800048828125,0.0149383544921875
1761384918576793900,3.0017939453125,-0.999298095703125,-0.024566650390625,0.0162200927734375
1761384918586863000,3.011863037109375,-0.9998321533203125,-0.0234527587890625,0.016571044921875
1761384918596931800,3.021931884765625,-1.00146484375,-0.022979736328125,0.0154571533203125
1761384918607001000,3.0320009765625,-1.000152587890625,-0.0233917236328125,0.0166015625
1761384918617070000,3.042070068359375,-1.001861572265625,-0.0239715576171875,0.01519775390625
1761384918627137800,3.0521376953125,-0.9993438720703125,-0.0235748291015625,0.0157470703125
1761384918637207000,3.06220703125,-1.0002899169921875,-0.0233612060546875,0.014617919921875
1761384918647273000,3.07227294921875,-0.9987945556640625,-0.024017333984375,0.0160064697265625
1761384918657342200,3.08234228515625,-1.000946044921875,-0.024810791015625,0.0160675048828125
1761384918667411200,3.0924111328125,-0.99932861328125,-0.0241851806640625,0.0151519775390625
1761384918677480000,3.10247998046875,-0.99957275390625,-0.0237579345703125,0.01556396484375
1761384918687549200,3.112549072265625,-1.0003204345703125,-0.024078369140625,0.0153045654296875
1761384918697617200,3.1226171875,-0.9998016357421875,-0.023651123046875,0.0164031982421875
1761384918707686100,3.13268603515625,-0.999359130859375,-0.0239105224609375,0.0161895751953125
1761384918717755100,3.142755126953125,-1.0022735595703125,-0.0245819091796875,0.0163116455078125
1761384918727824100,3.15282421875,-0.999908447265625,-0.0239410400390625,0.016265869140625
1761384918737893000,3.16289306640625,-1.0003662109375,-0.024261474609375,0.015411376953125
1761384918747962000,3.172962158203125,-0.999298095703125,-0.0243072509765625,0.015777587890625
1761384918758030000,3.183030029296875,-1.00030517578125,-0.02490234375,0.0154266357421875
1761384918768099000,3.19309912109375,-1.000091552734375,-0.023681640625,0.0157928466796875
1761384918778168300,3.203168212890625,-1.000030517578125,-0.0247344970703125,0.01641845703125
1761384918788237000,3.213237060546875,-1,-0.024078369140625,0.0153961181640625
1761384918798306000,3.22330615234375,-0.999359130859375,-0.024383544921875,0.014892578125
1761384918808375000,3.233375,-1.0009002685546875,-0.02496337890625,0.0157318115234375
1761384918818443000,3.243443115234375,-1.00006103515625,-0.02423095703125,0.01666259765625
1761384918828512300,3.25351220703125,-1.0001220703125,-0.023712158203125,0.0157623291015625
1761384918838581000,3.2635810546875,-1.0005645751953125,-0.0241546630859375,0.016204833984375
1761384918848650000,3.27364990234375,-1.0009765625,-0.023956298828125,0.016387939453125
1761384918858719200,3.28371923828125,-0.999267578125,-0.02374267578125,0.0159759521484375
1761384918868788000,3.2937880859375,-0.9996185302734375,-0.0239105224609375,0.0157012939453125
1761384918878857200,3.303857177734375,-1.0003509521484375,-0.0239410400390625,0.0162811279296875
1761384918888925200,3.31392529296875,-1.000335693359375,-0.024322509765625,0.0160675048828125
1761384918898994200,3.323994140625,-1.000579833984375,-0.024017333984375,0.0159149169921875
1761384918909063200,3.334063232421875,-0.999542236328125,-0.023681640625,0.0153961181640625
1761384918919132000,3.3441318359375,-1.00054931640625,-0.02459716796875,0.01593017578125
1761384918929201200,3.354201171875,-1.0005340576171875,-0.02386474609375,0.01544189453125
1761384918939270100,3.364270263671875,-1.0007171630859375,-0.0235748291015625,0.015655517578125
1761384918949338000,3.374338134765625,-1.0005340576171875,-0.0240478515625,0.0161590576171875
1761384918959407000,3.384406982421875,-1.0001678466796875,-0.0242919921875,0.0155487060546875
1761384918969476000,3.39447607421875,-0.999847412109375,-0.023590087890625,0.0158538818359375
1761384918979545000,3.404545166015625,-1.0007476806640625,-0.0235137939453125,0.015533447265625
1761384918989614000,3.414614013671875,-0.9995880126953125,-0.0240936279296875,0.0155487060546875
1761384918999683000,3.42468310546875,-1.0007781982421875,-0.024444580078125,0.0152435302734375
1761384919009752000,3.434751953125,-1.00042724609375,-0.0241241455078125,0.01580810546875
1761384919019820300,3.4448203125,-1.0009613037109375,-0.024078369140625,0.0158538818359375
1761384919029889000,3.454888916015625,-1.000274658203125,-0.02471923828125,0.0157623291015625
1761384919039958000,3.4649580078125,-0.9998626708984375,-0.0245208740234375,0.0163421630859375
1761384919050027000,3.475027099609375,-0.999908447265625,-0.024078369140625,0.0150909423828125
1761384919060096000,3.485095947265625,-0.9997711181640625,-0.0239105224609375,0.016357421875
1761384919070165200,3.495165283203125,-1.000640869140625,-0.0237579345703125,0.01593017578125
1761384919080233200,3.505233154296875,-0.99993896484375,-0.0241546630859375,0.01519775390625
1761384919090302000,3.515302001953125,-1,-0.02386474609375,0.0147552490234375
1761384919100371200,3.52537109375,-1.000396728515625,-0.0242767333984375,0.0158538818359375
1761384919110440000,3.53543994140625,-1.0005645751953125,-0.02398681640625,0.0168914794921875
1761384919120509200,3.54550927734375,-1.0003509521484375,-0.0243377685546875,0.01580810546875
1761384919130578000,3.555577880859375,-1.000213623046875,-0.02410888671875,0.0159454345703125
1761384919140646000,3.56564599609375,-1.0010986328125,-0.02374267578125,0.0160064697265625
1761384919150715100,3.575715087890625,-1.00042724609375,-0.023681640625,0.0164337158203125
1761384919160784100,3.5857841796875,-1.001220703125,-0.023773193359375,0.0161590576171875
1761384919170853000,3.59585302734375,-1.0000457763671875,-0.023223876953125,0.015869140625
1761384919180922000,3.605922119140625,-0.9994964599609375,-0.023895263671875,0.01544189453125
1761384919190991000,3.6159912109375,-1.000030517578125,-0.0233917236328125,0.015625
1761384919201060000,3.62606005859375,-0.999847412109375,-0.0238189697265625,0.0156707763671875
1761384919211128000,3.636128173828125,-0.998779296875,-0.0246734619140625,0.016082763671875
1761384919221197000,3.646197021484375,-1.0012664794921875,-0.023956298828125,0.015625
1761384919231266000,3.65626611328125,-1.0006256103515625,-0.0239105224609375,0.016357421875
1761384919241335000,3.6663349609375,-1.0001983642578125,-0.0236968994140625,0.0161590576171875
1761384919251404000,3.676404052734375,-1.0001983642578125,-0.023468017578125,0.0164031982421875
1761384919261473300,3.686473388671875,-1.0003204345703125,-0.024169921875,0.015625
1761384919271541000,3.696541015625,-1.000457763671875,-0.024169921875,0.015838623046875
1761384919281610000,3.70660986328125,-1.0006103515625,-0.0236968994140625,0.015777587890625
1761384919291679200,3.71667919921875,-0.99951171875,-0.0238800048828125,0.0159912109375
1761384919301748000,3.726748046875,-0.9996490478515625,-0.02386474609375,0.0158538818359375
1761384919311817200,3.736817138671875,-0.9994964599609375,-0.023681640625,0.0159759521484375
1761384919321886000,3.746885986328125,-0.9998626708984375,-0.0250244140625,0.015411376953125
1761384919331955200,3.756955078125,-0.999481201171875,-0.0238037109375,0.0159454345703125
1761384919342023200,3.767023193359375,-1.0001983642578125,-0.023681640625,0.0156707763671875
1761384919352092000,3.777091796875,-1.0009765625,-0.0245819091796875,0.0159912109375
1761384919362161200,3.7871611328125,-0.999847412109375,-0.0240020751953125,0.01617431640625
1761384919372230100,3.797230224609375,-0.999755859375,-0.0235137939453125,0.0163726806640625
1761384919382299100,3.807299072265625,-0.9998321533203125,-0.0233917236328125,0.0159149169921875
1761384919392368000,3.8173681640625,-1.0003509521484375,-0.0247650146484375,0.0151519775390625
1761384919402436000,3.82743603515625,-1.0003814697265625,-0.0242767333984375,0.015411376953125
1761384919412505000,3.837505126953125,-1.0002288818359375,-0.0234375,0.0147857666015625
1761384919422574000,3.847573974609375,-1.001007080078125,-0.023956298828125,0.01580810546875
1761384919432643000,3.85764306640625,-1.0006103515625,-0.024078369140625,0.016082763671875
1761384919442712000,3.867712158203125,-1.0001068115234375,-0.024169921875,0.01556396484375
1761384919452781300,3.87778125,-0.9998931884765625,-0.0239410400390625,0.015106201171875
1761384919462850000,3.88785009765625,-1.000701904296875,-0.0239105224609375,0.0150909423828125
1761384919472918000,3.89791796875,-1.0006103515625,-0.0235443115234375,0.014739990234375
1761384919482987300,3.9079873046875,-0.999786376953125,-0.023529052734375,0.01519775390625
1761384919493056000,3.918055908203125,-0.9999847412109375,-0.023651123046875,0.0154876708984375
1761384919503125200,3.928125244140625,-0.999755859375,-0.023956298828125,0.0168304443359375
1761384919513194000,3.938194091796875,-0.999176025390625,-0.0247344970703125,0.015777587890625
1761384919523263000,3.948262939453125,-0.9995269775390625,-0.0247039794921875,0.0156707763671875
1761384919533331200,3.958331298828125,-1.0001983642578125,-0.02410888671875,0.0152130126953125
1761384919543400000,3.96839990234375,-0.999908447265625,-0.0234222412109375,0.0153045654296875
1761384919553469200,3.97846923828125,-1.000640869140625,-0.0236663818359375,0.01531982421875
1761384919563538200,3.9885380859375,-1.00079345703125,-0.0236663818359375,0.0147552490234375
1761384919573607200,3.998607177734375,-1.001129150390625,-0.0245819091796875,0.0156097412109375
1761384919583676200,4.00867626953125,-1.000762939453125,-0.0239105224609375,0.0160675048828125
1761384919593745000,4.018744873046875,-1.0005645751953125,-0.023529052734375,0.0155029296875
1761384919603813000,4.028813232421875,-0.9997406005859375,-0.0236663818359375,0.0154571533203125
1761384919613882000,4.038882080078125,-0.999969482421875,-0.0240631103515625,0.0152587890625
1761384919623951000,4.048951171875,-0.999359130859375,-0.0235748291015625,0.015411376953125
1761384919634020000,4.05902001953125,-1.000152587890625,-0.0240631103515625,0.015472412109375
1761384919644089000,4.069089111328125,-1.001373291015625,-0.024322509765625,0.0152587890625
1761384919654157800,4.07915771484375,-1.0004119873046875,-0.0245361328125,0.015411376953125
1761384919664225800,4.089225830078125,-1.000762939453125,-0.024139404296875,0.0156097412109375
1761384919674295000,4.099294921875,-1.0007171630859375,-0.0242462158203125,0.015869140625
1761384919684363800,4.10936376953125,-0.9998016357421875,-0.0246124267578125,0.0153656005859375
1761384919694433000,4.11943310546875,-0.9999542236328125,-0.023193359375,0.015838623046875
1761384919704501800,4.129501708984375,-1.0007476806640625,-0.023345947265625,0.0162811279296875
1761384919714571000,4.139571044921875,-1,-0.0237274169921875,0.015838623046875
1761384919724640000,4.149639892578125,-1.0003814697265625,-0.0238037109375,0.015380859375
1761384919734707700,4.159707763671875,-1.0008087158203125,-0.02423095703125,0.0167236328125
1761384919744777000,4.16977685546875,-1.0011749267578125,-0.023956298828125,0.0162200927734375
1761384919754846000,4.179845947265625,-1.0005035400390625,-0.0244903564453125,0.01507568359375
1761384919764915000,4.1899150390625,-0.9999542236328125,-0.02410888671875,0.0162353515625
1761384919774984000,4.19998388671875,-1.0001373291015625,-0.0239715576171875,0.016265869140625
1761384919785052700,4.210052734375,-1.0004425048828125,-0.0232696533203125,0.015838623046875
1761384919795121000,4.220120849609375,-1.0004119873046875,-0.0240020751953125,0.015655517578125
1761384919805190000,4.23018994140625,-1.00140380859375,-0.0240936279296875,0.0151214599609375
1761384919815259000,4.2402587890625,-1.0001220703125,-0.0242919921875,0.0158843994140625
1761384919825327900,4.250327880859375,-1.0006103515625,-0.024169921875,0.0151824951171875
1761384919835396900,4.26039697265625,-1.000213623046875,-0.024169921875,0.015716552734375
1761384919845465900,4.2704658203125,-1.000823974609375,-0.024566650390625,0.01495361328125
1761384919855534800,4.280534912109375,-1.0007171630859375,-0.0237884521484375,0.0150604248046875
1761384919865603000,4.29060302734375,-0.99957275390625,-0.0233612060546875,0.0151824951171875
1761384919875671800,4.300671875,-1.000946044921875,-0.0235137939453125,0.0155029296875
1761384919885741000,4.310740966796875,-1.000518798828125,-0.0237579345703125,0.0158538818359375
1761384919895809800,4.320809814453125,-0.9997711181640625,-0.0241241455078125,0.0159149169921875
1761384919905878800,4.330878662109375,-1.0003662109375,-0.02423095703125,0.0164947509765625
1761384919915948000,4.340947998046875,-0.9994659423828125,-0.0235595703125,0.016510009765625
1761384919926015700,4.351015625,-1.0001220703125,-0.023895263671875,0.0166015625
1761384919936085000,4.3610849609375,-1.000244140625,-0.0234527587890625,0.0157470703125
1761384919946154000,4.371154052734375,-0.9993743896484375,-0.0235748291015625,0.0154571533203125
1761384919956222700,4.38122265625,-1.00048828125,-0.0249176025390625,0.016571044921875
1761384919966292000,4.3912919921875,-0.9999847412109375,-0.02423095703125,0.016326904296875
1761384919976360700,4.401360595703125,-1.0005035400390625,-0.024261474609375,0.0153961181640625
1761384919986429000,4.411428955078125,-1.0009002685546875,-0.0237579345703125,0.0163421630859375
1761384919996498000,4.421497802734375,-1.0004425048828125,-0.02386474609375,0.0164642333984375
1761384920006567000,4.43156689453125,-1.00006103515625,-0.024322509765625,0.01470947265625
1761384920016636000,4.441635986328125,-0.999908447265625,-0.0244293212890625,0.0158233642578125
1761384920026705000,4.451704833984375,-1.0008392333984375,-0.0232391357421875,0.0157928466796875
1761384920036774000,4.46177392578125,-1.0006866455078125,-0.0229949951171875,0.0153045654296875
1761384920046843000,4.4718427734375,-1.000244140625,-0.0233917236328125,0.016021728515625
1761384920056911000,4.4819111328125,-0.999786376953125,-0.023406982421875,0.015838623046875
1761384920066979800,4.491979736328125,-1.0003814697265625,-0.0243377685546875,0.01483154296875
1761384920077048800,4.502048828125,-1.0004425048828125,-0.023956298828125,0.0157470703125
1761384920087117800,4.512117919921875,-0.999908447265625,-0.0241851806640625,0.0143585205078125
1761384920097186800,4.522186767578125,-1.0000152587890625,-0.0245208740234375,0.01495361328125
1761384920107255800,4.532255859375,-1.000274658203125,-0.023956298828125,0.015838623046875
1761384920117324800,4.54232470703125,-1.0003204345703125,-0.0240478515625,0.0156097412109375
1761384920127392800,4.552392822265625,-0.9992828369140625,-0.0246734619140625,0.015411376953125
1761384920137462000,4.5624619140625,-1.0007171630859375,-0.0235595703125,0.0150604248046875
1761384920147530800,4.57253076171875,-0.9996795654296875,-0.0241241455078125,0.0146942138671875
1761384920157600000,4.58260009765625,-1.000244140625,-0.023834228515625,0.01629638671875
1761384920167668700,4.592668701171875,-0.9996490478515625,-0.0239105224609375,0.0155029296875
1761384920177738000,4.602738037109375,-1.0000152587890625,-0.02398681640625,0.014892578125
1761384920187806000,4.612805908203125,-0.9993133544921875,-0.0237579345703125,0.014251708984375
1761384920197874700,4.622874755859375,-1.0006561279296875,-0.0238800048828125,0.014739990234375
1761384920207944000,4.63294384765625,-1.001068115234375,-0.0235595703125,0.0162200927734375
1761384920218013000,4.643012939453125,-0.999847412109375,-0.0240325927734375,0.0165557861328125
1761384920228082000,4.65308203125,-1.0003814697265625,-0.0247955322265625,0.015838623046875
1761384920238151000,4.66315087890625,-1.000396728515625,-0.0237579345703125,0.01495361328125
1761384920248219000,4.673218994140625,-0.9998779296875,-0.023834228515625,0.015716552734375
1761384920258287900,4.683287841796875,-1.000946044921875,-0.02374267578125,0.01495361328125
1761384920268356900,4.69335693359375,-1.0002593994140625,-0.0240631103515625,0.0162811279296875
1761384920278425900,4.70342578125,-1.0000457763671875,-0.02447509765625,0.0156402587890625
1761384920288494800,4.713494873046875,-1.0002899169921875,-0.0237274169921875,0.015106201171875
1761384920298563800,4.723563720703125,-0.9996490478515625,-0.0235443115234375,0.014862060546875
1761384920308632800,4.7336328125,-1.000640869140625,-0.02447509765625,0.0149993896484375
1761384920318700800,4.74370068359375,-1.0003662109375,-0.023834228515625,0.0154266357421875
1761384920328770000,4.75377001953125,-0.99957275390625,-0.0236358642578125,0.0162811279296875
1761384920338838800,4.7638388671875,-1.0006561279296875,-0.023406982421875,0.0167999267578125
1761384920348908000,4.773907958984375,-1.0008392333984375,-0.023529052734375,0.015380859375
1761384920358976800,4.783976806640625,-1.0003662109375,-0.0246124267578125,0.013702392578125
1761384920369046000,4.7940458984375,-1.001068115234375,-0.0258026123046875,0.0149078369140625
1761384920379114000,4.804114013671875,-1.000579833984375,-0.0243377685546875,0.0161895751953125
1761384920389182700,4.8141826171875,-1.0008697509765625,-0.022613525390625,0.01629638671875
1761384920399252000,4.824251953125,-0.9997100830078125,-0.022186279296875,0.01629638671875
1761384920409320700,4.83432080078125,-1,-0.0236053466796875,0.0167999267578125
1761384920419390000,4.844389892578125,-1.000885009765625,-0.0249786376953125,0.0153350830078125
1761384920429459000,4.854458984375,-1.0005950927734375,-0.0245819091796875,0.01348876953125
1761384920439528000,4.86452783203125,-0.999176025390625,-0.02435302734375,0.0148468017578125
1761384920449596000,4.874595947265625,-0.999786376953125,-0.0245361328125,0.01641845703125
1761384920459665000,4.884664794921875,-0.999725341796875,-0.02362060546875,0.0176239013671875
1761384920469734000,4.89473388671875,-0.999969482421875,-0.0226898193359375,0.01690673828125
1761384920479803000,4.904802978515625,-1.0002288818359375,-0.0231781005859375,0.015380859375
1761384920489872000,4.914871826171875,-0.999786376953125,-0.0240936279296875,0.015045166015625
1761384920499940900,4.92494091796875,-0.9999237060546875,-0.02471923828125,0.0152130126953125
1761384920510008800,4.9350087890625,-1.0009765625,-0.0241241455078125,0.015411376953125
1761384920520077800,4.945077880859375,-1.0010833740234375,-0.024169921875,0.014892578125
1761384920530146800,4.955146728515625,-1.000518798828125,-0.0234832763671875,0.0155181884765625
1761384920540216000,4.965216064453125,-1.0001373291015625,-0.023712158203125,0.0167083740234375
1761384920550284800,4.975284912109375,-0.9996490478515625,-0.0239105224609375,0.0151519775390625
1761384920560354000,4.98535400390625,-1.00054931640625,-0.0242767333984375,0.014892578125
1761384920570422800,4.9954228515625,-1.0004425048828125,-0.0244903564453125,0.015655517578125
1761384920580490000,5.005489990234375,-1.0001220703125,-0.025604248046875,0.0157470703125
1761384920590557700,5.0155576171875,-1.000640869140625,-0.0247650146484375,0.0160980224609375
1761384920600627000,5.025626953125,-1.0005340576171875,-0.0237579345703125,0.016204833984375
1761384920610696000,5.035696044921875,-0.9992828369140625,-0.02294921875,0.016143798828125
1761384920620765000,5.045764892578125,-1.0005340576171875,-0.0239410400390625,0.0166015625
1761384920630834000,5.055833984375,-1.000396728515625,-0.0241851806640625,0.0154876708984375
1761384920640903000,5.06590283203125,-1.000518798828125,-0.0238037109375,0.0153350830078125
1761384920650972000,5.075971923828125,-1.0011138916015625,-0.024139404296875,0.015167236328125
1761384920661039900,5.086039794921875,-0.9994659423828125,-0.024566650390625,0.0159759521484375
1761384920671108900,5.09610888671875,-0.9995269775390625,-0.024322509765625,0.01654052734375
1761384920681177900,5.106177734375,-1.00030517578125,-0.0231781005859375,0.0164947509765625
1761384920691246800,5.116246826171875,-0.9996795654296875,-0.023651123046875,0.0152435302734375
1761384920701315800,5.12631591796875,-1.0005950927734375,-0.0239715576171875,0.0156707763671875
1761384920711384800,5.136384765625,-1.0004730224609375,-0.0242462158203125,0.0159912109375
1761384920721453000,5.146453125,-0.999847412109375,-0.0236358642578125,0.0153961181640625
1761384920731521800,5.156521728515625,-1.0002593994140625,-0.0233612060546875,0.0158538818359375
1761384920741590800,5.1665908203125,-0.999786376953125,-0.023468017578125,0.01702880859375
1761384920751659800,5.17665966796875,-1.0002593994140625,-0.023651123046875,0.016571044921875
1761384920761728800,5.186728759765625,-1.0004425048828125,-0.0244140625,0.015594482421875
1761384920771798000,5.196798095703125,-1.0003509521484375,-0.0238494873046875,0.015228271484375
1761384920781865700,5.20686572265625,-1.000579833984375,-0.0244140625,0.0151824951171875
1761384920791934700,5.216934814453125,-0.999603271484375,-0.024200439453125,0.0155181884765625
1761384920802004000,5.22700390625,-1.000244140625,-0.023681640625,0.016021728515625
1761384920812072700,5.23707275390625,-1.0007476806640625,-0.0235137939453125,0.0166778564453125
1761384920822142000,5.247141845703125,-1.0003204345703125,-0.0229949951171875,0.016082763671875
1761384920832210700,5.257210693359375,-1.0006103515625,-0.023529052734375,0.0156707763671875
1761384920842280000,5.267280029296875,-0.9998321533203125,-0.023651123046875,0.015350341796875
1761384920852348000,5.277347900390625,-1.000457763671875,-0.02435302734375,0.0154571533203125
1761384920862416600,5.287416748046875,-0.9990386962890625,-0.0243377685546875,0.0152740478515625
1761384920872486000,5.29748583984375,-1.00006103515625,-0.0242156982421875,0.015899658203125
1761384920882555000,5.307554931640625,-0.999969482421875,-0.0247344970703125,0.0165252685546875
1761384920892624000,5.317623779296875,-0.99957275390625,-0.02337646484375,0.0155181884765625
1761384920902692900,5.32769287109375,-1.0003814697265625,-0.0236663818359375,0.0149993896484375
1761384920912760800,5.3377607421875,-1.0011444091796875,-0.0243988037109375,0.014801025390625
1761384920922829800,5.347829833984375,-1.0006561279296875,-0.024383544921875,0.0160675048828125
1761384920932898800,5.35789892578125,-1.000030517578125,-0.024810791015625,0.0169677734375
1761384920942967800,5.3679677734375,-1.0006866455078125,-0.02362060546875,0.015228271484375
1761384920953036800,5.378036865234375,-0.999176025390625,-0.023040771484375,0.0159149169921875
1761384920963105800,5.388105712890625,-1.0009613037109375,-0.023834228515625,0.0146942138671875
1761384920973174800,5.3981748046875,-1.0000762939453125,-0.023529052734375,0.014984130859375
1761384920983242800,5.40824267578125,-1.0004730224609375,-0.0237274169921875,0.01513671875
1761384920993312000,5.41831201171875,-1.00030517578125,-0.024566650390625,0.0159149169921875
1761384921003380700,5.428380615234375,-0.9993743896484375,-0.0242462158203125,0.0164642333984375
1761384921013450000,5.438449951171875,-0.9991912841796875,-0.024169921875,0.015838623046875
1761384921023518700,5.448518798828125,-1.00006103515625,-0.023712158203125,0.01611328125
1761384921033588000,5.458587890625,-0.9995269775390625,-0.023956298828125,0.0154266357421875
1761384921043656000,5.468656005859375,-1.000213623046875,-0.0232696533203125,0.016143798828125
1761384921053724700,5.478724609375,-1.0003204345703125,-0.0238800048828125,0.0156097412109375
1761384921063794000,5.4887939453125,-1.000579833984375,-0.023223876953125,0.0149383544921875
1761384921073863000,5.49886279296875,-1.0005950927734375,-0.0248260498046875,0.0157012939453125
1761384921083932000,5.508931884765625,-1.0006256103515625,-0.0242919921875,0.015777587890625
1761384921094001000,5.5190009765625,-1.0008087158203125,-0.0240631103515625,0.0161895751953125
1761384921104068900,5.52906884765625,-1.0002899169921875,-0.023895263671875,0.015716552734375
1761384921114137900,5.539137939453125,-1.0004730224609375,-0.0242462158203125,0.01507568359375
1761384921124206800,5.549206787109375,-1.0006103515625,-0.0240020751953125,0.015960693359375
1761384921134275800,5.55927587890625,-1.0005645751953125,-0.0243988037109375,0.015228271484375
1761384921144344800,5.5693447265625,-0.999481201171875,-0.0235443115234375,0.01513671875
1761384921154413800,5.579413818359375,-1.000457763671875,-0.0228118896484375,0.01507568359375
1761384921164482800,5.58948291015625,-1.00048828125,-0.0229949951171875,0.01519775390625
1761384921174550800,5.59955078125,-1.00067138671875,-0.0233917236328125,0.0158538818359375
1761384921184619800,5.609619873046875,-1.00103759765625,-0.023651123046875,0.0150909423828125
1761384921194688800,5.619688720703125,-1.0010223388671875,-0.0237274169921875,0.0163116455078125
1761384921204758800,5.6297587890625,-1.0003662109375,-0.0239105224609375,0.0162506103515625
1761384921214826800,5.63982666015625,-1.0000152587890625,-0.02410888671875,0.015411376953125
1761384921224896000,5.64989599609375,-0.999298095703125,-0.0237274169921875,0.0158843994140625
1761384921234964700,5.65996484375,-0.999237060546875,-0.023773193359375,0.0162200927734375
1761384921245033700,5.67003369140625,-0.99920654296875,-0.0240325927734375,0.0150909423828125
1761384921255103000,5.68010302734375,-0.9990997314453125,-0.02410888671875,0.01556396484375
1761384921265171700,5.690171630859375,-0.9999847412109375,-0.0240936279296875,0.0161285400390625
1761384921275241000,5.700240966796875,-0.999481201171875,-0.0235443115234375,0.0160675048828125
1761384921285309000,5.710308837890625,-1.000274658203125,-0.0234375,0.0151824951171875
1761384921295377700,5.720377685546875,-1.0002899169921875,-0.0242156982421875,0.0153045654296875
1761384921305447000,5.730447021484375,-0.9996185302734375,-0.0244598388671875,0.0152740478515625
1761384921315515600,5.740515625,-1.000030517578125,-0.024078369140625,0.0160675048828125
1761384921325585000,5.7505849609375,-1.0006866455078125,-0.0244140625,0.0149993896484375
1761384921335654000,5.76065380859375,-1.000640869140625,-0.0243072509765625,0.015411376953125
1761384921345721900,5.770721923828125,-1.0001220703125,-0.02459716796875,0.014739990234375
1761384921355790800,5.780790771484375,-1.0000152587890625,-0.0247344970703125,0.01629638671875
1761384921365859800,5.79085986328125,-1.000762939453125,-0.0240325927734375,0.016021728515625
1761384921375928800,5.8009287109375,-1.00042724609375,-0.0238189697265625,0.0147857666015625
1761384921385997800,5.810997802734375,-0.99951171875,-0.024505615234375,0.0150909423828125
1761384921396066800,5.82106689453125,-0.99993896484375,-0.0231781005859375,0.0159454345703125
1761384921406134800,5.831134765625,-1.0007171630859375,-0.0236663818359375,0.0160369873046875
1761384921416203800,5.841203857421875,-1.0005950927734375,-0.0242919921875,0.015350341796875
1761384921426272800,5.851272705078125,-1.0003204345703125,-0.023681640625,0.0156097412109375
1761384921436341800,5.861341796875,-0.999847412109375,-0.02435302734375,0.016326904296875
1761384921446411000,5.871410888671875,-1.0016021728515625,-0.0240325927734375,0.0161895751953125
1761384921456479700,5.881479736328125,-1.000213623046875,-0.02410888671875,0.01495361328125
1761384921466549000,5.891549072265625,-1.0003204345703125,-0.0233154296875,0.01641845703125
1761384921476617000,5.901616943359375,-1.0005340576171875,-0.023345947265625,0.0152130126953125
1761384921486685700,5.911685791015625,-1.0008392333984375,-0.0236358642578125,0.0147705078125
1761384921496755000,5.9217548828125,-1.0008392333984375,-0.0234222412109375,0.01531982421875
1761384921506823700,5.93182373046875,-1.0007781982421875,-0.0235748291015625,0.0163116455078125
1761384921516893000,5.941892822265625,-0.9998626708984375,-0.024322509765625,0.01519775390625
1761384921526962000,5.9519619140625,-0.9991455078125,-0.0236053466796875,0.0153045654296875
1761384921537029600,5.962029541015625,-1.0003509521484375,-0.0235443115234375,0.015716552734375
1761384921547099000,5.972098876953125,-0.9991455078125,-0.0234832763671875,0.0157318115234375
1761384921557167900,5.98216796875,-1.0004730224609375,-0.0232391357421875,0.015350341796875
1761384921567236900,5.99223681640625,-1.0011444091796875,-0.0240936279296875,0.0156402587890625
1761384921577305900,6.002305908203125,-0.9995880126953125,-0.023834228515625,0.015655517578125
1761384921587374800,6.012374755859375,-0.99969482421875,-0.0240325927734375,0.015716552734375
1761384921597443800,6.02244384765625,-0.999267578125,-0.0246734619140625,0.015716552734375
1761384921607511800,6.03251171875,-1.000640869140625,-0.02386474609375,0.0154571533203125
1761384921617580800,6.042580810546875,-0.99951171875,-0.0236968994140625,0.01580810546875
1761384921627649800,6.05264990234375,-1.000762939453125,-0.0230560302734375,0.0158233642578125
1761384921637719000,6.062718994140625,-1.0006866455078125,-0.023773193359375,0.0153350830078125
1761384921647787800,6.072787841796875,-0.9989776611328125,-0.024383544921875,0.015411376953125
1761384921657856500,6.0828564453125,-1.0003204345703125,-0.0241851806640625,0.0162506103515625
1761384921667924500,6.092924560546875,-0.999298095703125,-0.02471923828125,0.016021728515625
1761384921677993200,6.1029931640625,-0.9994964599609375,-0.024749755859375,0.0160675048828125
1761384921688062500,6.1130625,-1.00042724609375,-0.023590087890625,0.016204833984375
1761384921698131200,6.123131103515625,-1.0006256103515625,-0.02294921875,0.0161285400390625
1761384921708200400,6.133200439453125,-1.0002288818359375,-0.0230712890625,0.0158233642578125
1761384921718269400,6.14326953125,-1.0009613037109375,-0.0243072509765625,0.01513671875
1761384921728338400,6.15333837890625,-1.000244140625,-0.024871826171875,0.015655517578125
1761384921738406400,6.163406494140625,-1.0001983642578125,-0.02484130859375,0.016510009765625
1761384921748475400,6.173475341796875,-0.99932861328125,-0.024322509765625,0.015106201171875
1761384921758544400,6.18354443359375,-1.000213623046875,-0.02374267578125,0.0153045654296875
1761384921768613400,6.19361328125,-1.0014495849609375,-0.023590087890625,0.01641845703125
1761384921778682400,6.203682373046875,-1.0000762939453125,-0.02276611328125,0.0155487060546875
1761384921788751400,6.21375146484375,-0.9993743896484375,-0.023468017578125,0.014678955078125
1761384921798819300,6.2238193359375,-1.0005340576171875,-0.024169921875,0.01629638671875
1761384921808888300,6.233888427734375,-1.000030517578125,-0.024871826171875,0.0155487060546875
1761384921818957300,6.243957275390625,-0.999725341796875,-0.0245819091796875,0.0145416259765625
1761384921829026600,6.254026611328125,-0.9998016357421875,-0.0250396728515625,0.015472412109375
1761384921839095300,6.26409521484375,-1.00128173828125,-0.024261474609375,0.0157623291015625
1761384921849164500,6.27416455078125,-1.000457763671875,-0.0235137939453125,0.0149383544921875
1761384921859233300,6.2842333984375,-0.9999542236328125,-0.0244903564453125,0.0160369873046875
1761384921869301200,6.29430126953125,-0.9997711181640625,-0.024444580078125,0.016143798828125
1761384921879370500,6.30437060546875,-1.0001983642578125,-0.0229644775390625,0.01605224609375
1761384921889439200,6.314439208984375,-1.00091552734375,-0.0233154296875,0.015655517578125
1761384921899508500,6.324508544921875,-1.0003509521484375,-0.0239715576171875,0.0161895751953125
1761384921909577500,6.334577392578125,-1.0009307861328125,-0.024261474609375,0.015411376953125
1761384921919646500,6.344646484375,-1,-0.024017333984375,0.0161590576171875
1761384921929714400,6.35471435546875,-1.0003509521484375,-0.023406982421875,0.0159454345703125
1761384921939783400,6.364783447265625,-1.00067138671875,-0.0235595703125,0.015350341796875
1761384921949852400,6.374852294921875,-0.9994049072265625,-0.023345947265625,0.015472412109375
1761384921959921400,6.38492138671875,-0.9999237060546875,-0.0244140625,0.0156097412109375
1761384921969990400,6.394990478515625,-1.000701904296875,-0.0240020751953125,0.015655517578125
1761384921980059400,6.405059326171875,-0.9996337890625,-0.0232696533203125,0.0160980224609375
1761384921990128400,6.41512841796875,-1.000579833984375,-0.0238800048828125,0.015838623046875
1761384922000196400,6.4251962890625,-1.0005645751953125,-0.0233917236328125,0.0161590576171875
1761384922010265300,6.435265380859375,-0.9993438720703125,-0.024322509765625,0.015594482421875
1761384922020334600,6.44533447265625,-1.0002288818359375,-0.0237274169921875,0.0151214599609375
1761384922030403300,6.4554033203125,-1.0003509521484375,-0.023681640625,0.01556396484375
1761384922040472300,6.465472412109375,-1.00054931640625,-0.024505615234375,0.0152435302734375
1761384922050541300,6.475541259765625,-1.000762939453125,-0.024017333984375,0.0155487060546875
1761384922060609300,6.485609375,-1.0001678466796875,-0.023712158203125,0.0161285400390625
1761384922070678500,6.495678466796875,-1.0000152587890625,-0.024505615234375,0.015777587890625
1761384922080747300,6.505747314453125,-1.0011444091796875,-0.0241546630859375,0.0152435302734375
1761384922090816500,6.51581640625,-1.0012664794921875,-0.0232391357421875,0.0152587890625
1761384922100885500,6.525885498046875,-1.000274658203125,-0.022674560546875,0.0156097412109375
1761384922110954200,6.535954345703125,-0.9991302490234375,-0.0244293212890625,0.016754150390625
1761384922121023500,6.5460234375,-1.0021209716796875,-0.024444580078125,0.016510009765625
1761384922131091500,6.556091552734375,-0.9975738525390625,-0.02392578125,0.0112762451171875
1761384922141160400,6.566160400390625,-0.998992919921875,-0.022735595703125,0.013946533203125
1761384922151229400,6.5762294921875,-1.0012359619140625,-0.023345947265625,0.01788330078125
1761384922161298200,6.586298095703125,-1.000335693359375,-0.025146484375,0.0178375244140625
1761384922171367400,6.596367431640625,-1.0003814697265625,-0.02490234375,0.0154571533203125
1761384922181436400,6.6064365234375,-1.0009918212890625,-0.0239715576171875,0.0146942138671875
1761384922191504400,6.61650439453125,-1.00018310546875,-0.02301025390625,0.01458740234375
1761384922201573400,6.626573486328125,-0.9998931884765625,-0.024139404296875,0.0143280029296875
1761384922211642600,6.636642578125,-0.9998931884765625,-0.024200439453125,0.01611328125
1761384922221711400,6.64671142578125,-1.000640869140625,-0.023773193359375,0.0157318115234375
1761384922231780400,6.6567802734375,-1.001190185546875,-0.023834228515625,0.0169525146484375
1761384922241849300,6.666849365234375,-0.999176025390625,-0.0245361328125,0.0158538818359375
1761384922251918300,6.67691845703125,-0.998809814453125,-0.024658203125,0.015228271484375
1761384922261986600,6.686986572265625,-1.001190185546875,-0.023590087890625,0.014190673828125
1761384922272055300,6.69705517578125,-1.000244140625,-0.022735595703125,0.015472412109375
1761384922282124300,6.707124267578125,-0.99957275390625,-0.0229034423828125,0.0160369873046875
1761384922292193500,6.717193603515625,-1.0001373291015625,-0.0238494873046875,0.01580810546875
1761384922302262300,6.72726220703125,-0.9996795654296875,-0.024017333984375,0.0162353515625
1761384922312331500,6.73733154296875,-1.00091552734375,-0.0240478515625,0.0155181884765625
1761384922322399500,6.7473994140625,-1.00067138671875,-0.024200439453125,0.015380859375
1761384922332468200,6.75746826171875,-1.0005645751953125,-0.0250701904296875,0.01568603515625
1761384922342537500,6.767537353515625,-1.0001983642578125,-0.02301025390625,0.0155792236328125
1761384922352606200,6.777606201171875,-1.0006103515625,-0.0226898193359375,0.015289306640625
1761384922362675500,6.787675537109375,-0.9994049072265625,-0.023773193359375,0.015350341796875
1761384922372744400,6.797744384765625,-0.9994049072265625,-0.0250701904296875,0.01507568359375
1761384922382813400,6.8078134765625,-1.0009002685546875,-0.0255889892578125,0.015350341796875
1761384922392881400,6.81788134765625,-1.0003204345703125,-0.024810791015625,0.0153045654296875
1761384922402950400,6.827950439453125,-0.999969482421875,-0.024078369140625,0.014984130859375
1761384922413019400,6.838019287109375,-1.0006561279296875,-0.0234832763671875,0.0166778564453125
1761384922423088400,6.84808837890625,-0.99969482421875,-0.022857666015625,0.0157470703125
1761384922433157400,6.858157470703125,-0.9992523193359375,-0.023223876953125,0.01568603515625
1761384922443226400,6.868226318359375,-1.000030517578125,-0.023712158203125,0.0167083740234375
1761384922453294300,6.87829443359375,-1.000518798828125,-0.0251312255859375,0.0164642333984375
1761384922463363300,6.88836328125,-0.99981689453125,-0.0240478515625,0.0166015625
1761384922473432300,6.898432373046875,-1.000518798828125,-0.0239105224609375,0.016510009765625
1761384922483501300,6.908501220703125,-1.0009613037109375,-0.0233306884765625,0.015960693359375
1761384922493570300,6.9185703125,-0.999481201171875,-0.023345947265625,0.0162200927734375
1761384922503639600,6.9286396484375,-1.0008392333984375,-0.0240020751953125,0.0162200927734375
1761384922513708300,6.938708251953125,-1.0001068115234375,-0.0244598388671875,0.0159149169921875
1761384922523776300,6.9487763671875,-1.001068115234375,-0.0246124267578125,0.0162506103515625
1761384922533845500,6.958845458984375,-0.999908447265625,-0.023773193359375,0.0158538818359375
1761384922543914200,6.968914306640625,-0.9997406005859375,-0.02435302734375,0.016693115234375
1761384922553983500,6.9789833984375,-0.99945068359375,-0.0231475830078125,0.0167083740234375
1761384922564052200,6.98905224609375,-1.0003814697265625,-0.022979736328125,0.014862060546875
1761384922574121500,6.99912158203125,-1.000030517578125,-0.023468017578125,0.01605224609375
1761384922584189400,7.009189453125,-1.0003509521484375,-0.0247802734375,0.015472412109375
1761384922594258400,7.019258544921875,-0.9999542236328125,-0.02386474609375,0.0161590576171875
1761384922604327400,7.029327392578125,-0.9998321533203125,-0.0242462158203125,0.0164031982421875
1761384922614396400,7.039396484375,-1.000244140625,-0.0237274169921875,0.0155487060546875
1761384922624465400,7.04946533203125,-0.9998779296875,-0.023895263671875,0.0159912109375
1761384922634534400,7.059534423828125,-1.000396728515625,-0.02349853515625,0.015960693359375
1761384922644603400,7.069603271484375,-1.000885009765625,-0.023651123046875,0.0155792236328125
1761384922654671600,7.079671630859375,-1.0001678466796875,-0.02435302734375,0.0146942138671875
1761384922664740600,7.08974072265625,-1.00146484375,-0.0243682861328125,0.015716552734375
1761384922674809600,7.0998095703125,-0.9999237060546875,-0.024017333984375,0.01617431640625
1761384922684878600,7.109878662109375,-1.000579833984375,-0.0234832763671875,0.0167694091796875
1761384922694947600,7.119947509765625,-1.0005950927734375,-0.024017333984375,0.015380859375
1761384922705016600,7.1300166015625,-0.9995269775390625,-0.02325439453125,0.01519775390625
1761384922715084500,7.14008447265625,-0.999664306640625,-0.0234375,0.0158843994140625
1761384922725153800,7.15015380859375,-1.0008087158203125,-0.024139404296875,0.0154571533203125
1761384922735222500,7.160222412109375,-1.000244140625,-0.0246734619140625,0.015106201171875
1761384922745291800,7.170291748046875,-1.0009613037109375,-0.024688720703125,0.015228271484375
1761384922755360500,7.180360595703125,-1.000091552734375,-0.023773193359375,0.0159149169921875
1761384922765429500,7.190429443359375,-0.9993438720703125,-0.02313232421875,0.0159759521484375
1761384922775498800,7.200498779296875,-0.999908447265625,-0.0238494873046875,0.01568603515625
1761384922785566500,7.21056640625,-1.0003204345703125,-0.024169921875,0.0151824951171875
1761384922795635700,7.2206357421875,-0.9991455078125,-0.0230560302734375,0.0151214599609375
1761384922805704700,7.23070458984375,-0.9999237060546875,-0.023712158203125,0.015594482421875
1761384922815773400,7.2407734375,-1.000335693359375,-0.0249481201171875,0.0164031982421875
1761384922825842700,7.2508427734375,-1.0004425048828125,-0.024139404296875,0.0155487060546875
1761384922835911400,7.260911376953125,-1.00115966796875,-0.0241546630859375,0.0160675048828125
1761384922845979600,7.270979736328125,-1.0005340576171875,-0.0239105224609375,0.0159149169921875
1761384922856048600,7.281048583984375,-1.000152587890625,-0.023590087890625,0.0158843994140625
1761384922866117400,7.291117431640625,-0.99993896484375,-0.0243072509765625,0.0154266357421875
1761384922876186600,7.3011865234375,-1.0004425048828125,-0.0245208740234375,0.01519775390625
1761384922886255600,7.311255615234375,-1.0002593994140625,-0.02325439453125,0.0157318115234375
1761384922896324600,7.32132470703125,-1.000244140625,-0.02294921875,0.0161590576171875
1761384922906393600,7.3313935546875,-1.0003509521484375,-0.0238494873046875,0.0156402587890625
1761384922916461800,7.3414619140625,-1.000030517578125,-0.0244903564453125,0.01556396484375
1761384922926530600,7.351530517578125,-1.0004730224609375,-0.023895263671875,0.015289306640625
1761384922936599600,7.361599609375,-1.00048828125,-0.0234375,0.01531982421875
1761384922946668500,7.37166845703125,-0.9998779296875,-0.0243682861328125,0.015960693359375
1761384922956737500,7.381737548828125,-0.99957275390625,-0.024078369140625,0.0157470703125
1761384922966806500,7.391806640625,-0.999908447265625,-0.024078369140625,0.015167236328125
1761384922976874500,7.40187451171875,-1.0000762939453125,-0.0241546630859375,0.0153961181640625
1761384922986943500,7.411943603515625,-1.0008544921875,-0.02392578125,0.0163116455078125
1761384922997012700,7.4220126953125,-1.0008392333984375,-0.0243377685546875,0.0158843994140625
1761384923007081500,7.43208154296875,-1.0001068115234375,-0.0235595703125,0.0153045654296875
1761384923017150700,7.442150634765625,-1.00030517578125,-0.0232696533203125,0.0157928466796875
1761384923027219500,7.452219482421875,-1.000885009765625,-0.0240631103515625,0.016082763671875
1761384923037288700,7.462288818359375,-1.0000457763671875,-0.0243377685546875,0.01641845703125
1761384923047356700,7.472356689453125,-1.00048828125,-0.0238800048828125,0.015716552734375
1761384923057425400,7.48242529296875,-1.0000762939453125,-0.023956298828125,0.016021728515625
1761384923067494700,7.49249462890625,-1.0006103515625,-0.0236663818359375,0.016357421875
1761384923077563600,7.502563720703125,-1.0006256103515625,-0.0236358642578125,0.0159149169921875
1761384923087632600,7.512632568359375,-1.000732421875,-0.0233306884765625,0.015045166015625
1761384923097701600,7.52270166015625,-1.0010986328125,-0.0236663818359375,0.0155487060546875
1761384923107769600,7.53276953125,-0.999786376953125,-0.023223876953125,0.0151214599609375
1761384923117838600,7.542838623046875,-1.0001678466796875,-0.0238037109375,0.015625
1761384923127907600,7.552907470703125,-1.00018310546875,-0.0239410400390625,0.0159912109375
1761384923137976600,7.5629765625,-0.9996490478515625,-0.02410888671875,0.0156707763671875
1761384923148045600,7.573045654296875,-1.0000762939453125,-0.024139404296875,0.0157470703125
1761384923158114600,7.583114501953125,-1.000213623046875,-0.024169921875,0.0159912109375
1761384923168182500,7.5931826171875,-1.000823974609375,-0.023834228515625,0.015777587890625
1761384923178251500,7.60325146484375,-1.00054931640625,-0.0240936279296875,0.0156707763671875
1761384923188320500,7.613320556640625,-0.999267578125,-0.0236358642578125,0.016357421875
1761384923198389500,7.623389404296875,-1.0001373291015625,-0.0238800048828125,0.0152130126953125
1761384923208458800,7.633458740234375,-1.000701904296875,-0.023834228515625,0.0148773193359375
1761384923218527500,7.643527587890625,-1.000152587890625,-0.02423095703125,0.01617431640625
1761384923228596700,7.6535966796875,-0.9998321533203125,-0.0237884521484375,0.0158843994140625
1761384923238664700,7.663664794921875,-0.9993438720703125,-0.0243988037109375,0.01544189453125
1761384923248733400,7.6737333984375,-0.9999542236328125,-0.0236358642578125,0.01641845703125
1761384923258802700,7.683802734375,-0.9996185302734375,-0.0230560302734375,0.01593017578125
1761384923268871400,7.693871337890625,-1.000274658203125,-0.02337646484375,0.015899658203125
1761384923278940700,7.703940673828125,-0.999755859375,-0.024169921875,0.0150909423828125
1761384923289009700,7.714009765625,-0.999786376953125,-0.02447509765625,0.015380859375
1761384923299077600,7.72407763671875,-0.9998321533203125,-0.024139404296875,0.01580810546875
1761384923309146600,7.734146728515625,-0.9996795654296875,-0.0237579345703125,0.0162353515625
1761384923319215600,7.744215576171875,-1.0007781982421875,-0.02362060546875,0.015899658203125
1761384923329284600,7.75428466796875,-1.00030517578125,-0.0237274169921875,0.0168304443359375
1761384923339353600,7.764353515625,-1.0001373291015625,-0.0237579345703125,0.0154876708984375
1761384923349422600,7.774422607421875,-1.000701904296875,-0.0237579345703125,0.0154266357421875
1761384923359491600,7.78449169921875,-1.000701904296875,-0.0246124267578125,0.0152740478515625
1761384923369559600,7.7945595703125,-1.0004425048828125,-0.023895263671875,0.01580810546875
1761384923379628500,7.804628662109375,-1.0008392333984375,-0.0230560302734375,0.015594482421875
1761384923389697500,7.814697509765625,-1.0007171630859375,-0.0232696533203125,0.015716552734375
1761384923399766800,7.824766845703125,-1.0007781982421875,-0.0237579345703125,0.0159149169921875
1761384923409835500,7.83483544921875,-1.0004730224609375,-0.0240325927734375,0.0156707763671875
1761384923419904800,7.84490478515625,-1.0002593994140625,-0.02398681640625,0.015350341796875
1761384923429972700,7.85497265625,-0.999603271484375,-0.0239410400390625,0.01531982421875
1761384923440041500,7.86504150390625,-1.0007781982421875,-0.0240936279296875,0.01495361328125
1761384923450110700,7.87511083984375,-1.000152587890625,-0.0243072509765625,0.0160369873046875
1761384923460179500,7.885179443359375,-1.0001068115234375,-0.0237274169921875,0.016265869140625
1761384923470248700,7.895248779296875,-1.0006256103515625,-0.0233001708984375,0.01605224609375
1761384923480317700,7.905317626953125,-1.000640869140625,-0.0235595703125,0.0162506103515625
1761384923490386400,7.915386474609375,-1.000335693359375,-0.0234832763671875,0.0146484375
1761384923500454700,7.92545458984375,-1.00067138671875,-0.0239410400390625,0.015716552734375
1761384923510523600,7.935523681640625,-1.0009765625,-0.0240325927734375,0.015533447265625
1761384923520592600,7.945592529296875,-0.9995269775390625,-0.0233001708984375,0.015289306640625
1761384923530661600,7.95566162109375,-1.000274658203125,-0.023284912109375,0.0153961181640625
1761384923540730400,7.96573046875,-1.000457763671875,-0.0245361328125,0.0156097412109375
1761384923550799600,7.975799560546875,-0.999664306640625,-0.0248565673828125,0.015899658203125
1761384923560867600,7.98586767578125,-1.0002593994140625,-0.023162841796875,0.0157928466796875
1761384923570936600,7.9959365234375,-1.0001068115234375,-0.023895263671875,0.015838623046875
1761384923581005600,8.006005615234375,-0.999908447265625,-0.0240478515625,0.01654052734375
1761384923591074800,8.01607470703125,-1.0017242431640625,-0.0243682861328125,0.0154266357421875
1761384923601143600,8.0261435546875,-1.000152587890625,-0.02386474609375,0.01495361328125
1761384923611212500,8.036212646484374,-0.9994964599609375,-0.0237884521484375,0.0157623291015625
1761384923621281500,8.046281494140626,-0.9998779296875,-0.0233917236328125,0.016082763671875
1761384923631349500,8.056349609375,-1.000518798828125,-0.0238800048828125,0.0160980224609375
1761384923641418800,8.066418701171875,-1.0001983642578125,-0.0240631103515625,0.0156097412109375
1761384923651488000,8.076488037109375,-1.0002899169921875,-0.023895263671875,0.0161590576171875
1761384923661557200,8.08655712890625,-0.9997711181640625,-0.023651123046875,0.01556396484375
1761384923671626000,8.0966259765625,-1.00054931640625,-0.023590087890625,0.0150909423828125
1761384923681695000,8.106695068359375,-1.000335693359375,-0.0234527587890625,0.0159912109375
1761384923691763200,8.11676318359375,-1.000457763671875,-0.023345947265625,0.0156402587890625
1761384923701832000,8.12683203125,-0.9996185302734375,-0.0238494873046875,0.0157318115234375
1761384923711901200,8.136901123046876,-1.0006561279296875,-0.0238037109375,0.0146942138671875
1761384923721970200,8.14697021484375,-1.0006866455078125,-0.02349853515625,0.0157928466796875
1761384923732039000,8.157038818359375,-1.00042724609375,-0.023590087890625,0.0157318115234375
1761384923742108200,8.167108154296875,-1.0008697509765625,-0.02349853515625,0.0149993896484375
1761384923752176000,8.177176025390626,-1.000152587890625,-0.0239410400390625,0.015899658203125
1761384923762245000,8.1872451171875,-1.0001983642578125,-0.023681640625,0.0159759521484375
1761384923772314000,8.197314208984375,-0.9998931884765625,-0.023590087890625,0.0158843994140625
1761384923782383000,8.207383056640625,-1.0001068115234375,-0.0245361328125,0.01580810546875
1761384923792452000,8.2174521484375,-0.9996185302734375,-0.0243682861328125,0.0164337158203125
1761384923802521000,8.22752099609375,-0.9997406005859375,-0.02484130859375,0.0158843994140625
1761384923812590000,8.237590087890625,-1.00128173828125,-0.0240631103515625,0.016204833984375
1761384923822658000,8.247657958984375,-1.0003204345703125,-0.0243377685546875,0.0155181884765625
1761384923832727300,8.257727294921875,-1.0007171630859375,-0.02392578125,0.0155181884765625
1761384923842796000,8.267796142578124,-1.000579833984375,-0.0245819091796875,0.015167236328125
1761384923852865000,8.277864990234375,-0.9998779296875,-0.0238494873046875,0.01580810546875
1761384923862934000,8.28793408203125,-1.00054931640625,-0.023468017578125,0.015716552734375
1761384923873003000,8.2980029296875,-1.0005035400390625,-0.024200439453125,0.015838623046875
1761384923883071200,8.3080712890625,-0.99993896484375,-0.0247650146484375,0.0155487060546875
1761384923893140000,8.318139892578126,-1.0007781982421875,-0.024261474609375,0.0158843994140625
1761384923903209200,8.328209228515625,-1.0000457763671875,-0.0240478515625,0.0153961181640625
1761384923913278200,8.3382783203125,-0.999969482421875,-0.023590087890625,0.015411376953125
1761384923923347000,8.348346923828124,-0.99981689453125,-0.02410888671875,0.0152740478515625
1761384923933416200,8.358416259765624,-1.000152587890625,-0.0240478515625,0.0156707763671875
1761384923943485000,8.36848486328125,-1.0009613037109375,-0.023651123046875,0.0151519775390625
1761384923953553200,8.37855322265625,-1.0004425048828125,-0.023406982421875,0.0139617919921875
1761384923963622100,8.3886220703125,-1.000030517578125,-0.0231170654296875,0.01544189453125
1761384923973691000,8.39869091796875,-1.0003509521484375,-0.023529052734375,0.015594482421875
1761384923983760100,8.408760009765626,-1.00067138671875,-0.02349853515625,0.016571044921875
1761384923993829000,8.4188291015625,-1.000701904296875,-0.0240631103515625,0.015472412109375
1761384924003898000,8.428898193359375,-0.999969482421875,-0.024505615234375,0.014739990234375
1761384924013966000,8.438966064453124,-1.0006561279296875,-0.0243072509765625,0.0150909423828125
1761384924024035000,8.44903515625,-0.9996795654296875,-0.0239410400390625,0.0155029296875
1761384924034104000,8.45910400390625,-1.000213623046875,-0.0238494873046875,0.01483154296875
1761384924044173000,8.469173095703125,-1.000579833984375,-0.0247039794921875,0.0153656005859375
1761384924054242000,8.479241943359375,-1.0006256103515625,-0.0252227783203125,0.01666259765625
1761384924064311000,8.48931103515625,-1.000762939453125,-0.02435302734375,0.017242431640625
1761384924074379300,8.499379150390626,-1.00018310546875,-0.024169921875,0.01641845703125
1761384924084448000,8.509447998046875,-1.0006103515625,-0.02398681640625,0.0147247314453125
1761384924094517000,8.51951708984375,-0.999725341796875,-0.0248260498046875,0.0162811279296875
1761384924104586200,8.529586181640624,-1.0005950927734375,-0.02362060546875,0.0166473388671875
1761384924114655000,8.539655029296876,-1.0009918212890625,-0.0236053466796875,0.016510009765625
1761384924124724200,8.54972412109375,-1.000274658203125,-0.02374267578125,0.0151519775390625
1761384924134793000,8.55979296875,-1.000762939453125,-0.0242767333984375,0.015289306640625
1761384924144861000,8.56986083984375,-1.0005035400390625,-0.0240631103515625,0.01495361328125
1761384924154930200,8.57993017578125,-1.001556396484375,-0.0235443115234375,0.01458740234375
1761384924164999000,8.5899990234375,-1.0008544921875,-0.0235443115234375,0.0147705078125
1761384924175068200,8.600068115234375,-1.0009002685546875,-0.0240936279296875,0.0165252685546875
1761384924185137200,8.61013720703125,-0.99920654296875,-0.0239715576171875,0.0167236328125
1761384924195206100,8.6202060546875,-1.0013275146484375,-0.0238494873046875,0.0157623291015625
1761384924205274000,8.630274169921876,-1.00079345703125,-0.0236968994140625,0.016204833984375
1761384924215343000,8.640343017578125,-1.0006561279296875,-0.0237274169921875,0.015350341796875
1761384924225412000,8.650412109375,-0.999053955078125,-0.0246124267578125,0.01531982421875
1761384924235481000,8.660481201171875,-0.9996795654296875,-0.0246429443359375,0.015380859375
1761384924245550000,8.670550048828124,-1.000335693359375,-0.0239410400390625,0.0160980224609375
1761384924255619000,8.680619140625,-0.9994354248046875,-0.024169921875,0.0159454345703125
1761384924265687000,8.69068701171875,-1.000823974609375,-0.0243988037109375,0.015289306640625
1761384924275756000,8.700756103515625,-0.9999542236328125,-0.0242156982421875,0.014739990234375
1761384924285825000,8.710824951171874,-1.0003662109375,-0.0243377685546875,0.0154876708984375
1761384924295894300,8.720894287109376,-0.999481201171875,-0.0240020751953125,0.016387939453125
1761384924305963000,8.730962890625,-1.00128173828125,-0.0236358642578125,0.0161285400390625
1761384924316032300,8.7410322265625,-0.9998931884765625,-0.0243682861328125,0.0168304443359375
1761384924326101000,8.75110107421875,-0.9994964599609375,-0.0242462158203125,0.0160675048828125
1761384924336169000,8.7611689453125,-0.99957275390625,-0.0236053466796875,0.0160675048828125
1761384924346238200,8.77123828125,-1.001251220703125,-0.024139404296875,0.0157012939453125
1761384924356307000,8.781306884765625,-1.000885009765625,-0.0236053466796875,0.0146026611328125
1761384924366376200,8.791376220703125,-1.00042724609375,-0.024505615234375,0.0153045654296875
1761384924376445000,8.80144482421875,-0.9997711181640625,-0.023681640625,0.0153350830078125
1761384924386514200,8.81151416015625,-1.0000762939453125,-0.0241546630859375,0.014739990234375
1761384924396582100,8.82158203125,-1.0009002685546875,-0.023895263671875,0.0153350830078125
1761384924406651100,8.831651123046875,-1.000885009765625,-0.023895263671875,0.0158843994140625
1761384924416720100,8.84172021484375,-0.999755859375,-0.0239410400390625,0.0157623291015625
1761384924426789000,8.8517890625,-0.999298095703125,-0.0242919921875,0.015380859375
1761384924436858000,8.861858154296876,-1.000030517578125,-0.0241546630859375,0.0157012939453125
1761384924446927000,8.871927001953125,-1.00067138671875,-0.0245361328125,0.0158843994140625
1761384924456996000,8.88199609375,-1.0008087158203125,-0.0238189697265625,0.0158538818359375
1761384924467064000,8.89206396484375,-1.00079345703125,-0.024505615234375,0.0145721435546875
1761384924477133000,8.902133056640626,-1.00079345703125,-0.0237884521484375,0.015411376953125
1761384924487202000,8.9122021484375,-0.99969482421875,-0.0235443115234375,0.01519775390625
1761384924497271000,8.92227099609375,-1.000885009765625,-0.0237274169921875,0.015777587890625
1761384924507340300,8.93234033203125,-1.0009918212890625,-0.0240631103515625,0.0147705078125
1761384924517409000,8.942408935546876,-1.0009307861328125,-0.0240936279296875,0.0152587890625
1761384924527477000,8.95247705078125,-1.00042724609375,-0.0243988037109375,0.01580810546875
1761384924537546200,8.962546142578125,-1.000701904296875,-0.024566650390625,0.016845703125
1761384924547615000,8.972614990234375,-0.999969482421875,-0.0242767333984375,0.015716552734375
1761384924557684200,8.982684326171874,-0.9994049072265625,-0.02374267578125,0.0157470703125
1761384924567753000,8.9927529296875,-1.00054931640625,-0.023956298828125,0.0154571533203125
1761384924577821000,9.002821044921875,-0.9994659423828125,-0.0242919921875,0.0157623291015625
1761384924587890200,9.01289013671875,-1.0005035400390625,-0.02398681640625,0.015869140625
1761384924597959200,9.022959228515624,-0.999786376953125,-0.0243682861328125,0.0158538818359375
1761384924608028200,9.033028076171876,-1.0009613037109375,-0.0242156982421875,0.0149078369140625
1761384924618096000,9.04309619140625,-1.0002288818359375,-0.0240936279296875,0.0158538818359375
1761384924628165000,9.0531650390625,-1.00030517578125,-0.0238494873046875,0.0160369873046875
1761384924638234000,9.063234130859374,-1.00079345703125,-0.024444580078125,0.016357421875
1761384924648303000,9.07330322265625,-1.000274658203125,-0.0247802734375,0.015472412109375
1761384924658371300,9.083371337890625,-0.9993743896484375,-0.0237884521484375,0.0164337158203125
1761384924668440600,9.093440673828125,-1.0001373291015625,-0.0240478515625,0.015350341796875
1761384924678508500,9.103508544921874,-1.0008544921875,-0.0242919921875,0.0153656005859375
1761384924688577500,9.11357763671875,-1.0007476806640625,-0.0242462158203125,0.01531982421875
1761384924698646500,9.123646484375,-1.0006256103515625,-0.0242919921875,0.01611328125
1761384924708715500,9.133715576171875,-1.0006561279296875,-0.024200439453125,0.0162506103515625
1761384924718784500,9.143784423828125,-1.000030517578125,-0.0242767333984375,0.015472412109375
1761384924728853500,9.153853515625,-0.9998016357421875,-0.0246124267578125,0.01611328125
1761384924738921500,9.16392138671875,-0.999847412109375,-0.024017333984375,0.0159149169921875
1761384924748990500,9.173990478515625,-0.9996490478515625,-0.0247802734375,0.0161285400390625
1761384924759059500,9.1840595703125,-1.0005645751953125,-0.02398681640625,0.015777587890625
1761384924769128400,9.19412841796875,-1.000091552734375,-0.0242156982421875,0.015838623046875
1761384924779197400,9.204197509765624,-1.0006103515625,-0.024169921875,0.01629638671875
1761384924789266700,9.2142666015625,-0.9994354248046875,-0.0235748291015625,0.0150299072265625
1761384924799335400,9.22433544921875,-1.000396728515625,-0.024383544921875,0.0158538818359375
1761384924809403400,9.2344033203125,-1.0004425048828125,-0.0240325927734375,0.0154266357421875
1761384924819472600,9.24447265625,-1.0004730224609375,-0.02374267578125,0.0167388916015625
1761384924829541400,9.254541259765626,-1.00042724609375,-0.0242156982421875,0.01611328125
1761384924839610600,9.264610595703125,-1.00006103515625,-0.023773193359375,0.0153656005859375
1761384924849679400,9.274679443359375,-0.9996795654296875,-0.02392578125,0.01519775390625
1761384924859748600,9.28474853515625,-0.9999542236328125,-0.0239105224609375,0.015533447265625
1761384924869816600,9.294816650390626,-1.0009002685546875,-0.023895263671875,0.014801025390625
1761384924879885300,9.30488525390625,-1.001373291015625,-0.0236358642578125,0.0151824951171875
1761384924889954600,9.31495458984375,-1.0004730224609375,-0.0238494873046875,0.015380859375
1761384924900023600,9.3250234375,-1.000244140625,-0.024017333984375,0.0153656005859375
1761384924910092500,9.335092529296874,-1.0001678466796875,-0.0231781005859375,0.0158538818359375
1761384924920161500,9.34516162109375,-1.000152587890625,-0.0232086181640625,0.0159454345703125
1761384924930229500,9.3552294921875,-1.001068115234375,-0.0251312255859375,0.0155181884765625
1761384924940298500,9.365298583984375,-0.999755859375,-0.0237884521484375,0.0154266357421875
1761384924950367500,9.375367431640624,-0.9992828369140625,-0.0247650146484375,0.01605224609375
1761384924960436500,9.3854365234375,-1.0003662109375,-0.0235137939453125,0.0157318115234375
1761384924970505500,9.39550537109375,-1.0009765625,-0.02398681640625,0.0153961181640625
1761384924980574700,9.40557470703125,-0.9993743896484375,-0.025054931640625,0.01605224609375
1761384924990643500,9.4156435546875,-0.9996185302734375,-0.0234375,0.0157623291015625
1761384925000711400,9.42571142578125,-1.00054931640625,-0.0237884521484375,0.01617431640625
1761384925010780700,9.43578076171875,-1.000762939453125,-0.0240478515625,0.0160064697265625
1761384925020849400,9.445849365234375,-1.0003662109375,-0.02349853515625,0.0157012939453125
1761384925030918700,9.455918701171875,-1.000030517578125,-0.0241851806640625,0.01531982421875
1761384925040987400,9.4659873046875,-1.0002593994140625,-0.0242156982421875,0.016265869140625
1761384925051056600,9.476056640625,-0.99981689453125,-0.0241546630859375,0.0158538818359375
1761384925061124600,9.48612451171875,-0.9996337890625,-0.023468017578125,0.016265869140625
1761384925071193300,9.496193359375,-1.000640869140625,-0.0232696533203125,0.0157012939453125
1761384925081262600,9.5062626953125,-1.000579833984375,-0.0236663818359375,0.0148773193359375
1761384925091331600,9.51633154296875,-1.00128173828125,-0.0235443115234375,0.0156707763671875
1761384925101400600,9.526400634765626,-1.0006561279296875,-0.0239105224609375,0.01556396484375
1761384925111469600,9.536469482421875,-1.000274658203125,-0.024169921875,0.015716552734375
1761384925121537500,9.54653759765625,-1.0007171630859375,-0.02447509765625,0.0158233642578125
1761384925131606500,9.5566064453125,-1.0000762939453125,-0.0242919921875,0.0160064697265625
1761384925141675500,9.566675537109376,-1.0011444091796875,-0.0234527587890625,0.0157012939453125
1761384925151744500,9.57674462890625,-1.0011138916015625,-0.0243377685546875,0.016265869140625
1761384925161813500,9.5868134765625,-1.000701904296875,-0.023956298828125,0.0152435302734375
1761384925171882800,9.5968828125,-1.000244140625,-0.0234222412109375,0.0158538818359375
1761384925181950500,9.606950439453126,-0.999786376953125,-0.0237884521484375,0.0155487060546875
1761384925192019500,9.61701953125,-0.9996490478515625,-0.0233154296875,0.0156097412109375
1761384925202088700,9.627088623046875,-1.0013275146484375,-0.0234527587890625,0.0152740478515625
1761384925212157400,9.637157470703125,-1.00054931640625,-0.0238189697265625,0.015655517578125
1761384925222226700,9.647226806640624,-1.0002899169921875,-0.0238189697265625,0.0166168212890625
1761384925232295400,9.65729541015625,-1.00042724609375,-0.02410888671875,0.0157623291015625
1761384925242364400,9.667364501953125,-1.000396728515625,-0.0238189697265625,0.0159912109375
1761384925252432600,9.6774326171875,-1.000244140625,-0.0239715576171875,0.0155029296875
1761384925262501400,9.68750146484375,-1.000885009765625,-0.0241546630859375,0.0160369873046875
1761384925272570600,9.697570556640626,-1.0001983642578125,-0.0240020751953125,0.0150146484375
1761384925282639600,9.7076396484375,-1.0003509521484375,-0.024169921875,0.0157928466796875
1761384925292708400,9.717708251953125,-1.0003204345703125,-0.02398681640625,0.0164642333984375
1761384925302777600,9.727777587890625,-1.0000152587890625,-0.0235443115234375,0.0161285400390625
1761384925312845600,9.737845458984374,-1.00054931640625,-0.0242919921875,0.0157928466796875
1761384925322914600,9.74791455078125,-1.0001220703125,-0.0237274169921875,0.016326904296875
1761384925332983600,9.757983642578125,-1.00091552734375,-0.0243682861328125,0.0157623291015625
1761384925343052500,9.768052490234375,-1.0006561279296875,-0.024169921875,0.0148468017578125
1761384925353121500,9.77812158203125,-0.9999542236328125,-0.0246734619140625,0.014923095703125
1761384925363190500,9.7881904296875,-1.0008697509765625,-0.024566650390625,0.015472412109375
1761384925373258500,9.798258544921875,-1.000244140625,-0.0241851806640625,0.0159759521484375
1761384925383327500,9.808327392578125,-1.000335693359375,-0.0242462158203125,0.0159759521484375
1761384925393396700,9.818396728515625,-1.0006561279296875,-0.024261474609375,0.0155487060546875
1761384925403465500,9.828465576171874,-1.000213623046875,-0.02386474609375,0.0154571533203125
1761384925413534500,9.838534423828126,-1.0003814697265625,-0.02392578125,0.015960693359375
1761384925423603500,9.848603515625,-1.0011138916015625,-0.02435302734375,0.015167236328125
1761384925433672400,9.85867236328125,-0.9996185302734375,-0.0246734619140625,0.0157012939453125
1761384925443740700,9.86874072265625,-1.0003662109375,-0.0247955322265625,0.0159454345703125
1761384925453809400,9.878809326171876,-0.9992218017578125,-0.0236358642578125,0.0160369873046875
1761384925463878400,9.88887841796875,-0.9994659423828125,-0.0244903564453125,0.0157928466796875
1761384925473947600,9.89894775390625,-1.0002288818359375,-0.0242156982421875,0.0160369873046875
1761384925484016400,9.909016357421875,-1.0013580322265625,-0.0240020751953125,0.0158233642578125
1761384925494085600,9.919085693359374,-1.0003814697265625,-0.02362060546875,0.0160369873046875
1761384925504153600,9.929153564453125,-1.0001983642578125,-0.023773193359375,0.0165557861328125
1761384925514222600,9.93922265625,-1.0003509521484375,-0.024200439453125,0.0157623291015625
1761384925524291600,9.94929150390625,-1.0002288818359375,-0.0236358642578125,0.0155181884765625
1761384925534360300,9.9593603515625,-1.0002899169921875,-0.023956298828125,0.0158233642578125
1761384925544429600,9.9694296875,-1.0006256103515625,-0.02349853515625,0.0158843994140625
1761384925554498600,9.97949853515625,-1.0003662109375,-0.02398681640625,0.0155181884765625
1761384925564566500,9.98956640625,-1.0009002685546875,-0.0242919921875,0.015869140625
1761384925574635500,9.999635498046874,-1.0006866455078125,-0.024261474609375,0.0159759521484375
1761384925584704500,10.00970458984375,-0.999603271484375,-0.02392578125,0.0160064697265625
1761384925594773500,10.0197734375,-1.0002288818359375,-0.02410888671875,0.015289306640625
1761384925604842500,10.029842529296875,-1.001556396484375,-0.024169921875,0.015594482421875
1761384925614911500,10.039911376953125,-1.000579833984375,-0.02423095703125,0.0157623291015625
1761384925624980500,10.04998046875,-1.0006103515625,-0.0247039794921875,0.0163116455078125
1761384925635048700,10.060048583984376,-0.9999542236328125,-0.0245513916015625,0.015960693359375
1761384925645117400,10.070117431640625,-1.0004730224609375,-0.022979736328125,0.0150909423828125
1761384925655187200,10.080187255859375,-0.9996795654296875,-0.0234527587890625,0.0152740478515625
1761384925665256000,10.090255859375,-0.9892730712890625,-0.0243988037109375,0.0149383544921875
1761384925675325200,10.1003251953125,-1.007232666015625,-0.0280303955078125,0.0183868408203125
1761384925685394200,10.110394287109376,-1.002410888671875,-0.0266265869140625,0.0169219970703125
1761384925695462000,10.1204619140625,-1.0023193359375,-0.021209716796875,0.014617919921875
1761384925705531100,10.13053125,-1.0039215087890625,-0.0178070068359375,0.0141143798828125
1761384925715600100,10.14060009765625,-1.0015411376953125,-0.018768310546875,0.014068603515625
1761384925725669000,10.150669189453126,-1.0010986328125,-0.0212860107421875,0.0162200927734375
1761384925735738000,10.160738037109375,-1.0003204345703125,-0.025970458984375,0.0183258056640625
1761384925745807000,10.17080712890625,-0.9986724853515625,-0.0312042236328125,0.0206756591796875
