time,seconds_elapsed,z,y,x
1761384915675711700,0.100711669921875,-0.001716673607006669,-0.008510930463671684,0.005516205448657274
1761384915685781000,0.110781005859375,-0.0015574166318401694,-0.008525311015546322,0.0072943982668221
1761384915695850000,0.12085009765625,0.0005174521938897669,-0.008184426464140415,0.004020308144390583
1761384915705919000,0.1309189453125,-0.003213370218873024,-0.006415022537112236,0.0029313412960618734
1761384915715987000,0.140987060546875,-0.002606435678899288,-0.006142314523458481,0.007553523872047663
1761384915726056000,0.151055908203125,-0.0006804376607760787,-0.009400958195328712,0.005272526293992996
1761384915736125000,0.161125,-0.0025515747256577015,-0.010068080388009548,0.003733485471457243
1761384915746194000,0.17119384765625,-0.0009081379394046962,-0.00854608416557312,0.003924966789782047
1761384915756263000,0.181262939453125,0.00018988338706549257,-0.011416971683502197,0.004734834190458059
1761384915766331000,0.191330810546875,-0.0025515747256577015,-0.008655273355543613,0.005575327668339014
1761384915776400000,0.20139990234375,0.0004165183927398175,-0.006262955721467733,0.004801413044333458
1761384915786468900,0.21146875,-0.0017837852938100696,-0.008445416577160358,0.004563326481729746
1761384915796537900,0.221537841796875,-0.0025574336759746075,-0.007201720029115677,0.005692773032933474
1761384915806607000,0.231607177734375,-0.0009534116834402084,-0.00908484123647213,0.005209409166127443
1761384915816675000,0.241675048828125,-0.0023723437916487455,-0.0062397862784564495,0.005648298189043999
1761384915826744000,0.251744140625,0.00042024682625196874,-0.008253934793174267,0.004225371405482292
1761384915836813000,0.26181298828125,-0.0031443943735212088,-0.008900283835828304,0.0073351445607841015
1761384915846881800,0.2718818359375,-0.0020013656467199326,-0.008232097141444683,0.005458681378513575
1761384915856951000,0.281950927734375,-0.003394731320440769,-0.010159427300095558,0.005692773032933474
1761384915867019000,0.29201904296875,0.00025246766745112836,-0.00830932892858982,0.00535508431494236
1761384915877088000,0.302087890625,-0.0009755159262567759,-0.0070424629375338554,0.00031851406674832106
1761384915887157000,0.312156982421875,0.0020237360149621964,-0.009250223636627197,0.0062573631294071674
1761384915897226000,0.32222607421875,-0.001395230065099895,-0.008889365009963512,0.002936401404440403
1761384915907295000,0.332294921875,0.0000756337758502923,-0.0073295519687235355,0.004225904121994972
1761384915917363000,0.342363037109375,-0.00048602689639665186,-0.006600378546863794,0.004991030320525169
1761384915927432000,0.352431884765625,-0.0011028150329366326,-0.008506935089826584,0.00449994346126914
1761384915937501000,0.3625009765625,0.0004780374001711607,-0.009607885964214802,0.005680788774043322
1761384915947570200,0.372570068359375,-0.0029667613562196493,-0.007679757662117481,0.0051984903402626514
1761384915957639000,0.382638916015625,-0.00024980452144518495,-0.009769806638360023,0.004442685283720493
1761384915967707000,0.392706787109375,-0.000294545607175678,-0.008279235102236271,0.0041763694025576115
1761384915977776000,0.402776123046875,0.00039175100391730666,-0.01019671093672514,0.0034437335561960936
1761384915987844900,0.412844970703125,-0.00021305288828443736,-0.009285110980272293,0.005723399575799704
1761384915997914000,0.4229140625,0.00017470336752012372,-0.008656605146825314,0.00498011102899909
1761384916007982800,0.43298291015625,0.0012713931500911713,-0.007000918034464121,0.0049590724520385265
1761384916018050800,0.44305078125,0.0002894856152124703,-0.01031788531690836,0.005608617328107357
1761384916028120000,0.4531201171875,-0.0006926882197149098,-0.00657614367082715,0.005723932292312384
1761384916038189000,0.46318896484375,0.0011310444679111242,-0.00980469398200512,0.004447478801012039
1761384916048258000,0.473258056640625,-0.002344913315027952,-0.0062397862784564495,0.0057098171673715115
1761384916058327000,0.4833271484375,-0.0022655511274933815,-0.009676063433289528,0.005144428461790085
1761384916068395000,0.49339501953125,-0.00009800432599149644,-0.006903179921209812,0.00697961263358593
1761384916078464000,0.503464111328125,-0.0005166532355360687,-0.009559150785207748,0.005618204362690449
1761384916088533000,0.513532958984375,-0.0018125474452972412,-0.008125037886202335,0.0044235107488930225
1761384916098602000,0.52360205078125,0.00039787625428289175,-0.009514409117400646,0.003921770956367254
1761384916108671000,0.5336708984375,-0.0008154599345289171,-0.008804410696029663,0.001832787413150072
1761384916118739000,0.543739013671875,-0.0004527373821474612,-0.006669354159384966,0.003944407682865858
1761384916128808000,0.553807861328125,-0.0009829727932810783,-0.00854235514998436,0.006735134404152632
1761384916138877000,0.563876953125,-0.002064482541754842,-0.00820919405668974,0.0043779704719781876
1761384916148946000,0.57394580078125,0.0015811186749488115,-0.00788375549018383,0.002552639925852418
1761384916159015000,0.584014892578125,-0.001748897833749652,-0.007481884676963091,0.0031856733839958906
1761384916169083000,0.594082763671875,-0.001716673607006669,-0.006205964367836714,0.006038185209035873
1761384916179152100,0.604152099609375,0.001067661214619875,-0.010714163072407246,0.0008412926108576357
1761384916189220900,0.614220947265625,-0.00023196132679004222,-0.00711836339905858,0.0028780782595276833
1761384916199290000,0.6242900390625,-0.0019331886433064938,-0.008963135071098804,0.005754025653004646
1761384916209358800,0.63435888671875,0.0005773733137175441,-0.013494770042598248,0.003950266633182764
1761384916219428000,0.644427978515625,-0.001933987601660192,-0.007877097465097904,0.003932956140488386
1761384916229496000,0.65449609375,-0.002540389308705926,-0.009529323317110538,0.005678125657141209
1761384916239564800,0.664564697265625,-0.0015041533624753356,-0.008319981396198273,0.00651568965986371
1761384916249634000,0.674634033203125,-0.0019118833588436246,-0.010004963725805283,0.003154247999191284
1761384916259703000,0.684703125,-0.0006005428149364889,-0.008774316869676113,0.0038003309164196253
1761384916269772000,0.69477197265625,0.0005366269615478814,-0.007755124941468239,0.005005944054573774
1761384916279840000,0.704840087890625,-0.0024708807468414307,-0.008076036348938942,0.004990497604012489
1761384916289909000,0.714908935546875,-0.0029081718530505896,-0.008568188175559044,0.003515905234962702
1761384916299978000,0.72497802734375,-0.0031795480754226446,-0.011079282499849796,0.004715925548225641
1761384916310047000,0.735046875,-0.0031201594974845648,-0.009876066818833351,0.0047835698351264
1761384916320116000,0.745115966796875,-0.0016381103778257966,-0.00827763695269823,0.005656820256263018
1761384916330184000,0.755183837890625,-0.002095375210046768,-0.008767658844590187,0.0065353973768651485
1761384916340253000,0.7652529296875,-0.0013486248208209872,-0.0062397862784564495,0.005289570428431034
1761384916350322000,0.775322021484375,-0.0011377023765817285,-0.007228884380310774,0.001966211711987853
1761384916360391000,0.785390869140625,-0.0018692727899178863,-0.008741559460759163,0.00458702864125371
1761384916370460200,0.795460205078125,-0.003624029690399766,-0.006085855886340141,0.003946272190660238
1761384916380527900,0.80552783203125,0.00008921589324017987,-0.008134625852108002,0.003736148588359356
1761384916390596900,0.815596923828125,-0.0005432848702184856,-0.007411044556647539,0.0035425368696451187
1761384916400666000,0.825666015625,0.0000977380113909021,-0.007220095954835415,0.0019297265680506825
1761384916410734800,0.83573486328125,0.0004695153038483113,-0.005973204039037228,0.005702360533177853
1761384916420804000,0.84580419921875,-0.0013781858142465353,-0.008827313780784607,0.004048271104693413
1761384916430872800,0.855872802734375,-0.0010327738709747791,-0.009092564694583416,0.00497984467074275
1761384916440940800,0.86594091796875,-0.0006820355774834752,-0.007071757689118385,0.0041217743419110775
1761384916451010000,0.876010009765625,-0.00034887410583905876,-0.008072573691606522,0.005786249879747629
1761384916461078800,0.886078857421875,-0.0019435749854892492,-0.008264588192105293,0.0027486486360430717
1761384916471148000,0.89614794921875,-0.0007925567333586514,-0.007368966471403837,0.0038333539851009846
1761384916481217000,0.906217041015625,-0.002642122097313404,0.010574347339570522,0.0008833705214783549
1761384916491285000,0.916284912109375,-0.0016863135388121009,-0.0067969197407364845,0.0052325790748000145
1761384916501354000,0.92635400390625,-0.003266367129981518,-0.008081096224486828,0.006358563434332609
1761384916511423000,0.936423095703125,0.0005552690709009767,-0.00996208656579256,0.005536445416510105
1761384916521492000,0.946491943359375,-0.0013401026371866465,-0.01010935939848423,0.0036583843175321817
1761384916531561000,0.95656103515625,-0.001113201375119388,-0.012308863922953606,0.00624058535322547
1761384916541629200,0.966629150390625,-0.0017486315919086337,-0.007739678490906954,0.004555869847536087
1761384916551698000,0.976697998046875,-0.0005073322099633515,-0.010616691783070564,0.004698082339018583
1761384916561767000,0.986766845703125,-0.001686579897068441,-0.008843292482197285,0.002823217073455453
1761384916571836000,0.9968359375,-0.001710548298433423,-0.010033992119133472,0.003567836945876479
1761384916581905000,1.00690478515625,-0.00370179396122694,-0.0059756007976830006,0.0041705104522407055
1761384916591974100,1.01697412109375,-0.001142496126703918,-0.008320780470967293,0.005109008401632309
1761384916602041900,1.027041748046875,-0.00148125016130507,-0.010877947323024273,0.002757703186944127
1761384916612110800,1.03711083984375,-0.00034115093876607716,-0.007224623579531908,0.004608067683875561
1761384916622180000,1.04718017578125,-0.0010538127971813083,-0.00854315422475338,0.005121791269630194
1761384916632248800,1.057248779296875,0.000371777277905494,-0.007555654272437096,0.004640025552362204
1761384916642318000,1.067318115234375,-0.000857005245052278,-0.008330367505550385,0.003959321416914463
1761384916652383200,1.07738330078125,-0.001835716888308525,-0.007535680662840605,0.003953728824853897
1761384916662452200,1.0874521484375,-0.0031758195254951715,-0.00532419141381979,0.006868026219308376
1761384916672521200,1.097521240234375,-0.0006660565850324929,-0.008421980775892735,0.005760150961577892
1761384916682590200,1.107590087890625,0.000428502622526139,-0.009758088737726212,0.0014319816837087274
1761384916692659200,1.1176591796875,-0.0015851134667173028,-0.008370847441256046,0.007481351960450411
1761384916702728200,1.127728271484375,-0.0011001517996191978,-0.009664079174399376,0.0057135457172989845
1761384916712796200,1.137796142578125,-0.0020357202738523483,-0.0049558766186237335,0.004204332362860441
1761384916722865200,1.147865234375,-0.0000601874417043291,-0.011137072928249836,0.0032402679789811373
1761384916732934100,1.15793408203125,-0.0022301310673356056,-0.008770056068897247,0.0017813884187489748
1761384916743003100,1.168003173828125,-0.0018615495646372437,-0.010365821421146393,0.0035473306197673082
1761384916753072400,1.178072265625,-0.0014884406700730324,-0.00953757856041193,0.0038016624748706818
1761384916763141000,1.18814111328125,-0.0018972359830513597,-0.00824807584285736,0.005002748221158981
1761384916773209300,1.198209228515625,-0.0021547635551542044,-0.009712016209959984,0.004260791465640068
1761384916783278300,1.2082783203125,-0.0024684839881956577,-0.0073258234187960625,0.004849616438150406
1761384916793347000,1.21834716796875,-0.004408597014844418,-0.008449411019682884,0.004611529875546694
1761384916803416300,1.228416259765625,-0.0027505126781761646,-0.010424943640828133,0.003952663857489824
1761384916813485000,1.238485107421875,-0.0024437166284769773,-0.007248857989907265,0.003573695896193385
1761384916823553300,1.24855322265625,-0.0006681871018372476,-0.01104679238051176,0.006351372692734003
1761384916833622300,1.258622314453125,-0.0024104269687086344,-0.0059742690064013,0.005635248962789774
1761384916843691000,1.26869091796875,-0.0028461201582103968,-0.007227286696434021,0.004107393324375153
1761384916853760300,1.27876025390625,-0.0012929646763950586,-0.009910687804222107,0.003918042406439781
1761384916863829200,1.288829345703125,-0.002823483431711793,-0.007910121232271194,0.006897853687405586
1761384916873898200,1.298898193359375,-0.0012905678013339639,-0.009867544285953045,0.004833903629332781
1761384916883966200,1.30896630859375,-0.005733252968639135,-0.0075902752578258514,0.0026200178544968367
1761384916894035200,1.31903515625,-0.0003765709698200226,-0.009289904497563839,0.004193679895251989
1761384916904104200,1.329104248046875,-0.004239752423018217,-0.00872265174984932,0.003969974350184202
1761384916914173200,1.339173095703125,-0.0013584784464910626,-0.007102916948497295,0.0032266860362142324
1761384916924242200,1.3492421875,-0.0017094830982387066,-0.009001484140753746,0.006189452484250069
1761384916934310100,1.35931005859375,-0.0016463662032037973,-0.006140983197838068,0.004863464739173651
1761384916944379400,1.36937939453125,-0.0008721852791495621,-0.008168181404471397,0.004942560568451881
1761384916954448100,1.3794482421875,-0.002120675053447485,-0.006646184716373682,0.0016900419723242521
1761384916964517000,1.38951708984375,0.0003677825443446636,-0.010385795496404171,0.003959321416914463
1761384916974586400,1.39958642578125,-0.0035063179675489664,-0.009519202634692192,0.005446963477879763
1761384916984655000,1.409655029296875,0.000517718493938446,-0.006947921123355627,0.007950867526233196
1761384916994723300,1.419723388671875,-0.002210956299677491,-0.010959174484014511,0.007601993158459663
1761384917004792300,1.429792236328125,-0.002264485927298665,-0.008924785070121288,0.00401578051969409
1761384917014861000,1.439861083984375,-0.0029609024059027433,-0.008085623383522034,0.0056986319832503796
1761384917024930300,1.449930419921875,-0.002389121800661087,-0.010845989920198917,0.0044203149154782295
1761384917034999000,1.4599990234375,-0.002609631512314081,-0.009125054813921452,0.00515907583758235
1761384917045068300,1.470068359375,0.0009976201690733433,-0.007634217385202646,0.003710316028445959
1761384917055136300,1.48013623046875,-0.0020932445768266916,-0.009308014065027237,0.004277835600078106
1761384917065205200,1.490205322265625,-0.002302569104358554,-0.00863130483776331,0.00580728892236948
1761384917075274200,1.500274169921875,-0.0013659353135153651,-0.009584982879459858,0.006665625609457493
1761384917085343200,1.51034326171875,-0.0019630161114037037,-0.008796953596174717,0.0026618295814841986
1761384917095412200,1.520412109375,-0.002430134452879429,-0.007911453023552895,0.00686136819422245
1761384917105481200,1.530481201171875,-0.00267674308270216,-0.0060208747163414955,0.0028306739404797554
1761384917115549400,1.540549560546875,-0.001900964416563511,-0.009516539983451366,0.005510346498340368
1761384917125618200,1.5506181640625,-0.0033220271579921246,-0.00902625173330307,0.004189152270555496
1761384917135687200,1.560687255859375,-0.0013741911388933659,-0.0070882695727050304,0.004650411661714315
1761384917145756200,1.570756103515625,-0.0008772452711127698,-0.011259046383202076,0.003183276392519474
1761384917155825200,1.5808251953125,0.00010173275222769007,-0.006155097857117653,0.0023499734234064817
1761384917165894100,1.59089404296875,-0.001136104459874332,-0.009003348648548126,0.005172657780349255
1761384917175962000,1.600962158203125,-0.002889796160161495,-0.008581504225730896,0.005554022267460823
1761384917186031000,1.611031005859375,-0.0011949603212997317,-0.006595850922167301,0.005376921966671944
1761384917196100400,1.621100341796875,-0.0035507925786077976,-0.008078432641923428,0.004763063509017229
1761384917206169000,1.631169189453125,-0.0006468818173743784,-0.006405435036867857,0.005755091086030006
1761384917216238300,1.64123828125,-0.0006548712844960392,-0.00806192122399807,0.004502073861658573
1761384917226306300,1.651306396484375,-0.0004495415778364986,-0.008268848992884159,0.002855707658454776
1761384917236375300,1.661375244140625,-0.0007366303470917046,-0.009345831349492073,0.0046605318784713745
1761384917246444300,1.6714443359375,-0.002091646660119295,-0.009167399257421494,0.0025505092926323414
1761384917256513000,1.681512939453125,-0.0035947347059845924,-0.010341853834688663,0.003919374197721481
1761384917266582300,1.691582275390625,-0.0021086910273879766,-0.010057161562144756,0.006731938570737839
1761384917276651300,1.7016513671875,-0.0022335932590067387,-0.006714095361530781,0.003263703780248761
1761384917286719200,1.71171923828125,0.0007464840309694409,-0.00538464542478323,0.00381391285918653
1761384917296788200,1.721788330078125,-0.002261290093883872,-0.00824035331606865,0.0029262814205139875
1761384917306857200,1.731857177734375,-0.0014112089993432164,-0.005950567312538624,0.005634716246277094
1761384917316926200,1.74192626953125,-0.002354234457015991,-0.011007110588252544,0.004914863966405392
1761384917326995200,1.7519951171875,-0.002787264296784997,-0.007610248867422342,0.004163586068898439
1761384917337064200,1.762064208984375,-0.004742290824651718,-0.0065103634260594845,0.004635232035070658
1761384917347133200,1.77213330078125,-0.0016042882343754172,-0.007029680069535971,0.008579906076192856
1761384917357201400,1.782201416015625,0.00039654469583183527,-0.008159126155078411,0.004845088813453913
1761384917367270100,1.792270263671875,-0.0012756541837006807,-0.009880327619612217,0.006340986583381891
1761384917377339100,1.802339111328125,-0.0007624630234204233,-0.00833782460540533,0.005584382452070713
1761384917387408400,1.812408447265625,-0.0011896340874955058,-0.009341835975646973,0.005833121482282877
1761384917397477000,1.82247705078125,0.00122558674775064,-0.01047421246767044,0.002129463478922844
1761384917407546400,1.83254638671875,-0.0020269318483769894,-0.005793706979602575,0.007671235594898462
1761384917417614300,1.8426142578125,0.0009691243176348507,-0.007226221263408661,0.004936701618134975
1761384917427683000,1.85268310546875,-0.0015488944482058287,-0.0056712012737989426,0.0038543930277228355
1761384917437752300,1.86275244140625,0.000035420041967881843,-0.009646235965192318,0.0046450854279100895
1761384917447821000,1.872821044921875,0.00041545313433744013,-0.00959883164614439,0.0022956449538469315
1761384917457890300,1.882890380859375,-0.001026115962304175,-0.008713330142199993,0.005195294506847858
1761384917467958300,1.892958251953125,-0.0005957491230219603,-0.00848296657204628,0.009374327026307583
1761384917478027000,1.903027099609375,-0.0027348001021891832,-0.0062797339633107185,0.005617938470095396
1761384917488096300,1.91309619140625,-0.0009731190511956811,-0.0060262009501457214,0.007186274044215679
1761384917498165200,1.923165283203125,-0.0013014868600293994,-0.0100800646468997,0.006412359420210123
1761384917508234200,1.933234130859375,-0.0018200043123215437,-0.008945824578404427,0.004445348400622606
1761384917518303200,1.94330322265625,-0.003471164032816887,-0.01398479100316763,0.004324440844357014
1761384917528371500,1.953371337890625,-0.0011374361347407103,-0.007639543619006872,0.006608900614082813
1761384917538440200,1.963440185546875,-0.002020540414378047,-0.008441687561571598,0.004048004746437073
1761384917548509200,1.97350927734375,-0.0017864484107121825,-0.009970875456929207,0.0030357372015714645
1761384917558578200,1.983578125,0.00020639497961383313,-0.009757556021213531,0.0035353463608771563
1761384917568647200,1.993647216796875,-0.0026011094450950623,-0.01002360600978136,0.005185441114008427
1761384917578716200,2.003716064453125,-0.0011994877131655812,-0.00935941282659769,0.004314853344112635
1761384917588784000,2.0137841796875,-0.0023611586075276136,-0.009377522394061089,0.004441353492438793
1761384917598853000,2.02385302734375,-0.001984321279451251,-0.008961536921560764,0.004520449787378311
1761384917608922400,2.03392236328125,-0.000895621080417186,-0.0076331524178385735,0.004126567859202623
1761384917618991000,2.0439912109375,-0.0018282600212842226,-0.008132494986057281,0.00398728484287858
1761384917629060400,2.054060302734375,0.00023276027059182525,-0.007163370493799448,0.004328435752540827
1761384917639129000,2.064129150390625,0.00041492050513625145,-0.00878896377980709,0.0046421559527516365
1761384917649199900,2.074199951171875,-0.0008383630774915218,-0.009253419004380703,0.0059995693154633045
1761384917659269000,2.08426904296875,-0.002633067313581705,-0.0065013086423277855,0.004287423100322485
1761384917669338000,2.094338134765625,-0.0011124024167656898,-0.009020925499498844,0.002769953804090619
1761384917679407000,2.104406982421875,-0.0016373114194720984,-0.009867810644209385,0.00273693073540926
1761384917689476000,2.11447607421875,-0.0035236284602433443,-0.00811811350286007,0.001749430550262332
1761384917699544800,2.124544921875,-0.0020791299175471067,-0.008800415322184563,0.0054458980448544025
1761384917709614000,2.134614013671875,-0.0011025486746802926,-0.009471000172197819,0.002189384773373604
1761384917719682000,2.14468212890625,-0.002775280037894845,-0.007969509810209274,0.005201153457164764
1761384917729751000,2.1547509765625,-0.00010918960470007733,-0.009015599265694618,0.004229898564517498
1761384917739820000,2.164820068359375,-0.0029142971616238356,-0.009836651384830475,0.002511094557121396
1761384917749889000,2.174888916015625,-0.0015592807903885841,-0.009532252326607704,0.004378769546747208
1761384917759958000,2.1849580078125,-0.002600576728582382,-0.00812317430973053,0.004727377090603113
1761384917770027000,2.195027099609375,-0.001544100814498961,-0.009781258180737495,0.004442152567207813
1761384917780095000,2.205094970703125,-0.0031254857312887907,-0.007110906299203634,0.0038272286765277386
1761384917790164000,2.2151640625,-0.0024644893128424883,-0.009948770515620708,0.003817108692601323
1761384917800233200,2.225233154296875,-0.0020852552261203527,-0.007761516608297825,0.002953978255391121
1761384917810302000,2.235302001953125,-0.0031933963764458895,-0.008493619970977306,0.003148389048874378
1761384917820371000,2.245370849609375,-0.0022498385515064,-0.009638778865337372,0.006613427773118019
1761384917830440000,2.25543994140625,-0.0010210559703409672,-0.007873635739088058,0.004546015989035368
1761384917840508000,2.2655078125,-0.0029784792568534613,-0.009920541197061539,0.002834402257576585
1761384917850577200,2.2755771484375,-0.0005552690709009767,-0.010217217728495598,0.006505569908767939
1761384917860646000,2.28564599609375,-0.0019923108629882336,-0.0070283482782542706,0.0031547807157039642
1761384917870715000,2.29571484375,-0.002490588231012225,-0.008861668407917023,0.004501541145145893
1761384917880784100,2.3057841796875,-0.002388589084148407,-0.009669671766459942,0.004977714270353317
1761384917890852900,2.315852783203125,-0.002365419641137123,-0.009094960987567902,0.0037433390971273184
1761384917900921000,2.325921142578125,-0.0018783274572342634,-0.007306382525712252,0.006187055725604296
1761384917910990000,2.335989990234375,-0.0023044333793222904,-0.007540207821875811,0.004120176658034325
1761384917921058800,2.346058837890625,-0.0014136058744043112,-0.006120743229985237,0.002724680118262768
1761384917931128000,2.356128173828125,-0.0006018743733875453,-0.007149522192776203,0.004062119405716658
1761384917941196800,2.36619677734375,-0.003234142903238535,-0.010763431899249554,0.005303951445966959
1761384917951266000,2.37626611328125,-0.0005840312223881483,-0.00808881875127554,0.004852013196796179
1761384917961334000,2.386333984375,-0.0023728765081614256,-0.00809174869209528,0.0032980586402118206
1761384917971403000,2.396403076171875,-0.0017054883064702153,-0.008021707646548748,0.005287972744554281
1761384917981472000,2.406471923828125,-0.0007997472421266139,-0.008621185086667538,0.004210990387946367
1761384917991541000,2.416541015625,-0.0018311894964426756,-0.008054730482399464,0.002579537918791175
1761384918001610000,2.42660986328125,-0.0017592841759324074,-0.005773467011749744,0.005714344792068005
1761384918011679000,2.436678955078125,-0.0018935075495392084,-0.008391620591282845,0.0030216225422918797
1761384918021748000,2.446748046875,-0.002650377806276083,-0.009482983499765396,0.006101301871240139
1761384918031816000,2.45681591796875,-0.0020756677258759737,-0.010716560296714306,0.005371329374611378
1761384918041885000,2.466885009765625,-0.000913197931367904,-0.009276056662201881,0.0065132929012179375
1761384918051954000,2.476953857421875,-0.002776611829176545,-0.006992129608988762,0.0046818372793495655
1761384918062023000,2.48702294921875,-0.0017781927017495036,-0.0093892402946949,0.003861050819978118
1761384918072092200,2.497092041015625,-0.0009901633020490408,-0.005452822428196669,0.00472418125718832
1761384918082161000,2.507160888671875,0.000060986389144090936,-0.010658237151801586,0.005401156842708588
1761384918092229000,2.51722900390625,-0.0020189424976706505,-0.007660849019885063,0.006901049055159092
1761384918102298000,2.527298095703125,-0.003233876544982195,-0.00788455456495285,0.0032714270055294037
1761384918112366800,2.537366943359375,-0.002442118711769581,-0.010498713701963425,0.00515854312106967
1761384918122436000,2.54743603515625,-0.0007552724564447999,-0.007157777901738882,0.006772951222956181
1761384918132504800,2.5575048828125,-0.0014418354257941246,-0.009797769598662853,0.006335926707834005
1761384918142574000,2.567573974609375,-0.003635214874520898,-0.008245146833360195,0.003428020980209112
1761384918152642000,2.57764208984375,-0.004446147475391626,-0.007751929108053446,0.004040548112243414
1761384918162710800,2.587710693359375,-0.0007731156656518579,-0.009525327943265438,0.0059995693154633045
1761384918172780000,2.597780029296875,-0.003227484878152609,-0.008547681383788586,0.005390770733356476
1761384918182849000,2.60784912109375,-0.0033305492252111435,-0.009711483493447304,0.004893025849014521
1761384918192918000,2.61791796875,0.00042983421008102596,-0.00726377172395587,0.004659732803702354
1761384918202987000,2.627987060546875,-0.0018034926615655422,-0.00803342554718256,0.004266384057700634
1761384918213056000,2.638055908203125,-0.002698048483580351,-0.007203051820397377,0.000600809114985168
1761384918223124000,2.6481240234375,-0.00036245622322894633,-0.009983924217522144,0.005886651109904051
1761384918233193000,2.65819287109375,0.0006583334179595113,-0.009408415295183659,0.003352919826284051
1761384918243262000,2.668261962890625,-0.000261788722127676,-0.008729576133191586,0.003087935270741582
1761384918253331000,2.6783310546875,0.0003640541108325124,-0.009441970847547054,0.005138835404068232
1761384918263400200,2.688400146484375,-0.0015068164793774486,-0.009970342740416527,0.005598497111350298
1761384918273469000,2.698468994140625,-0.003020557342097163,-0.006485329940915108,0.006838198751211166
1761384918283537000,2.708536865234375,-0.002085521351546049,-0.010215086862444878,0.003942809998989105
1761384918293606100,2.718606201171875,-0.004751611966639757,-0.007984156720340252,0.005170527379959822
1761384918303675000,2.7286748046875,-0.003597131697461009,-0.007850466296076775,0.004083691164851189
1761384918313744100,2.738744140625,0.0001699096756055951,-0.008169513195753098,0.006480003707110882
1761384918323812900,2.748812744140625,-0.0013028184184804559,-0.008220379240810871,0.005360943265259266
1761384918333882000,2.758882080078125,0.0022011026740074158,-0.010142914950847626,0.007601993158459663
1761384918343950000,2.7689501953125,-0.0020959076937288046,-0.006042179651558399,0.007595867849886417
1761384918354018800,2.779018798828125,-0.0025244103744626045,-0.009737315587699413,0.0035214978270232677
1761384918364088000,2.789088134765625,-0.0013462279457598925,-0.006361759267747402,0.005501558072865009
1761384918374157000,2.799156982421875,0.0015310513554140925,-0.007983091287314892,0.004477039910852909
1761384918384226000,2.80922607421875,-0.0016772588714957237,-0.007243265397846699,0.004494084510952234
1761384918394295000,2.819294921875,-0.004709533881396055,-0.008505604229867458,0.00449781259521842
1761384918404364000,2.829364013671875,-0.002463157754391432,-0.01221458800137043,0.0020961740519851446
1761384918414432000,2.839431884765625,-0.004650145769119263,-0.009817743673920631,0.003948668949306011
1761384918424501000,2.8495009765625,-0.0013582120882347226,-0.008333563804626465,0.003959854133427143
1761384918434570000,2.859570068359375,-0.0023731428664177656,-0.010634268634021282,0.004172907210886478
1761384918444639000,2.869638916015625,-0.0017028251895681024,-0.007781223859637976,0.003600327530875802
1761384918454708200,2.879708251953125,-0.0027324033435434103,-0.008825715631246567,0.0035862126387655735
1761384918464777000,2.88977685546875,-0.0030951257795095444,-0.007729558739811182,0.0046240463852882385
1761384918474845000,2.899844970703125,-0.0028429245576262474,-0.007644337601959705,0.004605670925229788
1761384918484914200,2.9099140625,-0.0012120045721530914,-0.008712797425687313,0.0063037024810910225
1761384918494983000,2.91998291015625,-0.0014623417519032955,-0.007119961082935333,0.004983573220670223
1761384918505052200,2.93005224609375,-0.000770452490542084,-0.008471248671412468,0.0021611552219837904
1761384918515121000,2.940120849609375,-0.0005406216951087117,-0.008112254552543163,0.005063468124717474
1761384918525190100,2.950190185546875,-0.0020719394087791443,-0.00643819198012352,0.0032586439047008753
1761384918535258000,2.960258056640625,-0.00004474110755836591,-0.009400958195328712,0.006905310321599245
1761384918545326800,2.970326904296875,0.00041518680518493056,-0.006396380253136158,0.004280232358723879
1761384918555396000,2.98039599609375,-0.0022450448013842106,-0.00935967918485403,0.002138518262654543
1761384918565465000,2.990465087890625,-0.0005416869535110891,-0.007641674485057592,0.0016197345685213804
1761384918575534000,3.0005341796875,-0.0013038836186751723,-0.0062309978529810905,0.00512818293645978
1761384918585603000,3.01060302734375,-0.0013044163351878524,-0.00851332675665617,0.0032567796297371387
1761384918595671000,3.020671142578125,-0.0006498112925328314,-0.008979113772511482,0.003715375903993845
1761384918605740000,3.030739990234375,-0.0017454357584938407,-0.009244631044566631,0.005574794951826334
1761384918615809000,3.04080908203125,-0.0008024104172363877,-0.006581469904631376,0.003126551164314151
1761384918625878000,3.0508779296875,0.0001512675517005846,-0.008924518711864948,0.006620618514716625
1761384918635947000,3.060947021484375,-0.002148105762898922,-0.008102667517960072,0.004190484061837196
1761384918646016000,3.07101611328125,-0.002665557898581028,-0.006482933182269335,0.004237355664372444
1761384918656082200,3.081082275390625,-0.0013259878614917397,-0.009150621481239796,0.0019771307706832886
1761384918666150100,3.091150146484375,0.00025353292585350573,-0.006906109396368265,0.0035121769178658724
1761384918676219000,3.101218994140625,-0.002121207769960165,-0.009297894313931465,0.00592633243650198
1761384918686288100,3.1112880859375,-0.0011893677292391658,-0.010982343927025795,0.00475320965051651
1761384918696357000,3.121357177734375,0.000107858024421148,-0.008759669028222561,0.0036796897184103727
1761384918706426000,3.131426025390625,-0.001219727797433734,-0.011066232807934284,0.004714594222605228
1761384918716495000,3.1414951171875,0.001315068919211626,-0.007074421271681786,0.004055195488035679
1761384918726563000,3.15156298828125,-0.0014149374328553677,-0.009235842153429985,0.004347876645624638
1761384918736632000,3.161632080078125,-0.004187554586678743,-0.006835535634309053,0.006865096744149923
1761384918746701000,3.171701171875,-0.0020333235152065754,-0.009101885370910168,0.002098038326948881
1761384918756770000,3.18177001953125,-0.0025369273498654366,-0.008360194973647594,0.002427471335977316
1761384918766839000,3.191839111328125,-0.0009914948605000973,-0.007794806268066168,0.004603273700922728
1761384918776908000,3.201907958984375,-0.00011638013529591262,-0.009022790007293224,0.0017947042360901833
1761384918786977000,3.21197705078125,-0.0006114617572166026,-0.009095227345824242,0.0020543625578284264
1761384918797045000,3.222044921875,-0.002513491315767169,-0.00990269798785448,0.004136155359447002
1761384918807114200,3.2321142578125,-0.0006567355012521148,-0.009305884130299091,0.005172924138605595
1761384918817183000,3.242182861328125,-0.002114816103130579,-0.006992928218096495,0.0017086841398850083
1761384918827252200,3.252252197265625,-0.001041562296450138,-0.008950085379183292,0.004018709994852543
1761384918837321000,3.262321044921875,0.0012988236267119646,-0.009397496469318867,0.0032682311721146107
1761384918847390200,3.27239013671875,-0.0005496764206327498,-0.008713330142199993,0.005723399575799704
1761384918857458200,3.282458251953125,-0.00005379585491027683,-0.00836765207350254,0.003552656853571534
1761384918867527000,3.29252685546875,-0.0018282600212842226,-0.007930627092719078,0.005932191386818886
1761384918877596200,3.30259619140625,-0.002341717481613159,-0.009896039962768555,0.004701278172433376
1761384918887665200,3.3126650390625,-0.001820536912418902,-0.007192665245383978,0.0054818508215248585
1761384918897734100,3.322734130859375,-0.0013576794881373644,-0.005940979812294245,0.005319131538271904
1761384918907803100,3.33280322265625,-0.0005075985100120306,-0.009521333500742912,0.0031305458396673203
1761384918917872000,3.3428720703125,-0.0014863101532682776,-0.007909588515758514,0.0029577065724879503
1761384918927940000,3.352940185546875,-0.001743571599945426,-0.0049276468344032764,0.004564658273011446
1761384918938009000,3.363009033203125,-0.0032413334120064974,-0.009256348945200443,0.008069644682109356
1761384918948078000,3.373078125,-0.00003355582884978503,-0.00698014535009861,0.00472524669021368
1761384918958147000,3.38314697265625,0.0003936151915695518,-0.007992679253220558,0.0027457191608846188
1761384918968216000,3.393216064453125,0.0005387574783526361,-0.00902678444981575,0.006187854800373316
1761384918978285000,3.40328515625,-0.0015225291717797518,-0.008478705771267414,0.00461685610935092
1761384918988353000,3.41335302734375,-0.0007185208378359675,-0.0065596322529017925,0.0044022053480148315
1761384918998422300,3.42342236328125,-0.002584864152595401,-0.008707737550139427,0.004291683901101351
1761384919008491000,3.433490966796875,-0.0005480785621330142,-0.007670969236642122,0.004141481593251228
1761384919018560300,3.443560302734375,-0.0004958806093782187,-0.007300789933651686,0.0032357405871152878
1761384919028629000,3.45362890625,-0.0013110742438584566,-0.005948969163000584,0.005913815461099148
1761384919038698200,3.4636982421875,-0.0011707255616784096,-0.006190517917275429,0.0036093820817768574
1761384919048766200,3.47376611328125,-0.0024913870729506016,-0.00902811624109745,0.0030059099663048983
1761384919058835000,3.4838349609375,-0.001627191435545683,-0.009367935359477997,0.00589757040143013
1761384919068904200,3.493904296875,-0.0006285060080699623,-0.005932457745075226,0.005196892656385899
1761384919078973000,3.503972900390625,0.0005605954211205244,-0.009869142435491085,0.003186205867677927
1761384919089042200,3.514042236328125,-0.0021853898651897907,-0.0068211546167731285,0.007196660153567791
1761384919099111200,3.524111083984375,-0.0009922938188537955,-0.010578608140349388,0.004090082831680775
1761384919109180200,3.53418017578125,-0.001389104756526649,-0.008491222746670246,0.005828327964991331
1761384919119248100,3.544248046875,-0.0010692591313272715,-0.010046242736279964,0.0032320122700184584
1761384919129317000,3.554317138671875,-0.0018471685471013188,-0.00833782460540533,0.0049550775438547134
1761384919139386000,3.56438623046875,-0.0027771443128585815,-0.009377788752317429,0.0034583809319883585
1761384919149455000,3.574455078125,-0.0023816649336367846,-0.007858987897634506,0.004280765075236559
1761384919159524000,3.584524169921875,-0.0013321131700649858,-0.007488809060305357,0.0038373488932847977
1761384919169593000,3.594593017578125,-0.0020221380982548,-0.009798035956919193,0.004480235744267702
1761384919179661000,3.6046611328125,0.00043569316039793193,-0.007006776984781027,0.003102049930021167
1761384919189730000,3.61472998046875,-0.0008902947301976383,-0.011060906574130058,0.005409146659076214
1761384919199799000,3.624799072265625,-0.0034013893455266953,-0.009607086889445782,0.006579339504241943
1761384919209868300,3.634868408203125,-0.0021015002857893705,-0.008729309774935246,0.00634870957583189
1761384919219937000,3.64493701171875,-0.0007400924805551767,-0.01050563808530569,0.005650694947689772
1761384919230006000,3.655006103515625,-0.0017994979862123728,-0.007837949320673943,0.003236006945371628
1761384919240075000,3.665074951171875,-0.003070624778047204,-0.007652859669178724,0.0027691549621522427
1761384919250143000,3.67514306640625,-0.001802960061468184,-0.008612928912043571,0.00517691858112812
1761384919260212200,3.685212158203125,-0.0037550569977611303,-0.007880826480686665,0.00407596817240119
1761384919270281000,3.695281005859375,-0.0021616879384964705,-0.009318666532635689,0.003677292726933956
1761384919280350200,3.70535009765625,-0.0025710156187415123,-0.00896846130490303,0.0013257216196507215
1761384919290419200,3.715419189453125,-0.0022000374738126993,-0.00743101816624403,0.0029824741650372744
1761384919300488000,3.725488037109375,-0.0019086875254288316,-0.009668339975178242,0.005565740168094635
1761384919310556200,3.73555615234375,-0.0014855111949145794,-0.004176901653409004,0.004007258452475071
1761384919320625200,3.745625244140625,-0.0036101811565458775,-0.0070429956540465355,0.0032810145057737827
1761384919330694100,3.755694091796875,-0.0023696806747466326,-0.007196127437055111,0.0041641187854111195
1761384919340763100,3.76576318359375,-0.00253532943315804,-0.008221977390348911,0.005600361619144678
1761384919350831900,3.775831787109375,-0.004215783905237913,-0.010267018340528011,0.0054328483529388905
1761384919360901000,3.785901123046875,-0.0016982977977022529,-0.007669637445360422,0.00478277076035738
1761384919370970000,3.79597021484375,-0.0032027175184339285,-0.00762782571837306,0.004840028937906027
1761384919381038000,3.8060380859375,-0.0023004384711384773,-0.008440356701612473,0.005915679503232241
1761384919391107000,3.816107177734375,-0.003725496120750904,-0.008283229544758797,0.005637912079691887
1761384919401176000,3.826176025390625,-0.0019126823171973228,-0.009827863425016403,0.005943642929196358
1761384919411245000,3.8362451171875,-0.0026104305870831013,-0.008830509148538113,0.005934055428951979
1761384919421314000,3.84631396484375,-0.0020160130225121975,-0.008406800217926502,0.0023286680225282907
1761384919431383000,3.856383056640625,0.0010697918478399515,-0.006670685950666666,0.004142280668020248
1761384919441451000,3.866450927734375,-0.0019140138756483793,-0.00824115239083767,0.0017366473330184817
1761384919451520300,3.876520263671875,-0.0018692727899178863,-0.0073231603018939495,0.004532434046268463
1761384919461589000,3.886589111328125,-0.0005605954211205244,-0.009637979790568352,0.005690109916031361
1761384919471658000,3.896657958984375,-0.00401737866923213,-0.010422547347843647,0.004614192992448807
1761384919481727200,3.906727294921875,-0.0015720640076324344,-0.007678958587348461,0.004938299767673016
1761384919491796000,3.9167958984375,-0.0037438718136399984,-0.008047806099057198,0.006484797224402428
1761384919501865200,3.926865234375,-0.003942277282476425,-0.008658203296363354,0.004967061802744865
1761384919511933200,3.93693310546875,-0.000027963191314483993,-0.005929528269916773,0.0041188448667526245
1761384919522002000,3.947001953125,-0.0024383901618421078,-0.010213755071163177,0.006618221756070852
1761384919532071200,3.9570712890625,-0.0018636800814419985,-0.007503722794353962,0.005672533065080643
1761384919542140000,3.967139892578125,-0.0023097596131265163,-0.00929443258792162,0.005379319190979004
1761384919552209200,3.977209228515625,-0.001648496720008552,-0.009976201690733433,0.0018559569725766778
1761384919562278100,3.987278076171875,-0.002561694709584117,-0.004861867055296898,0.004779575392603874
1761384919572346000,3.99734619140625,-0.0003251719754189253,-0.00711623253300786,0.003856257302686572
1761384919582415000,4.0074150390625,-0.0018495653057470918,-0.007050985470414162,0.0031076427549123764
1761384919592484000,4.017484130859375,-0.0029728866647928953,-0.00942066591233015,0.005675462540239096
1761384919602553000,4.027552978515625,-0.0008146609761752188,-0.006364688742905855,0.002581668319180608
1761384919612622000,4.0376220703125,-0.0021198762115091085,-0.008817726746201515,0.005120992194861174
1761384919622691000,4.047691162109375,-0.0008791094878688455,-0.009678459726274014,0.0034077810123562813
1761384919632759000,4.057759033203125,-0.0003968109958805144,-0.008011321537196636,0.0033510555513203144
1761384919642828000,4.067828125,-0.00025539714260958135,-0.007186007685959339,0.005400890484452248
1761384919652896800,4.077896728515625,0.0005107942852191627,-0.0062432484701275826,0.004046939779073
1761384919662965800,4.0879658203125,-0.002945722546428442,-0.00894129741936922,0.0064893243834376335
1761384919673035000,4.098034912109375,-0.0010109359864145517,-0.010625479742884636,0.004415520932525396
1761384919683103700,4.108103759765625,-0.0004724447790067643,-0.006369215901941061,0.005354018881917
1761384919693173000,4.118173095703125,-0.001413339632563293,-0.007379619404673576,0.006472280248999596
1761384919703241000,4.128240966796875,-0.003602724289521575,-0.007166033610701561,0.0038775624707341194
1761384919713310000,4.13831005859375,0.0000679106087773107,-0.008925317786633968,0.0024535702541470528
1761384919723379000,4.14837890625,0.0001603222917765379,-0.0062158177606761456,0.005006209947168827
1761384919733447700,4.15844775390625,-0.003385144053027034,-0.009787916205823421,0.005176119972020388
1761384919743517000,4.168516845703125,-0.002314287004992366,-0.01034478284418583,0.0031787490006536245
1761384919753586000,4.1785859375,-0.0008380967774428427,-0.010598582215607166,0.004356665071099997
1761384919763654000,4.18865380859375,-0.0020506340079009533,-0.006046440917998552,0.00498197553679347
1761384919773723000,4.198722900390625,-0.0017555557424202561,-0.009731456637382507,0.004743089899420738
1761384919783791900,4.2087919921875,-0.0032381375785917044,-0.007488542702049017,0.005830724723637104
1761384919793860900,4.21886083984375,-0.0022421153262257576,-0.009862750768661499,0.004844822455197573
1761384919803929900,4.228929931640625,-0.0012575446162372828,-0.005465073045343161,0.002746784361079335
1761384919813998800,4.238998779296875,-0.0013741911388933659,-0.007495200727134943,0.008044344373047352
1761384919824067800,4.24906787109375,-0.0014391721924766898,-0.004854409955441952,0.005096491426229477
1761384919834135800,4.2591357421875,0.00046578687033616006,-0.010088320821523666,0.005120992194861174
1761384919844204800,4.269204833984375,-0.0015166702214628458,-0.012078500352799892,0.003982757218182087
1761384919854273800,4.279273681640625,-0.0016823188634589314,-0.007384146563708782,0.0019528960110619664
1761384919864343000,4.289343017578125,-0.0006362291751429439,-0.00683100800961256,0.007650995627045631
1761384919874411800,4.299411865234375,-0.00033156355493701994,-0.01082921214401722,0.0017124125733971596
1761384919884481000,4.30948095703125,-0.001121989800594747,-0.006414756178855896,0.005299690645188093
1761384919894549000,4.319549072265625,-0.0017473000334575772,-0.006542854011058807,0.005061071366071701
1761384919904617700,4.32961767578125,-0.0018213358707726002,-0.008836900815367699,0.005783320404589176
1761384919914687000,4.33968701171875,-0.002171541564166546,-0.009650230407714844,0.005979062989354134
1761384919924755700,4.349755615234375,-0.001189900329336524,-0.006228601094335318,0.005022721830755472
1761384919934825000,4.359824951171875,-0.002326271263882518,-0.00885074958205223,0.0035302862524986267
1761384919944894000,4.36989404296875,-0.000824248360004276,-0.01082761399447918,0.00577746145427227
1761384919954963000,4.379962890625,-0.0005768407136201859,-0.0075750951655209064,0.001998702296987176
1761384919965031000,4.390031005859375,-0.0018218684708699584,-0.010011355392634869,0.004538026638329029
1761384919975100000,4.400099853515625,0.00036964676110073924,-0.005893575493246317,0.003939347807317972
1761384919985169000,4.4101689453125,0.0001781654718797654,-0.012050004675984383,0.006173207424581051
1761384919995238000,4.42023779296875,0.00003941478280466981,-0.008926116861402988,0.0065010422840714455
1761384920005307000,4.430306884765625,-0.0008631304954178631,-0.005328985396772623,0.005743106827139854
1761384920015376000,4.4403759765625,-0.0007835020078346133,-0.010597783140838146,0.003227218519896269
1761384920025443800,4.45044384765625,-0.000535561703145504,-0.008945558220148087,0.00472631212323904
1761384920035512800,4.460512939453125,-0.0028389296494424343,-0.007411577273160219,0.007223558146506548
1761384920045581800,4.470581787109375,-0.0002170476218452677,-0.006740993354469538,0.0030328077264130116
1761384920055651000,4.480651123046875,-0.0002210423699580133,-0.008085889741778374,0.004078364931046963
1761384920065719800,4.4907197265625,-0.0015078817959874868,-0.009574064053595066,0.0029883331153541803
1761384920075789000,4.5007890625,-0.0015275891637429595,-0.009210276417434216,0.003293264890089631
1761384920085857800,4.51085791015625,0.0004924184759147465,-0.006672816351056099,0.005058408249169588
1761384920095925800,4.52092578125,-0.0006151901907287538,-0.007276555057615042,0.006232329644262791
1761384920105995000,4.5309951171875,-0.0009539442835375667,-0.00518837058916688,0.005400358233600855
1761384920116063700,4.541063720703125,-0.0017864484107121825,-0.008644354529678822,0.006226737052202225
1761384920126133000,4.551133056640625,-0.0018943065078929067,-0.008840363472700119,0.006973487325012684
1761384920136202000,4.561201904296875,-0.0019331886433064938,-0.009122392162680626,0.0065013086423277855
1761384920146271000,4.57127099609375,-0.002457298804074526,-0.007561246864497662,0.0019321233266964555
1761384920156339000,4.5813388671875,-0.0004189152386970818,-0.010072873905301094,0.0021254688035696745
1761384920166408000,4.591407958984375,-0.0026583673898130655,-0.00947712454944849,0.0038802255876362324
1761384920176477000,4.601476806640625,-0.0004223773430567235,-0.007679757662117481,0.0031641016248613596
1761384920186546000,4.6115458984375,-0.0020959076937288046,-0.008636631071567535,0.006988933775573969
1761384920196615000,4.621614990234375,0.0002146507758880034,-0.007457383442670107,0.005805957596749067
1761384920206684000,4.631683837890625,-0.00011345066013745964,-0.008161523379385471,0.005341236013919115
1761384920216752600,4.641752685546875,-0.0024857944808900356,-0.010937868617475033,0.004312456585466862
1761384920226820900,4.65182080078125,-0.0013054815353825688,-0.009677660651504993,0.0025595640763640404
1761384920236889900,4.661889892578125,0.00039867521263659,-0.00908297672867775,0.0021022993605583906
1761384920246958800,4.671958740234375,-0.002517219865694642,-0.007902664132416248,0.005542837083339691
1761384920257027800,4.68202783203125,-0.0024461133871227503,-0.006989732384681702,0.006208361126482487
1761384920267097000,4.69209716796875,-0.00133850472047925,-0.009541839361190796,0.003994208760559559
1761384920277165800,4.702165771484375,-0.0000125168571685208,-0.009393502026796341,0.004262655507773161
1761384920287233800,4.71223388671875,0.00013369068619795144,-0.00845473725348711,0.002752909669652581
1761384920297303000,4.722302978515625,-0.0019891150295734406,-0.00765765318647027,0.003990214318037033
1761384920307371800,4.732371826171875,-0.0025963156949728727,-0.007237672805786133,0.005937251262366772
1761384920317441000,4.74244091796875,-0.0024000408593565226,-0.007666974328458309,0.0011440940434113145
1761384920327509800,4.752509765625,-0.0008080030675046146,-0.011089934967458248,0.005735916085541248
1761384920337578800,4.762578857421875,-0.0021885856986045837,-0.009966081008315086,0.0054541537538170815
1761384920347648000,4.77264794921875,-0.0023547669406980276,-0.008852880448102951,0.007511445786803961
1761384920357716000,4.782716064453125,-0.00324852392077446,-0.010037187486886978,0.00646615494042635
1761384920367785000,4.792784912109375,-0.0010021475609391928,-0.007537544704973698,0.0009984191274270415
1761384920377854000,4.80285400390625,-0.00148151651956141,-0.009636647999286652,0.005231780000030994
1761384920387923000,4.8129228515625,-0.0014735270524397492,-0.007967378944158554,0.004846686962991953
1761384920397992000,4.822991943359375,-0.0029550434555858374,-0.007619303651154041,0.005349758081138134
1761384920408060700,4.833060791015625,-0.003485811408609152,-0.010455570183694363,0.007003847509622574
1761384920418129000,4.84312890625,-0.0007427555974572897,-0.0049100699834525585,0.003317499766126275
1761384920428198000,4.853197998046875,-0.0020780644845217466,-0.008714928291738033,0.006671750918030739
1761384920438267000,4.863266845703125,-0.0031430625822395086,-0.009870207868516445,0.00478410255163908
1761384920448336000,4.8733359375,0.00014940333494450897,-0.008828379213809967,0.005372394807636738
1761384920458404900,4.88340478515625,-0.0013065468519926071,-0.009376457892358303,0.004837365821003914
1761384920468473900,4.893473876953125,-0.0005262406193651259,-0.007364705670624971,0.0060264673084020615
1761384920478542800,4.90354296875,-0.0007611314067617059,-0.010076869279146194,0.004740426782518625
1761384920488611000,4.913611083984375,-0.0016532903537154198,-0.00812184251844883,0.0018242653459310532
1761384920498679800,4.9236796875,-0.004024036228656769,-0.010575146414339542,0.004319913685321808
1761384920508748800,4.933748779296875,-0.0005914880894124508,-0.010039051994681358,0.003563842037692666
1761384920518817800,4.94381787109375,-0.0015992282424122095,-0.006009955424815416,0.005142297595739365
1761384920528886800,4.95388671875,-0.0015835155500099063,-0.00782516598701477,0.004510862287133932
1761384920538956000,4.9639560546875,-0.001344896387308836,-0.008164718747138977,0.006745786871761084
1761384920549023700,4.974023681640625,-0.0018293253378942609,-0.0073287528939545155,0.0024980450980365276
1761384920559093000,4.984093017578125,-0.0016024239594116807,-0.010660367086529732,0.0035659726709127426
1761384920569162000,4.994161865234375,-0.002615756820887327,-0.006383596919476986,0.007544202730059624
1761384920579230700,5.004230712890625,-0.0016471651615574956,-0.006330866366624832,0.004682902246713638
1761384920589300000,5.014300048828125,-0.0023241406306624413,-0.00947978813201189,0.0057127466425299644
1761384920599368700,5.02436865234375,-0.0005744438385590911,-0.008919192478060722,0.004926581867039204
1761384920609438000,5.03443798828125,-0.0010074737947434187,-0.010364490561187267,0.004906075540930033
1761384920619506000,5.044505859375,-0.0008053398923948407,-0.006985471583902836,0.003962783608585596
1761384920629574700,5.05457470703125,-0.0027885958552360535,-0.008379636332392693,0.004024568945169449
1761384920639644000,5.064643798828125,-0.0016559535870328546,-0.00751970149576664,0.003975833300501108
1761384920649713000,5.074712890625,-0.002569417702034116,-0.010105364955961704,0.005135107319802046
1761384920659782000,5.084781982421875,-0.0016029566759243608,-0.010490191169083118,0.004596349783241749
1761384920669851000,5.094850830078125,-0.0029917950741946697,-0.007111971732228994,0.0018804579740390182
1761384920679918800,5.1049189453125,-0.004717257339507341,-0.01184946857392788,0.006398244295269251
1761384920689987800,5.11498779296875,0.0014112089993432164,-0.0060086240991950035,0.0029830066487193108
1761384920700056800,5.125056884765625,-0.001961151836439967,-0.009403621777892113,0.003537210635840893
1761384920710125800,5.135125732421875,-0.002320412313565612,-0.00729413190856576,0.007606787141412497
1761384920720194800,5.14519482421875,0.000003462109361862531,-0.006268548313528299,0.0031457259319722652
1761384920730264000,5.15526416015625,0.000021837920940015465,-0.00887791346758604,0.006836866959929466
1761384920740331800,5.165331787109375,-0.00440966198220849,-0.007802529260516167,0.0018322548130527139
1761384920750400800,5.17540087890625,-0.0015459649730473757,-0.009839314967393875,0.003478088416159153
1761384920760470000,5.185469970703125,-0.0019206717843189836,-0.008773784153163433,0.006096774712204933
1761384920770538800,5.195538818359375,-0.0010197244118899107,-0.007306382525712252,0.00552179804071784
1761384920780608000,5.20560791015625,0.000035420041967881843,-0.008559132926166058,0.003786748740822077
1761384920790676700,5.2156767578125,0.0004516721237450838,-0.007994011044502258,0.0022303974255919456
1761384920800745700,5.225745849609375,-0.00341603672131896,-0.009446765296161175,0.005706355441361666
1761384920810814000,5.23581396484375,-0.0020474381744861603,-0.009754359722137451,0.0021755362395197153
1761384920820882700,5.245882568359375,0.0006255765329115093,-0.010689129121601582,0.0008037420338951051
1761384920830952000,5.255951904296875,-0.002156095113605261,-0.008555671200156212,0.00549356872215867
1761384920841021000,5.26602099609375,-0.0022272015921771526,-0.006848318502306938,0.00640756543725729
1761384920851090000,5.27608984375,-0.00040266994619742036,-0.009044361300766468,0.0028818065766245127
1761384920861159000,5.286158935546875,0.00037816885742358863,-0.008304801769554615,0.005844040773808956
1761384920871227000,5.296226806640625,-0.002469282830134034,-0.008813731372356415,0.003404052462428808
1761384920881296000,5.3062958984375,-0.002788063371554017,-0.009802030399441719,0.00009986854274757206
1761384920891364900,5.31636474609375,-0.004683701321482658,-0.0076302229426801205,0.005832056514918804
1761384920901433900,5.326433837890625,0.0032522522378712893,-0.009032110683619976,0.005254150368273258
1761384920911502800,5.3365029296875,-0.003772367723286152,-0.008649414405226707,0.004295678809285164
1761384920921571800,5.34657177734375,-0.0023347933311015368,-0.00720518222078681,0.0038919434882700443
1761384920931640800,5.356640869140625,-0.0013723268639296293,-0.007151119876652956,0.005938849411904812
1761384920941708800,5.366708740234375,-0.0029933929909020662,-0.008701612241566181,0.002802977105602622
1761384920951778000,5.376778076171875,-0.0031348068732768297,-0.008193748071789742,0.001955292886123061
1761384920961846800,5.3868466796875,-0.0021521004382520914,-0.006339122075587511,0.005230714567005634
1761384920971916000,5.396916015625,-0.0016269250772893429,-0.009970342740416527,0.0036250948905944824
1761384920981984800,5.40698486328125,0.0010460896883159876,-0.00908564031124115,0.005227518733590841
1761384920992053800,5.4170537109375,-0.0023872575256973505,-0.004739627707749605,0.006272276863455772
1761384921002122000,5.4271220703125,-0.0016908409306779504,-0.009141034446656704,0.006712497677654028
1761384921012190700,5.437190673828125,-0.0018676748732104897,-0.00481206551194191,0.004800347611308098
1761384921022260000,5.447260009765625,-0.001371794263832271,-0.008430768735706806,0.0038629150949418545
1761384921032329000,5.457328857421875,0.00039068571641109884,-0.009614277631044388,0.0037955371662974358
1761384921042397700,5.467397705078125,-0.0001840244367485866,-0.010919226333498955,0.0023068301379680634
1761384921052467000,5.477467041015625,-0.000922519015148282,-0.009631055407226086,0.005049087107181549
1761384921062535700,5.48753564453125,-0.0017619474092498422,-0.008568454533815384,0.0038831550627946854
1761384921072604000,5.49760400390625,-0.0008498146780766547,-0.00815220270305872,0.005775597412139177
1761384921082673000,5.5076728515625,-0.0009286442655138671,-0.008153000846505165,0.006436061579734087
1761384921092741600,5.51774169921875,0.00025220136740244925,-0.009059807285666466,0.0051652006804943085
1761384921102811000,5.527810791015625,-0.0019947076216340065,-0.010896855965256691,0.004591822158545256
1761384921112879900,5.5378798828125,0.0003507383225951344,-0.008863000199198723,0.004730572924017906
1761384921122948900,5.547948974609375,-0.0026996464002877474,-0.01327053178101778,0.0018764632986858487
1761384921133016800,5.558016845703125,-0.0007451524725183845,-0.007937551476061344,0.003299922915175557
1761384921143086000,5.568086181640625,0.00033449303009547293,-0.007487743627279997,0.005677592940628529
1761384921153154800,5.57815478515625,-0.0008026767172850668,-0.009667274542152882,0.005344964098185301
1761384921163223800,5.588223876953125,-0.0024104269687086344,-0.008489890955388546,0.0018439727136865258
1761384921173292800,5.598292724609375,0.00028069718973711133,-0.008810536004602909,0.004560663364827633
1761384921183361800,5.60836181640625,-0.0009677927591837943,-0.007989749312400818,0.0016437029698863626
1761384921193430800,5.6184306640625,-0.00035473305615596473,-0.009130647405982018,0.005316468421369791
1761384921203500800,5.628500732421875,0.000007989483492565341,-0.009965016506612301,0.005065065808594227
1761384921213569000,5.638569091796875,-0.0019342538435012102,-0.009917345829308033,0.0038016624748706818
1761384921223637800,5.6486376953125,-0.002169144805520773,-0.00996182020753622,0.0030045784078538418
1761384921233707000,5.65870703125,-0.001329716295003891,-0.00806192122399807,0.006331665441393852
1761384921243775700,5.668775634765625,-0.001961684552952647,-0.009545568376779556,0.004697549622505903
1761384921253844700,5.6788447265625,-0.000580036488827318,-0.00953811127692461,0.003540672594681382
1761384921263914000,5.6889140625,-0.00039414784987457097,-0.008300273679196835,0.005907423794269562
1761384921273982700,5.698982666015625,-0.0010319749126210809,-0.009009740315377712,0.005080778617411852
1761384921284051000,5.709051025390625,0.00038722361205145717,-0.008292551152408123,0.0038048583082854748
1761384921294120000,5.719119873046875,-0.0011707255616784096,-0.007757521700114012,0.0049646650440990925
1761384921304188700,5.729188720703125,-0.0016415724530816078,-0.013144563883543015,0.001311873085796833
1761384921314258000,5.7392578125,-0.001121723442338407,-0.0060203419998288155,0.004944424610584974
1761384921324326700,5.74932666015625,0.0009882990270853043,-0.009140501730144024,0.005764412228018045
1761384921334396000,5.75939599609375,-0.0006815029191784561,-0.009733853861689568,0.007811317685991526
1761384921344464000,5.7694638671875,-0.0012540825409814715,-0.008989499881863594,0.005284776911139488
1761384921354532900,5.779532958984375,-0.00245090713724494,-0.007751130498945713,0.004281830508261919
1761384921364601900,5.789601806640625,-0.001793905277736485,-0.007529288996011019,0.004382763989269733
1761384921374670800,5.7996708984375,-0.0020397149492055178,-0.010916030965745449,0.004816060420125723
1761384921384739800,5.80973974609375,-0.0024975123815238476,-0.0054546864703297615,0.0044264402240514755
1761384921394808800,5.819808837890625,-0.002183259464800358,-0.011213771998882294,0.006851780693978071
1761384921404877000,5.829876953125,-0.0011768508702516556,-0.00899589154869318,0.00395612558349967
1761384921414945800,5.83994580078125,-0.0009382316493429244,-0.006641124840825796,0.004228567238897085
1761384921425014800,5.850014892578125,0.0002492718631401658,-0.010874751955270767,0.0046666571870446205
1761384921435083800,5.860083740234375,-0.0026146916206926107,-0.008759935386478901,0.004265052266418934
1761384921445152800,5.87015283203125,-0.0015757924411445856,-0.009032377041876316,0.0011576761025935411
1761384921455222000,5.880221923828125,-0.0012000204296782613,-0.0076869479380548,0.004574245307594538
1761384921465290800,5.890290771484375,-0.0019294602097943425,-0.009676329791545868,0.003937750123441219
1761384921475359000,5.90035888671875,-0.0031100395135581493,-0.009966081008315086,0.0032003207597881556
1761384921485428000,5.910427978515625,-0.0013393036788329482,-0.0071157002821564674,0.005005677696317434
1761384921495496700,5.92049658203125,0.0000876179983606562,-0.009089634753763676,0.004800880327820778
1761384921505566000,5.93056591796875,-0.0007044061203487217,-0.008079231716692448,0.003953196108341217
1761384921515634700,5.940634765625,-0.002612560987472534,-0.009494967758655548,0.004252802114933729
1761384921525704000,5.950703857421875,-0.001972603378817439,-0.010308297351002693,0.0046509443782269955
1761384921535772000,5.96077197265625,-0.0019443739438429475,-0.008758870884776115,0.006060555577278137
1761384921545840600,5.970840576171875,-0.0015563513152301311,-0.008087487891316414,0.004723382648080587
1761384921555910000,5.980909912109375,-0.0009414274245500565,-0.009148756973445415,0.0049225869588553905
1761384921565979000,5.990978759765625,-0.004627774935215712,-0.008227037265896797,0.003653058083727956
1761384921576047900,6.0010478515625,-0.0007595335482619703,-0.009059540927410126,0.006611031014472246
1761384921586116900,6.011116943359375,-0.0008639294537715614,-0.00720464950427413,0.0027238810434937477
1761384921596185900,6.021185791015625,-0.0013347762869670987,-0.010044111870229244,0.004602208733558655
1761384921606253800,6.03125390625,-0.0024650217965245247,-0.009850233793258667,0.003501790575683117
1761384921616322800,6.04132275390625,-0.001193362521007657,-0.007077616639435291,0.004599279258400202
1761384921626391800,6.051391845703125,-0.0026791400741785765,-0.007604922633618116,0.0016652746126055717
1761384921636460800,6.061460693359375,-0.00222001108340919,-0.009012402966618538,0.004741225857287645
1761384921646529800,6.07152978515625,-0.0025507756508886814,-0.0088776471093297,0.002581668319180608
1761384921656598300,6.081598388671875,-0.0006476807757280767,-0.007223291788250208,0.005680788774043322
1761384921666666200,6.091666259765625,-0.0016820525052025914,-0.00977460015565157,0.004490355961024761
1761384921676735500,6.101735595703125,-0.0008356999605894089,-0.009220396168529987,0.002528671408072114
1761384921686804200,6.11180419921875,-0.002150236163288355,-0.007832623086869717,0.00392709719017148
1761384921696873500,6.12187353515625,-0.0017747305100783706,-0.010727212764322758,0.0025742114521563053
1761384921706942200,6.131942138671875,-0.0018437063554301858,-0.007126086391508579,0.006912501063197851
1761384921717011500,6.142011474609375,-0.00065460498444736,-0.009443835355341434,0.006411027628928423
1761384921727080400,6.15208056640625,-0.002681004349142313,-0.009046225808560848,0.0030977888964116573
1761384921737148200,6.162148193359375,-0.0041252365335822105,-0.007675230037420988,0.005271993577480316
1761384921747217400,6.172217529296875,-0.002371544949710369,-0.008023305796086788,0.005635248962789774
1761384921757286400,6.182286376953125,-0.002660498023033142,-0.007544202730059624,0.0030951257795095444
1761384921767355400,6.19235546875,-0.0009366337326355278,-0.01040576957166195,0.0029087045695632696
1761384921777424400,6.20242431640625,-0.0029443909879773855,-0.0060142166912555695,0.003073021536692977
1761384921787493400,6.212493408203125,-0.0017805894603952765,-0.007053115870803595,0.004969458561390638
1761384921797561300,6.222561279296875,-0.0006375607335940003,-0.009690177626907825,0.005908755585551262
1761384921807630300,6.23263037109375,-0.0016682040877640247,-0.0062246061861515045,0.005160140804946423
1761384921817699300,6.24269921875,-0.0011805793037638068,-0.008541289716959,0.0020847225096076727
1761384921827768300,6.252768310546875,-0.002439721953123808,-0.00771757448092103,0.005607818253338337
1761384921837837600,6.262837646484375,-0.0023664848413318396,-0.009727728553116322,0.006154831498861313
1761384921847906300,6.27290625,-0.0012985573848709464,-0.008984173648059368,0.006776147056370974
1761384921857975600,6.2829755859375,-0.0010338390711694956,-0.008805209770798683,0.005782255437225103
1761384921868043500,6.29304345703125,-0.0023289343807846308,-0.008116249926388264,0.006090383045375347
1761384921878112300,6.3031123046875,-0.0028032432310283184,-0.008829444646835327,0.0036732980515807867
1761384921888181500,6.313181396484375,-0.0017089504981413484,-0.00743155088275671,0.005299424286931753
1761384921898250200,6.323250244140625,-0.0018136126454919577,-0.00848616287112236,0.006373210810124874
1761384921908319500,6.333319580078125,-0.000568052229937166,-0.00854581780731678,0.0065292720682919025
1761384921918388500,6.343388427734375,0.0001270327775273472,-0.008813731372356415,0.002662362065166235
1761384921928456200,6.353456298828125,-0.002261822810396552,-0.004999019671231508,0.00663446681573987
1761384921938525400,6.363525390625,0.00010679275874281302,-0.009637979790568352,0.006761233322322369
1761384921948594400,6.373594482421875,-0.001094559207558632,-0.008429703302681446,0.004290885291993618
1761384921958663400,6.383663330078125,-0.0021105550695210695,-0.009402023628354073,0.0013496900210157037
1761384921968732400,6.393732421875,-0.003522296901792288,-0.009725597687065601,0.0025012409314513206
1761384921978801400,6.403801513671875,-0.0017265273490920663,-0.0084249097853899,0.0036709012929350138
1761384921988870400,6.413870361328125,-0.0033891387283802032,-0.00815060455352068,0.00504029868170619
1761384921998938400,6.4239384765625,-0.0019861855544149876,-0.007923170924186707,0.00567093538120389
1761384922009007400,6.43400732421875,-0.001213602488860488,-0.0070520504377782345,0.0027779433876276016
1761384922019076400,6.444076416015625,-0.0018200043123215437,-0.010292585007846355,0.00410473020747304
1761384922029145600,6.4541455078125,0.00044661210267804563,-0.0070669641718268394,0.007447530049830675
1761384922039214300,6.46421435546875,-0.0036522590089589357,-0.012116850353777409,0.006535663735121489
1761384922049283600,6.47428369140625,-0.002430667169392109,-0.007832889445126057,0.00358754419721663
1761384922059351600,6.4843515625,-0.0013688647886738181,-0.007767641916871071,0.0006391586503013968
1761384922069420300,6.494420166015625,-0.003171824850142002,-0.009457950480282307,0.005092496518045664
1761384922079489500,6.504489501953125,-0.00021837920940015465,-0.006773483939468861,0.00293400464579463
1761384922089558300,6.514558349609375,-0.002927080262452364,-0.01053067110478878,0.00538544449955225
1761384922099627500,6.52462744140625,-0.0020698087755590677,-0.007948736660182476,0.003808586625382304
1761384922109696500,6.534696533203125,-0.0027057717088609934,-0.007280017249286175,0.004705273080617189
1761384922119765200,6.54476513671875,-0.00023142869758885354,-0.010788199491798878,0.0022599585354328156
1761384922129833500,6.55483349609375,-0.0018301242962479591,-0.006885336712002754,0.005843241699039936
1761384922139902500,6.56490234375,-0.0012985573848709464,-0.008213987573981285,0.002764627570286393
1761384922149971500,6.574971435546875,-0.0018125474452972412,-0.010667557828128338,0.005116997752338648
1761384922160040400,6.58504052734375,-0.0012964267516508698,-0.010239321738481522,0.005334577988833189
1761384922170109200,6.595109130859375,0.000571248063351959,-0.007048055995255709,0.003732952754944563
1761384922180178400,6.605178466796875,-0.0036602485924959183,-0.0049707903526723385,0.0025739450938999653
1761384922190246400,6.615246337890625,-0.0012373046483844519,-0.009395631961524487,0.0053553506731987
1761384922200315400,6.6253154296875,-0.0028045750223100185,-0.00899615790694952,0.0044109937734901905
1761384922210384400,6.63538427734375,0.0011065434664487839,-0.007443801499903202,0.007933290675282478
1761384922220453400,6.645453369140625,0.00005459480235003866,-0.008499212563037872,0.002927080262452364
1761384922230522400,6.6555224609375,0.0005171858938410878,-0.009794307872653008,0.004786232952028513
1761384922240591400,6.66559130859375,-0.0020000338554382324,-0.009121326729655266,0.0020759340841323137
1761384922250660400,6.675660400390625,0.00025752768851816654,-0.0072776200249791145,0.005687446799129248
1761384922260728300,6.685728271484375,-0.002426938619464636,-0.00990109983831644,0.004540956113487482
1761384922270797600,6.695797607421875,-0.001264735241420567,-0.008113852702081203,0.003168362658470869
1761384922280866300,6.7058662109375,-0.001743038883432746,-0.008640626445412636,0.004309527110308409
1761384922290935300,6.715935302734375,-0.0026999127585440874,-0.009705624543130398,0.004736964590847492
1761384922301004300,6.72600439453125,-0.0015456987312063575,-0.0051566786132752895,0.00475400872528553
1761384922311073300,6.7360732421875,0.0026160231791436672,-0.010076602920889854,0.0030626351945102215
1761384922321141500,6.7461416015625,-0.0017952368361875415,-0.00697907991707325,0.006037652492523193
1761384922331210500,6.75621044921875,-0.0021382521372288465,-0.008244081400334835,0.006075202953070402
1761384922341279200,6.766279296875,-0.0005811017472296953,-0.008230498991906643,0.005458681378513575
1761384922351348500,6.776348388671875,-0.0002426139690214768,-0.008723716251552105,0.0027776770293712616
1761384922361417200,6.786417236328125,0.0006050702068023384,-0.011263307183980942,0.002825880190357566
1761384922371486500,6.796486572265625,-0.000987500068731606,-0.008196943439543247,0.002969424705952406
1761384922381555200,6.80655517578125,-0.0025947177782654762,-0.008432100526988506,0.0033547841012477875
1761384922391623400,6.81662353515625,-0.00021252025908324867,-0.00983372237533331,0.0018274611793458462
1761384922401692400,6.8266923828125,-0.0003909520455636084,-0.007268032990396023,0.0024762072134763002
1761384922411761400,6.836761474609375,-0.00044847631943412125,-0.009633186273276806,0.00398621940985322
1761384922421830400,6.846830322265625,0.00020293287525419146,-0.00897005945444107,0.004756405483931303
1761384922431899400,6.8568994140625,-0.0005198490689508617,-0.010088054463267326,0.003227484878152609
1761384922441968400,6.866968505859375,-0.0006793724023737013,-0.008163654245436192,0.00446905056014657
1761384922452036400,6.877036376953125,-0.00002450108149787411,-0.007494668010622263,0.004065315239131451
1761384922462105300,6.887105224609375,-0.002523078816011548,-0.008654474280774593,0.002921221312135458
1761384922472174300,6.89717431640625,0.00012197277828818187,-0.008080829866230488,0.0027212179265916348
1761384922482243300,6.907243408203125,-0.00023169501218944788,-0.009549829177558422,0.004114317707717419
1761384922492312300,6.917312255859375,-0.0019867182709276676,-0.00809281412512064,0.004024302586913109
1761384922502381300,6.92738134765625,0.0012335762148723006,-0.00689092930406332,0.003179814200848341
1761384922512450600,6.937450439453125,-0.0013635384384542704,-0.010129599831998348,0.005546032916754484
1761384922522518300,6.947518310546875,-0.0018490327056497335,-0.007277354132384062,0.004237888380885124
1761384922532587300,6.957587158203125,-0.0006383596919476986,-0.011471566744148731,0.005331914871931076
1761384922542656500,6.967656494140625,-0.0011488876771181822,-0.011058776639401913,0.00567040266469121
1761384922552725200,6.977725341796875,-0.0005850964807905257,-0.006117014680057764,0.005346828605979681
1761384922562794500,6.98779443359375,-0.0003563309437595308,-0.009193498641252518,0.00500967213883996
1761384922572863200,6.99786328125,-0.0007480819476768374,-0.008342884480953217,0.005479986313730478
1761384922582931200,7.00793115234375,-0.0005518069956451654,-0.009612147696316242,0.005705290008336306
1761384922593000400,7.01800048828125,0.0005422196118161082,-0.007542072329670191,0.003439472522586584
1761384922603069200,7.028069091796875,-0.0007560714147984982,-0.008134359493851662,0.006543386727571487
1761384922613138400,7.038138427734375,-0.002252235310152173,-0.007773500867187977,0.0030543794855475426
1761384922623207400,7.04820751953125,-0.0007323693134821951,-0.007610515225678682,0.005062669049948454
1761384922633276400,7.0582763671875,-0.0014261227333918214,-0.011068097315728664,0.0039007319137454033
1761384922643345400,7.068345458984375,-0.0012026835465803742,-0.006525010801851749,0.006839263718575239
1761384922653413600,7.07841357421875,-0.00364666641689837,-0.00546240946277976,0.0035124430432915688
1761384922663482600,7.088482666015625,-0.0014817827614024282,-0.006954578682780266,0.005652559455484152
1761384922673551600,7.098551513671875,-0.00180855265352875,-0.008138886652886868,0.006312756799161434
1761384922683620600,7.10862060546875,-0.0003097256412729621,-0.009270995855331421,0.0031198931392282248
1761384922693689600,7.118689697265625,-0.003224289044737816,-0.008286692202091217,0.0075761605985462666
1761384922703758600,7.128758544921875,0.00011158645065734163,-0.007273891940712929,0.005377454683184624
1761384922713826600,7.13882666015625,-0.001341700553894043,-0.008764729835093021,0.0065375277772545815
1761384922723895600,7.1488955078125,-0.000928377965465188,-0.009191101416945457,0.005101018585264683
1761384922733964800,7.15896484375,-0.0008428904693573713,-0.01056342851370573,0.002883404493331909
1761384922744033500,7.169033447265625,-0.0038424087688326836,-0.0073623089119791985,0.0037468012887984514
1761384922754102800,7.179102783203125,-0.001041562296450138,-0.008608401753008366,0.0038988678716123104
1761384922764171500,7.189171630859375,-0.0014820491196587682,-0.006167881190776825,0.00455746753141284
1761384922774240500,7.199240478515625,0.00021917815320193768,-0.008263522759079933,0.004345213528722525
1761384922784308700,7.209308837890625,-0.002523078816011548,-0.00848696194589138,0.004487692844122648
1761384922794377500,7.21937744140625,-0.002686596941202879,-0.00863503385335207,0.005059473216533661
1761384922804446700,7.22944677734375,-0.0023430490400642157,-0.008765794336795807,0.0038549257442355156
1761384922814515700,7.239515625,0.00029294771957211196,-0.006358563434332609,0.005989182740449905
1761384922824584400,7.24958447265625,0.00028868665685877204,-0.007961519993841648,0.0023483755066990852
1761384922834653700,7.25965380859375,-0.00213638786226511,-0.008836101740598679,0.005371329374611378
1761384922844721700,7.2697216796875,-0.0015632755821570754,-0.00881133507937193,0.006424343679100275
1761384922854790700,7.279790771484375,-0.0021973741240799427,-0.007309045642614365,0.0015156050212681293
1761384922864859600,7.289859619140625,-0.002350239548832178,-0.009335445240139961,0.005774265620857477
1761384922874928600,7.2999287109375,-0.002808569697663188,-0.009636647999286652,0.003963316325098276
1761384922884997600,7.30999755859375,-0.001606152392923832,-0.008451808243989944,0.00493244081735611
1761384922895066600,7.320066650390625,-0.0014037522487342358,-0.009130647405982018,0.0037294907961040735
1761384922905135600,7.330135498046875,-0.0010242518037557602,-0.008557802066206932,0.0067838700488209724
1761384922915203600,7.34020361328125,-0.001210939371958375,-0.007456851191818714,0.004001399502158165
1761384922925272600,7.3502724609375,-0.001751827308908105,-0.009247028268873692,0.0007086671539582312
1761384922935341600,7.360341552734375,-0.0022413162514567375,-0.008792692795395851,0.0054301852360367775
1761384922945410600,7.37041064453125,-0.002457564929500222,-0.007781223859637976,0.0022919164039194584
1761384922955479600,7.3804794921875,-0.002088717184960842,-0.011145329102873802,0.005335909314453602
1761384922965548500,7.390548583984375,-0.000517718493938446,-0.008070177398622036,0.0035020567011088133
1761384922975616800,7.40061669921875,-0.002177400514483452,-0.006956176832318306,0.0041585261933505535
1761384922985685500,7.410685546875,-0.0014799186028540134,-0.008550344966351986,0.0037468012887984514
1761384922995754500,7.42075439453125,-0.0005736448802053928,-0.009005745872855186,0.004826713353395462
1761384923005823500,7.430823486328125,-0.00261841993778944,-0.006935936864465475,0.0037550569977611303
1761384923015892500,7.440892578125,-0.0011941614793613553,-0.007928230799734592,0.004190484061837196
1761384923025961700,7.450961669921875,-0.00008175904804375023,-0.008311991579830647,0.0031166973058134317
1761384923036030500,7.461030517578125,-0.0017185378819704056,-0.007197991944849491,0.005872003734111786
1761384923046098700,7.4710986328125,-0.0014354437589645386,-0.005615541245788336,0.0049737198278307915
1761384923056167700,7.481167724609375,0.0004367584188003093,-0.011078749783337116,0.005471996963024139
1761384923066236400,7.491236328125,0.00018349179299548268,-0.006713029928505421,0.007623298559337854
1761384923076305700,7.5013056640625,-0.0012058793799951673,-0.008613727986812592,0.0019244002178311348
1761384923086374400,7.51137451171875,-0.0011491540353745222,-0.0086603332310915,0.005569202359765768
1761384923096443600,7.521443603515625,0.00017097493400797248,-0.008802812546491623,0.000815193576272577
1761384923106511600,7.53151171875,-0.001499359728768468,-0.009386844001710415,0.004322843160480261
1761384923116580600,7.54158056640625,-0.0024533038958907127,-0.0070246197283267975,0.003914047963917255
1761384923126649600,7.551649658203125,-0.002463690238073468,-0.008077100850641727,0.003899400355294347
1761384923136718600,7.561718505859375,-0.0016330503858625889,-0.009841445833444595,0.0038578552193939686
1761384923146787600,7.57178759765625,0.00022077605535741895,-0.008643289096653461,0.006647250149399042
1761384923156856600,7.581856689453125,-0.0024730113800615072,-0.008245945908129215,0.0034314829390496016
1761384923166924500,7.591924560546875,-0.0014650048688054085,-0.005276521202176809,0.005150021053850651
1761384923176993500,7.60199365234375,-0.001213868847116828,-0.009787383489310741,0.0027087011840194464
1761384923187062500,7.6120625,-0.003457582090049982,-0.008081362582743168,0.004475708585232496
1761384923197131500,7.622131591796875,-0.001627457677386701,-0.009271262213587761,0.0026762105990201235
1761384923207200500,7.632200439453125,-0.004627508576959372,-0.008390821516513824,0.0020482372492551804
1761384923217269800,7.642269775390625,-0.0007209177128970623,-0.008279767818748951,0.006662163883447647
1761384923227338500,7.65233837890625,-0.0034029872622340918,-0.010036654770374298,0.002120675053447485
1761384923237406500,7.662406494140625,-0.0024141555186361074,-0.009166866540908813,0.00455800024792552
1761384923247475700,7.672475830078125,-0.002950516063719988,-0.0070520504377782345,0.0033454629592597485
1761384923257544400,7.68254443359375,-0.002368349116295576,-0.009125587530434132,0.005873069167137146
1761384923267613700,7.69261376953125,0.00004367584188003093,-0.005883721634745598,0.00199337606318295
1761384923277682400,7.702682373046875,-0.004061054438352585,-0.008715727366507053,0.0041433461010456085
1761384923287751700,7.712751708984375,-0.0015422365395352244,-0.007203051820397377,0.005773200653493404
1761384923297819600,7.722819580078125,-0.0005163869354873896,-0.007807589136064053,0.004924451000988483
1761384923307888400,7.732888427734375,-0.0016357135027647018,-0.006721286103129387,0.005816077347844839
1761384923317957600,7.74295751953125,-0.002266349969431758,-0.009048888459801674,0.004773183725774288
1761384923328026600,7.753026611328125,-0.002251702593639493,-0.00965875294059515,0.004424309358000755
1761384923338095600,7.763095703125,0.0002980077115353197,-0.006085323169827461,0.006903446279466152
1761384923348164600,7.77316455078125,-0.002526541007682681,-0.008136223070323467,0.004630970768630505
1761384923358233600,7.783233642578125,-0.0005209143273532391,-0.008895223960280418,0.004162254277616739
1761384923368301600,7.793301513671875,-0.0029060414526611567,-0.00888084340840578,0.00472657848149538
1761384923378370600,7.80337060546875,-0.001356614287942648,-0.008471515029668808,0.006848851218819618
1761384923388439600,7.813439453125,-0.0025798040442168713,-0.005029113497585058,0.005088767968118191
1761384923398508500,7.823508544921875,-0.002326537622138858,-0.009590042755007744,0.00222001108340919
1761384923408577800,7.833577880859375,0.0008719189208932221,-0.007926899008452892,0.006969226058572531
1761384923418646500,7.843646484375,-0.001406947965733707,-0.00806005671620369,0.004673315212130547
1761384923428714500,7.853714599609375,-0.0036602485924959183,-0.007969776168465614,0.006589459255337715
1761384923438783700,7.86378369140625,-0.0021784657146781683,-0.008646485395729542,0.004536961205303669
1761384923448852500,7.8738525390625,-0.0014527543680742383,-0.008153799921274185,0.002082591876387596
1761384923458921700,7.883921630859375,-0.005765743553638458,-0.008284294977784157,0.003822701284661889
1761384923468990500,7.893990478515625,-0.0028370653744786978,-0.010071275755763054,0.004566255956888199
1761384923479059700,7.904059814453125,-0.0012551478575915098,-0.008154332637786865,0.005375057924538851
1761384923489128700,7.914128662109375,-0.00021518341964110732,-0.006947122048586607,0.005739111918956041
1761384923499196400,7.924196533203125,-0.0016468988033011556,-0.009258479811251163,0.004850681405514479
1761384923509265700,7.934265625,-0.0020540961995720863,-0.00794341042637825,0.005196892656385899
1761384923519334700,7.944334716796875,-0.0024735440965741873,-0.010453440248966217,0.0031260184478014708
1761384923529403600,7.954403564453125,0.00012783173588104546,-0.008857940323650837,0.0046267095021903515
1761384923539472600,7.96447265625,-0.0049673281610012054,-0.00878177396953106,0.0018644790397956967
1761384923549541600,7.974541748046875,-0.003498062025755644,-0.009638512507081032,0.005693039391189814
1761384923559609600,7.984609619140625,-0.0008450209861621261,-0.00797163974493742,0.003282079705968499
1761384923569678600,7.9946787109375,-0.003123888047412038,-0.010363425128161907,0.0028575719334185123
1761384923579747600,8.00474755859375,-0.0035353463608771563,-0.008449144661426544,0.0033047166652977467
1761384923589816600,8.014816650390625,0.0003352919884491712,-0.009848102927207947,0.006895456463098526
1761384923599885800,8.0248857421875,-0.0013294500531628728,-0.00863103847950697,0.004576376173645258
1761384923609954600,8.03495458984375,-0.0030085730832070112,-0.0068094367161393166,0.004133225884288549
1761384923620023600,8.0450234375,-0.002353435382246971,-0.010146377608180046,0.004752411041408777
1761384923630091800,8.055091796875,-0.0015342470724135637,-0.0070677632465958595,0.005499161314219236
1761384923640160500,8.065160400390624,-0.0025505092926323414,-0.009588445536792278,0.005575327668339014
1761384923650230300,8.075230224609374,-0.0015100123127922416,-0.009399893693625927,0.005855225957930088
1761384923660299000,8.085299072265625,-0.0005587312043644488,-0.00592686515301466,0.004217648413032293
1761384923670368300,8.0953681640625,-0.0027350664604455233,-0.008133027702569962,0.004747350700199604
1761384923680437000,8.10543701171875,0.0013600763631984591,-0.007111439015716314,0.0031973912846297026
1761384923690505000,8.1155048828125,-0.000904409505892545,-0.008717325516045094,0.00561128044500947
1761384923700574200,8.12557421875,-0.0002767024270724505,-0.008873386308550835,0.004997954238206148
1761384923710643000,8.135642822265625,-0.00004261057620169595,-0.006742591038346291,0.005116997752338648
1761384923720712200,8.145712158203125,-0.0011140003334730864,-0.010861968621611595,0.005633917171508074
1761384923730781200,8.15578125,-0.0007744472241029143,-0.007822236977517605,0.003176884725689888
1761384923740850200,8.16585009765625,-0.0022335932590067387,-0.009458483196794987,0.004682902246713638
1761384923750918100,8.175918212890625,0.002413356676697731,-0.008695753291249275,0.004299940075725317
1761384923760987100,8.185987060546875,-0.0011965582380071282,-0.009924269281327724,0.0041031320579349995
1761384923771056000,8.19605615234375,-0.002150768879801035,-0.008698683232069016,0.00726510351523757
1761384923781125000,8.206125,-0.0023036343045532703,-0.006366819143295288,0.0027750139124691486
1761384923791194000,8.216194091796876,-0.002519616624340415,-0.010735735297203064,0.004234426189213991
1761384923801263000,8.22626318359375,0.0003336940717417747,-0.009663812816143036,0.007979895919561386
1761384923811332000,8.23633203125,-0.0005837649223394692,-0.007244064472615719,0.005122057627886534
1761384923821400000,8.246400146484374,-0.001172323478385806,-0.010233462788164616,0.005120459944009781
1761384923831469000,8.256468994140626,-0.0008937568636611104,-0.0070334081538021564,0.004746552091091871
1761384923841538300,8.266538330078125,-0.0026636936236172915,-0.01101403497159481,0.0027955202385783195
1761384923851607000,8.27660693359375,-0.0010807107901200652,-0.009490440599620342,0.001817341079004109
1761384923861676000,8.286676025390625,-0.000496945867780596,-0.006468818057328463,0.005878661759197712
1761384923871745000,8.2967451171875,-0.00361737166531384,-0.0078073227778077126,0.0044293696992099285
1761384923881813000,8.30681298828125,-0.0007195860962383449,-0.01085850689560175,0.0028610338922590017
1761384923891882200,8.31688232421875,-0.001996571896597743,-0.010863566771149635,0.0057652113027870655
1761384923901951000,8.326950927734375,-0.0009147958480753005,-0.00848722830414772,0.005299424286931753
1761384923912020200,8.337020263671874,-0.0005352954030968249,-0.008230765350162983,0.003865312086418271
1761384923922089200,8.347089111328126,0.00042637207661755383,-0.008624380454421043,0.002344646956771612
1761384923932158000,8.357157958984375,-0.0006402239087037742,-0.008821188472211361,0.0031443943735212088
1761384923942227200,8.367227294921875,-0.000010386328540334944,-0.010570352897047997,0.003025883575901389
1761384923952295200,8.377295166015625,-0.0017355820164084435,-0.007765777874737978,0.002826146548613906
1761384923962364200,8.3873642578125,-0.0023241406306624413,-0.007478688843548298,0.006523945834487677
1761384923972433200,8.39743310546875,0.0002878876985050738,-0.010088320821523666,0.005531651899218559
1761384923982502000,8.407501953125,0.001088433898985386,-0.00999351218342781,0.0054578823037445545
1761384923992571100,8.417571044921875,-0.002317482838407159,-0.009781524538993835,0.004267715383321047
1761384924002640100,8.42764013671875,-0.0024466461036354303,-0.005706089083105326,0.00472577940672636
1761384924012708000,8.4377080078125,-0.001023186487145722,-0.00993412360548973,0.006983873434364796
1761384924022777000,8.447777099609375,-0.004478105343878269,-0.007167365401983261,0.005947105120867491
1761384924032846300,8.457846435546875,-0.0028908613603562117,-0.008826781064271927,0.004700479097664356
1761384924042915000,8.4679150390625,-0.0010253170039504766,-0.007655522786080837,0.006399043370038271
1761384924052984000,8.477984130859374,-0.0012013519881293178,-0.0069503178820014,0.004731638357043266
1761384924063053000,8.488052978515626,-0.0010050770360976458,-0.008624380454421043,0.0034610440488904715
1761384924073121000,8.49812109375,-0.0025710156187415123,-0.007274158298969269,0.005530586466193199
1761384924083190300,8.508190185546875,-0.0009741843095980585,-0.006956176832318306,0.0031103058718144894
1761384924093259000,8.518259033203124,-0.0017116136150434613,-0.009886452928185463,0.0034850125666707754
1761384924103328000,8.528327880859376,-0.0021467742044478655,-0.008128766901791096,0.0049707903526723385
1761384924113397200,8.538397216796875,-0.001967543503269553,-0.011057711206376553,0.004123106133192778
1761384924123466000,8.548466064453125,-0.0007661914569325745,-0.007256581448018551,0.004526042379438877
1761384924133535200,8.55853515625,-0.0005872269975952804,-0.009956760331988335,0.005995041690766811
1761384924143603200,8.568603271484376,-0.001606418751180172,-0.00930055696517229,0.007833422161638737
1761384924153672000,8.578671875,-0.0014474280178546906,-0.007451258134096861,0.004838431254029274
1761384924163741200,8.5887412109375,-0.0021936458069831133,-0.009564210660755634,0.0043840957805514336
1761384924173810000,8.598809814453125,0.000319845654303208,-0.010312558151781559,0.0065202172845602036
1761384924183879200,8.608879150390624,-0.000702009245287627,-0.006954312324523926,0.0046173888258636
1761384924193948000,8.618947998046876,-0.0025835325941443443,-0.0076118470169603825,0.0031254857312887907
1761384924204016000,8.62901611328125,0.00009880327706923708,-0.007289072033017874,0.007287207525223494
1761384924214085000,8.639085205078125,-0.0036522590089589357,-0.008138886652886868,0.003868241561576724
1761384924224154000,8.649154052734374,-0.0014743260107934475,-0.008932774886488914,0.005908222869038582
1761384924234223000,8.65922314453125,0.00036458674003370106,-0.0075969332829117775,0.006452040281146765
1761384924244292000,8.6692919921875,-0.0006287723081186414,-0.006441387813538313,0.002812031889334321
1761384924254361000,8.679361083984375,-0.0010314423125237226,-0.007965514436364174,0.004966529086232185
1761384924264429000,8.689428955078125,-0.0011137339752167463,-0.010894459672272205,0.003721234854310751
1761384924274498000,8.699498046875,-0.003293531248345971,-0.007084541022777557,0.005751895252615213
1761384924284567000,8.709567138671876,-0.0010016148444265127,-0.007538343779742718,0.0046328348107635975
1761384924294636000,8.719635986328125,-0.0023819312918931246,-0.009689112193882465,0.002525209216400981
1761384924304705000,8.729705078125,-0.0020333235152065754,-0.007758587133139372,0.0030338731594383717
1761384924314774000,8.73977392578125,-0.000595216522924602,-0.007896272465586662,0.006160424090921879
1761384924324843300,8.74984326171875,-0.0023901870008558035,-0.008553540334105492,0.0051987566985189915
1761384924334911200,8.7599111328125,-0.0021670141723006964,-0.007184143178164959,0.006791859865188599
1761384924344980000,8.76997998046875,-0.000606668065302074,-0.007653925102204084,0.0068123661912977695
1761384924355049200,8.78004931640625,-0.002439189236611128,-0.007169495802372694,0.002116147894412279
1761384924365118000,8.790117919921874,-0.001868207473307848,-0.01203881949186325,0.004765726625919342
1761384924375187200,8.800187255859376,-0.0018247979460284114,-0.008075769990682602,0.0063092950731515884
1761384924385256000,8.810255859375,-0.0023853934835642576,-0.009709618985652924,0.004508731886744499
1761384924395324000,8.820323974609375,-0.002014415105804801,-0.007083475589752197,0.004056260455399752
1761384924405393200,8.83039306640625,-0.0018841864075511694,-0.008225705474615097,0.004460262134671211
1761384924415462100,8.840462158203126,-0.002365419641137123,-0.00830613262951374,0.006943926215171814
1761384924425531100,8.85053125,-0.002229332225397229,-0.010872354730963707,0.002843723399564624
1761384924435600100,8.86060009765625,-0.0038637141697108746,-0.008172708563506603,0.005380117800086737
1761384924445669000,8.870669189453125,-0.0020042951218783855,-0.009366070851683617,0.0054632085375487804
1761384924455738000,8.880738037109374,-0.0022184131667017937,-0.010464092716574669,0.005124454386532307
1761384924465806000,8.89080615234375,-0.00020213393145240843,-0.008607869036495686,0.00392683083191514
1761384924475875000,8.900875,0.00013076121103949845,-0.004835767671465874,0.006736732088029385
1761384924485944000,8.910944091796875,-0.00355798308737576,-0.011130149476230145,0.003058906877413392
1761384924496013000,8.921012939453124,-0.0017992316279560328,-0.01062228437513113,0.00321843009442091
1761384924506082000,8.93108203125,-0.0017920411191880703,-0.006229133810847998,0.0036573191173374653
1761384924516151300,8.9411513671875,-0.003294330323114991,-0.007903729565441608,0.006809968966990709
1761384924526219000,8.951218994140625,-0.0022037657909095287,-0.010482735000550747,0.005181446205824614
1761384924536288000,8.9612880859375,-0.0007566040731035173,-0.009771670214831829,0.004215783905237913
1761384924546357200,8.971357177734374,-0.003081543603911996,-0.007489075418561697,0.004727909807115793
1761384924556426000,8.981426025390626,-0.0032956618815660477,-0.00737269502133131,0.005613943561911583
1761384924566495200,8.9914951171875,-0.0024021712597459555,-0.006184658966958523,0.001680454588495195
1761384924576562200,9.001562255859374,-0.001636246219277382,-0.007937018759548664,0.0036938043776899576
1761384924586631200,9.011631103515626,-0.002055161399766803,-0.011226555332541466,0.007179616019129753
1761384924596700200,9.0217001953125,-0.0009467537747696042,-0.005292233545333147,0.0033478597179055214
1761384924606769200,9.03176904296875,-0.0002282329078298062,-0.008058459497988224,0.003923634998500347
1761384924616838000,9.041837890625,0.0002817624481394887,-0.0070467242039740086,0.005770537536591291
1761384924626907100,9.0519072265625,-0.0030714236199855804,-0.006013151258230209,0.005416869651526213
1761384924636975000,9.06197509765625,-0.0007590008899569511,-0.008225172758102417,0.0046786414459347725
1761384924647044000,9.072044189453125,-0.002600044244900346,-0.009089634753763676,0.004731371998786926
1761384924657112600,9.082112548828125,-0.0027422569692134857,-0.011517639271914959,0.0018136126454919577
1761384924667181600,9.092181640625,-0.0021049624774605036,-0.008379369974136353,0.00304692261852324
1761384924677250600,9.10225048828125,-0.0038426751270890236,-0.008244614116847515,0.005606752820312977
1761384924687319600,9.112319580078125,-0.002921754028648138,-0.011157579720020294,0.0038978024385869503
1761384924697387500,9.122387451171875,-0.001981391804292798,-0.008300540037453175,0.0028333370573818684
1761384924707456500,9.13245654296875,-0.003025617217645049,-0.01019937451928854,0.004058391321450472
1761384924717525500,9.142525390625,-0.0007270429632626474,-0.00806431844830513,0.005460012704133987
1761384924727594500,9.152594482421875,-0.0026317357551306486,-0.008189486339688301,0.005900233518332243
1761384924737663500,9.16266357421875,-0.001955026527866721,-0.010940798558294773,0.004205664154142141
1761384924747732500,9.172732421875,-0.0025033713318407536,-0.00939030572772026,0.0054301852360367775
1761384924757801500,9.182801513671874,-0.0026043052785098553,-0.011035873554646969,0.0005619269795715809
1761384924767869400,9.192869384765626,0.00032650353386998177,-0.009669938124716282,0.005857622716575861
1761384924777938700,9.202938720703125,-0.0025449167005717754,-0.008196410723030567,0.0036567864008247852
1761384924788007400,9.21300732421875,-0.0009635316673666239,-0.012476377189159393,0.0036069853231310844
1761384924798076700,9.22307666015625,-0.0010615360224619508,-0.006277336739003658,0.003835750976577401
1761384924808145400,9.2331455078125,-0.0018269284628331661,-0.008619320578873158,0.00395799009129405
1761384924818214400,9.24321435546875,-0.001776062068529427,-0.009738114662468433,0.004836833104491234
1761384924828282600,9.25328271484375,0.0004905542591586709,-0.00974450632929802,0.004131894558668137
1761384924838351600,9.2633515625,-0.005555886775255203,-0.008176969364285469,0.00695005152374506
1761384924848420600,9.273420654296874,-0.002210689941421151,-0.00692075677216053,0.003507116809487343
1761384924858489600,9.283489501953126,-0.002280997345224023,-0.009541839361190796,0.004456533584743738
1761384924868558300,9.293558349609375,-0.003373159794136882,-0.007484281435608864,0.0020010992884635925
1761384924878627600,9.303627685546875,-0.0010527475969865918,-0.009429454803466797,0.0051508196629583836
1761384924888695600,9.313695556640624,-0.001728924224153161,-0.0060206083580851555,0.004535363521426916
1761384924898764500,9.3237646484375,-0.002353435382246971,-0.005332713946700096,0.002272208919748664
1761384924908833500,9.33383349609375,-0.0022421153262257576,-0.00945289060473442,0.003543335711583495
1761384924918902300,9.34390234375,-0.001184307737275958,-0.005782255437225103,0.005541771650314331
1761384924928971500,9.353971435546875,-0.0016508935950696468,-0.010944260284304619,0.004119643941521645
1761384924939040500,9.36404052734375,-0.0020985708106309175,-0.00689119566231966,0.007601460441946983
1761384924949109500,9.374109619140626,-0.0034317492973059416,-0.005772135220468044,0.006385461427271366
1761384924959177500,9.384177490234375,-0.0023758059833198786,-0.00800572894513607,0.004002731293439865
1761384924969246700,9.394246826171875,-0.000648479734081775,-0.0096286591142416,0.0017116136150434613
1761384924979315500,9.4043154296875,-0.0005856291390955448,-0.008527708239853382,0.008264588192105293
1761384924989384400,9.414384521484376,-0.0035928706638514996,-0.008015315979719162,0.004215783905237913
1761384924999453400,9.424453369140625,-0.0008096009842120111,-0.009185508824884892,0.006376406643539667
1761384925009522400,9.4345224609375,-0.0010138654615730047,-0.00962652824819088,0.0038368161767721176
1761384925019590700,9.444590576171874,0.00039254993316717446,-0.005245628301054239,0.0046791741624474525
1761384925029659400,9.454659423828126,-0.0013406352372840047,-0.007754325866699219,0.004240551497787237
1761384925039728400,9.464728271484375,0.0003115898580290377,-0.00920042209327221,0.005743106827139854
1761384925049797600,9.474797607421875,-0.00014993596414569765,-0.008114918135106564,0.004749481566250324
1761384925059866400,9.484866455078125,0.0002109223569277674,-0.005958023946732283,0.0023968450259417295
1761384925069935600,9.494935546875,-0.00032623723382130265,-0.007099987473338842,0.003073820611461997
1761384925080003600,9.505003662109376,-0.001255414099432528,-0.00887791346758604,0.00507039250805974
1761384925090072300,9.515072265625,-0.0002942793071269989,-0.007841677404940128,0.005190767347812653
1761384925100141600,9.5251416015625,-0.0013962953817099333,-0.01037620846182108,0.002311091171577573
1761384925110210300,9.535210205078124,-0.001961151836439967,-0.00833622645586729,0.006981476675719023
1761384925120279600,9.545279541015624,0.0015664712991565466,-0.008480570279061794,0.005379851907491684
1761384925130348500,9.5553486328125,-0.0014064153656363487,-0.009650496765971184,0.003817375050857663
1761384925140417500,9.56541748046875,-0.001743038883432746,-0.006667223758995533,0.00446825148537755
1761384925150485500,9.575485595703125,-0.0006868292111903429,-0.006846454460173845,0.0076275598257780075
1761384925160554500,9.585554443359374,-0.0012900352012366056,-0.008341819047927856,0.005877596326172352
1761384925170623500,9.59562353515625,-0.0007776430575177073,-0.006106628105044365,0.0036754286848008633
1761384925180692500,9.6056923828125,-0.001163002452813089,-0.009162339381873608,0.005570534151047468
1761384925190761500,9.615761474609375,-0.0023760723415762186,-0.008470450527966022,0.003418699838221073
1761384925200830500,9.62583056640625,0.0004886900424025953,-0.007577226031571627,0.005643504671752453
1761384925210899700,9.635899658203124,-0.0016607472207397223,-0.009899236261844635,0.005348159931600094
1761384925220968400,9.645968505859376,-0.0008503473363816738,-0.006943926215171814,0.0024381240364164114
1761384925231037700,9.65603759765625,-0.000925182132050395,-0.009788980707526207,0.005290902219712734
1761384925241106400,9.6661064453125,-0.0009259810904040933,-0.009890980087220669,0.00538411270827055
1761384925251174400,9.67617431640625,-0.0007566040731035173,-0.007464574184268713,0.0052323127165436745
1761384925261243600,9.68624365234375,-0.0014985607704147696,-0.009341570548713207,0.002161954063922167
1761384925271312400,9.6963125,-0.0013933659065514803,-0.009129316546022892,0.003040797309949994
1761384925281381600,9.706381591796875,-0.0010668623726814985,-0.009466472081840038,0.005516471806913614
1761384925291450600,9.71645068359375,-0.0032977922819554806,-0.006886135786771774,0.006204366218298674
1761384925301519400,9.726519287109374,-0.0006138586322776973,-0.00996261928230524,0.003971039317548275
1761384925311587600,9.736587646484375,-0.0025153555907309055,-0.008616125211119652,0.004161987919360399
1761384925321656600,9.746656494140625,-0.0022064289078116417,-0.00899988692253828,0.004246144089847803
1761384925331725600,9.7567255859375,-0.002094842493534088,-0.007649397477507591,0.0046599991619586945
1761384925341794600,9.766794677734374,-0.0010162622202187777,-0.007303985767066479,0.004280498716980219
1761384925351863600,9.776863525390626,-0.0017563547007739544,-0.008555937558412552,0.004378503188490868
1761384925361932500,9.7869326171875,-0.0036506610922515392,-0.007066165097057819,0.004318581894040108
1761384925372000500,9.79700048828125,0.0004751079250127077,-0.0073231603018939495,0.004732969682663679
1761384925382069500,9.807069580078124,-0.0014852449530735612,-0.009524528868496418,0.0068144965916872025
1761384925392138500,9.817138427734376,-0.0010034791193902493,-0.009556220844388008,0.0023361248895525932
1761384925402207500,9.82720751953125,0.00006844323797849938,-0.01016714982688427,0.006125803105533123
1761384925412276500,9.8372763671875,-0.00086872314568609,-0.006792658474296331,0.004674912896007299
1761384925422345500,9.847345458984375,-0.001231711939908564,-0.011006578803062439,0.006161223165690899
1761384925432414500,9.85741455078125,-0.0032812808640301228,-0.008274175226688385,0.0049646650440990925
1761384925442482400,9.867482421875,-0.0020703414920717478,-0.006987601984292269,0.003849332919344306
1761384925452551700,9.8775517578125,-0.002132392954081297,-0.009497364982962608,0.002767290687188506
1761384925462620400,9.887620361328125,-0.0004058657505083829,-0.0070674968883395195,0.005406483076512814
1761384925472689700,9.897689697265625,-0.001407214323990047,-0.008191883563995361,0.002918824553489685
1761384925482758400,9.90775830078125,-0.002974218223243952,-0.010040117427706718,0.002255697501823306
1761384925492827400,9.917827392578126,-0.0010069411946460605,-0.009848902001976967,0.00592473428696394
1761384925502895600,9.9278955078125,-0.003319630166515708,-0.010851582512259483,0.0030663637444376945
1761384925512964600,9.937964599609375,-0.00003968110104324296,-0.008363124914467335,0.007191600278019905
1761384925523033600,9.94803369140625,-0.0009052084642462432,-0.009952765889465809,0.003584881080314517
1761384925533102600,9.9581025390625,-0.0024594292044639587,-0.00971680972725153,0.0046267095021903515
1761384925543171300,9.96817138671875,-0.0031558459158986807,-0.007645136676728725,0.006148173473775387
1761384925553240600,9.978240478515625,-0.0018777948571369052,-0.007271495182067156,0.0034117756877094507
1761384925563308500,9.98830859375,-0.0011478224769234657,-0.008154332637786865,0.0026261431630700827
1761384925573377500,9.99837744140625,-0.0018157431622967124,-0.008624913170933723,0.004147074185311794
1761384925583446500,10.008446533203125,-0.00039521310827694833,-0.009387909434735775,0.003611512714996934
1761384925593515500,10.018515625,-0.0009190568816848099,-0.008087487891316414,0.0034290861804038286
1761384925603584500,10.02858447265625,-0.001931058126501739,-0.007604922633618116,0.004419249482452869
1761384925613653500,10.038653564453124,-0.0024945829063653946,-0.006835002917796373,0.006520483642816544
1761384925623722500,10.048722412109376,-0.00077631144085899,-0.00923451129347086,0.002014148747548461
1761384925633790500,10.05879052734375,-0.0022114890161901712,-0.006464557256549597,0.004628574009984732
1761384925643859700,10.068859619140625,-0.0024623586796224117,-0.0070802802219986916,0.0054578823037445545
1761384925653929000,10.078928955078124,-0.0028091021813452244,-0.002788063371554017,0.0030863373540341854
1761384925663998200,10.088998291015624,-0.0008375641773454845,-0.003993410151451826,0.009437976405024529
1761384925674067000,10.09906689453125,-0.002148105762898922,-0.005665342323482037,0.006191583350300789
1761384925684136200,10.10913623046875,-0.0019329222850501537,-0.001029311795718968,0.0023734092246741056
1761384925694204200,10.1192041015625,-0.0032589102629572153,-0.005679723806679249,0.004671184346079826
1761384925704273000,10.12927294921875,-0.0001776328426785767,-0.007642473094165325,0.004086087923496962
1761384925714342100,10.139342041015626,-0.0001549959706608206,-0.012191684916615486,0.002263953210785985
1761384925724411100,10.1494111328125,-0.0014231932582333684,-0.012016715481877327,0.002037850907072425
1761384925734480100,10.159480224609375,-0.001612544059753418,-0.0172069501131773,0.0023153522051870823
1761384925744549000,10.169549072265625,-0.001892175991088152,-0.017199493944644928,0.005759884603321552
