time,seconds_elapsed,z,y,x
1761232033530791400,0.08779150390625,-0.6503332092463969,0.12512830866426228,-1.2449812100194393
1761232033540861400,0.097861328125,-0.5931903493106365,0.0924804230377078,-1.2259032923229038
1761232033550930400,0.107930419921875,-0.5967617780566216,-0.07631459339559078,-1.018180287080258
1761232033561000400,0.11800048828125,-0.8298638469666242,-0.25167934360802174,-0.7557616689234972
1761232033571069400,0.1280693359375,-0.7987357182532548,-0.46356969766318795,-0.471746720508486
1761232033581139200,0.13813916015625,-0.5716010333150625,-0.5595025992423296,-0.2912624353252351
1761232033591208400,0.14820849609375,-0.45269466790556906,-0.5040139362543821,-0.2128318726889789
1761232033601277400,0.15827734375,-0.34793314770460126,-0.4177455195993185,-0.17757585039064286
1761232033611347500,0.168347412109375,-0.21979016739428042,-0.35350860974937676,-0.20792451916411517
1761232033621416400,0.17841650390625,-0.0037748423635959624,-0.2888669184908271,-0.2592497788622975
1761232033631486500,0.188486572265625,0.2467997548729181,-0.16316197898238896,-0.282115690664947
1761232033641555500,0.198555419921875,0.32640169937610625,-0.03199234432727098,-0.3082543405279517
1761232033651625500,0.20862548828125,0.2602116096317768,0.007546469856798649,-0.27425635546669364
1761232033661694500,0.218694580078125,0.20806524280905722,0.005402443565428257,-0.17375220044925807
1761232033671764500,0.228764404296875,0.27684827165603637,0.010565233156085013,-0.12962868882343173
1761232033681833500,0.23883349609375,0.4527911140173673,0.018973580539226532,-0.09395692533105611
1761232033691903200,0.2489033203125,0.5472913524448871,0.044290977147221564,-0.05856909334659576
1761232033701972500,0.258972412109375,0.5290139374762773,0.06515636278241872,-0.058699295597523446
1761232033712041500,0.26904150390625,0.43416415495872496,0.0802040020495653,-0.036997605268657204
1761232033722111500,0.279111572265625,0.5106605346620082,0.03515548453330993,-0.04533990167826414
1761232033732180500,0.289180419921875,0.6450771884143353,-0.015289631329476833,-0.10135171175748109
1761232033742250500,0.29925048828125,0.3829594529002905,0.04907470429241657,-0.16473828838840127
1761232033752319200,0.3093193359375,0.2321732636272907,0.08798048126995563,-0.16431567906215785
1761232033762389500,0.319389404296875,0.2603214997470379,0.12117489486336708,-0.21909823960736394
1761232033772458500,0.32945849609375,0.2236474273443222,0.20938597001880407,-0.29640491278022524
1761232033782528500,0.339528564453125,0.12743921595513819,0.25130963351279495,-0.35059754460826514
1761232033792597500,0.349597412109375,0.15077449883520602,0.2287134785622358,-0.39653263570070263
1761232033802666500,0.35966650390625,0.1811918489307165,0.19838614483773706,-0.4359996998228132
1761232033812736500,0.369736572265625,0.14718845704197883,0.17437457013130186,-0.4971745917536318
1761232033822805500,0.379805419921875,0.06012216800749302,0.18356325423717498,-0.4735388646222651
1761232033832875500,0.38987548828125,-0.027779987329244613,0.14530805012285708,-0.4117152995243668
1761232033842944300,0.3999443359375,0.02286006658375263,0.08705109146535396,-0.37160073127895593
1761232033853014500,0.4100146484375,0.15969079574048517,0.08759586586654186,-0.2936440697647631
1761232033863083300,0.420083251953125,0.17033961552679538,0.06355272697806358,-0.23999665072932838
1761232033873153500,0.430153564453125,0.16405483616888522,-0.021070845079421995,-0.19843188367560505
1761232033883222300,0.44022216796875,0.10070493828654288,-0.1019587377399206,-0.13026011859476566
1761232033893292500,0.45029248046875,0.07647416787147522,-0.14824585714042185,-0.038233430673927066
1761232033903361300,0.460361328125,0.13345862237513065,-0.1607446887075901,0.03559650629907846
1761232033913430500,0.470430419921875,0.18433014695644379,-0.1475210499972105,0.023927257423847912
1761232033923500500,0.48050048828125,0.3609843524575233,-0.11609247703254222,-0.0424070630967617
1761232033933569500,0.490569580078125,0.44010406640172,-0.13818214376568794,-0.061926002559065815
1761232033943639600,0.5006396484375,0.40928924142122264,-0.2378168224722147,-0.03567527062371373
1761232033953708300,0.510708251953125,0.33608781161010265,-0.3576215980261564,0.03642009764164686
1761232033963778600,0.520778564453125,0.23652736718356607,-0.4345926095038652,0.08106368761882185
1761232033973847300,0.530847412109375,0.24413375053405761,-0.43700434682071204,0.05097790756523609
1761232033983917600,0.54091748046875,0.3110883949100971,-0.3559124560207128,0.020227233862131832
1761232033993986300,0.550986328125,0.2657628140181303,-0.2537923902392387,0.018503186548501253
1761232034004059600,0.5610595703125,0.20652970380485056,-0.2045148568511009,0.0604440934382379
1761232034014129400,0.57112939453125,0.2114911256045103,-0.17489537913501263,0.11179974827468395
1761232034024198700,0.58119873046875,0.07490297303199768,-0.14437398414313793,0.19352175367176533
1761232034034268400,0.591268310546875,-0.051584056764841076,-0.16355273186564445,0.2550064422041178
1761232034044337400,0.60133740234375,-0.08423661856651306,-0.20152444286346435,0.29781916349232196
1761232034054407700,0.61140771484375,-0.19009002565741537,-0.2011170311063528,0.34385216200128194
1761232034064476400,0.621476318359375,-0.29168869791328905,-0.22404256414175033,0.3575568622268736
1761232034074546700,0.631546630859375,-0.3097007399439812,-0.1752665505349636,0.3000692805066705
1761232034084615400,0.641615478515625,-0.2717097397238016,-0.07380640996694564,0.22255013362690806
1761232034094684400,0.651684326171875,-0.36426936547756195,0.028754969841241835,0.12473565608486532
1761232034104754400,0.66175439453125,-0.3206260385841131,0.128911042073369,-0.07848667673766613
1761232034114823700,0.67182373046875,-0.14713117389678954,0.2783452322155237,-0.24685806093141435
1761232034124893400,0.6818935546875,-0.12416297076344489,0.4171493072718382,-0.3773281690150499
1761232034134962400,0.69196240234375,0.6044909110039473,0.6006020868718623,-0.4834121699914336
1761232034145032400,0.702032470703125,0.5182487978339195,0.6611398499429225,0.017365706951171157
1761232034155101400,0.712101318359375,-1.003982981032133,0.29318741203844545,0.48822044705599543
1761232034165171500,0.72217138671875,-0.17721943816840646,-0.38797932688891884,0.3663917644590139
1761232034175240400,0.732240478515625,0.017063363003730774,-0.30689795748293397,-0.06434796900898218
1761232034185310500,0.742310546875,0.146919576972723,-0.06728957541882992,-0.22344240629151463
1761232034195379500,0.75237939453125,0.22047464252710341,-0.027898060750961302,0.0384267612889409
1761232034205448400,0.762448486328125,0.038078093981742854,-0.06416355235278606,0.17493527275398374
1761232034215518500,0.7725185546875,0.3350830184817314,-0.12245090614855289,-0.031036651037633416
1761232034225587500,0.78258740234375,0.4231552696883678,-0.10890285778939723,-0.1332112234853208
1761232034235657500,0.792657470703125,0.10617898578345775,-0.17630056975781916,0.027086744368076322
1761232034245726500,0.8027265625,-0.1383931561678648,-0.44122284129858014,0.17519070881977677
1761232034255796500,0.81279638671875,0.02413666239082813,-0.6046557461768388,0.1603228100337088
1761232034265865500,0.822865478515625,0.04833528410196304,-0.43911271727681156,0.009957914912700653
1761232034275935500,0.832935546875,0.07705576715171336,-0.17295476646125316,-0.16721709959208964
1761232034286004500,0.84300439453125,0.24342589452564714,-0.02694996624588966,-0.30519524521827696
1761232034296073500,0.853073486328125,0.42349487690627574,0.03210135765969753,-0.36680706726163625
1761232034306143500,0.8631435546875,0.36621582337021824,-0.034169103844463825,-0.29900939619019623
1761232034316212500,0.87321240234375,0.38532559750974177,-0.18571867870539427,-0.13465017024725676
1761232034326282500,0.883282470703125,0.4212263474524021,-0.24345950453430412,0.04397168206498027
1761232034336351500,0.8933515625,0.47016544266641136,-0.268762288095057,0.1765985297910869
1761232034346421500,0.90342138671875,0.6858119343847036,-0.30945611753314733,0.32027269510179757
1761232034356490500,0.913490478515625,0.865631325918436,-0.384075597448647,0.45683103705793615
1761232034366560500,0.923560546875,0.9190332457602024,-0.5455149904221296,0.5930160156570374
1761232034376629500,0.93362939453125,0.7520113764792681,-0.7431552853286266,0.7278842125691473
1761232034386699500,0.943699462890625,0.6868716725707054,-0.9243465497374534,0.8833188121698796
1761232034396768500,0.9537685546875,0.5789461353808641,-0.937881738615036,0.9235501386627555
1761232034406837500,0.96383740234375,0.6333639542669057,-0.7905497814491391,0.7959541247107088
1761232034416907500,0.973907470703125,0.8493705114692449,-0.570456831716001,0.6029091947704553
1761232034426976500,0.9839765625,1.0402999105602502,-0.3073389792487025,0.4706212236098945
1761232034437046500,0.994046630859375,1.2650211046159268,-0.11716478243917226,0.561433859565854
1761232034447115500,1.004115478515625,1.278636957514286,-0.018130407713353634,0.7206270810477435
1761232034457185500,1.014185546875,1.0108879381150007,0.1676090215191245,0.8406091128647327
1761232034467254500,1.024254638671875,0.6606272242456674,-0.26636399478167294,1.3678408430993556
1761232034477324500,1.034324462890625,0.5238911876350641,-0.8024746125206351,1.1679678207047284
1761232034487393300,1.044393310546875,0.8010118464916944,-0.6616290947645902,1.1055101954869926
1761232034497462500,1.054462646484375,0.7121411383837462,0.030623978583514688,1.1879960248634218
1761232034507532500,1.064532470703125,0.7796849808245897,0.5975885842695832,1.355061148764193
1761232034517601500,1.0746015625,1.203657996636629,0.7092983161732554,1.5954498675510287
1761232034527671600,1.084671630859375,1.4913655159592627,0.5894456098243593,1.7355216244556009
1761232034537740500,1.094740478515625,1.5506453879237174,0.37477263931334015,1.823271073448658
1761232034547810600,1.104810546875,1.663091032886505,0.2707774273097515,1.8616982731290161
1761232034557879600,1.114879638671875,1.8664894529283045,0.3527668514713645,1.8633160835891962
1761232034567949600,1.124949462890625,1.9094611641705035,0.47890755204856394,1.8933172540992498
1761232034578018300,1.135018310546875,1.8335428766161201,0.2575046887606382,1.9494430459469556
1761232034588088600,1.145088623046875,1.257323535850644,-0.20312311023175716,2.052858412235975
1761232034598157300,1.1551572265625,0.5206698875010013,-0.7371633514374494,2.188638463295996
1761232034608226600,1.1652265625,0.026014731222391126,-1.1599772603422402,2.2805077686980364
1761232034618296300,1.17529638671875,-0.40253801359534264,-1.4454238489955662,2.23673847733736
1761232034628365600,1.185365478515625,-0.7177075403392315,-1.616749552950263,2.151949047193676
1761232034638435300,1.195435302734375,-0.934244843417406,-1.697493068704009,2.0277210483700037
1761232034648504600,1.205504638671875,-0.7818190702438355,-1.6944447870492934,1.6413181770175695
1761232034658574600,1.21557470703125,-1.9604221206009387,-1.669426665648818,1.0292810153525322
1761232034668643600,1.2256435546875,-1.8048025198221205,-2.279064876413345,1.2116764679193497
1761232034678713600,1.235713623046875,-2.4902649101167915,-2.4475638325095175,1.7180276149496434
1761232034688782300,1.2457822265625,-3.496841999295354,-2.286469015190005,1.7962275837004185
1761232034698852600,1.2558525390625,-3.3165281022429465,-2.2728291968941687,1.926226421010494
1761232034708921300,1.26592138671875,-2.975959930348396,-2.0548843651056288,1.7281971267864107
1761232034718990600,1.275990478515625,-2.6101976959645747,-1.8435010837897656,1.4418071198031306
1761232034729060400,1.286060302734375,-2.8467069429695604,-1.8141738670185208,1.3369300103984771
1761232034739129600,1.296129638671875,-3.278690246757865,-1.679215653735399,1.160791937725991
1761232034749199400,1.306199462890625,-3.2050773135364055,-1.495932677744329,0.596665258879587
1761232034759268600,1.3162685546875,-2.537075176608562,-1.1807833170056343,-0.021040011549741028
1761232034769338400,1.32633837890625,-2.0944564970374104,-0.8220350530371069,-0.4884697456419468
1761232034779407600,1.33640771484375,-1.4037754953116177,-0.702480452851951,-0.808698309341073
1761232034789477600,1.3464775390625,-0.5447668024033308,-0.4140206538572907,-1.051888203153759
1761232034799546400,1.35654638671875,0.22737433891296385,-0.15474749411940575,-1.2720159319393336
1761232034809615400,1.366615478515625,1.0933563779652118,0.022742577683925628,-1.348153269071877
1761232034819685400,1.376685302734375,1.9058219308853148,0.37304713069498535,-1.4357282382808625
1761232034829754600,1.386754638671875,2.6358050154298542,0.8277341414615511,-1.6391681593768297
1761232034839824400,1.396824462890625,3.3696582194060087,1.2723887107744811,-1.8637515523970125
1761232034849893600,1.4068935546875,4.262660367330908,1.4908207415580748,-1.7314901769824325
1761232034859963400,1.41696337890625,4.624139809828996,1.3932836196526883,-1.439576730402559
1761232034870032600,1.42703271484375,4.08292631599307,1.186358486789465,-1.2617470513813196
1761232034880102400,1.437102294921875,3.2556302736878395,1.0179939707279204,-1.0333516988575457
1761232034890171600,1.447171630859375,2.667719910606742,1.0312257927447557,-0.6723306676514447
1761232034900241400,1.457241455078125,2.5369647019714114,1.4180918976947665,-0.3751327047973871
1761232034910310400,1.467310302734375,2.6512042446136475,1.96599612134099,-0.31931758633404966
1761232034920379400,1.47737939453125,2.7871961848586797,1.9528379490822552,-0.4031980849392712
1761232034930449400,1.487449462890625,2.1332371863305566,1.0049944961622357,-0.6966704513989389
1761232034940518400,1.497518310546875,2.059551772394776,0.3581196106761694,-0.7320454239018261
1761232034950588400,1.50758837890625,1.1409610097050666,0.06291267550885676,-0.6801195679619908
1761232034960657700,1.51765771484375,-0.011460720691084862,0.03947334773242473,-0.8225736899584531
1761232034970727400,1.5277275390625,-0.7331243051797152,0.03635872284322977,-0.8315306111350655
1761232034980796700,1.537796630859375,-0.8844459165036678,-0.15337971289753913,-0.9612134412985295
1761232034990866400,1.547866455078125,-1.238147710737586,-0.22122341506779192,-1.1940918575204909
1761232035000935700,1.557935791015625,-2.122331761434674,-0.42351650421619413,-1.3132741172619162
1761232035011002000,1.568002197265625,-3.334626653513312,-0.7599737336605786,-1.364063662648201
1761232035021070800,1.57807080078125,-4.554925988349318,-1.3072709313243627,-1.214024273154512
1761232035031141000,1.58814111328125,-5.773672248524427,-1.4029238469183445,-1.2348530531063675
1761232035041209900,1.5982099609375,-6.183398712319136,-1.0526210474729538,-1.493910816527903
1761232035051279000,1.608279052734375,-6.153164902096987,-0.7661831096947193,-1.8952905999988316
1761232035061348900,1.618348876953125,-5.6398845403254025,-0.7760609451085329,-2.252158749309182
1761232035071418000,1.628418212890625,-4.909625561448931,-0.9331009340792894,-2.4487105183266102
1761232035081488000,1.63848779296875,-4.115249791970848,-1.124602580100298,-2.483219667780399
1761232035091557000,1.64855712890625,-3.2951953913569447,-1.4733663334101437,-2.384685643792152
1761232035101627000,1.658626953125,-2.5065181257814166,-1.7727116835564374,-2.262551110116392
1761232035111696100,1.668696044921875,-1.6182430063784121,-1.8695891725093126,-2.053962866346538
1761232035121766100,1.67876611328125,-0.8639058173000812,-1.7928291734337805,-1.7315753710478543
1761232035131835000,1.6888349609375,-0.3661871817976236,-1.7071546310186385,-1.206691226852685
1761232035141905200,1.6989052734375,-0.20006372266113756,-1.7268512651354073,-0.5021529646880925
1761232035151974000,1.708973876953125,-0.07103110003471375,-1.8658184217989444,0.18957663277518003
1761232035162043100,1.719043212890625,0.03936521118283272,-1.9066782554537056,0.600406820028089
1761232035172113000,1.72911279296875,0.12671382429003714,-1.6766063480198383,0.6824848357886075
1761232035182182100,1.73918212890625,0.5492787268698215,-1.130256660339236,0.42651195970512923
1761232035192252000,1.749251953125,1.304718908753991,-0.49125849957764145,0.14661826507174408
1761232035202321200,1.759321044921875,1.948753894639015,0.04325403531491756,-0.006107504828553646
1761232035212391000,1.769390869140625,2.391605798444152,0.5255687654584645,-0.035524142032477536
1761232035222460000,1.7794599609375,2.7814637786865233,0.9172253195554018,0.10770517243742943
1761232035232530000,1.789530029296875,3.0982799035936592,1.1638614082992076,0.39290341235287485
1761232035242599000,1.799598876953125,3.2963726184427737,1.3344821788549421,0.7036833258356898
1761232035252669200,1.809669189453125,3.5500936970114707,1.4833277554541826,1.0104695665724575
1761232035262738000,1.819738037109375,3.776330556327104,1.5710300043046475,1.293743633492291
1761232035272807000,1.829806884765625,3.8204695577830075,1.6629501631110906,1.5336328783243893
1761232035282877000,1.839876953125,3.7343788357824086,1.7345652005136012,1.7053702318198978
1761232035292946000,1.84994580078125,3.760073249009251,1.730367164301872,1.8008685413740575
1761232035303016000,1.860015869140625,3.6751404648721215,1.7732523663043975,1.7767432771600782
1761232035313085200,1.870085205078125,3.4141070174634454,1.9526924031317232,1.6293553520232438
1761232035323155000,1.880155029296875,3.138732325491309,2.1627590488910675,1.4712763753935694
1761232035333224000,1.890223876953125,2.885677017354965,2.2298615773051975,1.3583449927404523
1761232035343294000,1.9002939453125,3.0107787302732465,2.0950866116344926,1.3453301744751631
1761232035353363000,1.910363037109375,3.1786586776882406,1.8770114314645527,1.3783053923599422
1761232035363433000,1.920432861328125,3.245653069552779,1.5294015243649481,1.4842819874390958
1761232035373502000,1.930501953125,3.03180924334228,1.0756558861017227,1.6717682603389024
1761232035383572000,1.940572021484375,2.2470950361788273,0.5682178206175565,1.6154633125320077
1761232035393641000,1.950640869140625,0.864644652968645,-0.24457740264832972,1.5200475666947662
1761232035403710000,1.9607099609375,-0.5975374386042356,-1.3913316088020802,1.6470803938060998
1761232035413780000,1.970780029296875,-1.8393150302767753,-2.2242110041975973,1.9635595418438314
1761232035423849000,1.980848876953125,-2.8052923980414866,-2.24930920509696,2.189730788577348
1761232035433919000,1.9909189453125,-3.4266584560006854,-1.3475444895237683,2.0315252629585565
1761232035443988000,2.000988037109375,-3.7354490953624246,-0.17477087597250937,1.4484006728492675
1761232035454058000,2.01105810546875,-3.28793095331192,0.7042939320147037,0.6923699777260423
1761232035464127000,2.021126953125,-2.7212498407423493,1.3347498898804186,-0.10287514933194034
1761232035474197000,2.031197021484375,-2.515574123418331,1.6016069288760422,-0.6424139605544507
1761232035484266000,2.041265869140625,-2.782045962488651,1.4713035556614398,-0.6070976594362407
1761232035494336000,2.0513359375,-3.1230870125919576,0.8374749064922332,-0.1473435014732182
1761232035504405000,2.061405029296875,-3.2905408435493704,0.12727028912901878,0.18230927212070672
1761232035514474800,2.071474853515625,-3.052125470662117,-0.3369996657580137,0.36102088507562874
1761232035524544000,2.0815439453125,-2.6365491117954254,-0.62313599024117,0.4529845542302355
1761232035534613000,2.091613037109375,-2.263998240184784,-0.8509417063087225,0.46625674479007717
1761232035544683000,2.10168310546875,-1.8017472239047287,-1.0172019435673951,0.4300620534021407
1761232035554752000,2.111751953125,-1.4212030154526232,-1.0845932257950306,0.44477929167114194
1761232035564822000,2.121822021484375,-1.2702736183166503,-1.063616488739848,0.5805690604075789
1761232035574891000,2.13189111328125,-1.2330664619505405,-1.00766254632771,0.753938325953856
1761232035584961000,2.1419609375,-0.956371335029602,-0.9658803371310234,0.8952871170569211
1761232035595030000,2.152030029296875,-0.7851391545772552,-0.7496919936209917,0.9358274364337325
1761232035605100000,2.16210009765625,-0.6026566813141108,-0.4946937347233295,0.9638226008836179
1761232035615169000,2.1721689453125,-0.6053326225250959,-0.3572732229799032,0.9776703628417104
1761232035625238800,2.18223876953125,-0.701436204496026,-0.23676059141755101,0.92968674172163
1761232035635308000,2.19230810546875,-0.509439468434453,-0.008165770798921584,0.7776024754621088
1761232035645377000,2.202376953125,-0.16447569192945957,0.42747137932181356,0.525386979150772
1761232035655447000,2.212447021484375,0.2673684956490993,0.8633873463839292,0.2888504788126796
1761232035665515800,2.222515869140625,0.4853425535321235,1.1266069056600332,0.053967115976475175
1761232035675586000,2.2325859375,0.5867360586047172,1.218550445342064,-0.09975556513983756
1761232035685654800,2.24265478515625,0.719435387045145,1.0904998194903135,-0.2657892636336386
1761232035695725000,2.25272509765625,0.9858072728723287,1.1176333256095647,-0.413286019439809
1761232035705794000,2.2627939453125,1.1992390111505984,1.4482009124934672,-0.5958365164378657
1761232035715864000,2.272864013671875,1.3617945486724377,1.8333727807462215,-0.7078104887682944
1761232035725933000,2.28293310546875,1.5492740995705128,2.0515408998966214,-0.7000074868671595
1761232035736002800,2.2930029296875,1.8803619109362362,1.9603209983140228,-0.6056713164275511
1761232035746072000,2.303072021484375,2.1082927146881816,1.6972873169988392,-0.6128836589591578
1761232035756141800,2.313141845703125,1.8939146354705094,1.582825071516633,-0.7260554627720266
1761232035766211000,2.323211181640625,1.561265566137433,1.526311741656065,-0.8081761851631104
1761232035776279800,2.33327978515625,1.2318453957229851,1.316977501824498,-0.9103316875841468
1761232035786350000,2.34335009765625,0.7228472413152456,0.9834820447951554,-1.040374364035949
1761232035796418800,2.353418701171875,-0.0013514146089553833,0.7120505374908447,-1.2536515693396328
1761232035806489000,2.363489013671875,-0.8166735260039567,0.596257335665822,-1.4229948673054575
1761232035816557800,2.373557861328125,-1.397512343263626,0.5801788920462131,-1.5577382687941193
1761232035826628000,2.383628173828125,-1.8051590781748295,0.6198346106082201,-1.7465213035061955
1761232035836696800,2.39369677734375,-2.1640882516682147,0.7236456982165574,-2.057758459237218
1761232035846766800,2.403766845703125,-2.267836210912466,0.9377104737013577,-2.4576027037039396
1761232035856836000,2.413836181640625,-2.0767682801336047,1.2353051807880402,-2.8543121572762726
1761232035866905900,2.42390576171875,-1.7390040597438812,1.511398834684491,-3.1110417700111865
1761232035876975000,2.43397509765625,-1.5881728622853755,1.605915439724922,-3.1374259190678595
1761232035887043800,2.4440439453125,-1.5853624810397624,1.3974772719502448,-2.8735256840512156
1761232035897114000,2.454114013671875,-1.5626368544906377,0.9480658634990453,-2.3538876238159836
1761232035907182800,2.464182861328125,-1.4428046064078808,0.4879325700253248,-1.8334882238194345
1761232035917253000,2.474253173828125,-1.1336293516427278,0.1501005450963974,-1.3493088688477872
1761232035927321900,2.48432177734375,-0.6202566354125738,-0.18894611631929872,-0.8492652975291013
1761232035937391900,2.494391845703125,-0.03240180191099643,-0.5925725096732377,-0.3343505394887179
1761232035947460900,2.5044609375,0.4534036929577589,-0.9406570485472678,0.1769516540776938
1761232035957531000,2.51453076171875,0.8140905237734317,-1.2925941711962223,0.6529598314229399
1761232035967599900,2.524599853515625,0.8350836274415254,-1.7147317882746458,0.996493209798634
1761232035977670000,2.534669921875,0.48441959346830843,-2.1600790160268546,1.2269547010719775
1761232035987739100,2.5447392578125,-0.08798398840129375,-2.567083945903182,1.3927274470746516
1761232035997809000,2.554808837890625,-0.540234419670701,-2.8615824405401944,1.2969126189172266
1761232036007877400,2.56487744140625,-0.588021422240138,-2.7063819419562813,0.8666659296631812
1761232036017947400,2.574947509765625,-0.5553536628693342,-1.9172639468759298,0.426386762422882
1761232036028016400,2.585016357421875,-0.7213035190045833,-0.9708943659007548,0.019045915123075245
1761232036038085400,2.59508544921875,-0.826895060288906,-0.25064707795083524,-0.2792202249517664
1761232036048155600,2.60515576171875,-0.8514765438377857,0.22501228595674036,-0.44833212531451133
1761232036058224400,2.615224365234375,-0.7001981871336698,0.46834641054570675,-0.5711609979299828
1761232036068294400,2.62529443359375,-0.3070715604841709,0.6865098535209894,-0.6497254526115953
1761232036078363400,2.63536328125,0.014191606959700584,0.8891565784126519,-0.6421694112088531
1761232036088433400,2.645433349609375,0.40355625072717666,0.9658768299996853,-0.5376530248753726
1761232036098502400,2.65550244140625,0.9510995321065187,0.9806640647649765,-0.3858650746813044
1761232036108572400,2.665572509765625,1.556875222223997,1.0242746584326028,-0.29778566308151927
1761232036118641400,2.675641357421875,2.179643548196554,1.0982950034111738,-0.21666246382780371
1761232036128711400,2.68571142578125,2.639583364924788,1.1672592340439558,-0.10736965687274933
1761232036138780400,2.695780517578125,2.830163219925761,1.1617191355735064,0.035215032700821755
1761232036148850400,2.705850341796875,2.9352345367282626,1.0910270582348107,0.16395860925279557
1761232036158919400,2.71591943359375,3.1318460731089113,1.0739753856688736,0.2018156078297645
1761232036168988400,2.725988525390625,3.3867531465917824,1.1671528510600329,0.1193348199546337
1761232036179058400,2.736058349609375,3.694388186177611,1.3391460790127514,-0.047840340191870924
1761232036189127400,2.74612744140625,3.8798891304790972,1.475292333036661,-0.22868059920594094
1761232036199197400,2.756197509765625,3.8059862744003534,1.4438245971053838,-0.2540816555093974
1761232036209266400,2.766266357421875,3.486658458933234,1.125331478896737,-0.11800978189595043
1761232036219336400,2.77633642578125,3.148751030680537,0.7120832707166671,0.09113010440729558
1761232036229405400,2.786405517578125,2.9436557435929775,0.28392040199935437,0.38611915904022753
1761232036239475500,2.796475341796875,2.583098092114925,-0.1187251636236906,0.728852400014177
1761232036249544400,2.80654443359375,1.6511311305016279,-0.4385369632154703,0.9022233460608869
1761232036259614500,2.816614501953125,0.41085809817314145,-0.642360330671072,0.767068148900941
1761232036269683500,2.826683349609375,-0.6076777243465185,-0.7770493716239929,0.6341229559406638
1761232036279753500,2.83675341796875,-1.6968319744467735,-0.9201923526674508,0.9226071587242185
1761232036289822500,2.846822509765625,-2.8489152666687962,-1.002457378900051,1.3373650408148765
1761232036299892500,2.856892578125,-3.5359698945909734,-0.8117243791639804,1.5833391585186123
1761232036309961500,2.86696142578125,-3.950081441602111,-0.504493244203925,1.5350843923069535
1761232036320030500,2.877030517578125,-4.129852902340889,-0.08756371716260909,1.1984678806476294
1761232036330100500,2.8871005859375,-4.132399079692363,0.30471009204983707,0.7160771626584231
1761232036340169500,2.89716943359375,-3.804816061577201,0.4835480713307857,0.2953566458363086
1761232036350239500,2.907239501953125,-3.591025426858663,0.4971931503236294,0.11267886919677257
1761232036360308500,2.91730859375,-3.5627012496501207,0.2097176861912012,0.37969635945111513
1761232036370378500,2.92737841796875,-3.5352936027646065,-0.21008476593792438,0.785616343634948
1761232036380447500,2.937447509765625,-3.3226305107712744,-0.42999476031959055,1.0132913459949195
1761232036390517500,2.947517578125,-2.8977918180406093,-0.6489069758355617,1.1280338697232306
1761232036400586200,2.957586181640625,-2.644329098147154,-0.8907669362187385,1.062243739081919
1761232036410656500,2.967656494140625,-2.310329783248901,-1.0817086102694273,0.9629839581023901
1761232036420725200,2.977725341796875,-2.0294933187395334,-1.247886429941654,0.8576236682906746
1761232036430795500,2.98779541015625,-1.6559756479233503,-1.2827303643077612,0.7490148250117897
1761232036440864300,2.9978642578125,-1.1488859574854373,-1.0470762728273868,0.5819148489933461
1761232036450933500,3.00793359375,-0.6249585294932126,-0.5143932914495468,0.41681284185908735
1761232036461003500,3.01800341796875,-0.04932137252986431,0.102068043333292,0.3600659955035895
1761232036471072500,3.028072509765625,0.5616448719680309,0.6167009887576103,0.33663543555550274
1761232036481142500,3.038142578125,1.1404536447048186,0.9936568173289299,0.349328693716228
1761232036491211500,3.04821142578125,1.6288602619826793,1.1454057141542433,0.34341209008358414
1761232036501281500,3.058281494140625,2.028795984125137,1.1115391003876924,0.286364653346315
1761232036511350300,3.068350341796875,2.2121996638864276,0.9902432094931601,0.26475473295412955
1761232036521420500,3.078420654296875,2.297689497384429,0.9150848003953694,0.23240634173080324
1761232036531489300,3.0884892578125,2.5413749196290967,1.05333650226593,0.03313252733834088
1761232036541559600,3.0985595703125,2.945560115909576,1.3968798905789852,-0.1953903970878571
1761232036551628300,3.108628173828125,3.339903132611513,1.7468582803755996,-0.2725954365171492
1761232036561698600,3.118698486328125,3.6019688456773755,1.843099809512496,-0.16591668451800942
1761232036571767300,3.128767333984375,3.654039224654436,1.6503934638768434,0.09705803315155208
1761232036581836500,3.13883642578125,3.5130268258988857,1.3482956001520157,0.5036489388668909
1761232036591906600,3.148906494140625,3.311010215604305,1.068299678120017,0.9274771028481423
1761232036601975600,3.1589755859375,3.129836486852169,0.6263228035837412,1.2706347067140042
1761232036612045600,3.169045654296875,3.1896728236556053,-0.19561551108062267,1.4560916657432912
1761232036622114300,3.1791142578125,3.3676603235870597,-1.2172656662285328,1.472013019105047
1761232036632184600,3.1891845703125,2.6233827562302348,-2.3985499184936283,1.0029164477791637
1761232036642253300,3.19925341796875,0.764990100517869,-3.1526030299335717,-0.018381605995446443
1761232036652323600,3.209323486328125,-0.9437398169934749,-3.1643273699969052,-0.5613457794236019
1761232036662392300,3.219392333984375,-2.347161676561832,-2.7309014661848545,-0.7544738210700452
1761232036672462300,3.22946240234375,-3.832805892264843,-1.8101906426012515,-0.6999464043296874
1761232036682531300,3.23953125,-4.065381891474128,-0.08996785569489002,-0.7149670094594359
1761232036692601300,3.249601318359375,-3.364229764616489,1.7481781308025122,-0.8693603563789277
1761232036702670300,3.25967041015625,-2.826315896847844,2.7802824599474665,-0.9846649709694086
1761232036712739600,3.269739501953125,-2.424090017941594,3.317486718142032,-1.0836062605842947
1761232036722809600,3.2798095703125,-2.2956705587774513,3.80203841355741,-1.0097307309038936
1761232036732878300,3.28987841796875,-1.877775401574373,3.3694758485764265,-0.5013198748648167
1761232036742948600,3.299948486328125,-1.9142226794838904,1.6896967157393692,0.18748612676933407
1761232036753017300,3.310017333984375,-2.5409295139491554,-0.5744055693417788,0.5623823924623429
1761232036763087600,3.320087646484375,-2.571018947264552,-2.0920675560742614,0.5878333523221314
1761232036773156400,3.33015625,-0.9424480236172675,-2.667420635399222,0.37403175781816245
1761232036783226400,3.340226318359375,1.2095207511901855,-3.0722289320141076,0.3409359822936356
1761232036793295400,3.35029541015625,2.3432196609377858,-3.676365038231015,0.664829936632514
1761232036803365400,3.360365478515625,2.246050495561957,-4.669401093313097,1.1089023952085524
1761232036813434400,3.370434326171875,1.5888181744515895,-5.519413994339108,1.2323305488914251
1761232036823504400,3.38050439453125,1.0046107575416565,-5.455844900748134,0.9017064095146954
1761232036833573400,3.390573486328125,0.5944137536257506,-4.468875598359108,0.5105806012935936
1761232036843643400,3.400643310546875,0.20666882001459597,-3.3852678764700888,0.37434378290940074
1761232036853712400,3.41071240234375,-0.15398410853147507,-2.7201445098489523,0.5562708507794887
1761232036863781400,3.420781494140625,-0.2937579054027796,-2.378137829583883,0.8981202215909957
1761232036873851600,3.4308515625,-0.44131051958203316,-1.7949293605834244,1.1146239146605132
1761232036883920400,3.44092041015625,-0.6130138246774673,-0.8858148667693138,1.0465366129927336
1761232036893990400,3.450990478515625,-0.5720610520422458,0.14919628973305224,0.9882203253634273
1761232036904059400,3.461059326171875,-0.4045429236769676,1.0933183840423821,0.9992536874879151
1761232036914129400,3.47112939453125,-0.0731850631982088,1.6949989138007162,0.9506558069270103
1761232036924198400,3.481198486328125,0.43442602076530457,1.9605770189017055,0.8723852571580558
1761232036934268400,3.491268310546875,0.7811328415453433,2.017912186539173,0.8165841672200709
1761232036944337400,3.50133740234375,0.8675245923191308,1.946197195893526,0.7550242214944213
1761232036954407400,3.511407470703125,1.0996323894947766,1.8538959288150072,0.7504268107015639
1761232036964476400,3.521476318359375,1.4840999088704585,1.8456103310286998,0.7485089943815022
1761232036974546400,3.53154638671875,1.8577350685864686,1.9235025490045545,0.6817005535431205
1761232036984615400,3.541615478515625,2.130834801363945,2.068000451788306,0.5562263540506363
1761232036994685400,3.551685546875,2.4447628036141396,2.267275069898367,0.41790195227004584
1761232037004754400,3.56175439453125,2.6864941691815853,2.3708114322185514,0.3858456758610904
1761232037014823700,3.57182373046875,2.6947856121867892,2.353461068966985,0.47347252138778567
1761232037024893700,3.581893798828125,2.4670962159752845,2.179994261330366,0.6291451675280928
1761232037034962700,3.591962646484375,2.15730896679163,1.9464374343901871,0.7641166786842047
1761232037045032700,3.60203271484375,2.0034838482141493,1.8959353276431559,0.8442053107257932
1761232037055101700,3.612101806640625,1.8409768260091541,2.017007346653938,0.8648344764523208
1761232037065171700,3.622171630859375,1.4405290626913307,2.0973989802300927,0.9183305043183266
1761232037075240700,3.63224072265625,1.0810942777633665,2.173405530589819,0.9285789266102016
1761232037085310700,3.642310791015625,0.9058820877641439,2.2162772885888815,1.003995109861344
1761232037095379700,3.652379638671875,0.4525719183087349,2.073472745719552,1.1245729156143962
1761232037105449700,3.66244970703125,-0.041408699709177016,1.6894757664650677,1.238418052111566
1761232037115518500,3.6725185546875,-0.49600364827811716,1.134472232207656,1.364013101504743
1761232037125588700,3.682588623046875,-1.1305343082368373,0.5760486603736877,1.4821210100129245
1761232037135657700,3.69265771484375,-1.7433768680006265,0.18308394628763197,1.5864641586713493
1761232037145727700,3.702727783203125,-2.1246330241143703,0.12793021434247492,1.5742593416146933
1761232037155796700,3.712796630859375,-2.3641917218178508,0.46860710730850696,1.2664169428884982
1761232037165865700,3.72286572265625,-2.8047143058925865,0.8432441375434399,0.801415458856523
1761232037175935700,3.732935791015625,-3.1495114936590194,0.9740659816741942,0.3626527240611613
1761232037186004700,3.743004638671875,-3.3694401927411555,0.9287678733110427,-0.06493207077356054
1761232037196074800,3.75307470703125,-3.7152217153698204,0.7972562933504581,-0.4034447531767189
1761232037206143700,3.763143798828125,-4.0270688196927305,0.5594464851409197,-0.6497723604932427
1761232037216213800,3.7732138671875,-4.005778778904676,0.3993260658115148,-0.7690906677044927
1761232037226282500,3.783282470703125,-3.3609897597819565,0.33232056803107257,-0.7772267740175127
1761232037236352800,3.793352783203125,-2.4134546421587464,0.2406564298123121,-0.6353424877982586
1761232037246421500,3.80342138671875,-1.4185112921506167,0.1227905133664608,-0.3283719765357673
1761232037256491800,3.81349169921875,-0.7769979336977004,-0.20889117223918438,-0.008433189563453196
1761232037266560800,3.823560791015625,-0.7490887670308352,-0.942919148260355,0.5642044933229684
1761232037276630500,3.833630615234375,-1.209012801668048,-2.110601576152444,1.2740537213772534
1761232037286699800,3.84369970703125,-1.7657026815772054,-3.3312913716107606,1.711489737613499
1761232037296768800,3.853768798828125,-1.9649381367206573,-3.960459627753496,1.5680897130690514
1761232037306838800,3.8638388671875,-1.6274164929151533,-3.42612771012485,0.9198262227687984
1761232037316907500,3.873907470703125,-1.131726732891798,-2.234235554605722,0.4037533442018553
1761232037326977800,3.883977783203125,-0.9123463153421878,-1.2032418170511723,-0.0034621962178498504
1761232037337046500,3.894046630859375,-0.5219809700995683,-0.5250193148821592,-0.16463369550276546
1761232037347116800,3.90411669921875,-0.1781628564983606,0.1082329957038164,-0.15928418770097194
1761232037357185500,3.914185546875,0.09237608588039875,0.8094269158765673,-0.050312246730737385
1761232037367255800,3.924255859375,0.5208844070345163,1.2829440070584415,0.2640145090460777
1761232037377324500,3.934324462890625,0.8489291974425316,1.3126263208776712,0.6736375124663114
1761232037387394600,3.94439453125,0.8881944553822279,1.0052058008253575,1.0387166599567978
1761232037397463800,3.9544638671875,0.8197790908038616,0.6361454016789794,1.3995070242121814
1761232037407533600,3.964533447265625,0.8654974704056978,0.3866784734234214,1.6582295643299818
1761232037417602800,3.974602783203125,0.9053507573664188,0.33194355141222476,1.6674278930470345
1761232037427672600,3.984672607421875,1.0214958413690327,0.4576297862201929,1.3809797261357306
1761232037437741800,3.994741943359375,1.1344576191604137,0.8008937730699777,0.8770457232497632
1761232037447810600,4.004810546875,1.3534580974817276,1.2119874335646628,0.34080154225900766
1761232037457880800,4.014880859375,1.8684826725721357,1.5330027637273071,-0.1944673639588058
1761232037467949600,4.024949462890625,2.3269898261487483,1.7700097311213612,-0.8132111105903983
1761232037478019800,4.035019775390625,2.431544425600767,1.9197487494289873,-1.3750181873828171
1761232037488088600,4.045088623046875,1.919327893668413,1.7919570667743683,-1.621709367314726
1761232037498158600,4.05515869140625,0.8652455414712429,1.3099310904443264,-1.6433071588777004
1761232037508227600,4.0652275390625,-0.23514146578311917,0.9455407289355993,-1.6350614547103643
1761232037518297600,4.075297607421875,-1.0139864886522292,1.043347607693076,-1.6663804298207163
1761232037528366800,4.085366943359375,-1.8002549395203589,1.4104127413690088,-1.7066173092715442
1761232037538436600,4.0954365234375,-2.044458832681179,1.944085902827978,-1.8008537821963428
1761232037548505900,4.105505859375,-1.520423852661252,2.7400977490752934,-2.164505600297451
1761232037558575600,4.11557568359375,-0.673205550789833,3.5690123324930667,-2.8640757186606525
1761232037568644900,4.125644775390625,0.32609190277457234,4.014763757131994,-3.538796934710443
1761232037578714600,4.135714599609375,1.3660381775915622,3.7718431817799805,-3.771191147612035
1761232037588783600,4.14578369140625,2.246290149536729,2.8379642490655184,-3.3294600645303722
1761232037598852600,4.1558525390625,2.5346336286753415,1.2415163103878497,-2.2003983130641283
1761232037608922600,4.165922607421875,2.1771137374579905,-0.6670616412073374,-0.8802380895502865
1761232037618991600,4.17599169921875,1.7146236517250537,-2.241830539779365,0.2823787985805422
1761232037629061600,4.1860615234375,1.6882079384863375,-3.3128003138914703,1.1632096663922071
1761232037639130600,4.196130615234375,1.9036539391964673,-3.9798096403896808,1.5935241601854562
1761232037649200600,4.20620068359375,1.7539678201198576,-4.333766578428447,1.6433096430957317
1761232037659269600,4.21626953125,1.308592535316944,-4.416267459243536,1.4035399329900742
1761232037669339600,4.226339599609375,0.9072083679318428,-4.1008536023497575,1.102911045839265
1761232037679409000,4.236408935546875,0.16691022560000418,-3.5833556228831407,0.8924849191177636
1761232037689478700,4.246478759765625,-0.8970844488024711,-3.0801290376141663,0.6465495990544557
1761232037699547600,4.256547607421875,-1.7652368176311253,-2.5958859697565435,0.4165104248464107
1761232037709617700,4.26661767578125,-2.4227087927162647,-2.1264707609355447,0.31529351844973863
1761232037719686700,4.276686767578125,-2.98346811402142,-1.642098513740301,0.2964968653799966
1761232037729756700,4.286756591796875,-3.15823840547204,-1.0733084461927413,0.24536482669897375
1761232037739825700,4.29682568359375,-2.8132804741859436,-0.40045039366632695,0.011686273075267671
1761232037749894700,4.306894775390625,-2.1230565685778857,0.030631869629025456,-0.3084029917510226
1761232037759964700,4.316964599609375,-1.2561819646000862,0.065873863402009,-0.5251024996535852
1761232037770033700,4.32703369140625,-0.25148645138442516,-0.07697042695581913,-0.5950133634867146
1761232037780103700,4.337103759765625,0.42300095590949055,-0.015588029754161833,-0.6458900391671806
1761232037790172700,4.347172607421875,0.6356985346943139,0.4588336090520024,-0.6627532764889299
1761232037800242700,4.35724267578125,0.7964841399341821,0.9987558940336108,-0.45351617688890544
1761232037810311700,4.367311767578125,1.0384493142575024,1.336668582983315,-0.174929482334014
1761232037820381700,4.377381591796875,1.2394932801276444,1.5732999950632451,0.038384538715565575
1761232037830450700,4.38745068359375,1.3215034548163413,1.8277695539116858,0.10644757359176873
1761232037840520700,4.397520751953125,1.3144909457057714,2.1391589775949713,0.05610409147255122
1761232037850589700,4.407589599609375,1.1787538570046425,2.413985680295527,0.024668321582116185
1761232037860659700,4.41765966796875,1.0701333232879637,2.573245975664258,-0.06099884124416858
1761232037870728700,4.427728759765625,1.1310481029778718,2.6086872914016244,-0.017123568758368492
1761232037880797700,4.437797607421875,1.1997966450333595,2.210612686955929,0.32016653131358325
1761232037890867700,4.44786767578125,1.0089788896232843,1.52505268150568,0.736825643915683
1761232037900936700,4.457936767578125,0.6981377474725246,0.9953346874132751,1.0678575603757052
1761232037911006700,4.4680068359375,0.2640951730668545,0.7694277907043695,1.2117331665426492
1761232037921075500,4.478075439453125,0.0647328766733408,0.6853060306891798,1.1522919665366411
1761232037931145700,4.488145751953125,0.020968553748726842,0.54498278324157,1.030740347315371
1761232037941214700,4.498214599609375,0.051746553850173946,0.22542349710613488,1.0776629150751977
1761232037951284700,4.50828466796875,-0.12418401355147361,-0.22949001589268445,1.1967551584456115
1761232037961353700,4.518353759765625,-0.6178542504459619,-0.5444534986704588,1.1841475327417255
1761232037971423700,4.528423828125,-0.996204163724184,-0.6839116537213326,0.9628918228395282
1761232037981492700,4.53849267578125,-1.3435662335425615,-0.6183762284934521,0.5698766206752508
1761232037991562500,4.5485625,-1.7581255243211984,-0.2274631862401962,0.2078713276721537
1761232038001631700,4.5586318359375,-2.09063489292264,0.3930833720296621,-0.1058046725783497
1761232038011701200,4.568701171875,-2.4781039322018623,1.0757862344831228,-0.2516800011951476
1761232038021770200,4.578770263671875,-2.7634014677733183,1.5070277799934149,-0.05107596111223101
1761232038031840300,4.58884033203125,-3.1079572479993103,1.4159902492403984,0.3732090432584286
1761232038041909500,4.598909423828125,-3.4392566562891003,1.043261975236237,0.6897728008396923
1761232038051978200,4.608978271484375,-3.4921558873057363,0.7036693703755736,0.7929305391058326
1761232038062048500,4.619048583984375,-3.2069699954152107,0.5269619733825326,0.7640969510704279
1761232038072117200,4.6291171875,-2.7266034767299887,0.4068666904494166,0.6856244489885867
1761232038082187500,4.6391875,-2.0573498784363267,0.28746581952124833,0.7200326222859322
1761232038092256300,4.64925634765625,-1.5354431426167487,0.17549772894233465,0.8839370901986956
1761232038102326300,4.659326171875,-1.2880764015108346,-0.017029752995073793,1.0297286860547958
1761232038112395300,4.669395263671875,-1.449941618680954,-0.26242694759368895,1.2923141852110624
1761232038122465300,4.67946533203125,-1.749509671667218,-0.5615262140244245,1.489633139208704
1761232038132534300,4.6895341796875,-1.81386728528738,-0.8404416473433375,1.328879390411824
1761232038142604300,4.699604248046875,-1.5770722070783376,-0.8274412959948182,0.8972590747170149
1761232038152673300,4.70967333984375,-1.2961053941875695,-0.5806497244283556,0.4886508743625134
1761232038162742300,4.7197421875,-0.891993263143301,-0.2582145905956626,-0.025677096765860913
1761232038172812500,4.7298125,-0.49415246745347974,0.24833704744279383,-0.5384030395250767
1761232038182881300,4.73988134765625,-0.333379137173295,0.9319146469041705,-0.7960710290886461
1761232038192951600,4.74995166015625,-0.2506827337861061,1.3357324711769818,-0.7495397256687283
1761232038203020300,4.760020263671875,-0.05108896672427654,1.3506228740558028,-0.5856609767191112
1761232038213090300,4.77009033203125,0.4273334321558475,1.3436270238190888,-0.43348450213149187
1761232038223157500,4.780157470703125,1.0250918200343846,1.4552905784934758,-0.23669439431354403
1761232038233227300,4.790227294921875,1.4920371316105125,1.5111743782788514,0.0023811229828745125
1761232038243296500,4.800296630859375,1.755446075978875,1.4160063235923648,0.3131481769841164
1761232038253366500,4.810366455078125,1.879493311408162,1.2794599643349647,0.5601555101931095
1761232038263435300,4.820435302734375,2.006881089437008,1.255031333260238,0.6597869740292429
1761232038273505500,4.830505615234375,2.222632210573554,1.3316019472435117,0.5585816484725102
1761232038283574300,4.84057421875,2.3498808723926543,1.4914248449310659,0.24095986973829567
1761232038293644500,4.85064453125,2.4630378804951905,1.6706567919656634,-0.09273607829920948
1761232038303713300,4.86071337890625,2.6495143918305635,1.684372890368104,-0.3033153497558087
1761232038313782500,4.870782470703125,2.625216401398182,1.456116507923603,-0.37318924257941544
1761232038323852300,4.880852294921875,2.3699814111351967,1.0636027524754403,-0.25149291765782983
1761232038333921500,4.890921630859375,2.056249223718047,0.5076403100579977,-0.08663673851080238
1761232038343991300,4.9009912109375,1.6522615958362816,-0.05515840812027454,0.04661974888835102
1761232038354060300,4.911060302734375,1.0417653069376944,-0.5709905002012848,0.16884681968577206
1761232038364130300,4.92113037109375,-0.16105974600613115,-0.8940881895959377,0.13634930231533943
1761232038374199300,4.93119921875,-1.4884616112112998,-0.8733513987764716,-0.2872173246528953
1761232038384269300,4.941269287109375,-2.5507389603018757,-0.5225272058054804,-0.9465975445121526
1761232038394338300,4.95133837890625,-2.993879033398628,-0.039918168890476224,-1.569415554845333
1761232038404408600,4.96140869140625,-2.8584190080732106,0.2684194660067558,-2.146574952939898
1761232038414477300,4.971477294921875,-2.160769336378574,0.1719546495079994,-2.6826123593121767
1761232038424547300,4.98154736328125,-1.524403862208128,-0.046671734803915024,-3.0340187360852955
1761232038434616300,4.9916162109375,-1.4248194523841142,-0.14357202011048792,-3.048238400095701
1761232038444686300,5.001686279296875,-1.4879916556119919,-0.3817003927499056,-2.525263158261776
1761232038454755300,5.01175537109375,-1.4507248780131339,-0.7962824798822402,-1.7863189147569238
1761232038464824300,5.02182421875,-0.9881745865255593,-1.1491571756422518,-1.1272855355739593
1761232038474894300,5.031894287109375,-0.4089133938461542,-1.3864222094506025,-0.63259603863433
1761232038484963300,5.04196337890625,0.35382454383075235,-1.6704443182587623,-0.11884681724198162
1761232038495033300,5.052033447265625,0.9670008655935526,-2.183617712524533,0.3863461727291345
1761232038505102300,5.062102294921875,0.9095277507901192,-2.776948931610584,0.6771402598902583
1761232038515172400,5.07217236328125,0.6261152983129025,-3.130377754122019,0.6000147154379636
1761232038525241300,5.082241455078125,0.7207686814755201,-3.09458572525084,0.1360035210849717
1761232038535311400,5.092311279296875,0.8919400716513395,-2.7977707703649997,-0.4910206357011571
1761232038545380400,5.10238037109375,0.9459382038205861,-2.396169160836935,-0.9682898824907838
1761232038555450400,5.112450439453125,0.9750836342841386,-1.7409142772793769,-1.1867828496813773
1761232038565519400,5.122519287109375,1.161587618148327,-0.6094190150558948,-1.224424890333414
1761232038575589400,5.13258935546875,1.352065766340494,0.5488759912878275,-1.129853559431061
1761232038585658400,5.142658447265625,1.402991651457548,1.313991764011979,-0.9982389574874192
1761232038595728400,5.152728271484375,1.2955565281331538,1.6700012506663797,-0.8562279761485755
1761232038605797400,5.16279736328125,1.2479209167331455,1.7254755928680299,-0.8468474227324128
1761232038615866400,5.172866455078125,1.359313253250718,1.6960294258922337,-0.9964129841692745
1761232038625936400,5.182936279296875,1.7596785989820956,1.7062421923488378,-1.1114440425153822
1761232038636005400,5.19300537109375,2.2635791379898786,1.690157903510332,-1.1545542123802006
1761232038646075100,5.2030751953125,2.5466332785487173,1.67130648804605,-1.1808926956642418
1761232038656144400,5.213144287109375,2.8516695338129994,1.7170599389612673,-1.1257814146213232
1761232038666214400,5.22321435546875,3.0308178942173716,1.796351502341032,-0.8450013564743101
1761232038676283400,5.233283447265625,2.979393996450305,1.8230156373828648,-0.3763680918112397
1761232038686353400,5.243353515625,3.0202023921787737,1.7875801668643951,0.14136048154085873
1761232038696422400,5.25342236328125,3.126878806090355,1.7586732213318348,0.566256019025296
1761232038706492400,5.263492431640625,3.1421237214952704,1.765674040004611,0.8651056946091353
1761232038716561400,5.2735615234375,3.1083921322852373,1.7409218760639429,1.0784444208417088
1761232038726631400,5.28363134765625,2.745074952965975,1.7987351826071738,1.007106666010618
1761232038736700400,5.293700439453125,2.15557352130115,2.026967015132308,0.8344726559363305
1761232038746770400,5.3037705078125,1.63956402682662,2.122546280968189,0.7069212117783725
1761232038756839200,5.313839111328125,1.119391567453742,1.9157365911781787,0.6933967634905129
1761232038766908400,5.323908447265625,0.48091947639286514,1.4529782098978756,0.8970219780255109
1761232038776978200,5.333978271484375,-0.10878069271445273,0.8037327958881855,1.0571285149600356
1761232038787047400,5.34404736328125,-0.49707624594569205,0.14052958367466925,1.079651604674384
1761232038797117400,5.354117431640625,-0.9644856679022311,-0.37536534450948233,1.0688159570790827
1761232038807186400,5.3641865234375,-1.4689619609713553,-0.759965550354123,1.0403349088083953
1761232038817257500,5.374257568359375,-1.9196569794923066,-1.0291425567299126,1.0026537782549858
1761232038827327200,5.3843271484375,-2.3746833052158354,-1.0942144560992717,1.0550067005004733
1761232038837396500,5.394396484375,-3.130737235084176,-0.9066431352645158,1.1660190247245132
1761232038847465200,5.40446533203125,-3.718741121667623,-0.5795657285839318,1.0989853237628937
1761232038857535500,5.414535400390625,-3.900579451808333,-0.18836100990772245,0.8389907909478992
1761232038867604200,5.424604248046875,-3.9344939963698384,0.030421441748738287,0.5993972411267459
1761232038877674200,5.43467431640625,-3.9990602843046186,0.012484218519926071,0.4180214869964868
1761232038887743500,5.444743408203125,-3.9587931558459997,-0.03869797944575548,0.31842626351751385
1761232038897813200,5.454813232421875,-3.7775820176929233,-0.09065466891527175,0.2699189107842743
1761232038907882500,5.464882568359375,-3.519635430383682,-0.21754443429410456,0.1452162801861763
1761232038917952300,5.4749521484375,-3.1969886996269223,-0.41024990314692256,0.09494564410746097
1761232038928021500,5.485021484375,-3.027544571635127,-0.6174924313962459,0.2987599514737725
1761232038938091300,5.49509130859375,-2.9866788927614687,-0.8127461234271526,0.5437647857539355
1761232038948160500,5.505160400390625,-2.7232459829956293,-0.9503726791366934,0.6517755170091987
1761232038958230300,5.515230224609375,-2.382780102431774,-1.0649997597917913,0.7092937130633741
1761232038968299300,5.52529931640625,-2.065526170629263,-1.318926590065658,0.7184830547563731
1761232038978369500,5.53536962890625,-1.7363842326343057,-1.800200578984618,0.7242818772282451
1761232038988438300,5.545438232421875,-1.412725109964609,-2.2104598344817754,0.7018537723209709
1761232038998507300,5.55550732421875,-1.23079208727777,-2.2459078722208736,0.5603932644717395
1761232039008577300,5.565577392578125,-1.0147095422297716,-1.8385621660828588,0.3380927216917276
1761232039018646500,5.575646484375,-0.6027981356114148,-1.1511945266887544,0.0623836466660723
1761232039028716300,5.58571630859375,-0.07525543973147869,-0.5345969983056187,-0.11724299877453595
1761232039038785500,5.59578564453125,0.47306057958602904,-0.19632687422037123,-0.12950681600943206
1761232039048855600,5.60585546875,0.9113818542242049,-0.04732932192981243,-0.09882464096527546
1761232039058924500,5.615924560546875,1.196919628292322,0.0232993347838521,-0.05376183919534087
1761232039068994600,5.62599462890625,1.382105515295267,0.08388473638892173,-0.0397498996514827
1761232039079063300,5.636063232421875,1.3947697665572165,0.1889040307432413,-0.03246920459140092
1761232039089133600,5.646133544921875,1.284668054372072,0.33127982680648566,-0.002346964984945953
1761232039099202300,5.656202392578125,1.3632313034772872,0.4978071905687451,-0.12741861155852674
1761232039109272600,5.6662724609375,1.5576982290446757,0.7466492649242281,-0.3233329594552517
1761232039119341300,5.67634130859375,1.6132167026489972,1.0945409115746616,-0.5095626564227044
1761232039129410600,5.68641064453125,1.749457649219036,1.4258970184877513,-0.6532999500975012
1761232039139480300,5.696480224609375,1.9782593905866146,1.6239815500304102,-0.733261521693319
1761232039149549600,5.706549560546875,2.1245517755717036,1.6824971596240996,-0.7074487427838146
1761232039159619300,5.716619384765625,2.225086033466458,1.5584806115940213,-0.6176322782583534
1761232039169688600,5.7266884765625,2.252595387160778,1.4043430660665035,-0.4602438411761075
1761232039179758600,5.736758544921875,1.9430442848205565,1.215901684398949,-0.24004516604617238
1761232039189827300,5.746827392578125,1.764248975637555,0.8473138712003827,-0.05449059186130762
1761232039199897600,5.756897705078125,1.7004893279105424,0.3825800981938839,0.0630728345066309
1761232039209966300,5.76696630859375,1.4115917220205068,0.1959390439465642,0.03515625171829015
1761232039220036600,5.77703662109375,0.952820364549756,0.31651714196056124,-0.20370816184440627
1761232039230105300,5.787105224609375,0.5082891293555498,0.44124797573983665,-0.6818366740781814
1761232039240175400,5.79717529296875,0.0076303487479686734,0.5542173523157835,-1.2838700358621775
1761232039250244400,5.807244384765625,-0.5241781878829002,0.5614069715589285,-1.6427955560937524
1761232039260314400,5.817314453125,-0.9648118311166762,0.4259694503262639,-1.7359247984290123
1761232039270383400,5.82738330078125,-1.2954565748900175,0.4530526875630021,-1.7240714251585303
1761232039280453400,5.837453369140625,-1.4914169538855553,0.8084300137937068,-1.7217559878230093
1761232039290522400,5.8475224609375,-1.3864625414609908,1.1269032582581042,-1.7258425264842807
1761232039300591400,5.85759130859375,-1.1523714615136385,1.1543380854114889,-1.706574639173597
1761232039310661600,5.86766162109375,-0.8350888881385325,0.7901485071718692,-1.6111986408248542
1761232039320730400,5.87773046875,-0.47554479761719703,0.0538923337072134,-1.3603094246812164
1761232039330800600,5.887800537109375,-0.37473464539051055,-0.696024116319418,-0.8621252905588597
1761232039340869400,5.897869384765625,-0.34027357286214827,-1.2074562198758125,-0.41987186410352584
1761232039350939400,5.907939453125,-0.2895224597901106,-1.6201964785337448,-0.03615541882347315
1761232039361008400,5.91800830078125,-0.1315694476276636,-1.9624585948646067,0.3966248074961826
1761232039371078400,5.928078369140625,-0.06137362937331199,-2.288805933704972,0.8447014967449009
1761232039381147400,5.9381474609375,-0.06731061820685863,-2.575175482422113,1.1907303451981395
1761232039391217400,5.948217529296875,-0.1295084234446287,-2.78016380200386,1.3382013455085455
1761232039401286400,5.958286376953125,-0.2977823386132717,-2.9087258845090864,1.301684655624628
1761232039411356400,5.9683564453125,-0.46317865251898765,-2.8963083014845847,1.0674825165182351
1761232039421425400,5.97842529296875,-0.783393772214651,-2.5423329510062933,0.7898800654940307
1761232039431495400,5.988495361328125,-1.1335381662279367,-1.8250328224241732,0.40899193897508085
1761232039441564400,5.998564453125,-1.1726888578772545,-0.9305430662900209,-0.16365127860298379
1761232039451633400,6.00863330078125,-1.1016881529808045,-0.13181670038700102,-0.7409921890106052
1761232039461703400,6.018703369140625,-0.8703302973896264,0.441639020884037,-1.2385777727179228
1761232039471772400,6.0287724609375,-0.4565145184546709,0.8215700658738613,-1.5430270218744873
1761232039481842400,6.038842529296875,-0.01219838731586933,1.0253367347061633,-1.6084771069064736
1761232039491911400,6.048911376953125,0.3014496289491653,1.0027379494071007,-1.4156503497615456
1761232039501981400,6.0589814453125,0.46770752812027927,0.8240420089453458,-1.102809192899987
1761232039512050400,6.069050537109375,0.8212737132757901,0.7685556840449571,-0.9491512475829571
1761232039522120400,6.079120361328125,1.2698726363003252,0.8957710281163453,-0.9636198448531329
1761232039532189400,6.089189453125,1.522072204390168,1.1279080513864754,-1.0816653556495903
1761232039542259500,6.099259521484375,1.5664847620904445,1.3005933532565832,-1.0433376708209514
1761232039552328400,6.109328369140625,1.5449942302942274,1.247308337792754,-0.8260433388303965
1761232039562398500,6.1193984375,1.533044264781475,1.0968220082491635,-0.5376056055370718
1761232039572467200,6.12946728515625,1.6334855836957691,1.0288391898691653,-0.4124786120470613
1761232039582536400,6.139536376953125,1.747236466038227,1.1242653109699488,-0.4467265898140147
1761232039592606500,6.1496064453125,1.7140964129805565,1.2345903105169533,-0.5653177517944946
1761232039602675500,6.159675537109375,1.6842711835592985,1.2130460027068852,-0.6634926966793835
1761232039612745500,6.169745361328125,1.6813491586327551,1.222338147187233,-0.7013607281070202
1761232039622814500,6.179814453125,1.6655542081296444,1.4237111988812685,-0.7165729102861136
1761232039632884500,6.189884521484375,1.6026397790551186,1.734136745968461,-0.6694855073533952
1761232039642953500,6.199953369140625,1.5660264969289301,1.9784885231673717,-0.4831103375006467
1761232039653023500,6.2100234375,1.5547627601146696,1.9056769694566726,-0.14293481818549333
1761232039663092500,6.220092529296875,1.5202023188650606,1.6342238348424434,0.15732651429455727
1761232039673162500,6.23016259765625,1.4955395867735146,1.3017495375543833,0.4909676999375224
1761232039683231200,6.240231201171875,1.3864742318987846,0.6486480326384305,0.8930345158245414
1761232039693301500,6.250301513671875,1.0522592284232377,-0.2195867537766695,1.1613679840482771
1761232039703370200,6.260370361328125,0.48423137741982936,-0.8876572797656058,1.2502671875983475
1761232039713439500,6.270439453125,0.028373277047276494,-1.2572078005164862,1.1046506560482083
1761232039723509500,6.280509521484375,-0.07511340091228484,-1.4325193592369556,0.8933611174304038
1761232039733578500,6.29057861328125,-0.07780278612673282,-1.4595651870727537,0.8541893099278212
1761232039743648500,6.3006484375,-0.19715455721616743,-1.406880475589633,0.9729830087430774
1761232039753717500,6.310717529296875,-0.4135205953806638,-1.3139876723587511,1.0425873639103025
1761232039763787500,6.32078759765625,-0.6085223584771156,-1.2006009471535681,0.9464662462826817
1761232039773856500,6.3308564453125,-0.8367115209043026,-0.9689274497419595,0.7206901363465934
1761232039783926500,6.340926513671875,-1.1903256368547677,-0.6432207468926906,0.5911412347611039
1761232039793995300,6.350995361328125,-1.4354028057187795,-0.3607546353548765,0.5909498769074678
1761232039804065500,6.3610654296875,-1.6109171935349702,-0.17796587262153624,0.6687947486102581
1761232039814134300,6.37113427734375,-1.8913871628195047,-0.14578385094106197,0.7965560361266135
1761232039824204500,6.38120458984375,-2.1234534589409826,-0.25006489414870736,0.9680467213846743
1761232039834273300,6.391273193359375,-2.3073750250965355,-0.3445201243907213,1.3022995726525783
1761232039844343300,6.40134326171875,-2.944951044100523,-0.0692640903621912,1.406871123239398
1761232039854412500,6.41141259765625,-3.0276831033229827,0.1042336969345808,1.6500393897421657
1761232039864481500,6.4214814453125,-2.4628853202819823,-0.3441904540449381,1.8236990896023808
1761232039874551600,6.431551513671875,-2.275223398554325,-0.6745470285266637,1.9833140436276793
1761232039884620500,6.44162060546875,-2.1640169399976728,-1.0654986492246388,2.136627413290739
1761232039894690600,6.451690673828125,-1.6279975076735018,-1.7965280279517173,2.0850342964366075
1761232039904759300,6.46175927734375,-0.6385387265563011,-2.628742237436771,1.793344721740484
1761232039914829600,6.47182958984375,0.2171726783722639,-2.741495925435424,1.2770298145785928
1761232039924898300,6.481898193359375,0.6992845794200897,-1.8512702564865349,0.7874030078560114
1761232039934968600,6.491968505859375,0.47053310693502426,-0.7690823382675648,0.38361901278756555
1761232039945037300,6.502037353515625,-0.2717734526097774,-0.1435948164641857,0.15827771407216787
1761232039955107300,6.512107421875,-0.4141571397185325,0.45356677456498146,-0.09010291678402572
1761232039965176300,6.52217626953125,-0.07672843489348888,0.9701771575421094,-0.10278342506103216
1761232039975246300,6.532246337890625,0.08518529759347439,1.2997726845234632,0.02018927647192031
1761232039985315300,6.5423154296875,0.0721919605076313,1.2540572275310755,0.21132517618676647
1761232039995384600,6.552384521484375,-0.06973170787394047,0.9498696980506182,0.18745940315918996
1761232040005454600,6.56245458984375,0.025236732587218282,0.7883470107078552,-0.04121388952312991
1761232040015523000,6.572523193359375,0.5733166050612926,0.919022724366188,-0.30307949517332017
1761232040025593300,6.58259326171875,1.1549842743605374,1.0774299100369213,-0.5593955952038988
1761232040035662300,6.592662353515625,1.6903291684240103,1.1433183864861727,-0.6141878368929028
1761232040045732400,6.602732421875,2.027974146348238,1.128867836329341,-0.4959104170367121
1761232040055801300,6.61280126953125,2.03005855140686,1.0472843626201152,-0.34126930590122934
1761232040065871400,6.622871337890625,1.7844956448525189,0.9931208107560873,-0.127208329808712
1761232040075940400,6.6329404296875,1.349506729507446,1.0885352414190768,-0.1367055684071034
1761232040086010000,6.643010009765625,1.0203659605562687,1.1224638145059347,-0.1787271393176168
1761232040096079400,6.653079345703125,0.7102747599899768,1.0708312424242497,-0.33440891861245037
1761232040106149000,6.663149169921875,0.5900362691938876,0.8002157276779412,-0.7143103721816092
1761232040116218400,6.67321826171875,0.8127765185654163,0.40174657095670696,-1.0336837072908878
1761232040126288400,6.683288330078125,1.0714186869233846,0.18510814559161662,-1.2296668826401234
1761232040136357400,6.693357421875,1.194334872496128,0.11062836640775203,-1.3494387788377702
1761232040146426000,6.703426025390625,0.7481903568863868,-0.01262801090478897,-1.270218819389492
1761232040156496400,6.713496337890625,-0.40165070936679836,-0.28240415221750736,-1.1738863240335136
1761232040166565400,6.7235654296875,-1.5771224759608506,-0.6690519382417202,-1.0892384212523698
1761232040176635400,6.733635498046875,-2.273257651439309,-0.6543336770594119,-1.0909936674218623
1761232040186704400,6.743704345703125,-2.4081670571446416,-0.3442600121498108,-1.229347295296937
1761232040196774100,6.753774169921875,-2.1332897933006287,0.05027297416627407,-1.363053024300933
1761232040206843400,6.763843505859375,-1.5288737010985611,0.502904513707757,-1.5108660429820417
1761232040216913200,6.7739130859375,-0.9239455677211285,0.767690591648221,-1.64614749687016
1761232040226982400,6.783982421875,-0.5570879393160343,0.7895861971139907,-1.7583806681260465
1761232040237052200,6.79405224609375,-0.4139227464407682,0.5385141717493533,-1.6292326024264097
1761232040247121400,6.804121337890625,-0.16013620142042637,-0.06604454379379748,-1.1778615843400357
1761232040257191400,6.81419140625,0.16987492062449455,-0.8567167825788259,-0.5993512100279331
1761232040267260400,6.824260498046875,0.34545886654555796,-1.3450976808935402,-0.029287688478454945
1761232040277329200,6.8343291015625,0.18524550823569297,-1.7419465429365635,0.6205502115316689
1761232040287399200,6.844399169921875,-0.040623102289438245,-2.1521260111957785,1.1198476406581699
1761232040297468400,6.854468505859375,-0.16051087995171545,-2.525854109892249,1.4935034047707914
1761232040307538200,6.8645380859375,-0.38117783018052576,-2.74784383315742,1.7669842458203433
1761232040317607400,6.874607421875,-0.6422416727274656,-2.8209622608602047,1.7133125691264868
1761232040327677200,6.88467724609375,-0.6274427475243807,-2.73717630867064,1.552768663688004
1761232040337746400,6.894746337890625,-0.46456923009455203,-2.526527479109168,1.2863722279414533
1761232040347816200,6.904816162109375,-0.20087562356591224,-2.1552350831270215,0.7945045834895222
1761232040357885400,6.914885498046875,-0.13843524174392222,-1.518549290961027,0.23688217197060585
1761232040367955200,6.924955078125,-0.4690408225506544,-0.7075187392801046,-0.43831367585361003
1761232040378024400,6.9350244140625,-0.6139467216134071,-0.27984569990634917,-0.7896786246377975
1761232040388094500,6.945094482421875,-0.557998624420166,-0.11188508847057818,-1.0148775922730564
1761232040398163200,6.9551630859375,-0.33588732060194015,0.06826046627759932,-1.179553994406387
1761232040408232200,6.965232177734375,0.0563192685931921,0.3686439272999763,-1.1880946629323064
1761232040418302200,6.97530224609375,0.6318488735288381,0.5841928038626909,-1.117941514775902
1761232040428371500,6.985371337890625,1.1836264314770697,0.7033163191542029,-1.0099601557455957
1761232040438441200,6.995441162109375,1.6242904698491096,0.8981079466313123,-1.0567904421120882
1761232040448510500,7.005510498046875,2.0537235046327114,1.1115528366521,-1.0551637907583267
1761232040458580200,7.015580322265625,2.2878987557321784,1.3222224167406558,-0.8467566026438027
1761232040468649500,7.0256494140625,2.074863323295116,1.3816501727432011,-0.6619687019824981
1761232040478719200,7.03571923828125,1.691160943073034,1.2744272308647633,-0.4733619736853987
1761232040488788500,7.04578857421875,1.4179238476514815,1.1307722086459397,-0.3546237313844263
1761232040498858200,7.055858154296875,1.3558897085428236,1.187018412002921,-0.37689350392483173
1761232040508927200,7.06592724609375,1.436589969676733,1.4386866496950388,-0.5086578896027059
1761232040518997500,7.07599755859375,1.5461375551104544,1.7085995691299438,-0.6751103614978492
1761232040529066200,7.086066162109375,1.6359639565080404,1.8907950421452522,-0.7081339485689997
1761232040539136500,7.096136474609375,1.7500187902331352,2.0287205808013677,-0.6494744735252111
1761232040549205200,7.106205322265625,1.94658122677505,2.1075538790196178,-0.583271670429781
1761232040559274200,7.116274169921875,2.0428817926228047,2.0192934117645023,-0.39429428218938406
1761232040569344300,7.12634423828125,1.8991367540329693,1.863821695023775,-0.11005918821766972
1761232040579413500,7.13641357421875,1.716538545435667,1.8403852898567914,0.1466394448570907
1761232040589483300,7.146483154296875,1.761208877289295,1.6374848824650048,0.4591537809170782
1761232040599552500,7.156552490234375,2.0846733541697264,1.1892536237090825,0.9691894616790115
1761232040609622300,7.166622314453125,1.963769092941284,0.7159259176194668,1.401440038101375
1761232040619691300,7.176691162109375,1.1978817513227462,0.04792202712595463,1.620722694364935
1761232040629761300,7.18676123046875,0.14621581261754035,-0.6290495981991291,1.4358911737576125
1761232040639830300,7.196830322265625,-0.5085667772531509,-1.119037347188592,0.9951856343314051
1761232040649900300,7.206900390625,-0.7340542795062065,-1.382204299494624,0.6234747206762433
1761232040659969300,7.21696923828125,-0.650001200813055,-1.5639198800384997,0.48349955601394173
1761232040670039300,7.227039306640625,-0.6222831728041172,-1.5408289273083209,0.36806101284548637
1761232040680108300,7.2371083984375,-0.9510568620085715,-1.1975748773306607,0.25747487814426423
1761232040690177300,7.24717724609375,-1.2596376580119133,-0.6365630425691604,0.1833021190829575
1761232040700247300,7.257247314453125,-1.3940572343736886,-0.1326449679046869,0.12587722733542323
1761232040710316500,7.267316650390625,-1.4476011930346488,0.08491057230532169,0.06973565339669585
1761232040720386300,7.27738623046875,-1.603517146411538,-0.10120704258978366,0.11073664908781647
1761232040730455300,7.287455322265625,-1.847838528472185,-0.6717629507660865,0.2864364764735102
1761232040740525300,7.297525390625,-1.7101719330132006,-1.3587398372769355,0.43340471489354965
1761232040750594300,7.30759423828125,-1.3411433903098107,-1.7868313943237064,0.5451709992900491
1761232040760664300,7.317664306640625,-1.1698410672307014,-1.994821818330884,0.6323034854285419
1761232040770733300,7.3277333984375,-0.9879261647224425,-2.3274895923644303,0.7669508791968226
1761232040780803300,7.33780322265625,-0.8776777375429868,-2.822695952785015,0.9593678864970803
1761232040790872300,7.347872314453125,-0.9058476009726524,-3.316944281828403,1.1826947035849094
1761232040800942300,7.3579423828125,-1.2088871294617651,-3.6048815182536837,1.3975329476602374
1761232040811011300,7.36801123046875,-1.5629922437995671,-3.6615111679702994,1.4974879443623124
1761232040821080300,7.378080322265625,-1.7758260161846875,-3.31984175683558,1.3571430696047841
1761232040831150300,7.388150390625,-1.6293150200128554,-2.545209383225441,0.9913659299127757
1761232040841219300,7.39821923828125,-1.4799416201472282,-1.5962164680093527,0.6203455558050424
1761232040851289300,7.408289306640625,-1.1979600772559642,-0.6217658709317445,0.2335078732319176
1761232040861358300,7.4183583984375,-0.6980243502259253,0.16413316210210321,-0.08033588480092585
1761232040871428400,7.428428466796875,-0.15322189198732375,0.7157318563520908,-0.2578472916532308
1761232040881497300,7.438497314453125,0.3972264631837606,1.1643787101715803,-0.33030433283783495
1761232040891567000,7.448567138671875,0.9919804085493087,1.5677484984159469,-0.28503179730735717
1761232040901636400,7.45863623046875,1.4821101963579655,1.9251929863095283,-0.20199553097393363
1761232040911706000,7.4687060546875,1.7647388049811124,2.1898615753501653,-0.18466507799923418
1761232040921775400,7.478775390625,1.9672955135017631,2.303672663447261,-0.18433270423971115
1761232040931845400,7.488845458984375,2.0044985782146454,2.2560873209297654,-0.12850121916346252
1761232040941914400,7.498914306640625,1.9996827023655175,2.118940949952602,-0.06233589853420853
1761232040951983000,7.508983154296875,2.033537625694275,2.128167627981305,-0.10115794275104999
1761232040962053400,7.519053466796875,2.1887100672274826,2.3088743237435816,-0.37645701220370825
1761232040972122400,7.529122314453125,2.3467840754210947,2.4221833075374364,-0.6201361508380622
1761232040982192400,7.5391923828125,2.2194646864533425,2.381120060265064,-0.8268480793420225
1761232040992261400,7.549261474609375,1.9857120446801184,2.027712280541658,-0.8585901752352714
1761232041002331100,7.5593310546875,1.7682172947466372,1.3543740432828664,-0.6364624317388982
1761232041012404200,7.569404296875,1.4314794947952032,0.7479086173355579,-0.3727629069261253
1761232041022474000,7.579473876953125,0.7644628617733716,0.33706220960021016,-0.10881050333082676
1761232041032543200,7.589543212890625,-0.002554360657930374,0.0023386720806360243,-0.05884162667766213
1761232041042613000,7.599613037109375,-0.6732815386354923,-0.2090542538464069,-0.3002941753037274
1761232041052682200,7.60968212890625,-1.29436994869709,-0.20606676246821878,-0.7069501456119119
1761232041062752000,7.619751953125,-1.8294038771152494,-0.10483692352473735,-1.031475821983069
1761232041072821200,7.6298212890625,-1.9356085818618536,-0.12558394347727297,-1.2169602535411714
1761232041082890000,7.639889892578125,-1.7601994079858063,-0.19874854840934275,-1.3375479961663483
1761232041092960000,7.6499599609375,-1.4308318445414303,-0.10664835686087608,-1.4179162488669157
1761232041103029000,7.660029052734375,-1.0893266840577125,0.12278934432268142,-1.441257230835408
1761232041113099000,7.67009912109375,-0.7745055323600769,0.26076281377375127,-1.453137345982343
1761232041123168000,7.68016796875,-0.5424468350231647,0.16359540196359157,-1.283508070681989
1761232041133238000,7.690238037109375,-0.19102350711524485,-0.3116214788734913,-0.6639573915816843
1761232041143307300,7.700307373046875,0.19694179124832153,-0.9566419686645269,0.13347772893439977
1761232041153377000,7.710376953125,0.2755874579399824,-1.5028969637989997,0.7269323186717928
1761232041163446300,7.7204462890625,0.19139877016842363,-2.180275416359305,1.2799994780391455
1761232041173516000,7.73051611328125,0.12382160997986792,-2.949445432910323,1.7219085480362175
1761232041183585300,7.740585205078125,-0.03686579558253288,-3.3747610955029725,1.7453429073765874
1761232041193655000,7.750655029296875,-0.28162849166989323,-3.2567519711941477,1.3628092786729336
1761232041203724000,7.76072412109375,-0.3482277467370033,-2.938906503239274,0.8106964974209666
1761232041213793000,7.77079296875,-0.22077508677840232,-2.6592361598998306,0.3240358835602179
1761232041223863000,7.780863037109375,-0.18828794467151164,-2.303243624380231,0.10836425740066916
1761232041233932000,7.79093212890625,-0.5234709163963794,-1.6288807202488182,0.031164149874821304
1761232041244002000,7.801001953125,-0.6291302622199059,-0.7534487158060074,-0.15535125043252482
1761232041254071000,7.811071044921875,-0.4331956021875143,0.04762158287465572,-0.40195659697819497
1761232041264141000,7.82114111328125,0.04806757307648658,0.611673515984416,-0.6170657304167747
1761232041274210300,7.831210205078125,0.5586638103306293,0.9602870471686125,-0.8409087533984333
1761232041284280000,7.841280029296875,1.021281321835518,1.1785673945218325,-1.095562363576889
1761232041294349300,7.851349365234375,1.3226052785784006,1.3244535367935895,-1.3608669124335049
1761232041304419000,7.861419189453125,1.4377975919008255,1.4802549238801002,-1.516691680395603
1761232041314488000,7.871488037109375,1.4612819278627633,1.5137304925024508,-1.4528345636434852
1761232041324557000,7.88155712890625,1.4310668223410843,1.4068798910677431,-1.234506285495311
1761232041334627000,7.891626953125,1.2435399251699446,1.3131482989251613,-0.9385905444715171
1761232041344696000,7.901696044921875,1.1967413491159677,1.2889432474732399,-0.6191385181028396
1761232041354766000,7.91176611328125,1.2682798141509293,1.3203911096602678,-0.33965186076723036
1761232041364835000,7.9218349609375,1.2637865943849087,1.4635738381922243,-0.18458196629304438
1761232041374905000,7.931905029296875,1.1857535066336393,1.5453332529902457,-0.11564519905592315
1761232041384974000,7.94197412109375,1.0625140804558992,1.5672908177763223,-0.09923466480458154
1761232041395044000,7.952044189453125,0.9140975429236888,1.6675813300430773,-0.21126535402461885
1761232041405113300,7.96211328125,0.9568500584572553,1.7701614145517348,-0.3710853656353429
1761232041415183000,7.97218310546875,1.1341963378757238,1.7319670007139443,-0.440998567556031
1761232041425252000,7.982252197265625,1.073045995864272,1.669965594831109,-0.4316936001267284
1761232041435322000,7.992322021484375,0.648113779631257,1.5380319900661705,-0.24875671589327975
1761232041445391000,8.00239111328125,0.44575873116254805,1.2210685656428337,0.09137717450354248
1761232041455460000,8.012460205078124,0.5064841257601976,0.8303145133435725,0.4418238759316504
1761232041465530000,8.022530029296876,0.6317682095080613,0.3626730361968279,0.9042410425588489
1761232041475599000,8.03259912109375,0.6690998690366745,-0.38149931721985336,1.3588441744342445
1761232041485669000,8.042669189453125,0.2894680992543697,-1.1381167261898517,1.6417656285241244
1761232041495738000,8.052738037109375,-0.5339169070869684,-1.587032460078597,1.6379311649277806
1761232041505808100,8.06280810546875,-1.3971826729178427,-1.777833848875761,1.3903651018574834
1761232041515877000,8.072877197265624,-1.4751456180423497,-1.7339391775697468,0.9914919674452394
1761232041525947100,8.082947021484374,-0.9875485635817051,-1.4423708911657334,0.6334911608431488
1761232041536016000,8.093015869140626,-0.7953992673069238,-1.0238777680695057,0.45883119789920745
1761232041546086100,8.103086181640625,-0.9576900164127349,-0.6870622267067432,0.3968389982361346
1761232041556155100,8.113155029296875,-1.1996078444629907,-0.3770242176324129,0.34510998004265125
1761232041566225200,8.12322509765625,-1.2724100458234548,-0.1610188294738531,0.22250841337703167
1761232041576294100,8.133294189453125,-1.3619494469732045,-0.19164953005909918,0.1034506567981094
1761232041586363100,8.143363037109374,-1.6590110700964926,-0.3889361892223358,0.038322643327340485
1761232041596433200,8.15343310546875,-1.7783751161456107,-0.47913434654176235,-0.11804463401362299
1761232041606502100,8.163502197265625,-1.366836634492874,-0.3765490013360977,-0.1945072575777769
1761232041616572200,8.173572265625,-1.2350503292441368,-0.2829682158410549,-0.13006941832825542
1761232041626641200,8.18364111328125,-1.3856892190009356,-0.32160920440256596,0.04102539948001504
1761232041636711200,8.193711181640625,-1.4125555986165999,-0.43787996061146256,0.28204043347164987
1761232041646780000,8.20377978515625,-1.460402222418785,-0.6899567791044712,0.6213672270029783
1761232041656850200,8.21385009765625,-1.650519136083126,-1.329042618149519,0.9875178761824965
1761232041666919000,8.2239189453125,-1.9711077652662992,-1.994053172045946,1.2465411528125405
1761232041676989200,8.2339892578125,-2.072806975287199,-2.182170436325669,1.138377130691707
1761232041687058200,8.24405810546875,-1.6763608488261699,-1.735567071032524,0.6403250985164195
1761232041697128000,8.2541279296875,-0.9382464802742004,-1.0104431169569492,0.038101986313983795
1761232041707197200,8.264197265625,-0.1737672518879175,-0.2957517095685005,-0.473292415580526
1761232041717266200,8.27426611328125,0.6584557254254818,0.3442787168502807,-0.7264901278622448
1761232041727336200,8.284336181640626,1.1884440608918667,0.6333160234719515,-0.5846095679700374
1761232041737405200,8.2944052734375,1.179095802310109,0.3381245781347155,-0.15683160691708325
1761232041747475200,8.30447509765625,0.6368658249080181,-0.05254559527337551,0.3194879744648933
1761232041757544000,8.3145439453125,0.08445172262191772,-0.19028379466384648,0.4988715683972463
1761232041767614200,8.3246142578125,0.11081365984678268,-0.0806704505175352,0.37178204266261305
1761232041777683000,8.334682861328124,0.4968704942405224,0.15948416725248096,0.11536328597515821
1761232041787753200,8.344753173828124,0.7261515435576439,0.33287206443399187,-0.0779542960271705
1761232041797822000,8.354822021484376,0.8413345045298337,0.3542097437560558,-0.14421270176735707
1761232041807892000,8.36489208984375,0.9604629882574081,0.34638737956732507,-0.13587692643008195
1761232041817961200,8.374961181640625,0.9053536799758672,0.39160920782387254,-0.08404325141888111
1761232041828030200,8.3850302734375,0.836098941963911,0.5221674325823784,-0.11786673842975869
1761232041838100200,8.395100341796875,0.8788684086322784,0.765128047683835,-0.29346527913175524
1761232041848169200,8.405169189453124,0.9680185182034968,1.0538017816901206,-0.3698694505069405
1761232041858239200,8.4152392578125,0.9456593868792057,1.2556938888221978,-0.411252686981298
1761232041868308000,8.425307861328125,0.8673784618467092,1.3296958213612438,-0.483027627653256
1761232041878378200,8.435378173828125,0.8125953167796135,1.3423258780926466,-0.5406793869592249
1761232041888447000,8.445447021484375,0.7968342685461044,1.2820870979681611,-0.5361777646910398
1761232041898517200,8.455517333984375,0.6746925744771957,1.0038099625527859,-0.34648894024565813
1761232041908586000,8.4655859375,0.370522580653429,0.513811107647419,-0.02820435022115707
1761232041918656000,8.475656005859374,0.05989128186106681,0.1607271530508995,0.11759889954011887
1761232041928725000,8.48572509765625,-0.17038053205907344,0.05894727900922298,-0.043571266304235905
1761232041938795000,8.495794921875,-0.44002398690283295,0.09869769011735915,-0.39531138681005684
1761232041948864300,8.5058642578125,-0.7810913404911756,0.1760983251839876,-0.7351682320974767
1761232041958933000,8.51593310546875,-1.0547159739255905,0.2507347562342882,-1.0257407854624092
1761232041969003300,8.526003173828125,-1.308165834337473,0.23655074805915355,-1.1407974897064268
1761232041979072000,8.536072021484374,-1.0950877318024634,0.21937574137449264,-1.1911059735774994
1761232041989142300,8.546142333984376,-0.467816249191761,0.41782969075143334,-1.323290922755003
1761232041999211000,8.5562109375,0.30930911027789115,0.691378336340189,-1.4372814590722323
1761232042009281300,8.56628125,0.8154875310897827,0.6682616646468639,-1.2249861774779855
1761232042019347200,8.57634716796875,0.5891840362787246,0.26392975337207314,-0.5991665376434102
1761232042029417000,8.5864169921875,0.2738099268734455,-0.2742541635096073,-0.014303323705866932
1761232042039486200,8.596486328125,0.04335632664561272,-0.7456617151916026,0.420959805470705
1761232042049556000,8.606555908203125,-0.08617956932783126,-1.2251900294870137,0.881533755384013
1761232042059625200,8.616625244140625,-0.06334872883856296,-1.8375573729544876,1.4017707313604653
1761232042069694000,8.62669384765625,-0.11693418855369091,-2.552180975803733,1.9014421083658932
1761232042079764200,8.63676416015625,-0.3232441121280193,-3.203722391796112,2.2108327594473955
1761232042089833000,8.6468330078125,-0.4358335494756698,-3.560620936244726,2.1506322655066845
1761232042099903200,8.6569033203125,-0.4997276372373104,-3.3737972189068794,1.7298941399626433
1761232042109972000,8.666971923828125,-0.6150339323282241,-2.6777052980482576,1.1158056717909872
1761232042120042000,8.6770419921875,-0.6992547688037156,-1.9004700484633446,0.6043064212825149
1761232042130111200,8.687111328125,-0.9103916741430759,-1.3922674283474683,0.3777390879034996
1761232042140181000,8.697180908203125,-1.2399568059861659,-1.0515507878929375,0.2585563532380387
1761232042150250200,8.707250244140624,-1.3074796056389808,-0.5609989752799273,0.06694014092665165
1761232042160320000,8.717320068359374,-1.0181149667590856,0.07621873180568217,-0.21505999706722795
1761232042170389200,8.72738916015625,-0.6017156010717153,0.5054805016756058,-0.46711650342456995
1761232042180459000,8.737458984375,-0.27605449092984197,0.6733031659454107,-0.730070982023701
1761232042190528300,8.7475283203125,-0.039901802277565,0.8403320494890213,-0.9182127231575548
1761232042200597000,8.757596923828125,0.42109658359289165,1.1547247466415167,-1.1102238530706614
1761232042210667000,8.7676669921875,0.9582043956756591,1.5469892035037278,-1.2572547083981334
1761232042220736000,8.777736083984376,1.3068126661628483,1.8596324266403912,-1.274554656636715
1761232042230804200,8.78780419921875,1.5805635563254354,1.9601468107908964,-1.1772058238450438
1761232042240874000,8.7978740234375,1.8909493559241293,2.037407160604,-1.0427142782256007
1761232042250943200,8.807943115234375,2.1423463754594323,2.176644366380572,-0.9136513335261494
1761232042261013000,8.818012939453125,2.311962352886796,2.297480238547921,-0.8233250928476452
1761232042271082200,8.828082275390624,2.4688135412871834,2.3910727144807575,-0.7573577790085226
1761232042281152000,8.838152099609376,2.6065000104904175,2.6324451836079357,-0.776493199045956
1761232042291221200,8.84822119140625,2.7172043647438286,2.88402632753849,-0.8534541275210679
1761232042301291000,8.858291015625,2.786855993118882,2.863811222505569,-0.7361181532334536
1761232042311360000,8.868360107421875,2.555989135915041,2.5773534109830853,-0.5017969908572734
1761232042321430300,8.87843017578125,2.2254361620783802,2.3023247559696434,-0.30806685513183474
1761232042331499000,8.8884990234375,1.9577870959222317,2.0597195301771163,-0.12248605052717029
1761232042341568000,8.898568115234376,1.9573884519934652,1.7164298243641853,0.09565160041972995
1761232042351638000,8.908637939453126,2.034122732105851,1.3544658132195473,0.3027246903862804
1761232042361707300,8.918707275390625,1.7902625378161667,0.9143144005447625,0.6213816939197481
1761232042371777000,8.928777099609375,1.2189999426752327,0.29943653556108474,1.0638067506149411
1761232042381846300,8.93884619140625,0.7335603585094213,-0.347642640325427,1.4264447154983877
1761232042391916000,8.948916015625,0.44017187094092364,-0.7989297795206308,1.6584901149623095
1761232042401985300,8.9589853515625,0.08086100465357303,-1.2044324881404638,1.7476799720220266
1761232042412055000,8.969054931640626,-0.2707160525113344,-1.7144588165521621,1.7150060751713812
1761232042422124000,8.9791240234375,-0.5328910711705684,-2.0782792692184446,1.503495221953094
1761232042432194000,8.989194091796875,-0.7733587004125118,-2.0694681862533093,1.0476622560217976
1761232042442263000,8.999262939453125,-0.9657470661401748,-1.813503712671995,0.5724642260156572
1761232042452332000,9.00933203125,-1.2392869439005851,-1.5659733054369687,0.39867067064270373
1761232042462402000,9.019402099609374,-1.4413982467412947,-1.4447405429065228,0.4392794521458447
1761232042472471000,9.029470947265626,-1.3993518336504698,-1.2726678199768067,0.405586587511003
1761232042482541000,9.039541015625,-1.4539771578073502,-1.0051870961248874,0.44578591143041846
1761232042492610300,9.0496103515625,-1.6484522666811943,-0.8771335476636886,0.6245373814716935
1761232042502680000,9.05968017578125,-1.8430051169663666,-0.838329477494955,0.782646168717742
1761232042512749300,9.069749267578125,-2.050796219009161,-0.7984346894800662,0.8093710940361023
1761232042522819000,9.079819091796875,-2.167747358697653,-0.7895908732891083,0.8381129121348261
1761232042532888000,9.08988818359375,-2.1639994043409825,-0.9365040205210446,0.8946306259095669
1761232042542958000,9.0999580078125,-2.105824863269925,-1.2751561296612024,0.9704308400422335
1761232042553027000,9.110027099609376,-2.0444009650140997,-1.7274632595539092,1.0336372378006577
1761232042563097000,9.12009716796875,-1.7917419627189635,-2.0736691450744864,0.9739764036945998
1761232042573166000,9.130166015625,-1.3779939883232115,-2.036613087616861,0.665433017092198
1761232042583235000,9.140235107421875,-0.8894991082400083,-1.6772887773260474,0.3225842599797994
1761232042593305000,9.15030517578125,-1.0634195048630237,-1.3163304360926151,0.23711174294278023
1761232042603374000,9.1603740234375,-1.2247680046826601,-0.9168544404163956,0.276694615464285
1761232042613444000,9.170444091796876,-0.5427420185774564,-0.12420944025367497,0.17750212756730616
1761232042623513300,9.180513427734375,0.09614274493753909,0.7846081164404749,-0.05015493727717548
1761232042633583000,9.1905830078125,0.6784504657059908,1.2203218389287591,-0.008421097266860305
1761232042643652000,9.200652099609375,0.9230985955029726,1.0502528570368885,0.32821441135387863
1761232042653722000,9.21072216796875,0.6327718335926532,0.7075117250174283,0.6040656347965822
1761232042663791000,9.220791015625,0.46765725923776624,0.5806523547768593,0.7032189231943339
1761232042673861000,9.230861083984376,0.6545762536436319,0.65336746237576,0.6069153616718947
1761232042683930000,9.24093017578125,0.9277502207010984,0.751380969621241,0.4298476799990982
1761232042693999000,9.2509990234375,1.2366495811343192,0.7864128277748823,0.27458661033436654
1761232042704069000,9.261069091796875,1.3746598754644392,0.7373410460919141,0.2943121052194387
1761232042714138000,9.27113818359375,1.3047399515420197,0.647116000765562,0.43160018622223284
1761232042724208000,9.2812080078125,1.0854974811583757,0.6143310447558761,0.5408175167882815
1761232042734277000,9.291277099609376,0.9009411242306232,0.6635109629884361,0.5376127659302204
1761232042744347100,9.30134716796875,0.6842641204208135,0.823413063392043,0.4314241355355829
1761232042754415900,9.311415771484375,0.5173913042217493,0.9902399946227669,0.2824039330217987
1761232042764486100,9.321486083984375,0.42051264622509477,1.1215133819133043,0.16589034450035542
1761232042774555100,9.33155517578125,0.2984486935675144,1.149520748257637,0.11713210401227697
1761232042784625200,9.341625244140625,0.1357961254119873,1.1297595244720577,0.05367945814151317
1761232042794694100,9.351694091796874,-0.00175415019094944,1.1079159414544701,-0.02062551246471703
1761232042804763100,9.36176318359375,0.04805471359491348,1.0154197363257407,-0.05936835396550595
1761232042814833200,9.371833251953126,0.1046867013990879,0.9039780077084898,-0.06024714609403163
1761232042824904200,9.381904296875,0.15175357300043105,0.784928726696968,-0.06917864056844264
1761232042834973200,9.39197314453125,0.04517945041954517,0.5484095428198575,-0.09808459972031414
1761232042845043200,9.402043212890625,-0.4059451916903257,0.2658653976097703,-0.1367742862617597
1761232042855112200,9.4121123046875,-0.8105699484318495,0.07834785278886557,-0.24848357977401464
1761232042865182200,9.42218212890625,-0.9449193821668624,-0.03396364440023899,-0.4576312840575352
1761232042875251000,9.4322509765625,-0.9033569532006979,-0.09226064280718564,-0.7273883188109844
1761232042885320200,9.4423203125,-0.7971265294909476,-0.11624269915819167,-0.8803226990938187
1761232042895390000,9.452389892578125,-0.501143933776021,-0.10140724133700131,-0.9656422175262123
1761232042905459200,9.462459228515625,-0.21904022580981253,-0.0009586158990859985,-1.0215202451579273
1761232042915529000,9.472529052734375,-0.08638122937977313,0.08292261335849761,-1.0046753472104668
1761232042925598200,9.48259814453125,0.022784078738093374,0.017013094121217726,-0.7825695232849568
1761232042935668000,9.49266796875,-0.10436404531598091,-0.17210311806797982,-0.446760309420526
1761232042945737200,9.5027373046875,-0.28284429720044135,-0.4799307576164603,0.034629195636883374
1761232042955807200,9.51280712890625,-0.2770838339775801,-0.7858309362336993,0.5066057063132524
1761232042965876200,9.522876220703125,-0.24467384876012802,-1.13077162412405,0.9445759024914353
1761232042975946200,9.5329462890625,-0.37198330085575576,-1.573949398882687,1.2631287149980663
1761232042986015000,9.543014892578125,-0.6797241389036178,-1.8882447731405496,1.2945150562562047
1761232042996085200,9.553085205078125,-0.8531260646104812,-1.9026038456216454,0.9492777965720742
1761232043006154000,9.563154052734374,-0.900622559800744,-1.6552046635508537,0.24680136230811475
1761232043016222500,9.573222412109375,-0.8224293130517005,-1.3214224985346197,-0.5062418414369225
1761232043026292500,9.58329248046875,-0.5882558155179023,-0.9554209024369716,-1.0173426672123371
1761232043036361500,9.593361572265625,-0.35640871510505673,-0.45807694546580313,-1.2513041294306515
1761232043046431500,9.603431396484375,0.007980477359890938,-0.07093991461992263,-1.3274516956962645
1761232043056500700,9.613500732421874,0.9646785601258278,0.27615824356526136,-1.2278981194019316
1761232043066570500,9.623570556640624,1.5886165143996476,0.7568751831233501,-0.790498489653319
1761232043076639700,9.6336396484375,0.6428571742773056,0.7010621104866266,-0.258375882104598
1761232043086709500,9.64370947265625,0.4953659348964691,0.10792378362417221,0.028161241731792686
1761232043096778800,9.65377880859375,0.3951210153371095,-0.29915508827120063,0.18648378132637589
1761232043106848500,9.6638486328125,0.6430325308442115,-0.3209250215306878,0.08020009305942803
1761232043116917500,9.67391748046875,0.9402677569687365,-0.2783405560404062,-0.14323971941620112
1761232043126986500,9.683986572265624,1.1278443385004997,-0.24286270768493412,-0.2387560760837048
