time,seconds_elapsed,z,y,x
1761232033515687400,0.0726875,-0.937408447265625,-0.41546630859375,0.0703887939453125
1761232033525757400,0.08275732421875,-0.961090087890625,-0.398895263671875,0.0369873046875
1761232033535826400,0.092826416015625,-0.957244873046875,-0.40338134765625,0.041839599609375
1761232033545896400,0.102896484375,-0.9487457275390625,-0.425262451171875,0.0703277587890625
1761232033555965400,0.11296533203125,-0.96820068359375,-0.4490203857421875,0.1037139892578125
1761232033566034400,0.123034423828125,-0.965240478515625,-0.4770965576171875,0.139404296875
1761232033576104400,0.1331044921875,-0.9380035400390625,-0.4958343505859375,0.164459228515625
1761232033586173400,0.14317333984375,-0.920318603515625,-0.497772216796875,0.1768035888671875
1761232033596243500,0.153243408203125,-0.906463623046875,-0.494659423828125,0.183258056640625
1761232033606312400,0.1633125,-0.890625,-0.4934234619140625,0.18231201171875
1761232033616382500,0.173382568359375,-0.8668670654296875,-0.492462158203125,0.1779937744140625
1761232033626451500,0.183451416015625,-0.837738037109375,-0.4850311279296875,0.1771697998046875
1761232033636521200,0.193521240234375,-0.824005126953125,-0.475372314453125,0.176239013671875
1761232033646590500,0.203590576171875,-0.827301025390625,-0.47418212890625,0.1801300048828125
1761232033656659500,0.213659423828125,-0.83111572265625,-0.47784423828125,0.192138671875
1761232033666729500,0.2237294921875,-0.8241119384765625,-0.4802703857421875,0.1983642578125
1761232033676798500,0.233798583984375,-0.8048248291015625,-0.4822235107421875,0.202880859375
1761232033686868500,0.243868408203125,-0.7924346923828125,-0.4818115234375,0.2073822021484375
1761232033696937200,0.253937255859375,-0.7911529541015625,-0.4810638427734375,0.207977294921875
1761232033707007500,0.264007568359375,-0.801361083984375,-0.480194091796875,0.2093658447265625
1761232033717076500,0.274076416015625,-0.7960052490234375,-0.484466552734375,0.208526611328125
1761232033727146500,0.284146484375,-0.7797698974609375,-0.4908599853515625,0.20269775390625
1761232033737215500,0.294215576171875,-0.8028564453125,-0.4860687255859375,0.1944732666015625
1761232033747285200,0.30428515625,-0.82171630859375,-0.48162841796875,0.19305419921875
1761232033757354500,0.3143544921875,-0.8192138671875,-0.4799346923828125,0.1876373291015625
1761232033767423500,0.324423583984375,-0.8209075927734375,-0.4724884033203125,0.179229736328125
1761232033777493500,0.334493408203125,-0.8299407958984375,-0.46917724609375,0.173919677734375
1761232033787562500,0.3445625,-0.8273773193359375,-0.472869873046875,0.170013427734375
1761232033797632500,0.354632568359375,-0.821624755859375,-0.47857666015625,0.1685638427734375
1761232033807701200,0.364701171875,-0.821685791015625,-0.4844970703125,0.1646728515625
1761232033817771500,0.374771484375,-0.827362060546875,-0.48699951171875,0.1689910888671875
1761232033827840300,0.38484033203125,-0.8337860107421875,-0.493988037109375,0.1786346435546875
1761232033837910500,0.39491064453125,-0.8275299072265625,-0.504241943359375,0.1856536865234375
1761232033847979500,0.4049794921875,-0.80950927734375,-0.5092926025390625,0.1957550048828125
1761232033858048500,0.415048583984375,-0.803680419921875,-0.5152740478515625,0.204345703125
1761232033868118500,0.425118408203125,-0.80059814453125,-0.528594970703125,0.2103729248046875
1761232033878187500,0.4351875,-0.80267333984375,-0.54193115234375,0.218048095703125
1761232033888257500,0.445257568359375,-0.8034820556640625,-0.5519256591796875,0.22772216796875
1761232033898326300,0.455326171875,-0.7948760986328125,-0.55755615234375,0.235565185546875
1761232033908396500,0.465396484375,-0.7886199951171875,-0.560089111328125,0.235015869140625
1761232033918465300,0.47546533203125,-0.769927978515625,-0.5592803955078125,0.227783203125
1761232033928535600,0.48553564453125,-0.758087158203125,-0.56243896484375,0.2246856689453125
1761232033938604300,0.495604248046875,-0.7598114013671875,-0.57318115234375,0.2263031005859375
1761232033948674600,0.505674560546875,-0.766571044921875,-0.58612060546875,0.2333984375
1761232033958743300,0.515743408203125,-0.77703857421875,-0.5946502685546875,0.238311767578125
1761232033968812500,0.5258125,-0.77886962890625,-0.5954132080078125,0.235809326171875
1761232033978882600,0.535882568359375,-0.771881103515625,-0.5870819091796875,0.2327423095703125
1761232033988951600,0.54595166015625,-0.77581787109375,-0.574951171875,0.232391357421875
1761232033999021600,0.556021484375,-0.7834320068359375,-0.567962646484375,0.2373199462890625
1761232034009094400,0.566094482421875,-0.7830047607421875,-0.5632171630859375,0.2439422607421875
1761232034019164700,0.57616455078125,-0.79595947265625,-0.558563232421875,0.2535247802734375
1761232034029233400,0.5862333984375,-0.810882568359375,-0.558197021484375,0.2619171142578125
1761232034039303400,0.596303466796875,-0.8148651123046875,-0.5612030029296875,0.2672271728515625
1761232034049372400,0.606372314453125,-0.825653076171875,-0.55963134765625,0.272186279296875
1761232034059441700,0.616441650390625,-0.8374176025390625,-0.5610198974609375,0.274169921875
1761232034069511400,0.626511474609375,-0.841552734375,-0.55670166015625,0.2677764892578125
1761232034079580700,0.63658056640625,-0.8372344970703125,-0.5467376708984375,0.2585601806640625
1761232034089650400,0.646650390625,-0.8452606201171875,-0.53619384765625,0.2483367919921875
1761232034099719400,0.656719482421875,-0.8442535400390625,-0.527862548828125,0.2280120849609375
1761232034109789400,0.66678955078125,-0.8232879638671875,-0.514892578125,0.2103424072265625
1761232034119858400,0.6768583984375,-0.8196563720703125,-0.502716064453125,0.199615478515625
1761232034129928700,0.6869287109375,-0.756866455078125,-0.4875946044921875,0.190704345703125
1761232034139997400,0.69699755859375,-0.7250823974609375,-0.4812774658203125,0.236846923828125
1761232034150066400,0.70706640625,-0.895782470703125,-0.5125732421875,0.292510986328125
1761232034160136400,0.717136474609375,-0.8262786865234375,-0.5863189697265625,0.286651611328125
1761232034170205700,0.727205810546875,-0.794189453125,-0.5881500244140625,0.243133544921875
1761232034180275500,0.737275390625,-0.784942626953125,-0.560577392578125,0.220947265625
1761232034190344400,0.747344482421875,-0.774444580078125,-0.5527496337890625,0.244873046875
1761232034200414500,0.75741455078125,-0.7961273193359375,-0.552520751953125,0.2639007568359375
1761232034210483500,0.7674833984375,-0.77459716796875,-0.55413818359375,0.2456817626953125
1761232034220553500,0.777553466796875,-0.761932373046875,-0.5482940673828125,0.2314910888671875
1761232034230622500,0.78762255859375,-0.7959442138671875,-0.5462799072265625,0.24420166015625
1761232034240691500,0.79769140625,-0.8309173583984375,-0.5651092529296875,0.258270263671875
1761232034250761500,0.807761474609375,-0.8218231201171875,-0.5784759521484375,0.2552337646484375
1761232034260830500,0.81783056640625,-0.82208251953125,-0.558441162109375,0.237396240234375
1761232034270900500,0.827900390625,-0.8258514404296875,-0.524505615234375,0.215301513671875
1761232034280969500,0.837969482421875,-0.8147735595703125,-0.501983642578125,0.197998046875
1761232034291039500,0.84803955078125,-0.7988128662109375,-0.4891815185546875,0.1881256103515625
1761232034301108500,0.8581083984375,-0.8058013916015625,-0.4884490966796875,0.19189453125
1761232034311178500,0.868178466796875,-0.8094940185546875,-0.4991912841796875,0.2061767578125
1761232034321247500,0.87824755859375,-0.807525634765625,-0.5013580322265625,0.2233734130859375
1761232034331317500,0.8883173828125,-0.80767822265625,-0.4994354248046875,0.235015869140625
1761232034341386500,0.898386474609375,-0.7898406982421875,-0.4984588623046875,0.2472686767578125
1761232034351455500,0.90845556640625,-0.7738494873046875,-0.50067138671875,0.2584686279296875
1761232034361525500,0.918525390625,-0.7689056396484375,-0.511749267578125,0.269317626953125
1761232034371594500,0.928594482421875,-0.7883453369140625,-0.5269317626953125,0.27850341796875
1761232034381664500,0.93866455078125,-0.799163818359375,-0.5424652099609375,0.2902679443359375
1761232034391733500,0.9487333984375,-0.8122100830078125,-0.5428466796875,0.29217529296875
1761232034401803500,0.958803466796875,-0.813323974609375,-0.526702880859375,0.2762451171875
1761232034411872500,0.96887255859375,-0.7921295166015625,-0.503692626953125,0.25408935546875
1761232034421942500,0.978942626953125,-0.7737274169921875,-0.4766845703125,0.237274169921875
1761232034432011300,0.98901123046875,-0.749542236328125,-0.4566497802734375,0.2430877685546875
1761232034442080500,0.99908056640625,-0.7433013916015625,-0.4492340087890625,0.261474609375
1761232034452150500,1.009150634765625,-0.767822265625,-0.430450439453125,0.267578125
1761232034462219500,1.019219482421875,-0.7999114990234375,-0.470458984375,0.3237152099609375
1761232034472289500,1.02928955078125,-0.8201141357421875,-0.5328826904296875,0.3068389892578125
1761232034482358500,1.039358642578125,-0.7894134521484375,-0.5338287353515625,0.2918548583984375
1761232034492428500,1.049428466796875,-0.793365478515625,-0.471923828125,0.2938232421875
1761232034502497500,1.05949755859375,-0.7909393310546875,-0.4143218994140625,0.3005218505859375
1761232034512567600,1.069567626953125,-0.7480621337890625,-0.4028778076171875,0.3167877197265625
1761232034522636300,1.07963623046875,-0.7143402099609375,-0.4189910888671875,0.322174072265625
1761232034532706600,1.08970654296875,-0.7047271728515625,-0.445892333984375,0.3228759765625
1761232034542775300,1.099775390625,-0.69390869140625,-0.4643707275390625,0.3170928955078125
1761232034552844500,1.109844482421875,-0.6702880859375,-0.463165283203125,0.310821533203125
1761232034562914300,1.119914306640625,-0.6636505126953125,-0.4533843994140625,0.3055877685546875
1761232034572983600,1.129983642578125,-0.6645050048828125,-0.4755096435546875,0.3070068359375
1761232034583053600,1.140053466796875,-0.7156524658203125,-0.525238037109375,0.3116607666015625
1761232034593122600,1.15012255859375,-0.7896575927734375,-0.58380126953125,0.321380615234375
1761232034603192600,1.160192626953125,-0.841217041015625,-0.6336212158203125,0.3258819580078125
1761232034613261600,1.170261474609375,-0.883392333984375,-0.668212890625,0.316436767578125
1761232034623331600,1.18033154296875,-0.9147796630859375,-0.6918182373046875,0.299713134765625
1761232034633400300,1.190400390625,-0.936676025390625,-0.7043914794921875,0.2825927734375
1761232034643470600,1.200470703125,-0.922576904296875,-0.708984375,0.2442626953125
1761232034653539300,1.210539306640625,-1.0247802734375,-0.703826904296875,0.1826171875
1761232034663608600,1.220608642578125,-1.0336761474609375,-0.7573394775390625,0.1861572265625
1761232034673678300,1.23067822265625,-1.0799102783203125,-0.7821044921875,0.2478179931640625
1761232034683747600,1.24074755859375,-1.2014312744140625,-0.7555389404296875,0.25909423828125
1761232034693817300,1.2508173828125,-1.1978607177734375,-0.7441864013671875,0.278045654296875
1761232034703886600,1.260886474609375,-1.171539306640625,-0.7122039794921875,0.267364501953125
1761232034713956600,1.27095654296875,-1.136871337890625,-0.67413330078125,0.2441864013671875
1761232034724025600,1.281025634765625,-1.161773681640625,-0.6561126708984375,0.23828125
1761232034734095600,1.291095703125,-1.2134552001953125,-0.629180908203125,0.2305450439453125
1761232034744164400,1.301164306640625,-1.222747802734375,-0.5966033935546875,0.183685302734375
1761232034754234600,1.311234619140625,-1.1616058349609375,-0.55499267578125,0.1261444091796875
1761232034764303400,1.321303466796875,-1.11773681640625,-0.506317138671875,0.08441162109375
1761232034774372600,1.33137255859375,-1.0553741455078125,-0.4855804443359375,0.0576019287109375
1761232034784442400,1.3414423828125,-0.9659881591796875,-0.4557952880859375,0.0419464111328125
1761232034794511600,1.35151171875,-0.8879852294921875,-0.42523193359375,0.0244903564453125
1761232034804581400,1.361581298828125,-0.7978363037109375,-0.410369873046875,0.0211944580078125
1761232034814650600,1.371650634765625,-0.712493896484375,-0.3796539306640625,0.0158233642578125
1761232034824720400,1.381720458984375,-0.6336517333984375,-0.33953857421875,-0.001861572265625
1761232034834789600,1.39178955078125,-0.558929443359375,-0.2985687255859375,-0.0277099609375
1761232034844859600,1.401859619140625,-0.464324951171875,-0.279388427734375,-0.02020263671875
1761232034854928400,1.411928466796875,-0.411773681640625,-0.294281005859375,0.010833740234375
1761232034864998700,1.42199853515625,-0.4530181884765625,-0.3239898681640625,0.0293731689453125
1761232034875067400,1.4320673828125,-0.5330963134765625,-0.3528289794921875,0.0501251220703125
1761232034885136400,1.442136474609375,-0.592529296875,-0.3642730712890625,0.083160400390625
1761232034895206400,1.452206298828125,-0.6068572998046875,-0.3402862548828125,0.11279296875
1761232034905275600,1.462275634765625,-0.5944671630859375,-0.2894134521484375,0.119293212890625
1761232034915345400,1.472345458984375,-0.5691070556640625,-0.2857818603515625,0.1110076904296875
1761232034925414700,1.48241455078125,-0.63427734375,-0.3783111572265625,0.0804595947265625
1761232034935484400,1.492484375,-0.6428070068359375,-0.455169677734375,0.0676727294921875
1761232034945553700,1.5025537109375,-0.723785400390625,-0.4883270263671875,0.069061279296875
1761232034955623400,1.51262353515625,-0.8448486328125,-0.4964447021484375,0.0468597412109375
1761232034965692400,1.5226923828125,-0.9287567138671875,-0.493255615234375,0.0336761474609375
1761232034975761400,1.532761474609375,-0.9467926025390625,-0.5148468017578125,0.012847900390625
1761232034985831400,1.54283154296875,-0.9792022705078125,-0.523162841796875,-0.0192718505859375
1761232034995900400,1.552900390625,-1.0602569580078125,-0.543548583984375,-0.042938232421875
1761232035005966800,1.562966796875,-1.1853485107421875,-0.57647705078125,-0.0579986572265625
1761232035016036000,1.5730361328125,-1.3062896728515625,-0.6338653564453125,-0.056610107421875
1761232035026105900,1.58310595703125,-1.4374542236328125,-0.6524505615234375,-0.0672454833984375
1761232035036175000,1.593175048828125,-1.4885711669921875,-0.620880126953125,-0.1044769287109375
1761232035046245000,1.6032451171875,-1.489990234375,-0.5902252197265625,-0.15606689453125
1761232035056314000,1.613314208984375,-1.4419097900390625,-0.590301513671875,-0.2035064697265625
1761232035066384100,1.623384033203125,-1.366302490234375,-0.609405517578125,-0.230743408203125
1761232035076452900,1.633452880859375,-1.2846832275390625,-0.631927490234375,-0.2393646240234375
1761232035086523100,1.643523193359375,-1.1959075927734375,-0.6710357666015625,-0.2284698486328125
1761232035096592000,1.653591796875,-1.114410400390625,-0.7081451416015625,-0.2133331298828125
1761232035106661000,1.6636611328125,-1.020355224609375,-0.72576904296875,-0.1873321533203125
1761232035116731000,1.67373095703125,-0.937896728515625,-0.72381591796875,-0.150146484375
1761232035126800100,1.683800048828125,-0.880096435546875,-0.71832275390625,-0.0936431884765625
1761232035136870000,1.693869873046875,-0.8578643798828125,-0.7218170166015625,-0.0197906494140625
1761232035146939100,1.703939208984375,-0.8433837890625,-0.7381134033203125,0.05322265625
1761232035157009000,1.7140087890625,-0.830108642578125,-0.74658203125,0.0957489013671875
1761232035167078100,1.724078125,-0.821533203125,-0.729034423828125,0.1016387939453125
1761232035177148000,1.73414794921875,-0.7844085693359375,-0.6773529052734375,0.0693511962890625
1761232035187217000,1.744216796875,-0.709014892578125,-0.6121368408203125,0.0295562744140625
1761232035197287200,1.754287109375,-0.6405487060546875,-0.556121826171875,0.0042724609375
1761232035207356000,1.76435595703125,-0.59429931640625,-0.5058135986328125,-0.007171630859375
1761232035217425000,1.7744248046875,-0.554718017578125,-0.46282958984375,0.0008697509765625
1761232035227495000,1.784494873046875,-0.5217437744140625,-0.4344482421875,0.0267333984375
1761232035237564200,1.794564208984375,-0.50250244140625,-0.4149322509765625,0.0579376220703125
1761232035247634000,1.804634033203125,-0.4788055419921875,-0.3968658447265625,0.0900421142578125
1761232035257703200,1.814703125,-0.4556884765625,-0.385528564453125,0.121246337890625
1761232035267773000,1.82477294921875,-0.449554443359375,-0.3743133544921875,0.1475830078125
1761232035277842000,1.834842041015625,-0.4594268798828125,-0.3648529052734375,0.1675567626953125
1761232035287912000,1.844911865234375,-0.45880126953125,-0.3632965087890625,0.17816162109375
1761232035297981000,1.85498095703125,-0.465240478515625,-0.3595428466796875,0.1774139404296875
1761232035308051000,1.865051025390625,-0.491363525390625,-0.341766357421875,0.1621246337890625
1761232035318120000,1.875119873046875,-0.518798828125,-0.3195953369140625,0.144317626953125
1761232035328189000,1.88518896484375,-0.5475921630859375,-0.31024169921875,0.130615234375
1761232035338259000,1.895259033203125,-0.5378265380859375,-0.3227996826171875,0.129547119140625
1761232035348328000,1.905327880859375,-0.5183563232421875,-0.3465576171875,0.136871337890625
1761232035358398000,1.91539794921875,-0.507293701171875,-0.3835906982421875,0.15380859375
1761232035368467200,1.92546728515625,-0.5213470458984375,-0.43353271484375,0.18292236328125
1761232035378537000,1.935536865234375,-0.5892181396484375,-0.488128662109375,0.189910888671875
1761232035388606000,1.94560595703125,-0.7239532470703125,-0.5679931640625,0.182830810546875
1761232035398676000,1.955676025390625,-0.87322998046875,-0.683746337890625,0.192626953125
1761232035408745000,1.965744873046875,-1.0052947998046875,-0.7744903564453125,0.2173614501953125
1761232035418815000,1.97581494140625,-1.1101226806640625,-0.7855072021484375,0.2353668212890625
1761232035428884000,1.985884033203125,-1.1800537109375,-0.69940185546875,0.21563720703125
1761232035438954000,1.9959541015625,-1.2198944091796875,-0.57476806640625,0.1538848876953125
1761232035449023000,2.00602294921875,-1.1851806640625,-0.4788665771484375,0.0766754150390625
1761232035459092000,2.016092041015625,-1.1254730224609375,-0.4090118408203125,-0.001007080078125
1761232035469162000,2.026161865234375,-1.0986785888671875,-0.3767242431640625,-0.05145263671875
1761232035479231000,2.03623095703125,-1.122100830078125,-0.383026123046875,-0.043701171875
1761232035489301000,2.046301025390625,-1.1568450927734375,-0.442474365234375,0.014434814453125
1761232035499370000,2.056369873046875,-1.1774139404296875,-0.5169219970703125,0.061614990234375
1761232035509440000,2.06643994140625,-1.156341552734375,-0.5689239501953125,0.090301513671875
1761232035519509000,2.076509033203125,-1.1127166748046875,-0.601409912109375,0.1068572998046875
1761232035529579000,2.0865791015625,-1.07232666015625,-0.6281585693359375,0.1139984130859375
1761232035539648000,2.09664794921875,-1.023590087890625,-0.6501312255859375,0.11328125
1761232035549718000,2.106718017578125,-0.97930908203125,-0.6619110107421875,0.115478515625
1761232035559787000,2.116787109375,-0.9594573974609375,-0.663604736328125,0.128936767578125
1761232035569856800,2.126856689453125,-0.954986572265625,-0.6598052978515625,0.1460113525390625
1761232035579926000,2.136926025390625,-0.9283905029296875,-0.656585693359375,0.1607208251953125
1761232035589995000,2.1469951171875,-0.910919189453125,-0.6348419189453125,0.1646881103515625
1761232035600065000,2.15706494140625,-0.8958740234375,-0.60345458984375,0.165313720703125
1761232035610133800,2.1671337890625,-0.8963470458984375,-0.582122802734375,0.1656646728515625
1761232035620204000,2.1772041015625,-0.913543701171875,-0.562347412109375,0.1587677001953125
1761232035630272800,2.187272705078125,-0.902679443359375,-0.5327911376953125,0.1418609619140625
1761232035640343000,2.197343017578125,-0.8744354248046875,-0.482177734375,0.1142730712890625
1761232035650412000,2.207412109375,-0.8341522216796875,-0.4290771484375,0.0889434814453125
1761232035660482000,2.21748193359375,-0.812652587890625,-0.394195556640625,0.0638275146484375
1761232035670551000,2.227551025390625,-0.8040313720703125,-0.3781585693359375,0.0474700927734375
1761232035680620800,2.237620849609375,-0.7931671142578125,-0.3869781494140625,0.030609130859375
1761232035690690000,2.24768994140625,-0.7669525146484375,-0.388763427734375,0.0155029296875
1761232035700759800,2.257759765625,-0.7427520751953125,-0.3595428466796875,-0.0033721923828125
1761232035710829000,2.2678291015625,-0.72430419921875,-0.3228302001953125,-0.0158233642578125
1761232035720897800,2.277897705078125,-0.7035369873046875,-0.3016357421875,-0.016021728515625
1761232035730968000,2.287968017578125,-0.6685028076171875,-0.3118438720703125,-0.0047149658203125
1761232035741036800,2.298036865234375,-0.637176513671875,-0.344207763671875,-0.0008392333984375
1761232035751107000,2.308107177734375,-0.65087890625,-0.3638916015625,-0.00982666015625
1761232035761175800,2.31817578125,-0.6818389892578125,-0.37408447265625,-0.01727294921875
1761232035771246000,2.32824609375,-0.7114105224609375,-0.3981170654296875,-0.02740478515625
1761232035781315000,2.338315185546875,-0.7574615478515625,-0.4359893798828125,-0.0421905517578125
1761232035791384800,2.348384765625,-0.8265533447265625,-0.469573974609375,-0.0673370361328125
1761232035801454000,2.3584541015625,-0.9084014892578125,-0.4867095947265625,-0.092315673828125
1761232035811523800,2.36852392578125,-0.97039794921875,-0.4915313720703125,-0.1133270263671875
1761232035821593000,2.378593017578125,-1.0119476318359375,-0.4900054931640625,-0.1385955810546875
1761232035831661800,2.388661865234375,-1.0495758056640625,-0.480560302734375,-0.17413330078125
1761232035841732000,2.398732177734375,-1.06427001953125,-0.460418701171875,-0.217529296875
1761232035851800800,2.40880078125,-1.048736572265625,-0.43072509765625,-0.2586669921875
1761232035861871000,2.41887109375,-1.0134124755859375,-0.40185546875,-0.283966064453125
1761232035871939800,2.42893994140625,-0.994415283203125,-0.3901824951171875,-0.2840576171875
1761232035882009900,2.439009765625,-0.9916229248046875,-0.4088134765625,-0.253631591796875
1761232035892078800,2.449078857421875,-0.9878692626953125,-0.4555816650390625,-0.1949005126953125
1761232035902148900,2.45914892578125,-0.9747314453125,-0.5069427490234375,-0.1337432861328125
1761232035912218000,2.469218017578125,-0.9422454833984375,-0.54681396484375,-0.077392578125
1761232035922287900,2.479287841796875,-0.8884735107421875,-0.5854034423828125,-0.02001953125
1761232035932357000,2.489357177734375,-0.8238525390625,-0.63134765625,0.0393524169921875
1761232035942427000,2.499427001953125,-0.769073486328125,-0.672515869140625,0.098175048828125
1761232035952496000,2.50949609375,-0.725616455078125,-0.7120361328125,0.1535797119140625
1761232035962566000,2.51956591796875,-0.7158203125,-0.7573699951171875,0.1944122314453125
1761232035972635100,2.52963525390625,-0.746734619140625,-0.804046630859375,0.21893310546875
1761232035982703900,2.539703857421875,-0.8052215576171875,-0.8444976806640625,0.2334442138671875
1761232035992774000,2.54977392578125,-0.859527587890625,-0.872833251953125,0.2202301025390625
1761232036002843000,2.5598427734375,-0.874725341796875,-0.8579254150390625,0.1688079833984375
1761232036012912400,2.569912353515625,-0.876983642578125,-0.7752532958984375,0.11212158203125
1761232036022981400,2.5799814453125,-0.899566650390625,-0.667144775390625,0.0598907470703125
1761232036033051400,2.590051513671875,-0.92010498046875,-0.5798492431640625,0.0186309814453125
1761232036043120400,2.600120361328125,-0.9294891357421875,-0.5185089111328125,-0.0058135986328125
1761232036053190400,2.6101904296875,-0.9234161376953125,-0.4833526611328125,-0.021820068359375
1761232036063259400,2.62025927734375,-0.88818359375,-0.4556427001953125,-0.029937744140625
1761232036073329400,2.630329345703125,-0.8558807373046875,-0.4311676025390625,-0.027191162109375
1761232036083398400,2.6403984375,-0.818359375,-0.42144775390625,-0.0123443603515625
1761232036093467400,2.65046728515625,-0.761444091796875,-0.422607421875,0.0091094970703125
1761232036103537400,2.660537353515625,-0.697052001953125,-0.423828125,0.025421142578125
1761232036113606400,2.6706064453125,-0.62841796875,-0.4229888916015625,0.0394744873046875
1761232036123676400,2.680676513671875,-0.573394775390625,-0.422607421875,0.0553131103515625
1761232036133745400,2.690745361328125,-0.5460357666015625,-0.4288330078125,0.072845458984375
1761232036143815400,2.7008154296875,-0.5321044921875,-0.44195556640625,0.0885467529296875
1761232036153884400,2.710884521484375,-0.509185791015625,-0.4498291015625,0.0937042236328125
1761232036163954400,2.720954345703125,-0.481201171875,-0.4463348388671875,0.086517333984375
1761232036174023400,2.7310234375,-0.4473419189453125,-0.433013916015625,0.0706329345703125
1761232036184093400,2.741093505859375,-0.42303466796875,-0.4214019775390625,0.053619384765625
1761232036194162400,2.751162353515625,-0.4244537353515625,-0.4246826171875,0.051971435546875
1761232036204232400,2.761232421875,-0.45172119140625,-0.4575653076171875,0.070159912109375
1761232036214301400,2.771301513671875,-0.4837493896484375,-0.50360107421875,0.097259521484375
1761232036224371500,2.781371337890625,-0.501556396484375,-0.552154541015625,0.13299560546875
1761232036234440400,2.7914404296875,-0.5276641845703125,-0.5996246337890625,0.1755218505859375
1761232036244509400,2.801509521484375,-0.610443115234375,-0.6399688720703125,0.2013702392578125
1761232036254579500,2.811579345703125,-0.730865478515625,-0.668365478515625,0.192596435546875
1761232036264648400,2.8216484375,-0.8343353271484375,-0.688568115234375,0.1755218505859375
1761232036274718500,2.831718505859375,-0.937255859375,-0.7076873779296875,0.197601318359375
1761232036284787500,2.841787353515625,-1.0559539794921875,-0.72247314453125,0.23809814453125
1761232036294857500,2.851857421875,-1.128814697265625,-0.70904541015625,0.2634735107421875
1761232036304926500,2.861926513671875,-1.17413330078125,-0.6794281005859375,0.2603607177734375
1761232036314996500,2.87199658203125,-1.1948089599609375,-0.63812255859375,0.228515625
1761232036325065500,2.8820654296875,-1.2000732421875,-0.5941314697265625,0.18072509765625
1761232036335135500,2.892135498046875,-1.1718597412109375,-0.570068359375,0.1391754150390625
1761232036345204500,2.90220458984375,-1.1497039794921875,-0.5614166259765625,0.120269775390625
1761232036355274500,2.9122744140625,-1.1495208740234375,-0.581024169921875,0.146636962890625
1761232036365343200,2.92234326171875,-1.15081787109375,-0.6192474365234375,0.1927032470703125
1761232036375412500,2.93241259765625,-1.1374664306640625,-0.63848876953125,0.219085693359375
1761232036385482500,2.942482421875,-1.09716796875,-0.6550140380859375,0.231658935546875
1761232036395551500,2.952551513671875,-1.073638916015625,-0.676300048828125,0.2233123779296875
1761232036405621500,2.96262158203125,-1.0441741943359375,-0.6921844482421875,0.2074127197265625
1761232036415690500,2.9726904296875,-1.0182037353515625,-0.7063751220703125,0.189453125
1761232036425760500,2.982760498046875,-0.98651123046875,-0.7083740234375,0.170318603515625
1761232036435829500,2.99282958984375,-0.9393310546875,-0.68377685546875,0.1468048095703125
1761232036445899500,3.0028994140625,-0.89111328125,-0.6268310546875,0.1234283447265625
1761232036455968300,3.01296826171875,-0.8373260498046875,-0.5571746826171875,0.11376953125
1761232036466038500,3.02303857421875,-0.7805023193359375,-0.4959259033203125,0.1116943359375
1761232036476107300,3.033107177734375,-0.7247467041015625,-0.44775390625,0.115081787109375
1761232036486177500,3.043177490234375,-0.67828369140625,-0.42254638671875,0.1194610595703125
1761232036496246300,3.053246337890625,-0.6390228271484375,-0.4183349609375,0.1175994873046875
1761232036506315500,3.0633154296875,-0.619903564453125,-0.4257659912109375,0.1168365478515625
1761232036516385500,3.073385498046875,-0.6129913330078125,-0.43292236328125,0.1146697998046875
1761232036526454500,3.08345458984375,-0.5905303955078125,-0.4223175048828125,0.0942230224609375
1761232036536524500,3.093524658203125,-0.5497283935546875,-0.391571044921875,0.0658721923828125
1761232036546593500,3.103593505859375,-0.505615234375,-0.359375,0.0506439208984375
1761232036556663600,3.11366357421875,-0.4735260009765625,-0.3515472412109375,0.05340576171875
1761232036566732300,3.123732177734375,-0.4605865478515625,-0.37640380859375,0.071533203125
1761232036576802600,3.133802490234375,-0.46826171875,-0.4149627685546875,0.104644775390625
1761232036586871300,3.143871337890625,-0.483154296875,-0.4521636962890625,0.141571044921875
1761232036596941600,3.153941650390625,-0.49725341796875,-0.50201416015625,0.17144775390625
1761232036607010300,3.16401025390625,-0.488800048828125,-0.591094970703125,0.1889801025390625
1761232036617080600,3.17408056640625,-0.4609375,-0.702606201171875,0.1909027099609375
1761232036627149300,3.1841494140625,-0.5125732421875,-0.831787109375,0.1510162353515625
1761232036637219300,3.19421923828125,-0.6891021728515625,-0.9254302978515625,0.0441741943359375
1761232036647288300,3.204288330078125,-0.867767333984375,-0.937896728515625,-0.0224151611328125
1761232036657357600,3.214357666015625,-1.0112762451171875,-0.897247314453125,-0.0475311279296875
1761232036667427600,3.224427490234375,-1.17059326171875,-0.8058624267578125,-0.0422515869140625
1761232036677496300,3.234496337890625,-1.221893310546875,-0.6319427490234375,-0.032745361328125
1761232036687566600,3.244566650390625,-1.1589813232421875,-0.42791748046875,-0.0314178466796875
1761232036697635300,3.25463525390625,-1.10992431640625,-0.3003692626953125,-0.0213470458984375
1761232036707705600,3.26470556640625,-1.067962646484375,-0.2323760986328125,-0.00201416015625
1761232036717774300,3.2747744140625,-1.05938720703125,-0.169189453125,0.02825927734375
1761232036727844400,3.28484423828125,-1.0181884765625,-0.1898193359375,0.1004791259765625
1761232036737913300,3.294913330078125,-1.0103607177734375,-0.3458404541015625,0.1855316162109375
1761232036747983400,3.3049833984375,-1.0686187744140625,-0.5792999267578125,0.231719970703125
1761232036758052400,3.31505224609375,-1.084625244140625,-0.7572479248046875,0.2287139892578125
1761232036768122400,3.325122314453125,-0.933197021484375,-0.8342437744140625,0.19171142578125
1761232036778191400,3.33519140625,-0.703521728515625,-0.88824462890625,0.16668701171875
1761232036788260400,3.34526025390625,-0.5639801025390625,-0.95892333984375,0.1793060302734375
1761232036798330600,3.35533056640625,-0.5533447265625,-1.0684967041015625,0.20965576171875
1761232036808399400,3.3653994140625,-0.612548828125,-1.17169189453125,0.21356201171875
1761232036818469600,3.3754697265625,-0.6709747314453125,-1.1851806640625,0.1694183349609375
1761232036828538400,3.385538330078125,-0.7153778076171875,-1.0932464599609375,0.116424560546875
1761232036838608400,3.3956083984375,-0.7576446533203125,-0.97509765625,0.0894927978515625
1761232036848677400,3.405677490234375,-0.8049774169921875,-0.89190673828125,0.1003875732421875
1761232036858747400,3.415747314453125,-0.83056640625,-0.841644287109375,0.1333770751953125
1761232036868816400,3.42581640625,-0.857666015625,-0.7713165283203125,0.1617431640625
1761232036878886400,3.435886474609375,-0.8866729736328125,-0.664093017578125,0.1630096435546875
1761232036888955400,3.445955322265625,-0.895843505859375,-0.54345703125,0.1634368896484375
1761232036899025400,3.456025390625,-0.8875579833984375,-0.43072509765625,0.173797607421875
1761232036909094400,3.466094482421875,-0.862060546875,-0.3544921875,0.1796112060546875
1761232036919164400,3.476164306640625,-0.8139190673828125,-0.31829833984375,0.180419921875
1761232036929233700,3.486233642578125,-0.7747344970703125,-0.308807373046875,0.18170166015625
1761232036939302400,3.496302490234375,-0.76275634765625,-0.3172149658203125,0.1792449951171875
1761232036949372400,3.506372314453125,-0.7388153076171875,-0.33233642578125,0.1778106689453125
1761232036959441400,3.51644140625,-0.696044921875,-0.3421630859375,0.1760711669921875
1761232036969511400,3.526511474609375,-0.651702880859375,-0.34375,0.1656646728515625
1761232036979580400,3.536580322265625,-0.61822509765625,-0.33941650390625,0.148712158203125
1761232036989650400,3.546650390625,-0.5814208984375,-0.32708740234375,0.12872314453125
1761232036999719400,3.556719482421875,-0.5501556396484375,-0.322479248046875,0.119842529296875
1761232037009789700,3.566789794921875,-0.542236328125,-0.3284454345703125,0.1236114501953125
1761232037019858700,3.576858642578125,-0.5600433349609375,-0.34893798828125,0.136138916015625
1761232037029928700,3.5869287109375,-0.5897064208984375,-0.3769989013671875,0.1470947265625
1761232037039997700,3.596997802734375,-0.604888916015625,-0.3890533447265625,0.1533050537109375
1761232037050067700,3.607067626953125,-0.6165313720703125,-0.38232421875,0.151641845703125
1761232037060136700,3.61713671875,-0.6503448486328125,-0.379425048828125,0.1519775390625
1761232037070206700,3.627206787109375,-0.685791015625,-0.378997802734375,0.147308349609375
1761232037080275700,3.637275634765625,-0.697021484375,-0.381500244140625,0.1462860107421875
1761232037090344700,3.6473447265625,-0.734039306640625,-0.4014434814453125,0.1512451171875
1761232037100414700,3.657414794921875,-0.779998779296875,-0.44482421875,0.1552581787109375
1761232037110483700,3.667483642578125,-0.8212127685546875,-0.50555419921875,0.1616668701171875
1761232037120553700,3.6775537109375,-0.8816375732421875,-0.5666656494140625,0.1685638427734375
1761232037130622700,3.687622802734375,-0.9454193115234375,-0.610260009765625,0.1751708984375
1761232037140692700,3.697692626953125,-0.989776611328125,-0.6190643310546875,0.174072265625
1761232037150761700,3.70776171875,-1.0165557861328125,-0.583831787109375,0.1461029052734375
1761232037160831700,3.717831787109375,-1.064605712890625,-0.537445068359375,0.100982666015625
1761232037170900500,3.727900390625,-1.1080169677734375,-0.5141448974609375,0.058807373046875
1761232037180970800,3.737970703125,-1.1355133056640625,-0.5096435546875,0.019561767578125
1761232037191039700,3.748039794921875,-1.1746978759765625,-0.515228271484375,-0.011077880859375
1761232037201109800,3.75810986328125,-1.212554931640625,-0.5322265625,-0.0305328369140625
1761232037211178800,3.7681787109375,-1.2202301025390625,-0.5461883544921875,-0.03692626953125
1761232037221247700,3.778247802734375,-1.1636505126953125,-0.549285888671875,-0.029022216796875
1761232037231317800,3.78831787109375,-1.0692138671875,-0.556610107421875,-0.00531005859375
1761232037241386800,3.79838671875,-0.967254638671875,-0.56597900390625,0.03857421875
1761232037251456800,3.808456787109375,-0.893890380859375,-0.5946044921875,0.08294677734375
1761232037261525500,3.818525390625,-0.8843841552734375,-0.6610260009765625,0.147308349609375
1761232037271595800,3.828595703125,-0.9289093017578125,-0.771575927734375,0.224090576171875
1761232037281664500,3.83866455078125,-0.9934234619140625,-0.89111328125,0.26971435546875
1761232037291734800,3.84873486328125,-1.0272674560546875,-0.9575347900390625,0.254058837890625
1761232037301803500,3.858803466796875,-1.00848388671875,-0.9055328369140625,0.1762237548828125
1761232037311873800,3.868873779296875,-0.9658050537109375,-0.773834228515625,0.107269287109375
1761232037321942800,3.87894287109375,-0.950714111328125,-0.6500701904296875,0.0520477294921875
1761232037332012500,3.889012451171875,-0.921966552734375,-0.5651702880859375,0.0235137939453125
1761232037342081800,3.899081787109375,-0.89019775390625,-0.49102783203125,0.0185699462890625
1761232037352151600,3.909151611328125,-0.8688812255859375,-0.41131591796875,0.028228759765625
1761232037362220800,3.919220703125,-0.8285369873046875,-0.3530731201171875,0.060791015625
1761232037372289500,3.92928955078125,-0.793853759765625,-0.3411865234375,0.1081390380859375
1761232037382359800,3.93935986328125,-0.7866973876953125,-0.368682861328125,0.150909423828125
1761232037392428500,3.949428466796875,-0.7938079833984375,-0.4069061279296875,0.1912689208984375
1761232037402498800,3.959498779296875,-0.7897491455078125,-0.4359130859375,0.22125244140625
1761232037412567600,3.969567626953125,-0.7844390869140625,-0.4452667236328125,0.2252197265625
1761232037422637800,3.979637939453125,-0.772857666015625,-0.4370574951171875,0.19769287109375
1761232037432706600,3.98970654296875,-0.759552001953125,-0.407470703125,0.146514892578125
1761232037442776600,3.999776611328125,-0.7380828857421875,-0.3687591552734375,0.0896453857421875
1761232037452845600,4.009845458984375,-0.6850738525390625,-0.3402252197265625,0.0368194580078125
1761232037462915600,4.01991552734375,-0.63232421875,-0.3211517333984375,-0.0224761962890625
1761232037472984800,4.02998486328125,-0.611328125,-0.310211181640625,-0.0776214599609375
1761232037483054600,4.0400546875,-0.652374267578125,-0.3230743408203125,-0.1026153564453125
1761232037493123800,4.050123779296875,-0.752532958984375,-0.372467041015625,-0.1050872802734375
1761232037503193600,4.060193603515625,-0.8679046630859375,-0.4148406982421875,-0.1068878173828125
1761232037513262800,4.070262939453125,-0.951202392578125,-0.409271240234375,-0.1170806884765625
1761232037523331600,4.08033154296875,-1.0339508056640625,-0.3709564208984375,-0.132354736328125
1761232037533401600,4.090401611328125,-1.07257080078125,-0.3160400390625,-0.1523590087890625
1761232037543470600,4.100470703125,-1.0281982421875,-0.2349853515625,-0.1950836181640625
1761232037553540600,4.11054052734375,-0.945526123046875,-0.146453857421875,-0.270111083984375
1761232037563609600,4.120609619140625,-0.84588623046875,-0.0928955078125,-0.343994140625
1761232037573679600,4.1306796875,-0.739715576171875,-0.1079864501953125,-0.372161865234375
1761232037583748600,4.14074853515625,-0.64569091796875,-0.194915771484375,-0.33123779296875
1761232037593818600,4.150818603515625,-0.606689453125,-0.3499908447265625,-0.2151641845703125
1761232037603887900,4.160887939453125,-0.636749267578125,-0.5447845458984375,-0.0747833251953125
1761232037613957600,4.17095751953125,-0.6874237060546875,-0.7102813720703125,0.0493621826171875
1761232037624027000,4.18102685546875,-0.6976165771484375,-0.82232666015625,0.1420745849609375
1761232037634096600,4.1910966796875,-0.6787261962890625,-0.88995361328125,0.188934326171875
1761232037644165600,4.20116552734375,-0.691375732421875,-0.921630859375,0.1929931640625
1761232037654235600,4.211235595703125,-0.74200439453125,-0.924468994140625,0.16510009765625
1761232037664304600,4.2213046875,-0.788726806640625,-0.8853759765625,0.127227783203125
1761232037674373600,4.23137353515625,-0.864654541015625,-0.8201751708984375,0.0980072021484375
1761232037684443600,4.241443603515625,-0.9792022705078125,-0.7548065185546875,0.0660552978515625
1761232037694512600,4.2515126953125,-1.0776824951171875,-0.69134521484375,0.0327301025390625
1761232037704582700,4.261582763671875,-1.1513671875,-0.63177490234375,0.01055908203125
1761232037714651600,4.271651611328125,-1.21441650390625,-0.5733795166015625,-0.001708984375
1761232037724721700,4.2817216796875,-1.2407989501953125,-0.512481689453125,-0.0153350830078125
1761232037734791000,4.291791015625,-1.211669921875,-0.442840576171875,-0.043304443359375
1761232037744860700,4.301860595703125,-1.1428375244140625,-0.39678955078125,-0.0785064697265625
1761232037754929700,4.3119296875,-1.0542449951171875,-0.39483642578125,-0.10028076171875
1761232037764999700,4.321999755859375,-0.9485626220703125,-0.4166412353515625,-0.102264404296875
1761232037775068700,4.332068603515625,-0.8697967529296875,-0.4235382080078125,-0.0971221923828125
1761232037785138700,4.342138671875,-0.8417510986328125,-0.3859405517578125,-0.089996337890625
1761232037795207700,4.352207763671875,-0.824005126953125,-0.334136962890625,-0.0599822998046875
1761232037805277700,4.362277587890625,-0.799224853515625,-0.2993621826171875,-0.0207672119140625
1761232037815346700,4.3723466796875,-0.77679443359375,-0.275238037109375,0.012908935546875
1761232037825415700,4.382415771484375,-0.76788330078125,-0.2484283447265625,0.031707763671875
1761232037835485700,4.392485595703125,-0.7674713134765625,-0.215606689453125,0.0366668701171875
1761232037845554700,4.4025546875,-0.7812042236328125,-0.18353271484375,0.0428009033203125
1761232037855624700,4.412624755859375,-0.7935333251953125,-0.1650848388671875,0.0447845458984375
1761232037865693700,4.422693603515625,-0.7894744873046875,-0.15777587890625,0.055572509765625
1761232037875763700,4.432763671875,-0.778656005859375,-0.192962646484375,0.0987091064453125
1761232037885832700,4.442832763671875,-0.7938995361328125,-0.2645721435546875,0.1522064208984375
1761232037895902700,4.45290283203125,-0.820770263671875,-0.3256683349609375,0.1969146728515625
1761232037905971700,4.4629716796875,-0.8622283935546875,-0.3570098876953125,0.2215728759765625
1761232037916041700,4.473041748046875,-0.8832550048828125,-0.3712921142578125,0.22222900390625
1761232037926110700,4.48311083984375,-0.88555908203125,-0.3897705078125,0.2122955322265625
1761232037936180500,4.493180419921875,-0.879852294921875,-0.425079345703125,0.21624755859375
1761232037946249700,4.503249755859375,-0.8903656005859375,-0.476104736328125,0.230224609375
1761232037956318700,4.513318603515625,-0.9366607666015625,-0.5145721435546875,0.232177734375
1761232037966388700,4.523388671875,-0.9767303466796875,-0.53271484375,0.2136077880859375
1761232037976457500,4.53345751953125,-1.0102691650390625,-0.529693603515625,0.1756744384765625
1761232037986527700,4.54352783203125,-1.0539093017578125,-0.4923248291015625,0.1406097412109375
1761232037996596500,4.553596435546875,-1.08856201171875,-0.4286346435546875,0.110931396484375
1761232038006666500,4.56366650390625,-1.129486083984375,-0.355377197265625,0.09625244140625
1761232038016735200,4.5737353515625,-1.160430908203125,-0.30291748046875,0.1153411865234375
1761232038026805500,4.583805419921875,-1.1954803466796875,-0.3034210205078125,0.159912109375
1761232038036874200,4.593874267578125,-1.231170654296875,-0.3380279541015625,0.1970367431640625
1761232038046944300,4.6039443359375,-1.2415008544921875,-0.3731231689453125,0.2115631103515625
1761232038057013200,4.61401318359375,-1.216033935546875,-0.392578125,0.2125244140625
1761232038067083300,4.624083251953125,-1.169158935546875,-0.4039154052734375,0.2082672119140625
1761232038077152300,4.63415234375,-1.1015625,-0.41558837890625,0.214569091796875
1761232038087222300,4.64422216796875,-1.0448150634765625,-0.4261474609375,0.23614501953125
1761232038097291500,4.65429150390625,-1.0156097412109375,-0.442413330078125,0.254058837890625
1761232038107360300,4.6643603515625,-1.0290679931640625,-0.4638671875,0.279388427734375
1761232038117430500,4.674430419921875,-1.0637969970703125,-0.4875946044921875,0.297607421875
1761232038127499300,4.684499267578125,-1.0799102783203125,-0.510589599609375,0.2777557373046875
1761232038137569500,4.694569580078125,-1.0634307861328125,-0.5053558349609375,0.2236480712890625
1761232038147638300,4.70463818359375,-1.04058837890625,-0.4738922119140625,0.1706695556640625
1761232038157708300,4.714708251953125,-1.0051727294921875,-0.4355621337890625,0.109130859375
1761232038167777300,4.72477734375,-0.96551513671875,-0.382904052734375,0.0470733642578125
1761232038177847300,4.734847412109375,-0.94805908203125,-0.3112335205078125,0.0101318359375
1761232038187916300,4.744916259765625,-0.94036865234375,-0.264373779296875,0.0064544677734375
1761232038197986300,4.754986328125,-0.9218292236328125,-0.2620391845703125,0.0179901123046875
1761232038208055300,4.76505517578125,-0.8749847412109375,-0.268585205078125,0.02984619140625
1761232038218125300,4.775125244140625,-0.811676025390625,-0.26385498046875,0.0457916259765625
1761232038228192300,4.785192138671875,-0.758941650390625,-0.26318359375,0.06671142578125
1761232038238261500,4.795261474609375,-0.72625732421875,-0.2780609130859375,0.0952606201171875
1761232038248331300,4.805331298828125,-0.7097320556640625,-0.299224853515625,0.1192626953125
1761232038258400500,4.815400390625,-0.6953887939453125,-0.3090667724609375,0.1281890869140625
1761232038268470300,4.82547021484375,-0.67083740234375,-0.3081207275390625,0.1173248291015625
1761232038278539500,4.83553955078125,-0.6539459228515625,-0.2979583740234375,0.0841217041015625
1761232038288609300,4.845609375,-0.6407012939453125,-0.28472900390625,0.047393798828125
1761232038298678300,4.85567822265625,-0.618560791015625,-0.2858428955078125,0.0240325927734375
1761232038308748300,4.865748291015625,-0.6136627197265625,-0.312469482421875,0.0159149169921875
1761232038318817300,4.8758173828125,-0.635589599609375,-0.356170654296875,0.027923583984375
1761232038328887600,4.885887451171875,-0.6627960205078125,-0.41717529296875,0.0471954345703125
1761232038338956300,4.895956298828125,-0.700592041015625,-0.4803466796875,0.0615234375
1761232038349026600,4.906026611328125,-0.7547149658203125,-0.538970947265625,0.0732879638671875
1761232038359095300,4.91609521484375,-0.868408203125,-0.5796356201171875,0.0679168701171875
1761232038369165300,4.926165283203125,-1.0047760009765625,-0.585357666015625,0.0199127197265625
1761232038379234300,4.936234375,-1.116729736328125,-0.5550079345703125,-0.06097412109375
1761232038389303600,4.946303466796875,-1.17083740234375,-0.5081329345703125,-0.1413116455078125
1761232038399373300,4.956373291015625,-1.162353515625,-0.474151611328125,-0.2153472900390625
1761232038409442300,4.9664423828125,-1.0952606201171875,-0.482879638671875,-0.28094482421875
1761232038419512300,4.97651220703125,-1.0210723876953125,-0.5105133056640625,-0.3238525390625
1761232038429581300,4.986581298828125,-1.0035400390625,-0.526031494140625,-0.3295745849609375
1761232038439651300,4.9966513671875,-1.0059661865234375,-0.552093505859375,-0.277984619140625
1761232038449720300,5.00672021484375,-1.0038604736328125,-0.5976409912109375,-0.1961669921875
1761232038459790600,5.01679052734375,-0.9591064453125,-0.638671875,-0.1204833984375
1761232038469859300,5.026859375,-0.8985137939453125,-0.6669158935546875,-0.0615081787109375
1761232038479929300,5.036929443359375,-0.821807861328125,-0.69659423828125,-0.0042877197265625
1761232038489998300,5.046998291015625,-0.7510986328125,-0.7493438720703125,0.053924560546875
1761232038500068400,5.057068359375,-0.74652099609375,-0.8129730224609375,0.0890960693359375
1761232038510137300,5.067137451171875,-0.777069091796875,-0.855316162109375,0.0854034423828125
1761232038520207400,5.077207275390625,-0.77227783203125,-0.85540771484375,0.0384521484375
1761232038530276400,5.0872763671875,-0.756134033203125,-0.8239593505859375,-0.0297088623046875
1761232038540345300,5.097345458984375,-0.7528533935546875,-0.7779388427734375,-0.085601806640625
1761232038550415400,5.107415283203125,-0.7555694580078125,-0.7093353271484375,-0.1141204833984375
1761232038560484400,5.117484375,-0.743255615234375,-0.5902557373046875,-0.1212615966796875
1761232038570554400,5.127554443359375,-0.7271728515625,-0.4614715576171875,-0.111968994140625
1761232038580623400,5.137623291015625,-0.7236785888671875,-0.3715057373046875,-0.096405029296875
1761232038590693400,5.147693359375,-0.73583984375,-0.32574462890625,-0.0790557861328125
1761232038600762400,5.157762451171875,-0.743865966796875,-0.31500244140625,-0.0726470947265625
1761232038610832400,5.167832275390625,-0.735076904296875,-0.31793212890625,-0.084259033203125
1761232038620901400,5.1779013671875,-0.697296142578125,-0.3184814453125,-0.093902587890625
1761232038630971400,5.187971435546875,-0.6432342529296875,-0.3218231201171875,-0.0940093994140625
1761232038641040400,5.198040283203125,-0.609954833984375,-0.3274383544921875,-0.09027099609375
1761232038651110400,5.2081103515625,-0.57794189453125,-0.327423095703125,-0.0778656005859375
1761232038661179400,5.218179443359375,-0.5528106689453125,-0.322662353515625,-0.041229248046875
1761232038671248400,5.228248291015625,-0.5545654296875,-0.3220977783203125,0.0163421630859375
1761232038681318400,5.238318359375,-0.5493316650390625,-0.3286895751953125,0.0816650390625
1761232038691387400,5.248387451171875,-0.534698486328125,-0.336029052734375,0.1388702392578125
1761232038701457200,5.25845703125,-0.52862548828125,-0.33941650390625,0.1822357177734375
1761232038711526400,5.2685263671875,-0.525634765625,-0.347137451171875,0.21624755859375
1761232038721596200,5.27859619140625,-0.55218505859375,-0.3498687744140625,0.2208251953125
1761232038731665400,5.28866552734375,-0.60662841796875,-0.335174560546875,0.2076263427734375
1761232038741735400,5.2987353515625,-0.6554412841796875,-0.328765869140625,0.1965789794921875
1761232038751804400,5.308804443359375,-0.703155517578125,-0.3528594970703125,0.19287109375
1761232038761874400,5.31887451171875,-0.7633209228515625,-0.402099609375,0.2097320556640625
1761232038771943400,5.328943359375,-0.82415771484375,-0.4710235595703125,0.2252655029296875
1761232038782013400,5.339013427734375,-0.862701416015625,-0.5426177978515625,0.22589111328125
1761232038792082400,5.34908251953125,-0.9088897705078125,-0.598419189453125,0.22314453125
1761232038802152400,5.35915234375,-0.9605712890625,-0.6378021240234375,0.2200927734375
1761232038812221200,5.36922119140625,-1.011505126953125,-0.6623992919921875,0.217620849609375
1761232038822292200,5.379292236328125,-1.05950927734375,-0.6651153564453125,0.22381591796875
1761232038832361500,5.389361572265625,-1.1405487060546875,-0.638702392578125,0.2381591796875
1761232038842431200,5.39943115234375,-1.2124176025390625,-0.59564208984375,0.2355499267578125
1761232038852500500,5.40950048828125,-1.2421875,-0.5438995361328125,0.2107696533203125
1761232038862570200,5.4195703125,-1.252166748046875,-0.5083160400390625,0.184722900390625
1761232038872639500,5.429639404296875,-1.2639923095703125,-0.4996337890625,0.164215087890625
1761232038882709200,5.439709228515625,-1.2654876708984375,-0.499237060546875,0.1511383056640625
1761232038892778500,5.449778564453125,-1.25103759765625,-0.499969482421875,0.1447296142578125
1761232038902848300,5.45984814453125,-1.2266845703125,-0.5093231201171875,0.132537841796875
1761232038912917200,5.469917236328125,-1.1956024169921875,-0.527374267578125,0.124755859375
1761232038922986200,5.479986328125,-1.1743316650390625,-0.5475616455078125,0.1427764892578125
1761232038933056300,5.49005615234375,-1.1724853515625,-0.5671234130859375,0.1678314208984375
1761232038943125200,5.500125244140625,-1.1487274169921875,-0.581451416015625,0.1771697998046875
1761232038953195300,5.5101953125,-1.1152496337890625,-0.5919952392578125,0.1786041259765625
1761232038963264500,5.520264404296875,-1.083465576171875,-0.614013671875,0.1733245849609375
1761232038973334300,5.530334228515625,-1.0523834228515625,-0.6600799560546875,0.1657867431640625
1761232038983403500,5.540403564453125,-1.0196380615234375,-0.70379638671875,0.15545654296875
1761232038993473300,5.550473388671875,-1.0012969970703125,-0.7115478515625,0.13287353515625
1761232039003542500,5.56054248046875,-0.983123779296875,-0.6732177734375,0.101806640625
1761232039013612500,5.570612548828125,-0.945281982421875,-0.6025390625,0.06646728515625
1761232039023681300,5.580681396484375,-0.8943328857421875,-0.5339813232421875,0.04052734375
1761232039033751600,5.59075146484375,-0.83953857421875,-0.4931793212890625,0.035247802734375
1761232039043820300,5.6008203125,-0.794769287109375,-0.472991943359375,0.0386505126953125
1761232039053890600,5.610890625,-0.765838623046875,-0.4613494873046875,0.04437255859375
1761232039063959300,5.620959228515625,-0.7477874755859375,-0.451263427734375,0.048431396484375
1761232039074028500,5.631028564453125,-0.7458038330078125,-0.4366455078125,0.0496673583984375
1761232039084098300,5.641098388671875,-0.7594757080078125,-0.4181671142578125,0.0527801513671875
1761232039094167600,5.65116748046875,-0.75677490234375,-0.398101806640625,0.040496826171875
1761232039104237600,5.661237548828125,-0.7373046875,-0.3716583251953125,0.0184326171875
1761232039114306600,5.671306640625,-0.7310943603515625,-0.3365936279296875,-0.003936767578125
1761232039124376600,5.68137646484375,-0.7191009521484375,-0.302642822265625,-0.021392822265625
1761232039134445300,5.6914453125,-0.6945648193359375,-0.2832489013671875,-0.0326995849609375
1761232039144515600,5.701515625,-0.6761474609375,-0.2788848876953125,-0.0323944091796875
1761232039154584300,5.711584228515625,-0.6641845703125,-0.2942352294921875,-0.0244903564453125
1761232039164654600,5.721654541015625,-0.6555328369140625,-0.3153533935546875,-0.0103912353515625
1761232039174723300,5.731723388671875,-0.6816558837890625,-0.3382415771484375,0.01043701171875
1761232039184793600,5.741793701171875,-0.7010498046875,-0.3783111572265625,0.02838134765625
1761232039194862300,5.7518623046875,-0.7037506103515625,-0.4318389892578125,0.0396270751953125
1761232039204931600,5.761931640625,-0.7267608642578125,-0.4611358642578125,0.0368804931640625
1761232039215001300,5.77200146484375,-0.7703094482421875,-0.4559783935546875,0.01275634765625
1761232039225070600,5.782070556640625,-0.81378173828125,-0.4462127685546875,-0.0355987548828125
1761232039235140400,5.792140380859375,-0.863189697265625,-0.4361114501953125,-0.1014251708984375
1761232039245209300,5.802209228515625,-0.917572021484375,-0.433349609375,-0.145965576171875
1761232039255279600,5.812279541015625,-0.9651031494140625,-0.445159912109375,-0.1618804931640625
1761232039265348400,5.822348388671875,-1.000640869140625,-0.4451751708984375,-0.16461181640625
1761232039275418600,5.832418701171875,-1.024200439453125,-0.41064453125,-0.1671905517578125
1761232039285487400,5.8424873046875,-1.0164642333984375,-0.37603759765625,-0.16827392578125
1761232039295557400,5.852557373046875,-0.9922027587890625,-0.3712005615234375,-0.166015625
1761232039305626400,5.86262646484375,-0.958953857421875,-0.40667724609375,-0.1535797119140625
1761232039315696400,5.8726962890625,-0.91790771484375,-0.4841766357421875,-0.1257781982421875
1761232039325765400,5.882765380859375,-0.8998260498046875,-0.57012939453125,-0.0700531005859375
1761232039335835400,5.89283544921875,-0.891448974609375,-0.632843017578125,-0.0170135498046875
1761232039345904400,5.902904296875,-0.88177490234375,-0.68426513671875,0.02734375
1761232039355973400,5.912973388671875,-0.86077880859375,-0.728271484375,0.0745849609375
1761232039366043400,5.92304345703125,-0.8470306396484375,-0.769256591796875,0.122772216796875
1761232039376112400,5.9331123046875,-0.843536376953125,-0.80517578125,0.1595306396484375
1761232039386182700,5.9431826171875,-0.845855712890625,-0.8312835693359375,0.17364501953125
1761232039396251400,5.95325146484375,-0.8617095947265625,-0.84698486328125,0.166412353515625
1761232039406321400,5.9633212890625,-0.8792724609375,-0.847686767578125,0.1361541748046875
1761232039416390400,5.973390380859375,-0.91064453125,-0.8138580322265625,0.0980987548828125
1761232039426460400,5.98346044921875,-0.952362060546875,-0.740081787109375,0.0507659912109375
1761232039436529400,5.993529296875,-0.9630584716796875,-0.6439971923828125,-0.0167388916015625
1761232039446599400,6.003599365234375,-0.9608154296875,-0.5537109375,-0.0850067138671875
1761232039456668400,6.01366845703125,-0.9438323974609375,-0.486419677734375,-0.1427154541015625
1761232039466738400,6.023738525390625,-0.9058990478515625,-0.4404449462890625,-0.177886962890625
1761232039476807400,6.033807373046875,-0.862152099609375,-0.4138641357421875,-0.1848297119140625
1761232039486877400,6.04387744140625,-0.8290863037109375,-0.41131591796875,-0.1626739501953125
1761232039496946400,6.053946533203125,-0.8119049072265625,-0.429107666015625,-0.12371826171875
1761232039507015400,6.064015380859375,-0.778289794921875,-0.4388427734375,-0.0986785888671875
1761232039517085400,6.07408544921875,-0.7301177978515625,-0.430450439453125,-0.09228515625
1761232039527154400,6.084154541015625,-0.699310302734375,-0.4100799560546875,-0.100006103515625
1761232039537224400,6.094224365234375,-0.691680908203125,-0.3928985595703125,-0.0967559814453125
1761232039547293400,6.10429345703125,-0.6923828125,-0.3970947265625,-0.075897216796875
1761232039557363500,6.114363525390625,-0.6934814453125,-0.4134063720703125,-0.0476531982421875
1761232039567432400,6.124432373046875,-0.6850738525390625,-0.4224395751953125,-0.03338623046875
1761232039577502500,6.13450244140625,-0.6718902587890625,-0.4144134521484375,-0.0363922119140625
1761232039587571500,6.144571533203125,-0.674224853515625,-0.402130126953125,-0.0475921630859375
1761232039597641500,6.154641357421875,-0.6779022216796875,-0.402557373046875,-0.0570831298828125
1761232039607710500,6.16471044921875,-0.6780548095703125,-0.4036712646484375,-0.0579986572265625
1761232039617780500,6.174780517578125,-0.6786346435546875,-0.3866119384765625,-0.055328369140625
1761232039627849200,6.18484912109375,-0.6836090087890625,-0.3569793701171875,-0.0452117919921875
1761232039637918500,6.19491845703125,-0.685699462890625,-0.3324432373046875,-0.02099609375
1761232039647988500,6.204988525390625,-0.6846466064453125,-0.3391571044921875,0.0219879150390625
1761232039658057500,6.215057373046875,-0.68402099609375,-0.3703460693359375,0.062896728515625
1761232039668127500,6.22512744140625,-0.682861328125,-0.407562255859375,0.1060638427734375
1761232039678196500,6.235196533203125,-0.68798828125,-0.47442626953125,0.156402587890625
1761232039688266500,6.2452666015625,-0.7145233154296875,-0.567596435546875,0.1935577392578125
1761232039698335500,6.25533544921875,-0.767364501953125,-0.64385986328125,0.21051025390625
1761232039708405500,6.265405517578125,-0.8153076171875,-0.6880950927734375,0.2012786865234375
1761232039718474500,6.275474609375,-0.8275146484375,-0.710479736328125,0.1804962158203125
1761232039728544500,6.28554443359375,-0.8256378173828125,-0.7170562744140625,0.176239013671875
1761232039738613200,6.29561328125,-0.834259033203125,-0.71405029296875,0.1908416748046875
1761232039748683500,6.30568359375,-0.8544769287109375,-0.7058868408203125,0.2052764892578125
1761232039758752300,6.315752197265625,-0.8740081787109375,-0.6948699951171875,0.204833984375
1761232039768822500,6.325822509765625,-0.8956756591796875,-0.67254638671875,0.1900177001953125
1761232039778891300,6.335891357421875,-0.930877685546875,-0.63751220703125,0.18206787109375
1761232039788960500,6.34596044921875,-0.9593353271484375,-0.6049041748046875,0.18792724609375
1761232039799030500,6.356030517578125,-0.97784423828125,-0.581146240234375,0.2016143798828125
1761232039809099500,6.366099609375,-1.007080078125,-0.57171630859375,0.2212371826171875
1761232039819169500,6.37616943359375,-1.034698486328125,-0.5766754150390625,0.2426300048828125
1761232039829238500,6.386238525390625,-1.052215576171875,-0.58441162109375,0.281219482421875
1761232039839308500,6.39630859375,-1.1150970458984375,-0.5587615966796875,0.297271728515625
1761232039849377300,6.406377197265625,-1.1383056640625,-0.5319671630859375,0.319305419921875
1761232039859447600,6.416447509765625,-1.081390380859375,-0.5740966796875,0.3368682861328125
1761232039869516300,6.426516357421875,-1.0558319091796875,-0.614227294921875,0.3439483642578125
1761232039879586600,6.436586669921875,-1.0457000732421875,-0.655914306640625,0.3495330810546875
1761232039889655300,6.4466552734375,-0.995849609375,-0.7328338623046875,0.33160400390625
1761232039899725300,6.456725341796875,-0.8949127197265625,-0.82733154296875,0.2883148193359375
1761232039909794300,6.466794189453125,-0.8005218505859375,-0.859619140625,0.220458984375
1761232039919863600,6.476863525390625,-0.742889404296875,-0.785552978515625,0.153656005859375
1761232039929933600,6.48693359375,-0.7527618408203125,-0.674468994140625,0.097808837890625
1761232039940002600,6.49700244140625,-0.82757568359375,-0.610595703125,0.0610809326171875
1761232039950072600,6.507072509765625,-0.85357666015625,-0.5481414794921875,0.0264434814453125
1761232039960141300,6.517141357421875,-0.821533203125,-0.492889404296875,0.0149078369140625
1761232039970211600,6.527211669921875,-0.805328369140625,-0.4515838623046875,0.0234832763671875
1761232039980280300,6.5372802734375,-0.8074493408203125,-0.4471893310546875,0.0424652099609375
1761232039990350600,6.5473505859375,-0.82513427734375,-0.47149658203125,0.0444793701171875
1761232040000419300,6.55741943359375,-0.8248443603515625,-0.4864959716796875,0.0245208740234375
1761232040010489300,6.5674892578125,-0.776580810546875,-0.4699249267578125,0.001556396484375
1761232040020558300,6.577558349609375,-0.719512939453125,-0.4481048583984375,-0.019744873046875
1761232040030628000,6.587628173828125,-0.6669921875,-0.4354248046875,-0.0202789306640625
1761232040040697300,6.597697265625,-0.6300506591796875,-0.4325714111328125,0.001068115234375
1761232040050767400,6.607767333984375,-0.6275634765625,-0.4376220703125,0.0263671875
1761232040060836400,6.61783642578125,-0.64971923828125,-0.442413330078125,0.058349609375
1761232040070905000,6.627905029296875,-0.6938629150390625,-0.4318084716796875,0.067352294921875
1761232040080975400,6.637975341796875,-0.7296295166015625,-0.425079345703125,0.06689453125
1761232040091044400,6.64804443359375,-0.7624053955078125,-0.4277801513671875,0.0560302734375
1761232040101114400,6.6581142578125,-0.779266357421875,-0.450531005859375,0.019287109375
1761232040111183400,6.668183349609375,-0.7601470947265625,-0.4912109375,-0.014862060546875
1761232040121253400,6.67825341796875,-0.7322235107421875,-0.5172576904296875,-0.0334625244140625
1761232040131322400,6.688322265625,-0.7147064208984375,-0.5259552001953125,-0.04376220703125
1761232040141392100,6.69839208984375,-0.74993896484375,-0.539337158203125,-0.03424072265625
1761232040151461400,6.70846142578125,-0.8604888916015625,-0.5634002685546875,-0.0219573974609375
1761232040161531100,6.71853125,-0.9849700927734375,-0.6028900146484375,-0.015655517578125
1761232040171600400,6.728600341796875,-1.0667266845703125,-0.6041259765625,-0.0188446044921875
1761232040181670400,6.73867041015625,-1.0890960693359375,-0.570343017578125,-0.038970947265625
1761232040191739400,6.748739501953125,-1.0701141357421875,-0.527099609375,-0.0580291748046875
1761232040201808100,6.75880810546875,-1.0125732421875,-0.47698974609375,-0.0753173828125
1761232040211878400,6.76887841796875,-0.9508209228515625,-0.445404052734375,-0.0876007080078125
1761232040221947400,6.778947509765625,-0.9091949462890625,-0.4393310546875,-0.09490966796875
1761232040232017200,6.78901708984375,-0.89227294921875,-0.4621734619140625,-0.07940673828125
1761232040242086400,6.79908642578125,-0.866546630859375,-0.5207061767578125,-0.0287933349609375
1761232040252156200,6.80915625,-0.8303070068359375,-0.6048126220703125,0.037109375
1761232040262225400,6.819225341796875,-0.8057708740234375,-0.66259765625,0.1005096435546875
1761232040272295200,6.829295166015625,-0.8152923583984375,-0.7066802978515625,0.1704254150390625
1761232040282364400,6.839364501953125,-0.8365478515625,-0.752960205078125,0.2250213623046875
1761232040292434200,6.84943408203125,-0.8471527099609375,-0.7955474853515625,0.262420654296875
1761232040302503400,6.85950341796875,-0.86700439453125,-0.8229217529296875,0.2881011962890625
1761232040312573400,6.869573486328125,-0.894256591796875,-0.8332061767578125,0.2804107666015625
1761232040322642400,6.879642333984375,-0.9002227783203125,-0.825225830078125,0.2537994384765625
1761232040332712400,6.88971240234375,-0.885101318359375,-0.802825927734375,0.220977783203125
1761232040342781200,6.89978125,-0.8648223876953125,-0.76287841796875,0.162933349609375
1761232040352850200,6.90985009765625,-0.8555908203125,-0.696990966796875,0.0999755859375
1761232040362920200,6.919920166015625,-0.8928985595703125,-0.6063232421875,0.0229644775390625
1761232040372989400,6.929989501953125,-0.9153594970703125,-0.550201416015625,-0.022979736328125
1761232040383059200,6.94005908203125,-0.916290283203125,-0.52520751953125,-0.050506591796875
1761232040393128400,6.95012841796875,-0.899383544921875,-0.50164794921875,-0.0716094970703125
1761232040403198200,6.9601982421875,-0.8644256591796875,-0.467376708984375,-0.0733795166015625
1761232040413267500,6.970267333984375,-0.8089599609375,-0.4403839111328125,-0.064971923828125
1761232040423337200,6.980337158203125,-0.751556396484375,-0.4269866943359375,-0.048370361328125
1761232040433406500,6.990406494140625,-0.7048492431640625,-0.408905029296875,-0.046295166015625
1761232040443476200,7.000476318359375,-0.6595001220703125,-0.388916015625,-0.0436248779296875
1761232040453545200,7.010545166015625,-0.6292724609375,-0.369384765625,-0.02001953125
1761232040463615500,7.020615478515625,-0.6441497802734375,-0.3633575439453125,0.0022125244140625
1761232040473684200,7.030684326171875,-0.6820068359375,-0.3746490478515625,0.0219573974609375
1761232040483753200,7.040753173828125,-0.7106475830078125,-0.3928375244140625,0.0352783203125
1761232040493823200,7.0508232421875,-0.7182464599609375,-0.3928070068359375,0.034454345703125
1761232040503892500,7.060892578125,-0.7088623046875,-0.3719024658203125,0.02294921875
1761232040513962200,7.070962158203125,-0.6954193115234375,-0.34735107421875,0.0076751708984375
1761232040524031500,7.081031494140625,-0.6829986572265625,-0.3317718505859375,0.00634765625
1761232040534101200,7.091101318359375,-0.668914794921875,-0.32244873046875,0.017730712890625
1761232040544170500,7.10117041015625,-0.64471435546875,-0.3185882568359375,0.03118896484375
1761232040554240300,7.111240234375,-0.6275787353515625,-0.3314056396484375,0.0566253662109375
1761232040564309200,7.121309326171875,-0.6340789794921875,-0.3548736572265625,0.0951385498046875
1761232040574379300,7.131379150390625,-0.6478729248046875,-0.36578369140625,0.13006591796875
1761232040584448300,7.1414482421875,-0.6407318115234375,-0.389190673828125,0.1700439453125
1761232040594518500,7.1515185546875,-0.601287841796875,-0.442535400390625,0.2283172607421875
1761232040604587300,7.161587158203125,-0.598175048828125,-0.49755859375,0.2827301025390625
1761232040614656300,7.17165625,-0.6630706787109375,-0.570068359375,0.3131256103515625
1761232040624726300,7.181726318359375,-0.7669219970703125,-0.64532470703125,0.2999267578125
1761232040634795500,7.19179541015625,-0.83917236328125,-0.7008056640625,0.2530975341796875
1761232040644865300,7.201865234375,-0.8675079345703125,-0.7301177978515625,0.2070770263671875
1761232040654934500,7.2119345703125,-0.8638916015625,-0.74871826171875,0.186737060546875
1761232040665004300,7.22200439453125,-0.8583984375,-0.7481842041015625,0.173004150390625
1761232040675073300,7.2320732421875,-0.889556884765625,-0.716339111328125,0.161407470703125
1761232040685143300,7.242143310546875,-0.9235992431640625,-0.6595611572265625,0.1547088623046875
1761232040695212300,7.25221240234375,-0.9386749267578125,-0.6059417724609375,0.151336669921875
1761232040705282300,7.2622822265625,-0.944061279296875,-0.5793609619140625,0.14715576171875
1761232040715351300,7.272351318359375,-0.9573211669921875,-0.593292236328125,0.150054931640625
1761232040725421300,7.28242138671875,-0.983551025390625,-0.647247314453125,0.166595458984375
1761232040735490300,7.292490234375,-0.976470947265625,-0.7181396484375,0.1807403564453125
1761232040745560300,7.302560302734375,-0.9381866455078125,-0.765594482421875,0.1906280517578125
1761232040755629300,7.31262939453125,-0.9197845458984375,-0.7877044677734375,0.19775390625
1761232040765698600,7.322698486328125,-0.9014892578125,-0.8189849853515625,0.2086944580078125
1761232040775768300,7.332768310546875,-0.889678955078125,-0.8677978515625,0.2252197265625
1761232040785837300,7.34283740234375,-0.8903350830078125,-0.9193878173828125,0.2443084716796875
1761232040795907300,7.3529072265625,-0.920196533203125,-0.9506072998046875,0.2611083984375
1761232040805976300,7.362976318359375,-0.959686279296875,-0.9574432373046875,0.2657012939453125
1761232040816046300,7.37304638671875,-0.98846435546875,-0.925384521484375,0.2445068359375
1761232040826115300,7.383115234375,-0.9814300537109375,-0.84674072265625,0.197052001953125
1761232040836185300,7.393185302734375,-0.9688873291015625,-0.7469940185546875,0.1470489501953125
1761232040846254300,7.40325439453125,-0.947418212890625,-0.6434478759765625,0.0969390869140625
1761232040856324000,7.413323974609375,-0.9006195068359375,-0.557281494140625,0.055450439453125
1761232040866393300,7.423393310546875,-0.8467559814453125,-0.496795654296875,0.031036376953125
1761232040876462300,7.43346240234375,-0.7910614013671875,-0.450164794921875,0.021392822265625
1761232040886532400,7.443532470703125,-0.729400634765625,-0.409698486328125,0.0270538330078125
1761232040896601000,7.45360107421875,-0.674896240234375,-0.3752288818359375,0.0400848388671875
1761232040906671400,7.46367138671875,-0.641571044921875,-0.3499908447265625,0.0479583740234375
1761232040916740400,7.473740234375,-0.6166229248046875,-0.34014892578125,0.051544189453125
1761232040926810400,7.483810302734375,-0.607879638671875,-0.347137451171875,0.0596771240234375
1761232040936879400,7.49387939453125,-0.6051025390625,-0.365264892578125,0.0671539306640625
1761232040946949000,7.50394921875,-0.5997467041015625,-0.3718719482421875,0.06475830078125
1761232040957018400,7.514018310546875,-0.582305908203125,-0.3588714599609375,0.0364837646484375
1761232040967088000,7.524088134765625,-0.5611114501953125,-0.3501739501953125,0.008514404296875
1761232040977157400,7.534157470703125,-0.56744384765625,-0.3561553955078125,-0.014617919921875
1761232040987227100,7.54422705078125,-0.58868408203125,-0.3910675048828125,-0.0225982666015625
1761232040997296400,7.55429638671875,-0.6077117919921875,-0.4608612060546875,-0.0019683837890625
1761232041007366400,7.564366455078125,-0.63677978515625,-0.5284881591796875,0.0246124267578125
1761232041017439200,7.574439208984375,-0.6991424560546875,-0.5743560791015625,0.0516510009765625
1761232041027508000,7.584508056640625,-0.777191162109375,-0.610504150390625,0.058563232421875
1761232041037578000,7.594577880859375,-0.8471832275390625,-0.634521484375,0.0331573486328125
1761232041047647000,7.60464697265625,-0.911590576171875,-0.6357574462890625,-0.0135345458984375
1761232041057717000,7.614717041015625,-0.9723052978515625,-0.6227874755859375,-0.05535888671875
1761232041067786200,7.6247861328125,-0.9906768798828125,-0.619964599609375,-0.082733154296875
1761232041077856000,7.63485595703125,-0.97772216796875,-0.62579345703125,-0.1011810302734375
1761232041087925200,7.64492529296875,-0.94696044921875,-0.6169586181640625,-0.11395263671875
1761232041097995000,7.6549951171875,-0.9124908447265625,-0.593658447265625,-0.117828369140625
1761232041108064300,7.665064208984375,-0.879150390625,-0.5774383544921875,-0.1185455322265625
1761232041118134000,7.675134033203125,-0.8544464111328125,-0.5849761962890625,-0.1026611328125
1761232041128203300,7.685203369140625,-0.8187255859375,-0.630523681640625,-0.0413970947265625
1761232041138272000,7.69527197265625,-0.7756500244140625,-0.6992034912109375,0.04644775390625
1761232041148342000,7.705342041015625,-0.760345458984375,-0.7580413818359375,0.1139373779296875
1761232041158411000,7.715410888671875,-0.7671356201171875,-0.827056884765625,0.1746978759765625
1761232041168481000,7.72548095703125,-0.77154541015625,-0.9087371826171875,0.2252197265625
1761232041178550000,7.735550048828125,-0.7848663330078125,-0.960418701171875,0.2339935302734375
1761232041188620000,7.7456201171875,-0.8098297119140625,-0.95458984375,0.196014404296875
1761232041198689300,7.755689208984375,-0.8206787109375,-0.921478271484375,0.1357269287109375
1761232041208759000,7.765759033203125,-0.811798095703125,-0.8902130126953125,0.077850341796875
1761232041218828300,7.775828369140625,-0.8072357177734375,-0.8527374267578125,0.0455169677734375
1761232041228898000,7.78589794921875,-0.843353271484375,-0.783843994140625,0.0303497314453125
1761232041238967300,7.79596728515625,-0.8627777099609375,-0.6905517578125,0.0048828125
1761232041249037000,7.806037109375,-0.8502349853515625,-0.6016693115234375,-0.02777099609375
1761232041259106000,7.81610595703125,-0.806793212890625,-0.5369415283203125,-0.0557708740234375
1761232041269175000,7.826175048828125,-0.7562103271484375,-0.4963226318359375,-0.0820770263671875
1761232041279245000,7.8362451171875,-0.7088470458984375,-0.47174072265625,-0.1088104248046875
1761232041289314000,7.84631396484375,-0.6753997802734375,-0.45654296875,-0.134857177734375
1761232041299384000,7.856384033203125,-0.6608734130859375,-0.4415283203125,-0.150543212890625
1761232041309453000,7.866453125,-0.65814208984375,-0.4361572265625,-0.1438140869140625
1761232041319523000,7.876523193359375,-0.65899658203125,-0.446014404296875,-0.1195526123046875
1761232041329592000,7.886592041015625,-0.678375244140625,-0.455657958984375,-0.088134765625
1761232041339662000,7.896662109375,-0.686676025390625,-0.45709228515625,-0.054534912109375
1761232041349731300,7.9067314453125,-0.681610107421875,-0.4525604248046875,-0.0245819091796875
1761232041359801000,7.916801025390625,-0.682159423828125,-0.436370849609375,-0.0078125
1761232041369870000,7.9268701171875,-0.6921234130859375,-0.423736572265625,-0.0008544921875
1761232041379940000,7.936940185546875,-0.70550537109375,-0.418975830078125,0.00115966796875
1761232041390009000,7.947009033203125,-0.722686767578125,-0.4081573486328125,-0.009033203125
1761232041400078000,7.957078125,-0.7225494384765625,-0.39520263671875,-0.02435302734375
1761232041410148000,7.967148193359375,-0.7042388916015625,-0.3974456787109375,-0.0298004150390625
1761232041420217000,7.977217041015625,-0.7044677734375,-0.404937744140625,-0.0247344970703125
1761232041430287000,7.987287109375,-0.74371337890625,-0.4185791015625,-0.003173828125
1761232041440356000,7.997356201171875,-0.76727294921875,-0.4517364501953125,0.037994384765625
1761232041450426000,8.007426025390625,-0.7591552734375,-0.495880126953125,0.0809173583984375
1761232041460495000,8.0174951171875,-0.742889404296875,-0.54595947265625,0.1357879638671875
1761232041470565000,8.027565185546875,-0.7312774658203125,-0.6243896484375,0.192474365234375
1761232041480634000,8.037634033203124,-0.759185791015625,-0.70892333984375,0.2324371337890625
1761232041490704100,8.0477041015625,-0.835235595703125,-0.7628021240234375,0.24212646484375
1761232041500773000,8.057773193359376,-0.92547607421875,-0.78692626953125,0.2227325439453125
1761232041510843100,8.067843017578125,-0.94537353515625,-0.7860260009765625,0.1856536865234375
1761232041520912100,8.077912109375,-0.8974761962890625,-0.757843017578125,0.150726318359375
1761232041530981000,8.087981201171875,-0.873199462890625,-0.7137908935546875,0.134979248046875
1761232041541051100,8.098051025390625,-0.8874053955078125,-0.6759185791015625,0.133697509765625
1761232041551120100,8.1081201171875,-0.914703369140625,-0.641357421875,0.13525390625
1761232041561190100,8.118190185546876,-0.9259490966796875,-0.613311767578125,0.129791259765625
1761232041571259100,8.128259033203125,-0.9360809326171875,-0.6079559326171875,0.1234588623046875
1761232041581329200,8.1383291015625,-0.9678955078125,-0.6210174560546875,0.121917724609375
1761232041591398000,8.14839794921875,-0.99212646484375,-0.624725341796875,0.1122283935546875
1761232041601468200,8.15846826171875,-0.958221435546875,-0.6072998046875,0.1074371337890625
1761232041611537200,8.168537109375,-0.94305419921875,-0.58819580078125,0.118072509765625
1761232041621607200,8.178607177734374,-0.963348388671875,-0.5826873779296875,0.137664794921875
1761232041631676200,8.18867626953125,-0.9714202880859375,-0.5868988037109375,0.162872314453125
1761232041641745200,8.1987451171875,-0.9796905517578125,-0.60345458984375,0.194427490234375
1761232041651815200,8.208815185546875,-1.000640869140625,-0.6590423583984375,0.22662353515625
1761232041661884200,8.21888427734375,-1.0376129150390625,-0.725372314453125,0.24658203125
1761232041671954200,8.2289541015625,-1.0575103759765625,-0.747833251953125,0.2284393310546875
1761232041682023200,8.239023193359374,-1.0286865234375,-0.703582763671875,0.166748046875
1761232041692093200,8.24909326171875,-0.9606170654296875,-0.624359130859375,0.0911712646484375
1761232041702162000,8.259161865234375,-0.888580322265625,-0.5438079833984375,0.0250396728515625
1761232041712232200,8.269232177734375,-0.8077545166015625,-0.4700927734375,-0.0142974853515625
1761232041722301000,8.279301025390625,-0.7516632080078125,-0.4278717041015625,-0.0106201171875
1761232041732371200,8.28937109375,-0.7481689453125,-0.4471588134765625,0.026214599609375
1761232041742440200,8.299440185546874,-0.80035400390625,-0.4853973388671875,0.0721588134765625
1761232041752510000,8.309510009765624,-0.8628082275390625,-0.5003662109375,0.0892333984375
1761232041762579200,8.3195791015625,-0.8693695068359375,-0.489898681640625,0.07196044921875
1761232041772648200,8.329648193359375,-0.8319091796875,-0.4649810791015625,0.0388946533203125
1761232041782718200,8.33971826171875,-0.80615234375,-0.4449310302734375,0.00958251953125
1761232041792787200,8.349787109375,-0.79498291015625,-0.4404449462890625,-0.0052032470703125
1761232041802857200,8.359857177734375,-0.7818756103515625,-0.44134521484375,-0.011932373046875
1761232041812926000,8.369926025390624,-0.7856597900390625,-0.4373016357421875,-0.012847900390625
1761232041822996200,8.379996337890624,-0.7934417724609375,-0.425506591796875,-0.02032470703125
1761232041833065000,8.39006494140625,-0.790191650390625,-0.403106689453125,-0.0422821044921875
1761232041843135200,8.40013525390625,-0.7790985107421875,-0.375701904296875,-0.0555267333984375
1761232041853204000,8.410203857421875,-0.778564453125,-0.3563079833984375,-0.061187744140625
1761232041863274000,8.42027392578125,-0.7840423583984375,-0.3511505126953125,-0.0694580078125
1761232041873343000,8.430343017578124,-0.7879180908203125,-0.353790283203125,-0.075531005859375
1761232041883412200,8.440412109375,-0.786712646484375,-0.36322021484375,-0.0754241943359375
1761232041893482200,8.450482177734376,-0.79351806640625,-0.39361572265625,-0.0570220947265625
1761232041903551000,8.460551025390625,-0.8196868896484375,-0.44842529296875,-0.0230255126953125
1761232041913621200,8.470621337890625,-0.8486785888671875,-0.493682861328125,-0.003082275390625
1761232041923690000,8.48068994140625,-0.86932373046875,-0.5123748779296875,-0.0160369873046875
1761232041933760300,8.49076025390625,-0.8924102783203125,-0.514801025390625,-0.0524444580078125
1761232041943829000,8.5008291015625,-0.924713134765625,-0.51068115234375,-0.09130859375
1761232041953899300,8.510899169921874,-0.951904296875,-0.504974365234375,-0.1274261474609375
1761232041963968000,8.520968017578125,-0.978790283203125,-0.5061798095703125,-0.1487274169921875
1761232041974038000,8.5310380859375,-0.9633636474609375,-0.5097198486328125,-0.1598358154296875
1761232041984107000,8.54110693359375,-0.9024505615234375,-0.4932098388671875,-0.1768341064453125
1761232041994177000,8.551177001953125,-0.822174072265625,-0.466278076171875,-0.1908721923828125
1761232042004246000,8.56124609375,-0.76153564453125,-0.467010498046875,-0.17242431640625
1761232042014312000,8.57131201171875,-0.7744140625,-0.508270263671875,-0.107666015625
1761232042024382200,8.58138232421875,-0.8061981201171875,-0.567413330078125,-0.040679931640625
1761232042034451000,8.591450927734375,-0.82794189453125,-0.619537353515625,0.00726318359375
1761232042044521200,8.601521240234375,-0.84130859375,-0.67047119140625,0.0542755126953125
1761232042054590200,8.611590087890624,-0.8383636474609375,-0.7337493896484375,0.1058349609375
1761232042064660000,8.621659912109376,-0.83990478515625,-0.807861328125,0.1552734375
1761232042074729200,8.631729248046875,-0.8592681884765625,-0.877349853515625,0.1861724853515625
1761232042084799000,8.641799072265625,-0.8724822998046875,-0.919403076171875,0.1805877685546875
1761232042094868200,8.6518681640625,-0.8784027099609375,-0.906982421875,0.1365814208984375
1761232042104938000,8.66193798828125,-0.8918304443359375,-0.838623046875,0.071014404296875
1761232042115007200,8.67200732421875,-0.9022216796875,-0.7539825439453125,0.012176513671875
1761232042125077000,8.682076904296874,-0.924774169921875,-0.6932220458984375,-0.015960693359375
1761232042135146200,8.692146240234376,-0.961944580078125,-0.6525115966796875,-0.0303955078125
1761232042145215000,8.702215087890625,-0.9777679443359375,-0.5995330810546875,-0.0494232177734375
1761232042155285200,8.71228515625,-0.954986572265625,-0.528717041015625,-0.0784454345703125
1761232042165354000,8.72235400390625,-0.9163360595703125,-0.4763641357421875,-0.1022491455078125
1761232042175424000,8.732424072265625,-0.88287353515625,-0.4538421630859375,-0.1258087158203125
1761232042185493000,8.742492919921874,-0.8603057861328125,-0.4381103515625,-0.1411285400390625
1761232042195563000,8.75256298828125,-0.8160552978515625,-0.4087066650390625,-0.152923583984375
1761232042205632300,8.76263232421875,-0.75811767578125,-0.373199462890625,-0.1603851318359375
1761232042215702000,8.772701904296875,-0.7172088623046875,-0.3445892333984375,-0.153961181640625
1761232042225770000,8.78277001953125,-0.6852874755859375,-0.3389129638671875,-0.1348419189453125
1761232042235839200,8.792839111328124,-0.648895263671875,-0.3396148681640625,-0.1107330322265625
1761232042245909200,8.8029091796875,-0.6170196533203125,-0.3337249755859375,-0.087127685546875
1761232042255978000,8.81297802734375,-0.593414306640625,-0.3283843994140625,-0.0672454833984375
1761232042266048300,8.82304833984375,-0.5722808837890625,-0.3270111083984375,-0.0506439208984375
1761232042276117000,8.833116943359375,-0.5524749755859375,-0.31121826171875,-0.0416107177734375
1761232042286186200,8.843186279296875,-0.5362701416015625,-0.28997802734375,-0.0410614013671875
1761232042296256000,8.853256103515625,-0.5229034423828125,-0.292999267578125,-0.0221710205078125
1761232042306325200,8.8633251953125,-0.538787841796875,-0.3246307373046875,0.0107879638671875
1761232042316395000,8.87339501953125,-0.56915283203125,-0.3571319580078125,0.03997802734375
1761232042326464300,8.88346435546875,-0.5960845947265625,-0.3836212158203125,0.0677032470703125
1761232042336534000,8.893533935546875,-0.59686279296875,-0.419677734375,0.0986480712890625
1761232042346603300,8.903603271484375,-0.5850067138671875,-0.4583892822265625,0.129791259765625
1761232042356673000,8.913673095703125,-0.6015472412109375,-0.5031280517578125,0.17034912109375
1761232042366742000,8.923741943359374,-0.6553497314453125,-0.5656890869140625,0.22442626953125
1761232042376812300,8.933812255859374,-0.70465087890625,-0.6349029541015625,0.271514892578125
1761232042386881000,8.943881103515626,-0.7332916259765625,-0.6850433349609375,0.3034820556640625
1761232042396951300,8.953951416015625,-0.7658843994140625,-0.727203369140625,0.3189239501953125
1761232042407020000,8.96402001953125,-0.8020477294921875,-0.7799072265625,0.320098876953125
1761232042417089300,8.97408935546875,-0.828338623046875,-0.8213348388671875,0.3028717041015625
1761232042427159000,8.984158935546875,-0.853546142578125,-0.8250579833984375,0.2595672607421875
1761232042437228300,8.994228271484374,-0.8739166259765625,-0.7990875244140625,0.2096099853515625
1761232042447298000,9.004298095703126,-0.9030303955078125,-0.7696380615234375,0.188385009765625
1761232042457367300,9.0143671875,-0.9292755126953125,-0.7518463134765625,0.193389892578125
1761232042467437000,9.02443701171875,-0.9312896728515625,-0.7303619384765625,0.192901611328125
1761232042477506000,9.034506103515625,-0.9392852783203125,-0.69482421875,0.198089599609375
1761232042487576000,9.044576171875,-0.96527099609375,-0.6701202392578125,0.218292236328125
1761232042497645000,9.05464501953125,-0.9922637939453125,-0.654022216796875,0.238433837890625
1761232042507715300,9.06471533203125,-1.0220794677734375,-0.63812255859375,0.24359130859375
1761232042517784000,9.0747841796875,-1.0440673828125,-0.6236419677734375,0.2458953857421875
1761232042527853000,9.08485302734375,-1.0527801513671875,-0.6245269775390625,0.2491912841796875
1761232042537923000,9.094923095703125,-1.0547943115234375,-0.646270751953125,0.251983642578125
1761232042547992000,9.104991943359375,-1.0563812255859375,-0.682525634765625,0.25201416015625
1761232042558062000,9.11506201171875,-1.040069580078125,-0.711944580078125,0.238861083984375
1761232042568131300,9.12513134765625,-1.006744384765625,-0.7052001953125,0.1996307373046875
1761232042578201000,9.135201171875,-0.961212158203125,-0.6618499755859375,0.1514434814453125
1761232042588270000,9.14527001953125,-0.975799560546875,-0.6148529052734375,0.126495361328125
1761232042598340000,9.155340087890625,-1.0074005126953125,-0.5684356689453125,0.116668701171875
1761232042608409000,9.1654091796875,-0.9498443603515625,-0.48577880859375,0.095672607421875
1761232042618479000,9.17547900390625,-0.885101318359375,-0.3856658935546875,0.060699462890625
1761232042628548000,9.185548095703124,-0.827606201171875,-0.330352783203125,0.051055908203125
1761232042638617000,9.1956171875,-0.795928955078125,-0.340850830078125,0.076629638671875
1761232042648687000,9.20568701171875,-0.821746826171875,-0.3768157958984375,0.1000823974609375
1761232042658756000,9.215756103515625,-0.8431549072265625,-0.39422607421875,0.1052703857421875
1761232042668826000,9.225826171875,-0.826934814453125,-0.3888397216796875,0.0893096923828125
1761232042678895000,9.23589501953125,-0.8001861572265625,-0.3786773681640625,0.0647735595703125
1761232042688965000,9.245965087890625,-0.768218994140625,-0.373565673828125,0.0418853759765625
1761232042699034000,9.2560341796875,-0.7520294189453125,-0.37640380859375,0.038055419921875
1761232042709104000,9.266104248046876,-0.757415771484375,-0.3841552734375,0.0491180419921875
1761232042719173000,9.276173095703125,-0.77978515625,-0.3862762451171875,0.060638427734375
1761232042729243100,9.2862431640625,-0.8004302978515625,-0.3805084228515625,0.0621337890625
1761232042739312000,9.29631201171875,-0.822509765625,-0.36358642578125,0.053192138671875
1761232042749381000,9.306381103515625,-0.8419036865234375,-0.3450469970703125,0.0395965576171875
1761232042759451100,9.316451171875,-0.8517303466796875,-0.3310394287109375,0.029296875
1761232042769520000,9.32652001953125,-0.8632049560546875,-0.3279266357421875,0.0265960693359375
1761232042779590100,9.336590087890626,-0.8774871826171875,-0.3323211669921875,0.0242156982421875
1761232042789659100,9.3466591796875,-0.8922576904296875,-0.33697509765625,0.0201568603515625
1761232042799729200,9.356729248046875,-0.8863677978515625,-0.3493194580078125,0.019989013671875
1761232042809798000,9.3667978515625,-0.878326416015625,-0.36480712890625,0.0241546630859375
1761232042819869000,9.376868896484375,-0.870574951171875,-0.380462646484375,0.0294189453125
1761232042829938200,9.386938232421874,-0.8763427734375,-0.4060211181640625,0.031158447265625
1761232042840008000,9.397008056640624,-0.917327880859375,-0.4376068115234375,0.0315093994140625
1761232042850077200,9.4070771484375,-0.961883544921875,-0.458282470703125,0.0230865478515625
1761232042860147000,9.41714697265625,-0.978759765625,-0.469390869140625,0.0034027099609375
1761232042870216200,9.42721630859375,-0.97747802734375,-0.4735107421875,-0.0245819091796875
1761232042880286200,9.4372861328125,-0.96881103515625,-0.4736175537109375,-0.04107666015625
1761232042890355200,9.447355224609375,-0.942901611328125,-0.4699249267578125,-0.0472259521484375
1761232042900425200,9.45742529296875,-0.9121551513671875,-0.4590301513671875,-0.04730224609375
1761232042910494200,9.467494140625,-0.898040771484375,-0.4474945068359375,-0.039520263671875
1761232042920564200,9.477564208984376,-0.885772705078125,-0.4522552490234375,-0.0092315673828125
1761232042930633000,9.487633056640625,-0.8939666748046875,-0.4695587158203125,0.032806396484375
1761232042940703200,9.497703125,-0.9132537841796875,-0.5001373291015625,0.0897979736328125
1761232042950772000,9.50777197265625,-0.912811279296875,-0.532806396484375,0.1450653076171875
1761232042960841200,9.51784130859375,-0.908538818359375,-0.567291259765625,0.1947784423828125
1761232042970911000,9.527910888671874,-0.9169921875,-0.6136322021484375,0.231170654296875
1761232042980980200,9.537980224609376,-0.947784423828125,-0.64971923828125,0.236053466796875
1761232042991050000,9.548050048828125,-0.9684295654296875,-0.65545654296875,0.1997222900390625
1761232043001119200,9.558119140625,-0.9758453369140625,-0.63189697265625,0.1227264404296875
1761232043011189200,9.568189208984375,-0.972259521484375,-0.5954132080078125,0.0340118408203125
1761232043021257700,9.5782578125,-0.9523468017578125,-0.5557708740234375,-0.0321807861328125
1761232043031327500,9.588327392578124,-0.9312591552734375,-0.501190185546875,-0.0682525634765625
1761232043041396700,9.598396728515626,-0.9016265869140625,-0.45379638671875,-0.083984375
1761232043051466500,9.608466552734376,-0.8164215087890625,-0.4165191650390625,-0.0774688720703125
1761232043061535500,9.618535400390625,-0.72894287109375,-0.36322021484375,-0.0341339111328125
1761232043071604500,9.6286044921875,-0.8255157470703125,-0.3608551025390625,0.0259246826171875
1761232043081674500,9.638674560546875,-0.8446197509765625,-0.4195556640625,0.061370849609375
1761232043091743500,9.648743408203124,-0.8545684814453125,-0.4707794189453125,0.0798797607421875
1761232043101813500,9.6588134765625,-0.8317108154296875,-0.4802703857421875,0.070343017578125
1761232043111882500,9.668882568359376,-0.7980194091796875,-0.4780731201171875,0.0439910888671875
1761232043121952500,9.678952392578125,-0.7785797119140625,-0.47857666015625,0.028167724609375
1761232043132021800,9.689021728515625,-0.7516326904296875,-0.4338836669921875,0.0405731201171875
