time,seconds_elapsed,z,y,x
1761820793407743500,0.065743408203125,-0.999847412109375,-0.0281219482421875,0.0110321044921875
1761820793417813500,0.0758134765625,-1.000396728515625,-0.0232391357421875,0.0121002197265625
1761820793427883500,0.085883544921875,-0.996978759765625,-0.0168914794921875,0.0120391845703125
1761820793437953500,0.09595361328125,-1.0009002685546875,-0.0140228271484375,0.011627197265625
1761820793448023600,0.1060234375,-1.0020294189453125,-0.0157928466796875,0.010955810546875
1761820793458094600,0.116094482421875,-0.9979248046875,-0.0211334228515625,0.0101165771484375
1761820793468164600,0.12616455078125,-1.0019073486328125,-0.02667236328125,0.0093536376953125
1761820793478234600,0.136234619140625,-0.9998321533203125,-0.0298614501953125,0.010040283203125
1761820793488304000,0.14630419921875,-0.999542236328125,-0.0305633544921875,0.0091400146484375
1761820793498374100,0.1563740234375,-1.000518798828125,-0.02911376953125,0.0088958740234375
1761820793508445200,0.166445068359375,-0.998748779296875,-0.0245513916015625,0.0099945068359375
1761820793518515200,0.17651513671875,-1.0012969970703125,-0.02069091796875,0.01080322265625
1761820793528585200,0.186585205078125,-1.0002593994140625,-0.01983642578125,0.0110626220703125
1761820793538655200,0.1966552734375,-0.9985198974609375,-0.02020263671875,0.01141357421875
1761820793548725200,0.206725341796875,-1.0014190673828125,-0.020782470703125,0.0107269287109375
1761820793558795300,0.216795166015625,-0.9993438720703125,-0.022918701171875,0.009368896484375
1761820793568866300,0.2268662109375,-1.001129150390625,-0.0252685546875,0.0094146728515625
1761820793578936000,0.23693603515625,-0.9994049072265625,-0.028564453125,0.00946044921875
1761820793589006000,0.247006103515625,-0.9988555908203125,-0.0287628173828125,0.01055908203125
1761820793599076400,0.257076416015625,-1.000640869140625,-0.0265960693359375,0.0108642578125
1761820793609146000,0.26714599609375,-0.9994964599609375,-0.0235443115234375,0.009490966796875
1761820793619217200,0.277217041015625,-0.9997406005859375,-0.02166748046875,0.01043701171875
1761820793629287200,0.287287109375,-1.0011749267578125,-0.020477294921875,0.01092529296875
1761820793639357200,0.297357177734375,-0.9989471435546875,-0.0200042724609375,0.0106353759765625
1761820793649427200,0.30742724609375,-1.001220703125,-0.02197265625,0.0115203857421875
1761820793659497200,0.317497314453125,-1.00018310546875,-0.02423095703125,0.010467529296875
1761820793669567200,0.327567138671875,-0.999176025390625,-0.026458740234375,0.009796142578125
1761820793679638300,0.33763818359375,-1.0014801025390625,-0.028076171875,0.009613037109375
1761820793689708300,0.347708251953125,-1.000732421875,-0.026458740234375,0.0102996826171875
1761820793699778000,0.357778076171875,-1.000457763671875,-0.0244903564453125,0.009796142578125
1761820793709848000,0.36784814453125,-1.001312255859375,-0.0232696533203125,0.0103302001953125
1761820793719918300,0.37791845703125,-1.0011444091796875,-0.0203704833984375,0.0112762451171875
1761820793729989400,0.3879892578125,-1.0003662109375,-0.0211334228515625,0.0126190185546875
1761820793740059100,0.39805908203125,-1.00103759765625,-0.021453857421875,0.01007080078125
1761820793750129200,0.408129150390625,-1.0005950927734375,-0.0233154296875,0.010711669921875
1761820793760199400,0.418199462890625,-1.000030517578125,-0.025970458984375,0.0097198486328125
1761820793770269200,0.428269287109375,-1.00067138671875,-0.0271148681640625,0.010162353515625
1761820793780340200,0.43834033203125,-1.000762939453125,-0.02691650390625,0.0102081298828125
1761820793790410200,0.44841015625,-0.9998321533203125,-0.025054931640625,0.00958251953125
1761820793800480000,0.45847998046875,-0.999603271484375,-0.02252197265625,0.01043701171875
1761820793810550300,0.46855029296875,-1.0005340576171875,-0.0209197998046875,0.0102996826171875
1761820793820620300,0.478620361328125,-1.0001068115234375,-0.02093505859375,0.0107269287109375
1761820793830690000,0.48868994140625,-0.999786376953125,-0.022369384765625,0.011138916015625
1761820793840761000,0.498760986328125,-1.0001373291015625,-0.0247955322265625,0.010040283203125
1761820793850831400,0.508831298828125,-0.9991607666015625,-0.0266571044921875,0.0098419189453125
1761820793860901000,0.518901123046875,-1.0002593994140625,-0.0269927978515625,0.0095367431640625
1761820793870971100,0.52897119140625,-1.0007476806640625,-0.025787353515625,0.0099334716796875
1761820793881041400,0.53904150390625,-1.000518798828125,-0.024444580078125,0.0106964111328125
1761820793891112200,0.5491123046875,-1.0006866455078125,-0.0225982666015625,0.011016845703125
1761820793901182200,0.55918212890625,-1.0010528564453125,-0.021759033203125,0.0113983154296875
1761820793911252200,0.569252197265625,-0.998992919921875,-0.021697998046875,0.0107421875
1761820793921322000,0.579322021484375,-0.99993896484375,-0.023040771484375,0.0107269287109375
1761820793931392300,0.589392333984375,-0.999725341796875,-0.0241546630859375,0.01031494140625
1761820793941462300,0.599462158203125,-1.0004425048828125,-0.0257568359375,0.009857177734375
1761820793951533000,0.609532958984375,-1.00018310546875,-0.0262451171875,0.00927734375
1761820793961603000,0.61960302734375,-1.00054931640625,-0.0256500244140625,0.0099029541015625
1761820793971673300,0.62967333984375,-1.0009002685546875,-0.023590087890625,0.0106353759765625
1761820793981743000,0.6397431640625,-1.0009307861328125,-0.0224456787109375,0.011383056640625
1761820793991813000,0.649813232421875,-1.00054931640625,-0.022430419921875,0.0111541748046875
1761820794001883400,0.65988330078125,-1.0000762939453125,-0.0219573974609375,0.0103759765625
1761820794011954400,0.669954345703125,-0.999755859375,-0.0241851806640625,0.0103607177734375
1761820794022024200,0.680024169921875,-1.0002899169921875,-0.0242919921875,0.009857177734375
1761820794032094200,0.69009423828125,-0.999481201171875,-0.025390625,0.010711669921875
1761820794042164000,0.7001640625,-0.9987945556640625,-0.024871826171875,0.0110931396484375
1761820794052234200,0.710234130859375,-0.9996795654296875,-0.0245208740234375,0.01055908203125
1761820794062305300,0.72030517578125,-0.999755859375,-0.023712158203125,0.0099334716796875
1761820794072375300,0.730375244140625,-1.0000457763671875,-0.0232696533203125,0.010284423828125
1761820794082445000,0.740445068359375,-1.000213623046875,-0.0223388671875,0.010345458984375
1761820794092515300,0.750515380859375,-1.000244140625,-0.0231781005859375,0.010101318359375
1761820794102585300,0.76058544921875,-0.9988555908203125,-0.0235443115234375,0.010528564453125
1761820794112655000,0.770655029296875,-0.9998321533203125,-0.0241241455078125,0.0106201171875
1761820794122726100,0.78072607421875,-0.9996185302734375,-0.02447509765625,0.0110015869140625
1761820794132796200,0.790796142578125,-1.0008697509765625,-0.02496337890625,0.009613037109375
1761820794142866200,0.8008662109375,-1.000885009765625,-0.0246124267578125,0.009857177734375
1761820794152936200,0.810936279296875,-1.0004425048828125,-0.0242919921875,0.01007080078125
1761820794163006200,0.821006103515625,-0.999542236328125,-0.0236663818359375,0.011077880859375
1761820794173077000,0.831076904296875,-1.0006103515625,-0.0235748291015625,0.0112457275390625
1761820794183147300,0.841147216796875,-1.000732421875,-0.022216796875,0.0106658935546875
1761820794193217300,0.85121728515625,-1.0001678466796875,-0.023223876953125,0.011077880859375
1761820794203287000,0.861287109375,-0.99951171875,-0.0244598388671875,0.0098876953125
1761820794213357300,0.871357421875,-1.0011138916015625,-0.023956298828125,0.011138916015625
1761820794223427300,0.88142724609375,-1.0009307861328125,-0.0256195068359375,0.0108184814453125
1761820794233498000,0.891498046875,-1.00128173828125,-0.02490234375,0.0092315673828125
1761820794243568000,0.901568115234375,-0.99981689453125,-0.0238189697265625,0.0103302001953125
1761820794253638100,0.91163818359375,-0.9999847412109375,-0.0234527587890625,0.0106964111328125
1761820794263708200,0.921708251953125,-1.00030517578125,-0.0225830078125,0.0112152099609375
1761820794273778200,0.931778076171875,-0.9991455078125,-0.022613525390625,0.0106658935546875
1761820794283849200,0.94184912109375,-1.0004119873046875,-0.0228118896484375,0.0097198486328125
1761820794293919000,0.9519189453125,-1.0002899169921875,-0.023590087890625,0.0101318359375
1761820794303989200,0.9619892578125,-0.999298095703125,-0.0242919921875,0.0096588134765625
1761820794314059300,0.972059326171875,-1.000701904296875,-0.02484130859375,0.010162353515625
1761820794324129000,0.98212890625,-1.0002593994140625,-0.0244293212890625,0.010345458984375
1761820794334200000,0.992199951171875,-0.9997711181640625,-0.0230255126953125,0.0108184814453125
1761820794344270300,1.002270263671875,-1.0003662109375,-0.0229949951171875,0.0108642578125
1761820794354340400,1.01234033203125,-0.999847412109375,-0.0228118896484375,0.0111083984375
1761820794364410000,1.02241015625,-0.9994354248046875,-0.0223541259765625,0.0110321044921875
1761820794374480100,1.032480224609375,-1.0009613037109375,-0.0239410400390625,0.0096282958984375
1761820794384550100,1.042550048828125,-1.0003814697265625,-0.024627685546875,0.01092529296875
1761820794394621200,1.05262109375,-1.0001678466796875,-0.025177001953125,0.0105133056640625
1761820794404691200,1.062691162109375,-1.0006256103515625,-0.025115966796875,0.0111083984375
1761820794414761200,1.07276123046875,-0.99969482421875,-0.0236663818359375,0.010498046875
1761820794424831200,1.082831298828125,-1.000579833984375,-0.0239715576171875,0.0105133056640625
1761820794434901200,1.0929013671875,-0.999786376953125,-0.023834228515625,0.0104522705078125
1761820794444972300,1.10297216796875,-0.9998931884765625,-0.0225372314453125,0.0105743408203125
1761820794455042000,1.1130419921875,-1.000396728515625,-0.0237579345703125,0.0105438232421875
1761820794465112300,1.1231123046875,-1.000091552734375,-0.024169921875,0.0108642578125
1761820794475182300,1.133182373046875,-1.0008087158203125,-0.0247650146484375,0.01025390625
1761820794485253400,1.14325341796875,-0.9988250732421875,-0.02484130859375,0.0095977783203125
1761820794495323400,1.153323486328125,-1.000396728515625,-0.0243377685546875,0.010162353515625
1761820794505394200,1.163394287109375,-1.0002899169921875,-0.024017333984375,0.0098724365234375
1761820794515464200,1.173464111328125,-0.9994659423828125,-0.023834228515625,0.0102691650390625
1761820794525534500,1.183534423828125,-1.000335693359375,-0.0236053466796875,0.0106048583984375
1761820794535604200,1.193604248046875,-0.9994659423828125,-0.02349853515625,0.010284423828125
1761820794545674200,1.20367431640625,-1.0001373291015625,-0.0232696533203125,0.00946044921875
1761820794555745300,1.213745361328125,-1.0001220703125,-0.023681640625,0.0095062255859375
1761820794565815300,1.223815185546875,-0.99908447265625,-0.023773193359375,0.0100555419921875
1761820794575885300,1.23388525390625,-1.0001983642578125,-0.0247039794921875,0.01092529296875
1761820794585955300,1.243955322265625,-1.0007476806640625,-0.024200439453125,0.00958251953125
1761820794596025300,1.254025390625,-0.9994964599609375,-0.023681640625,0.0109100341796875
1761820794606095400,1.264095458984375,-1.0014190673828125,-0.0230712890625,0.011810302734375
1761820794616166400,1.27416650390625,-0.99969482421875,-0.0227203369140625,0.0102081298828125
1761820794626236400,1.284236328125,-1.000396728515625,-0.023345947265625,0.009521484375
1761820794636306200,1.29430615234375,-1.0002899169921875,-0.0233612060546875,0.010650634765625
1761820794646376400,1.30437646484375,-1.00048828125,-0.0233154296875,0.010650634765625
1761820794656446200,1.3144462890625,-1.00067138671875,-0.023895263671875,0.0099334716796875
1761820794666517200,1.324517333984375,-1.00079345703125,-0.02398681640625,0.01019287109375
1761820794676587300,1.334587158203125,-0.9992523193359375,-0.0244598388671875,0.011138916015625
1761820794686657500,1.344657470703125,-0.99981689453125,-0.02301025390625,0.0102081298828125
1761820794696727300,1.354727294921875,-0.9993133544921875,-0.023468017578125,0.010498046875
1761820794706797300,1.36479736328125,-0.999908447265625,-0.02337646484375,0.0105743408203125
1761820794716867300,1.374867431640625,-0.99981689453125,-0.023529052734375,0.01019287109375
1761820794726938400,1.3849384765625,-0.9996337890625,-0.023529052734375,0.009765625
1761820794737008400,1.39500830078125,-1.0013427734375,-0.0236053466796875,0.0109710693359375
1761820794747078400,1.405078369140625,-1.00054931640625,-0.0246429443359375,0.010894775390625
1761820794757148200,1.415148193359375,-0.999847412109375,-0.0243988037109375,0.010345458984375
1761820794767218400,1.425218505859375,-0.9992828369140625,-0.02484130859375,0.011016845703125
1761820794777289500,1.43528955078125,-1.0007476806640625,-0.02386474609375,0.0097503662109375
1761820794787359200,1.445359130859375,-0.9994049072265625,-0.0230560302734375,0.01043701171875
1761820794797429200,1.45542919921875,-0.9995574951171875,-0.0231475830078125,0.0104217529296875
1761820794807499500,1.46549951171875,-1.00079345703125,-0.022674560546875,0.0103607177734375
1761820794817569300,1.4755693359375,-1.001190185546875,-0.0243988037109375,0.01080322265625
1761820794827639300,1.485639404296875,-0.9998016357421875,-0.025146484375,0.0107421875
1761820794837710300,1.49571044921875,-1.0007781982421875,-0.024932861328125,0.0102081298828125
1761820794847780400,1.5057802734375,-1.0004119873046875,-0.024017333984375,0.0108184814453125
1761820794857850400,1.515850341796875,-0.999725341796875,-0.0241546630859375,0.01055908203125
1761820794867920400,1.52592041015625,-1.0001678466796875,-0.0233306884765625,0.01025390625
1761820794877990100,1.535990234375,-0.9999542236328125,-0.023193359375,0.0102691650390625
1761820794888061200,1.546061279296875,-0.999969482421875,-0.0240325927734375,0.0103912353515625
1761820794898131500,1.55613134765625,-1.00018310546875,-0.0238494873046875,0.0116729736328125
1761820794908201200,1.566201171875,-1.0001983642578125,-0.0245208740234375,0.0103302001953125
1761820794918271200,1.576271240234375,-0.99932861328125,-0.0246124267578125,0.010498046875
1761820794928341500,1.586341552734375,-0.999664306640625,-0.0246734619140625,0.0103912353515625
1761820794938412500,1.59641259765625,-1.000335693359375,-0.024749755859375,0.01068115234375
1761820794948482300,1.606482421875,-1.00048828125,-0.0234375,0.0109405517578125
1761820794958552300,1.61655224609375,-0.9999542236328125,-0.023101806640625,0.0107879638671875
1761820794968622000,1.6266220703125,-0.99920654296875,-0.02435302734375,0.01104736328125
1761820794978692400,1.6366923828125,-0.999908447265625,-0.02362060546875,0.0096893310546875
1761820794988762400,1.646762451171875,-0.9991607666015625,-0.0241241455078125,0.0100250244140625
1761820794998833400,1.65683349609375,-1.0001220703125,-0.024078369140625,0.0107421875
1761820795008903200,1.666903076171875,-0.9996337890625,-0.0245208740234375,0.010101318359375
1761820795018973400,1.676973388671875,-0.9999847412109375,-0.024566650390625,0.011077880859375
1761820795029043500,1.68704345703125,-1.000518798828125,-0.022613525390625,0.009490966796875
1761820795039113200,1.69711328125,-1.000701904296875,-0.023712158203125,0.0099029541015625
1761820795049184300,1.707184326171875,-1.0001678466796875,-0.0237884521484375,0.0106048583984375
1761820795059254500,1.717254638671875,-1.000762939453125,-0.0242767333984375,0.010101318359375
1761820795069324300,1.72732421875,-1.0004730224609375,-0.0242919921875,0.0095977783203125
1761820795079394300,1.737394287109375,-0.99993896484375,-0.0240478515625,0.0107574462890625
1761820795089464300,1.74746435546875,-0.9999237060546875,-0.0245513916015625,0.010101318359375
1761820795099534300,1.757534423828125,-1.0011444091796875,-0.02362060546875,0.010772705078125
1761820795109605400,1.76760546875,-0.99981689453125,-0.023406982421875,0.01019287109375
1761820795119675400,1.77767529296875,-1.0004730224609375,-0.023345947265625,0.0102081298828125
1761820795129745200,1.7877451171875,-1.0010833740234375,-0.0229949951171875,0.00994873046875
1761820795139815400,1.7978154296875,-1.0003204345703125,-0.0235137939453125,0.010284423828125
1761820795149885400,1.807885498046875,-1.000274658203125,-0.0234222412109375,0.0094146728515625
1761820795159956200,1.817956298828125,-1.0003509521484375,-0.023712158203125,0.010772705078125
1761820795170026200,1.828026123046875,-1.0001983642578125,-0.0239105224609375,0.011016845703125
1761820795180096500,1.838096435546875,-0.999359130859375,-0.024261474609375,0.010589599609375
1761820795190166300,1.848166259765625,-1.0009613037109375,-0.02459716796875,0.0103912353515625
1761820795200236300,1.858236328125,-0.999908447265625,-0.0246124267578125,0.0103302001953125
1761820795210306300,1.868306396484375,-1.0008697509765625,-0.0239105224609375,0.00958251953125
1761820795220377000,1.878377197265625,-1.0005035400390625,-0.0240631103515625,0.0109100341796875
1761820795230447400,1.888447265625,-0.9999237060546875,-0.0235595703125,0.0109710693359375
1761820795240517400,1.898517333984375,-0.9993133544921875,-0.0234832763671875,0.009674072265625
1761820795250587100,1.908587158203125,-1.0004119873046875,-0.0241546630859375,0.00982666015625
1761820795260657400,1.918657470703125,-0.999603271484375,-0.024078369140625,0.0105438232421875
1761820795270728400,1.928728515625,-1.0004730224609375,-0.024658203125,0.0106658935546875
1761820795280798500,1.938798583984375,-1.000030517578125,-0.0242767333984375,0.01025390625
1761820795290868200,1.9488681640625,-0.9987030029296875,-0.0245513916015625,0.0093994140625
1761820795300938200,1.958938232421875,-1.000457763671875,-0.0239410400390625,0.0110931396484375
1761820795311008300,1.96900830078125,-0.9990692138671875,-0.0239715576171875,0.0102081298828125
1761820795321078300,1.979078369140625,-0.9994354248046875,-0.025146484375,0.0100250244140625
1761820795331149300,1.9891494140625,-1.0000457763671875,-0.0241851806640625,0.0102386474609375
1761820795341219300,1.99921923828125,-1.000457763671875,-0.0239105224609375,0.010406494140625
1761820795351289300,2.009289306640625,-0.9994964599609375,-0.0239410400390625,0.0103302001953125
1761820795361359400,2.019359375,-0.9992828369140625,-0.024383544921875,0.010101318359375
1761820795371429000,2.02942919921875,-0.9998931884765625,-0.0244598388671875,0.0105133056640625
1761820795381500200,2.039500244140625,-1.000640869140625,-0.0245819091796875,0.011077880859375
1761820795391570400,2.0495703125,-0.9995880126953125,-0.024932861328125,0.0109405517578125
1761820795401640400,2.059640380859375,-1.0001983642578125,-0.0236968994140625,0.01031494140625
1761820795411710200,2.069710205078125,-0.9998016357421875,-0.023529052734375,0.0110626220703125
1761820795421780200,2.0797802734375,-1.0006561279296875,-0.0242156982421875,0.010009765625
1761820795431851300,2.089851318359375,-0.9999847412109375,-0.024658203125,0.0104217529296875
1761820795441921300,2.09992138671875,-1.0005035400390625,-0.024261474609375,0.0106353759765625
1761820795451991300,2.1099912109375,-0.9993896484375,-0.024627685546875,0.0100250244140625
1761820795462061300,2.120061279296875,-0.9993896484375,-0.0238800048828125,0.009765625
1761820795472131300,2.13013134765625,-1,-0.023956298828125,0.010009765625
1761820795482206500,2.14020654296875,-1.000946044921875,-0.023712158203125,0.0096893310546875
1761820795492277500,2.150277587890625,-1.0005340576171875,-0.0236968994140625,0.00958251953125
1761820795502347500,2.160347412109375,-1.0014801025390625,-0.024322509765625,0.00970458984375
1761820795512417500,2.17041748046875,-0.999908447265625,-0.0235443115234375,0.010040283203125
1761820795522487300,2.1804873046875,-1.0001220703125,-0.0242156982421875,0.01031494140625
1761820795532557600,2.1905576171875,-1.0006256103515625,-0.0235137939453125,0.010345458984375
1761820795542628600,2.200628662109375,-0.999755859375,-0.02410888671875,0.010711669921875
1761820795552698400,2.210698486328125,-0.9998321533203125,-0.02398681640625,0.009918212890625
1761820795562768400,2.220768310546875,-1.0007476806640625,-0.02349853515625,0.010498046875
1761820795572838700,2.230838623046875,-0.9995880126953125,-0.023834228515625,0.0097198486328125
1761820795582908400,2.240908447265625,-1.000335693359375,-0.0231475830078125,0.010284423828125
1761820795592978400,2.250978515625,-1.0003204345703125,-0.0242767333984375,0.0109710693359375
1761820795603049500,2.261049560546875,-0.9999847412109375,-0.023468017578125,0.010894775390625
1761820795613119500,2.271119384765625,-1.0005340576171875,-0.02349853515625,0.010772705078125
1761820795623189500,2.281189453125,-0.9996795654296875,-0.0235443115234375,0.0106658935546875
1761820795633259500,2.291259521484375,-1.0006256103515625,-0.024078369140625,0.0102081298828125
1761820795643329300,2.301329345703125,-1.0003204345703125,-0.0246429443359375,0.0103302001953125
1761820795653400300,2.311400390625,-1.0010986328125,-0.0237884521484375,0.0108489990234375
1761820795663470600,2.321470703125,-1.0013427734375,-0.023956298828125,0.0105438232421875
1761820795673540400,2.331540283203125,-1.00006103515625,-0.0232086181640625,0.009674072265625
1761820795683610400,2.3416103515625,-1.0005950927734375,-0.0240631103515625,0.00982666015625
1761820795693680600,2.3516806640625,-1.0009002685546875,-0.0247039794921875,0.0103302001953125
1761820795703750400,2.36175048828125,-0.9999237060546875,-0.023956298828125,0.0106658935546875
1761820795713821400,2.371821533203125,-1.0006866455078125,-0.0244140625,0.0101776123046875
1761820795723891500,2.381891357421875,-0.999298095703125,-0.02386474609375,0.01031494140625
1761820795733961200,2.391961181640625,-1.0001373291015625,-0.02410888671875,0.01080322265625
1761820795744031500,2.402031494140625,-0.999786376953125,-0.0245819091796875,0.0113525390625
1761820795754101500,2.4121015625,-1.000030517578125,-0.0237274169921875,0.0104522705078125
1761820795764172500,2.422172607421875,-0.999755859375,-0.024017333984375,0.0106353759765625
1761820795774242300,2.4322421875,-1.0004730224609375,-0.024017333984375,0.0101470947265625
1761820795784312600,2.4423125,-0.9994049072265625,-0.0236968994140625,0.0101776123046875
1761820795794382300,2.45238232421875,-1.0000152587890625,-0.02435302734375,0.010345458984375
1761820795804452400,2.462452392578125,-1.0003509521484375,-0.0235137939453125,0.010711669921875
1761820795814523400,2.4725234375,-0.999755859375,-0.023712158203125,0.010650634765625
1761820795824593700,2.48259375,-1.000732421875,-0.0243988037109375,0.0102996826171875
1761820795834663400,2.492663330078125,-1.0002288818359375,-0.0247039794921875,0.01031494140625
1761820795844733400,2.5027333984375,-0.9999847412109375,-0.023956298828125,0.0106353759765625
1761820795854803500,2.512803466796875,-1.0003662109375,-0.02313232421875,0.0101318359375
1761820795864873500,2.52287353515625,-0.9994964599609375,-0.0240936279296875,0.0108489990234375
1761820795874944500,2.532944580078125,-0.9996490478515625,-0.0238189697265625,0.010498046875
1761820795885014500,2.5430146484375,-1.0006561279296875,-0.024566650390625,0.010345458984375
1761820795895084300,2.553084228515625,-1.00054931640625,-0.0234375,0.01092529296875
1761820795905154600,2.563154541015625,-0.9995269775390625,-0.0243682861328125,0.0101165771484375
1761820795915224600,2.573224609375,-1.0000457763671875,-0.024139404296875,0.010345458984375
1761820795925295400,2.58329541015625,-1.00042724609375,-0.024200439453125,0.01123046875
1761820795935365400,2.593365478515625,-1.0001068115234375,-0.024322509765625,0.010406494140625
1761820795945435600,2.603435546875,-0.9996337890625,-0.0237274169921875,0.0101470947265625
1761820795955505400,2.61350537109375,-0.99957275390625,-0.023895263671875,0.0102386474609375
1761820795965575400,2.623575439453125,-1.000579833984375,-0.0237579345703125,0.0099029541015625
1761820795975645400,2.6336455078125,-0.9988861083984375,-0.0235748291015625,0.010528564453125
1761820795985716200,2.64371630859375,-1.00042724609375,-0.0228729248046875,0.010589599609375
1761820795995786500,2.653786376953125,-0.9995269775390625,-0.0232086181640625,0.0096282958984375
1761820796005856500,2.6638564453125,-0.999786376953125,-0.02374267578125,0.01019287109375
1761820796015926300,2.67392626953125,-1.0001373291015625,-0.023345947265625,0.0104522705078125
1761820796025996500,2.68399658203125,-0.999176025390625,-0.0243682861328125,0.01055908203125
1761820796036067600,2.694067626953125,-1.001220703125,-0.024017333984375,0.010101318359375
1761820796046137300,2.704137451171875,-1.0000152587890625,-0.0237579345703125,0.0105133056640625
1761820796056207400,2.714207275390625,-0.9998779296875,-0.024627685546875,0.010589599609375
1761820796066277400,2.72427734375,-0.99951171875,-0.024505615234375,0.0098419189453125
1761820796076347400,2.734347412109375,-0.9998016357421875,-0.0242156982421875,0.01068115234375
1761820796086417400,2.74441748046875,-0.9995269775390625,-0.02374267578125,0.010345458984375
1761820796096488400,2.754488525390625,-1.000640869140625,-0.024200439453125,0.0106964111328125
1761820796106558500,2.764558349609375,-0.9997100830078125,-0.0246429443359375,0.011138916015625
1761820796116628500,2.77462841796875,-0.9997711181640625,-0.024383544921875,0.0098876953125
1761820796126698500,2.784698486328125,-1.0004730224609375,-0.0241851806640625,0.0087738037109375
1761820796136768300,2.794768310546875,-1.0011749267578125,-0.0241546630859375,0.009857177734375
1761820796146839300,2.80483935546875,-1.000091552734375,-0.0243377685546875,0.010009765625
1761820796156909600,2.81490966796875,-1.0001220703125,-0.0235595703125,0.0102386474609375
1761820796166979600,2.8249794921875,-1.0006866455078125,-0.02410888671875,0.0108642578125
1761820796177049300,2.83504931640625,-0.99932861328125,-0.0243377685546875,0.010162353515625
1761820796187119400,2.845119384765625,-0.9999542236328125,-0.023590087890625,0.010650634765625
1761820796197189400,2.855189453125,-1.001312255859375,-0.0241546630859375,0.0103912353515625
1761820796207260400,2.865260498046875,-0.99969482421875,-0.024139404296875,0.01043701171875
1761820796217330400,2.875330322265625,-0.999481201171875,-0.024383544921875,0.010345458984375
1761820796227400400,2.885400390625,-0.9997100830078125,-0.023834228515625,0.0100250244140625
1761820796237470500,2.895470458984375,-0.998992919921875,-0.0240478515625,0.01007080078125
1761820796247540500,2.90554052734375,-1.0008544921875,-0.023468017578125,0.0105133056640625
1761820796257611500,2.915611572265625,-1.000518798828125,-0.0244598388671875,0.0108642578125
1761820796267681300,2.925681396484375,-1.0004425048828125,-0.0239715576171875,0.0106964111328125
1761820796277751600,2.93575146484375,-1.0001983642578125,-0.024078369140625,0.010284423828125
1761820796287821600,2.945821533203125,-0.99981689453125,-0.0232086181640625,0.0095062255859375
1761820796297891300,2.955891357421875,-1.0001983642578125,-0.0238037109375,0.010223388671875
1761820796307962400,2.96596240234375,-0.999725341796875,-0.023895263671875,0.01031494140625
1761820796318032400,2.976032470703125,-0.99969482421875,-0.0233154296875,0.0101470947265625
1761820796328102400,2.986102294921875,-0.99920654296875,-0.0243072509765625,0.010894775390625
1761820796338172400,2.99617236328125,-1.000762939453125,-0.0241241455078125,0.011138916015625
1761820796348242400,3.006242431640625,-1.00054931640625,-0.0238494873046875,0.010772705078125
1761820796358312400,3.0163125,-1.000213623046875,-0.0232391357421875,0.0109100341796875
1761820796368383500,3.026383544921875,-0.999542236328125,-0.02349853515625,0.0101470947265625
1761820796378453500,3.03645361328125,-1.0002593994140625,-0.023345947265625,0.0110626220703125
1761820796388523300,3.046523193359375,-0.9990234375,-0.023529052734375,0.010009765625
1761820796398593500,3.056593505859375,-1.0001373291015625,-0.0244903564453125,0.0102996826171875
1761820796408663600,3.06666357421875,-1.000457763671875,-0.0245208740234375,0.0102081298828125
1761820796418734600,3.076734619140625,-0.9995574951171875,-0.023040771484375,0.0107421875
1761820796428804400,3.086804443359375,-1.000335693359375,-0.02374267578125,0.010406494140625
1761820796438874400,3.096874267578125,-0.9998779296875,-0.0240020751953125,0.010162353515625
1761820796448944400,3.1069443359375,-0.9999237060546875,-0.0240020751953125,0.0100555419921875
1761820796459014400,3.117014404296875,-1.001129150390625,-0.0235137939453125,0.0108184814453125
1761820796469084400,3.12708447265625,-0.999481201171875,-0.0240020751953125,0.0107574462890625
1761820796479155500,3.137155517578125,-1.0001373291015625,-0.02392578125,0.00994873046875
1761820796489219600,3.147219482421875,-1.001007080078125,-0.0236663818359375,0.0103759765625
1761820796499289600,3.15728955078125,-1.0005340576171875,-0.0237884521484375,0.0098876953125
1761820796509359600,3.167359619140625,-1.0007476806640625,-0.0236358642578125,0.00982666015625
1761820796519429600,3.1774296875,-0.9996185302734375,-0.023895263671875,0.010284423828125
1761820796529500400,3.18750048828125,-1.00048828125,-0.0241546630859375,0.010986328125
1761820796539570700,3.19757080078125,-1.0000762939453125,-0.0236358642578125,0.0110321044921875
1761820796549640700,3.207640625,-0.9997406005859375,-0.023590087890625,0.009918212890625
1761820796559710500,3.21771044921875,-1.0011749267578125,-0.0247039794921875,0.0111083984375
1761820796569780500,3.227780517578125,-0.999542236328125,-0.0241241455078125,0.010101318359375
1761820796579850800,3.237850830078125,-0.9994964599609375,-0.02374267578125,0.0100250244140625
1761820796589921500,3.247921630859375,-0.9995880126953125,-0.02435302734375,0.010711669921875
1761820796599991600,3.257991455078125,-1.0003204345703125,-0.0245208740234375,0.01068115234375
1761820796610061600,3.2680615234375,-1.000091552734375,-0.02349853515625,0.009918212890625
1761820796620131600,3.278131591796875,-0.999847412109375,-0.0232086181640625,0.0104522705078125
1761820796630201600,3.28820166015625,-0.999908447265625,-0.0229644775390625,0.0103759765625
1761820796640272600,3.298272705078125,-0.9999542236328125,-0.023345947265625,0.0105438232421875
1761820796650342400,3.30834228515625,-1.0001983642578125,-0.0232391357421875,0.010833740234375
1761820796660412700,3.31841259765625,-1.0010528564453125,-0.0236358642578125,0.0106658935546875
1761820796670482700,3.328482666015625,-0.9997711181640625,-0.0243072509765625,0.010162353515625
1761820796680552400,3.338552490234375,-0.9995574951171875,-0.02386474609375,0.0115966796875
1761820796690622500,3.34862255859375,-1.0005950927734375,-0.0237579345703125,0.01031494140625
1761820796700693500,3.358693603515625,-1.001312255859375,-0.024566650390625,0.0104522705078125
1761820796710763500,3.368763427734375,-1.0002288818359375,-0.0235137939453125,0.0103607177734375
1761820796720833500,3.37883349609375,-1.0008087158203125,-0.0238800048828125,0.0104827880859375
1761820796730903600,3.388903564453125,-1.0006103515625,-0.0232696533203125,0.010009765625
1761820796740973600,3.3989736328125,-0.9989471435546875,-0.023834228515625,0.0105743408203125
1761820796751044600,3.409044677734375,-0.99993896484375,-0.024444580078125,0.0104217529296875
1761820796761114600,3.419114501953125,-1.001800537109375,-0.0232391357421875,0.0092010498046875
1761820796771184600,3.4291845703125,-0.9998931884765625,-0.0241241455078125,0.010009765625
1761820796781254700,3.439254638671875,-1.0003814697265625,-0.023834228515625,0.01019287109375
1761820796791324700,3.44932470703125,-1.0001983642578125,-0.0241851806640625,0.0102386474609375
1761820796801394400,3.45939453125,-1.0002593994140625,-0.0236053466796875,0.0099029541015625
1761820796811465500,3.469465576171875,-0.99920654296875,-0.0239410400390625,0.0101776123046875
1761820796821535500,3.479535400390625,-1.000030517578125,-0.023956298828125,0.010772705078125
1761820796831605800,3.489605712890625,-0.999969482421875,-0.0233154296875,0.0113067626953125
1761820796841675500,3.499675537109375,-0.9996337890625,-0.02410888671875,0.0112152099609375
1761820796851745500,3.50974560546875,-1.0004730224609375,-0.024444580078125,0.0112152099609375
1761820796861816600,3.519816650390625,-1.00030517578125,-0.024200439453125,0.01043701171875
1761820796871886600,3.529886474609375,-1.0000152587890625,-0.0232391357421875,0.0104827880859375
1761820796881956600,3.53995654296875,-1.0007171630859375,-0.024566650390625,0.010040283203125
1761820796892026600,3.550026611328125,-1.000885009765625,-0.0240020751953125,0.0110015869140625
1761820796902096400,3.560096435546875,-1.0007476806640625,-0.0235137939453125,0.0104827880859375
1761820796912166700,3.570166748046875,-1.0006256103515625,-0.023651123046875,0.0104522705078125
1761820796922237700,3.58023779296875,-0.99951171875,-0.023406982421875,0.0095672607421875
1761820796932307500,3.590307373046875,-1.000091552734375,-0.0236358642578125,0.0105133056640625
1761820796942377500,3.60037744140625,-0.9995574951171875,-0.0241851806640625,0.010772705078125
1761820796952447700,3.61044775390625,-0.9986724853515625,-0.024017333984375,0.0098114013671875
1761820796962517500,3.620517578125,-0.9998321533203125,-0.024322509765625,0.0101470947265625
1761820796972588500,3.630588623046875,-1.000457763671875,-0.0245819091796875,0.010650634765625
1761820796982658600,3.640658447265625,-1.00048828125,-0.02374267578125,0.0099945068359375
1761820796992728600,3.650728515625,-1.0003204345703125,-0.0241241455078125,0.00970458984375
1761820797002798600,3.660798583984375,-1.0004119873046875,-0.0243377685546875,0.01025390625
1761820797012868600,3.67086865234375,-0.9994964599609375,-0.0236663818359375,0.00933837890625
1761820797022938400,3.6809384765625,-0.9998931884765625,-0.024658203125,0.010528564453125
1761820797033009400,3.691009521484375,-1.0003814697265625,-0.0234375,0.011474609375
1761820797043079700,3.70107958984375,-1.000152587890625,-0.0238037109375,0.01104736328125
1761820797053149400,3.7111494140625,-0.999542236328125,-0.0231781005859375,0.0104827880859375
1761820797063219500,3.721219482421875,-0.9999542236328125,-0.0246734619140625,0.0101318359375
1761820797073289700,3.731289794921875,-0.999542236328125,-0.023956298828125,0.010009765625
1761820797083360800,3.74136083984375,-0.99871826171875,-0.0234375,0.0103607177734375
1761820797093430500,3.751430419921875,-0.99957275390625,-0.023895263671875,0.010467529296875
1761820797103500500,3.76150048828125,-1.0002593994140625,-0.02337646484375,0.0092620849609375
1761820797113570800,3.77157080078125,-0.9991302490234375,-0.02362060546875,0.01007080078125
1761820797123640600,3.781640625,-0.999267578125,-0.0242156982421875,0.0103912353515625
1761820797133710600,3.791710693359375,-1.0001373291015625,-0.023284912109375,0.010009765625
1761820797143781600,3.80178173828125,-0.999298095703125,-0.0242462158203125,0.009552001953125
1761820797153851400,3.811851318359375,-0.9996795654296875,-0.0249176025390625,0.0104522705078125
1761820797163921700,3.821921630859375,-0.9998321533203125,-0.0238189697265625,0.0102996826171875
1761820797173991700,3.83199169921875,-0.9994964599609375,-0.0239105224609375,0.010650634765625
1761820797184061400,3.8420615234375,-1.0006866455078125,-0.0239105224609375,0.009918212890625
1761820797194132500,3.852132568359375,-1.0007171630859375,-0.02392578125,0.009857177734375
1761820797204202800,3.86220263671875,-0.999755859375,-0.0239715576171875,0.0096435546875
1761820797214272500,3.8722724609375,-1.0003814697265625,-0.0242156982421875,0.009979248046875
1761820797224342500,3.882342529296875,-1.0000762939453125,-0.0234375,0.010009765625
1761820797234412500,3.89241259765625,-0.9998626708984375,-0.0237274169921875,0.0106048583984375
1761820797244482600,3.902482666015625,-1.0009918212890625,-0.023651123046875,0.0111236572265625
1761820797254553600,3.9125537109375,-0.9999237060546875,-0.0236663818359375,0.010345458984375
1761820797264623600,3.92262353515625,-0.9990386962890625,-0.02398681640625,0.0108642578125
1761820797274693400,3.932693359375,-0.999847412109375,-0.023956298828125,0.0110931396484375
1761820797284763600,3.942763671875,-0.99871826171875,-0.023406982421875,0.0107574462890625
1761820797294833700,3.952833740234375,-1.0001373291015625,-0.0245361328125,0.0104217529296875
1761820797304904400,3.962904541015625,-1.0009307861328125,-0.02398681640625,0.0094146728515625
1761820797314974500,3.972974365234375,-1.000030517578125,-0.0231475830078125,0.0101470947265625
1761820797325044700,3.983044677734375,-0.9999542236328125,-0.0235443115234375,0.0092010498046875
1761820797335114500,3.993114501953125,-1.00054931640625,-0.0241546630859375,0.0101165771484375
1761820797345184500,4.0031845703125,-1.000091552734375,-0.023406982421875,0.010650634765625
1761820797355252500,4.01325244140625,-1.0000152587890625,-0.024139404296875,0.009796142578125
1761820797365322500,4.023322509765625,-1.0002288818359375,-0.0236053466796875,0.0093841552734375
1761820797375393500,4.0333935546875,-0.9974517822265625,-0.027374267578125,0.0003814697265625
1761820797385463600,4.043463623046875,-1.0059814453125,-0.0291748046875,0.001312255859375
1761820797395533600,4.053533447265625,-0.99676513671875,-0.0301666259765625,0.0063018798828125
1761820797405603600,4.063603515625,-0.99859619140625,-0.0301666259765625,0.0101470947265625
1761820797415673600,4.073673583984375,-1.0051116943359375,-0.0281524658203125,0.0123138427734375
1761820797425743600,4.08374365234375,-0.9982147216796875,-0.0229949951171875,0.0084991455078125
1761820797435814700,4.093814697265625,-1.0009307861328125,-0.019256591796875,0.004180908203125
1761820797445884400,4.103884521484375,-1.000579833984375,-0.018890380859375,0.0091094970703125
1761820797455954400,4.113954345703125,-0.9985198974609375,-0.0202484130859375,0.0135040283203125
1761820797466024700,4.124024658203125,-1.0029296875,-0.0222320556640625,0.0171356201171875
1761820797476094500,4.134094482421875,-0.999420166015625,-0.0207977294921875,0.020050048828125
1761820797486164500,4.14416455078125,-0.9983673095703125,-0.02044677734375,0.016632080078125
1761820797496236300,4.154236328125,-1.003509521484375,-0.01995849609375,0.01300048828125
1761820797506306300,4.164306396484375,-0.99774169921875,-0.01983642578125,0.0112762451171875
1761820797516376300,4.174376220703125,-1.00018310546875,-0.022064208984375,0.0096893310546875
1761820797526446300,4.1844462890625,-1.0019683837890625,-0.0251312255859375,0.0092620849609375
1761820797536516400,4.194516357421875,-0.99688720703125,-0.0266571044921875,0.01043701171875
1761820797546587400,4.20458740234375,-1.0038604736328125,-0.0269927978515625,0.0114288330078125
1761820797556657400,4.214657470703125,-0.9997711181640625,-0.02490234375,0.0118255615234375
1761820797566727400,4.2247275390625,-0.9971466064453125,-0.023223876953125,0.0092620849609375
1761820797576797200,4.234797119140625,-1.0019989013671875,-0.021728515625,0.0097808837890625
1761820797586867500,4.244867431640625,-0.9973907470703125,-0.021881103515625,0.0106048583984375
1761820797596937500,4.2549375,-1.0004730224609375,-0.0225677490234375,0.01275634765625
1761820797607008500,4.265008544921875,-1.0000152587890625,-0.0245208740234375,0.0127410888671875
1761820797617078300,4.275078369140625,-0.9970550537109375,-0.02459716796875,0.0110931396484375
1761820797627148300,4.285148193359375,-1.0028533935546875,-0.0246734619140625,0.00927734375
1761820797637218600,4.295218505859375,-1.0003509521484375,-0.024078369140625,0.007904052734375
1761820797647288300,4.305288330078125,-0.9990386962890625,-0.0246124267578125,0.010101318359375
1761820797657359400,4.315359375,-1.0014801025390625,-0.0238189697265625,0.012359619140625
1761820797667429400,4.325429443359375,-0.998809814453125,-0.0239105224609375,0.0124359130859375
1761820797677499400,4.33549951171875,-1.0013580322265625,-0.0242767333984375,0.0102691650390625
1761820797687569400,4.3455693359375,-1.00018310546875,-0.0237884521484375,0.009063720703125
1761820797697639400,4.355639404296875,-0.99908447265625,-0.02264404296875,0.0084381103515625
1761820797707709400,4.36570947265625,-1.0009765625,-0.02313232421875,0.0100555419921875
1761820797717780200,4.3757802734375,-0.997955322265625,-0.0242919921875,0.0113067626953125
1761820797727850500,4.3858505859375,-1.001495361328125,-0.0246124267578125,0.011444091796875
1761820797737920300,4.395920166015625,-1.0005035400390625,-0.024749755859375,0.010406494140625
1761820797747990300,4.405990234375,-0.998382568359375,-0.024444580078125,0.0092926025390625
1761820797758060500,4.416060546875,-1.001373291015625,-0.0243988037109375,0.0097503662109375
1761820797768131300,4.42613134765625,-1.0001983642578125,-0.023468017578125,0.00897216796875
1761820797778201300,4.436201416015625,-0.999359130859375,-0.023681640625,0.0115509033203125
1761820797788271400,4.446271240234375,-1.0010223388671875,-0.0240936279296875,0.0113067626953125
1761820797798341400,4.45634130859375,-0.9989166259765625,-0.023651123046875,0.011566162109375
1761820797808411400,4.466411376953125,-1.001068115234375,-0.02294921875,0.01031494140625
1761820797818481400,4.4764814453125,-0.9996490478515625,-0.02374267578125,0.0101165771484375
1761820797828552200,4.48655224609375,-0.999481201171875,-0.024383544921875,0.0089874267578125
1761820797838622200,4.496622314453125,-1.0020751953125,-0.0255279541015625,0.010101318359375
1761820797848692500,4.5066923828125,-1.000213623046875,-0.02490234375,0.01116943359375
1761820797858762200,4.51676220703125,-0.9998321533203125,-0.0240936279296875,0.0113067626953125
1761820797868832300,4.526832275390625,-1.000885009765625,-0.0227203369140625,0.009765625
1761820797878903300,4.5369033203125,-0.998931884765625,-0.0228271484375,0.009765625
1761820797888973600,4.5469736328125,-1.0009765625,-0.022308349609375,0.010040283203125
1761820797899043300,4.557043212890625,-1.0004119873046875,-0.022918701171875,0.0116424560546875
1761820797909113300,4.56711328125,-0.9997100830078125,-0.0254058837890625,0.0118560791015625
1761820797919183400,4.577183349609375,-1.00103759765625,-0.0257720947265625,0.011322021484375
1761820797929253400,4.58725341796875,-0.9991455078125,-0.0249786376953125,0.009674072265625
1761820797939324400,4.597324462890625,-1.0005950927734375,-0.0231170654296875,0.00927734375
1761820797949394400,4.60739453125,-1.000457763671875,-0.0218505859375,0.0101776123046875
1761820797959464200,4.617464111328125,-0.9983062744140625,-0.0218963623046875,0.010772705078125
1761820797969534500,4.627534423828125,-1.0012359619140625,-0.02288818359375,0.01239013671875
1761820797979604500,4.6376044921875,-0.9996185302734375,-0.023590087890625,0.0111846923828125
1761820797989677300,4.64767724609375,-1.00054931640625,-0.0251922607421875,0.01031494140625
1761820797999747300,4.657747314453125,-1.000396728515625,-0.02532958984375,0.009857177734375
1761820798009817300,4.6678173828125,-0.998504638671875,-0.0241851806640625,0.009979248046875
1761820798019887400,4.677887451171875,-1.0005340576171875,-0.023834228515625,0.01129150390625
1761820798029958100,4.687958251953125,-0.9996337890625,-0.023468017578125,0.0106964111328125
1761820798040028400,4.6980283203125,-0.999267578125,-0.0229644775390625,0.010833740234375
1761820798050098400,4.708098388671875,-1.00091552734375,-0.0225830078125,0.0110626220703125
1761820798060168200,4.718168212890625,-0.9993438720703125,-0.0236053466796875,0.010223388671875
1761820798070238500,4.728238525390625,-1.0001983642578125,-0.024566650390625,0.0093841552734375
1761820798080308500,4.73830859375,-1.0005950927734375,-0.025543212890625,0.00970458984375
1761820798090379500,4.748379638671875,-0.99981689453125,-0.025238037109375,0.0096588134765625
1761820798100449300,4.75844921875,-1.0004119873046875,-0.0240325927734375,0.0113983154296875
1761820798110519300,4.768519287109375,-0.9997100830078125,-0.023956298828125,0.0112762451171875
1761820798120589300,4.77858935546875,-1.000518798828125,-0.023223876953125,0.0108489990234375
1761820798130659300,4.788659423828125,-1.0012664794921875,-0.0225067138671875,0.0098114013671875
1761820798140730400,4.79873046875,-0.9996337890625,-0.0234222412109375,0.0100860595703125
1761820798150800400,4.80880029296875,-1.0002593994140625,-0.0242919921875,0.01007080078125
1761820798160870400,4.818870361328125,-0.999908447265625,-0.02447509765625,0.0106201171875
1761820798170940400,4.8289404296875,-0.9993896484375,-0.0243377685546875,0.01092529296875
1761820798181010200,4.83901025390625,-1.000823974609375,-0.0243072509765625,0.0099029541015625
1761820798191080400,4.84908056640625,-0.999664306640625,-0.0234527587890625,0.00909423828125
1761820798201151500,4.8591513671875,-1.0003662109375,-0.0232086181640625,0.0108489990234375
1761820798211221500,4.869221435546875,-1.00018310546875,-0.0241241455078125,0.0103759765625
1761820798221291300,4.879291259765625,-0.99932861328125,-0.0251312255859375,0.0106048583984375
1761820798231361300,4.889361328125,-1.00042724609375,-0.0237579345703125,0.01068115234375
1761820798241431600,4.899431640625,-0.999725341796875,-0.023895263671875,0.0102691650390625
1761820798251502300,4.90950244140625,-1.00054931640625,-0.0228424072265625,0.0094146728515625
1761820798261572400,4.919572265625,-1.000213623046875,-0.023406982421875,0.009490966796875
1761820798271642400,4.929642333984375,-0.999908447265625,-0.023895263671875,0.0101776123046875
1761820798281712400,4.93971240234375,-0.9998016357421875,-0.0242462158203125,0.01055908203125
1761820798291782400,4.949782470703125,-1.0002593994140625,-0.02423095703125,0.0108184814453125
1761820798301852400,4.959852294921875,-0.9995880126953125,-0.0240936279296875,0.00994873046875
1761820798311923200,4.969923095703125,-1.000457763671875,-0.0236968994140625,0.009735107421875
1761820798321993500,4.979993408203125,-1.0001220703125,-0.0230255126953125,0.0094757080078125
1761820798332063500,4.9900634765625,-1.0000457763671875,-0.0234527587890625,0.01019287109375
1761820798342133200,5.00013330078125,-1.00091552734375,-0.0235443115234375,0.0106964111328125
1761820798352203300,5.010203369140625,-1.00006103515625,-0.024749755859375,0.0106201171875
1761820798362273500,5.0202734375,-1.0005645751953125,-0.0251007080078125,0.010345458984375
1761820798372344300,5.03034423828125,-0.9996337890625,-0.0233306884765625,0.0089569091796875
1761820798382414300,5.040414306640625,-1.0000457763671875,-0.0236968994140625,0.0094451904296875
1761820798392484400,5.050484375,-0.999786376953125,-0.02325439453125,0.0094146728515625
1761820798402554400,5.060554443359375,-1.000030517578125,-0.023345947265625,0.0111541748046875
1761820798412624400,5.070624267578125,-1.0009918212890625,-0.0235748291015625,0.0109405517578125
1761820798422695400,5.0806953125,-1.00115966796875,-0.023651123046875,0.010833740234375
1761820798432765200,5.09076513671875,-1.000244140625,-0.024200439453125,0.0105743408203125
1761820798442835500,5.10083544921875,-0.9998779296875,-0.024444580078125,0.0095977783203125
1761820798452905500,5.110905517578125,-0.9996795654296875,-0.02392578125,0.0096893310546875
1761820798462975200,5.120975341796875,-0.9991607666015625,-0.023406982421875,0.0093841552734375
1761820798473045200,5.131045166015625,-0.999481201171875,-0.0234527587890625,0.0106353759765625
1761820798483116300,5.1411162109375,-0.9994049072265625,-0.02392578125,0.011932373046875
1761820798493185500,5.151185546875,-0.9996795654296875,-0.025177001953125,0.012359619140625
1761820798503255600,5.161255615234375,-0.999359130859375,-0.0249481201171875,0.0107421875
1761820798513325600,5.17132568359375,-0.999786376953125,-0.0253143310546875,0.0083465576171875
1761820798523395600,5.1813955078125,-1.001007080078125,-0.0238800048828125,0.0079345703125
1761820798533466600,5.191466552734375,-1.0016937255859375,-0.022430419921875,0.0084686279296875
1761820798543536600,5.20153662109375,-1.0001220703125,-0.022735595703125,0.01153564453125
1761820798553606400,5.2116064453125,-1.000457763671875,-0.0232086181640625,0.0120697021484375
1761820798563676700,5.2216767578125,-1.00042724609375,-0.0225372314453125,0.0113525390625
1761820798573746700,5.23174658203125,-1.0006866455078125,-0.023468017578125,0.0099334716796875
1761820798583816400,5.24181640625,-0.9998016357421875,-0.0238494873046875,0.0088348388671875
1761820798593887500,5.251887451171875,-1.00018310546875,-0.024810791015625,0.0095672607421875
1761820798603957800,5.261957763671875,-1.000823974609375,-0.02520751953125,0.0102691650390625
1761820798614027500,5.272027587890625,-0.9987945556640625,-0.0252227783203125,0.0115203857421875
1761820798624097500,5.28209765625,-1.00048828125,-0.0242462158203125,0.0124359130859375
1761820798634167600,5.29216748046875,-1.000091552734375,-0.0239715576171875,0.0111083984375
1761820798644237600,5.302237548828125,-0.99951171875,-0.023406982421875,0.010467529296875
1761820798654308600,5.31230859375,-1.000152587890625,-0.0243072509765625,0.0091552734375
1761820798664378600,5.322378662109375,-1.00006103515625,-0.0249786376953125,0.01019287109375
1761820798674448600,5.33244873046875,-0.9994659423828125,-0.0255889892578125,0.010040283203125
1761820798684518700,5.3425185546875,-1.000762939453125,-0.024627685546875,0.01141357421875
1761820798694588700,5.352588623046875,-1.0005950927734375,-0.0242462158203125,0.0114288330078125
1761820798704659700,5.36265966796875,-1.000091552734375,-0.022491455078125,0.009765625
1761820798714729500,5.3727294921875,-0.999053955078125,-0.0225067138671875,0.0095672607421875
1761820798724799700,5.3827998046875,-0.9998779296875,-0.0237274169921875,0.0105133056640625
1761820798734869800,5.392869873046875,-1.001007080078125,-0.02423095703125,0.0114288330078125
1761820798744939500,5.402939453125,-0.9996490478515625,-0.0247955322265625,0.0107269287109375
1761820798755009500,5.413009521484375,-1.00018310546875,-0.0252685546875,0.0103912353515625
1761820798765080600,5.42308056640625,-0.9998626708984375,-0.0250396728515625,0.009124755859375
1761820798775150600,5.433150634765625,-0.9994049072265625,-0.0242156982421875,0.009002685546875
1761820798785220600,5.443220703125,-1.00054931640625,-0.023681640625,0.0107269287109375
1761820798795290600,5.45329052734375,-0.9998321533203125,-0.023651123046875,0.0110931396484375
1761820798805360600,5.463360595703125,-0.9990692138671875,-0.0233154296875,0.0116424560546875
1761820798815431700,5.473431640625,-0.9984130859375,-0.0230255126953125,0.010772705078125
1761820798825501700,5.483501708984375,-1.0006256103515625,-0.0238189697265625,0.0098114013671875
1761820798835571500,5.493571533203125,-0.999481201171875,-0.0237579345703125,0.0088043212890625
1761820798845641700,5.503641845703125,-1.000091552734375,-0.0240020751953125,0.0099334716796875
1761820798855711700,5.513711669921875,-1.000030517578125,-0.0247955322265625,0.0110321044921875
1761820798865781500,5.523781494140625,-1.00054931640625,-0.0239410400390625,0.011016845703125
1761820798875852500,5.5338525390625,-1.0006103515625,-0.023712158203125,0.0106201171875
1761820798885922600,5.543922607421875,-1.00103759765625,-0.02301025390625,0.00982666015625
1761820798895992600,5.55399267578125,-0.999603271484375,-0.0231170654296875,0.0088348388671875
1761820798906062600,5.5640625,-1.000152587890625,-0.02398681640625,0.009796142578125
1761820798916132600,5.574132568359375,-1.0005645751953125,-0.0235443115234375,0.0106048583984375
1761820798926202600,5.58420263671875,-0.999725341796875,-0.024627685546875,0.0116729736328125
1761820798936273700,5.594273681640625,-1.0012054443359375,-0.025177001953125,0.010528564453125
1761820798946343700,5.60434375,-1.0001678466796875,-0.0251312255859375,0.0104522705078125
1761820798956413400,5.614413330078125,-1.00067138671875,-0.024383544921875,0.0104522705078125
1761820798966483700,5.624483642578125,-1.0007476806640625,-0.0233306884765625,0.0093536376953125
1761820798976553700,5.6345537109375,-1,-0.024505615234375,0.009765625
1761820798986624800,5.644624755859375,-1.0004425048828125,-0.0238494873046875,0.0113677978515625
1761820798996694500,5.654694580078125,-1.0008697509765625,-0.0239410400390625,0.0102691650390625
1761820799006764500,5.6647646484375,-0.99957275390625,-0.024200439453125,0.0102996826171875
1761820799016834600,5.67483447265625,-1.000091552734375,-0.0250244140625,0.0093994140625
1761820799026904600,5.684904541015625,-1.0001678466796875,-0.024566650390625,0.009185791015625
1761820799036974600,5.694974609375,-1.0005950927734375,-0.0241851806640625,0.01080322265625
1761820799047045600,5.705045654296875,-1.0001983642578125,-0.0245819091796875,0.01202392578125
1761820799057115600,5.71511572265625,-0.99945068359375,-0.0235748291015625,0.010833740234375
1761820799067185700,5.725185546875,-0.999908447265625,-0.022979736328125,0.0110015869140625
1761820799077255700,5.735255615234375,-1.000701904296875,-0.023345947265625,0.010345458984375
1761820799087325700,5.74532568359375,-0.99993896484375,-0.024383544921875,0.0098876953125
1761820799097396700,5.755396728515625,-1.00048828125,-0.0238189697265625,0.010162353515625
1761820799107466800,5.765466796875,-0.9994049072265625,-0.024505615234375,0.0111541748046875
1761820799117536500,5.77553662109375,-1.00030517578125,-0.025115966796875,0.01104736328125
1761820799127606500,5.7856064453125,-1.000946044921875,-0.0241241455078125,0.009979248046875
1761820799137676800,5.7956767578125,-1.000732421875,-0.0240631103515625,0.0089874267578125
1761820799147746600,5.80574658203125,-0.99993896484375,-0.023162841796875,0.0094146728515625
1761820799157817600,5.815817626953125,-1.000335693359375,-0.02386474609375,0.0103607177734375
1761820799167887600,5.8258876953125,-1.000152587890625,-0.0240631103515625,0.0111541748046875
1761820799177957600,5.83595751953125,-1.0000457763671875,-0.023651123046875,0.011016845703125
1761820799188027600,5.846027587890625,-0.9992828369140625,-0.024169921875,0.0103302001953125
1761820799198097700,5.85609765625,-1.001220703125,-0.02398681640625,0.0106964111328125
1761820799208167700,5.866167724609375,-1.000244140625,-0.02392578125,0.0100860595703125
1761820799218238700,5.87623876953125,-1.0002593994140625,-0.0236358642578125,0.00994873046875
1761820799228308700,5.886308837890625,-1.0011444091796875,-0.0236053466796875,0.010711669921875
1761820799238378500,5.89637841796875,-1.00054931640625,-0.023681640625,0.01129150390625
1761820799248448500,5.906448486328125,-1.0002899169921875,-0.02337646484375,0.0098876953125
1761820799258518800,5.916518798828125,-0.999542236328125,-0.0240020751953125,0.009246826171875
1761820799268589600,5.926589599609375,-1.0007476806640625,-0.0238494873046875,0.010223388671875
1761820799278659600,5.93665966796875,-1.00048828125,-0.02447509765625,0.010833740234375
1761820799288729600,5.9467294921875,-0.999847412109375,-0.02447509765625,0.0102691650390625
1761820799298799600,5.956799560546875,-1.0007171630859375,-0.0246734619140625,0.0106353759765625
1761820799308869600,5.96686962890625,-1.000396728515625,-0.0243682861328125,0.0103759765625
1761820799318939600,5.976939697265625,-0.9995574951171875,-0.0238800048828125,0.01055908203125
1761820799329010700,5.9870107421875,-1.001373291015625,-0.0236053466796875,0.0101470947265625
1761820799339080400,5.99708056640625,-1.0004119873046875,-0.023712158203125,0.0099639892578125
1761820799349150700,6.007150634765625,-0.999114990234375,-0.0238800048828125,0.010009765625
1761820799359220500,6.017220458984375,-0.9996795654296875,-0.02484130859375,0.01092529296875
1761820799369290500,6.02729052734375,-1.0008392333984375,-0.024169921875,0.010986328125
1761820799379361500,6.037361572265625,-1.0010986328125,-0.024078369140625,0.0095672607421875
1761820799389431800,6.047431884765625,-1.00006103515625,-0.02362060546875,0.010345458984375
1761820799399501600,6.05750146484375,-1.000274658203125,-0.0242919921875,0.010162353515625
1761820799409571600,6.067571533203125,-1.0011749267578125,-0.0237884521484375,0.0102386474609375
1761820799419641600,6.0776416015625,-1.000946044921875,-0.02392578125,0.0096282958984375
1761820799429711600,6.087711669921875,-1.000335693359375,-0.0233154296875,0.01080322265625
1761820799439782700,6.09778271484375,-1.00042724609375,-0.023956298828125,0.0102081298828125
1761820799449852700,6.107852783203125,-0.9996337890625,-0.0233306884765625,0.0099029541015625
1761820799459922400,6.11792236328125,-0.9994659423828125,-0.02386474609375,0.0104522705078125
1761820799469992700,6.12799267578125,-0.9999237060546875,-0.0237884521484375,0.011138916015625
1761820799480062700,6.138062744140625,-1.0001068115234375,-0.024139404296875,0.0112152099609375
1761820799490133500,6.148133544921875,-1.0003662109375,-0.025115966796875,0.010833740234375
1761820799500204500,6.15820458984375,-0.9998321533203125,-0.023406982421875,0.0097808837890625
1761820799510274300,6.1682744140625,-0.9990692138671875,-0.0235748291015625,0.010345458984375
1761820799520344600,6.178344482421875,-1.00048828125,-0.0243682861328125,0.010223388671875
1761820799530414600,6.18841455078125,-1.0009002685546875,-0.024078369140625,0.0106658935546875
1761820799540484400,6.198484375,-0.9993896484375,-0.024444580078125,0.010498046875
1761820799550554600,6.2085546875,-0.999603271484375,-0.0248565673828125,0.01092529296875
1761820799560625700,6.218625732421875,-0.9994049072265625,-0.02423095703125,0.0109405517578125
1761820799570695400,6.2286953125,-1.0002288818359375,-0.0243988037109375,0.0097503662109375
1761820799580765400,6.238765380859375,-0.9998321533203125,-0.0246429443359375,0.010772705078125
1761820799590835500,6.24883544921875,-0.9998626708984375,-0.023284912109375,0.011016845703125
1761820799600905500,6.258905517578125,-0.999481201171875,-0.023895263671875,0.0106201171875
1761820799610976500,6.2689765625,-0.9995574951171875,-0.0238189697265625,0.0107421875
1761820799621046500,6.279046630859375,-1,-0.023651123046875,0.010162353515625
1761820799631116300,6.2891162109375,-0.9997406005859375,-0.023345947265625,0.010498046875
1761820799641186600,6.2991865234375,-1.0001678466796875,-0.024322509765625,0.0102691650390625
1761820799651256600,6.309256591796875,-1.000457763671875,-0.024383544921875,0.009857177734375
1761820799661326300,6.319326416015625,-1.000213623046875,-0.024505615234375,0.010498046875
1761820799671397400,6.3293974609375,-1.0001983642578125,-0.0244140625,0.0102996826171875
1761820799681467600,6.339467529296875,-1.0004425048828125,-0.0239105224609375,0.0103607177734375
1761820799691537400,6.349537353515625,-1.000640869140625,-0.0233154296875,0.0106353759765625
1761820799701607400,6.359607421875,-1.0007171630859375,-0.023956298828125,0.0106353759765625
1761820799711677400,6.369677490234375,-1.000732421875,-0.02398681640625,0.010223388671875
1761820799721747500,6.37974755859375,-1.0001678466796875,-0.0235443115234375,0.0108795166015625
1761820799731818500,6.389818603515625,-1.0002288818359375,-0.0229339599609375,0.0102691650390625
1761820799741888500,6.399888427734375,-1.0010223388671875,-0.0235443115234375,0.0110321044921875
1761820799751958300,6.409958251953125,-1.000640869140625,-0.02398681640625,0.009246826171875
1761820799762028500,6.420028564453125,-1.000152587890625,-0.0235595703125,0.0102081298828125
1761820799772098600,6.4300986328125,-0.99957275390625,-0.0240936279296875,0.010345458984375
1761820799782169600,6.440169677734375,-0.999237060546875,-0.02325439453125,0.0093536376953125
1761820799792239400,6.4502392578125,-1.0010986328125,-0.0235748291015625,0.01031494140625
1761820799802309600,6.4603095703125,-0.9988250732421875,-0.0232086181640625,0.0096588134765625
1761820799812379600,6.470379638671875,-1.001068115234375,-0.024200439453125,0.0108489990234375
1761820799822449400,6.480449462890625,-0.9990997314453125,-0.024627685546875,0.01055908203125
1761820799832519400,6.49051953125,-1.0000762939453125,-0.0243072509765625,0.0101776123046875
1761820799842590500,6.500590576171875,-1.00146484375,-0.024078369140625,0.0103759765625
1761820799852660500,6.510660400390625,-0.9986724853515625,-0.0236053466796875,0.010589599609375
1761820799862730500,6.52073046875,-1.0011444091796875,-0.023712158203125,0.010528564453125
1761820799872800500,6.530800537109375,-1.0004730224609375,-0.0254669189453125,0.010101318359375
1761820799882870500,6.54087060546875,-0.998138427734375,-0.0256805419921875,0.009674072265625
1761820799892940500,6.5509404296875,-1.0008392333984375,-0.0253143310546875,0.0096435546875
1761820799903011600,6.561011474609375,-0.9977874755859375,-0.0249481201171875,0.0087127685546875
1761820799913081300,6.571081298828125,-0.999420166015625,-0.025177001953125,0.01055908203125
1761820799923151600,6.581151611328125,-1.0048065185546875,-0.0249176025390625,0.0123443603515625
1761820799933221600,6.5912216796875,-0.9997100830078125,-0.0224609375,0.00970458984375
1761820799943291400,6.60129150390625,-1.00079345703125,-0.0205078125,0.0107574462890625
1761820799953362400,6.611362548828125,-1.0038604736328125,-0.01959228515625,0.01214599609375
1761820799963432400,6.621432373046875,-0.9992523193359375,-0.020111083984375,0.0120849609375
1761820799973502500,6.63150244140625,-1.0029754638671875,-0.022705078125,0.013519287109375
1761820799983572500,6.641572509765625,-0.9932861328125,-0.0241241455078125,0.00726318359375
1761820799993642500,6.651642578125,-1.0039825439453125,-0.02655029296875,0.0093841552734375
1761820800003712500,6.66171240234375,-1.0007781982421875,-0.02777099609375,0.00714111328125
1761820800013783600,6.671783447265625,-0.9972991943359375,-0.01971435546875,0.0144805908203125
1761820800023853600,6.681853515625,-0.9952239990234375,0.1011505126953125,0.1049346923828125
1761820800033923300,6.69192333984375,-1.0059814453125,0.056396484375,0.05303955078125
1761820800043993600,6.70199365234375,-1.003021240234375,-0.0987091064453125,-0.045074462890625
1761820800054063600,6.712063720703125,-0.9990692138671875,-0.09033203125,-0.0297393798828125
1761820800064133400,6.72213330078125,-0.99761962890625,-0.0281524658203125,0.0099945068359375
1761820800074204400,6.732204345703125,-0.99945068359375,-0.0120849609375,0.0123291015625
1761820800084274400,6.7422744140625,-1.001007080078125,-0.026153564453125,-0.0005950927734375
1761820800094344400,6.752344482421875,-0.9985504150390625,-0.027923583984375,0.0006561279296875
1761820800104414500,6.76241455078125,-1.0001220703125,-0.028656005859375,0.004058837890625
1761820800114484500,6.772484375,-1.0004425048828125,-0.028717041015625,0.003326416015625
1761820800124555500,6.782555419921875,-0.9995574951171875,-0.0256195068359375,0.0006103515625
1761820800134625500,6.79262548828125,-1.001922607421875,-0.0242919921875,0.002227783203125
1761820800144695600,6.802695556640625,-1.0003814697265625,-0.023223876953125,0.0085906982421875
1761820800154765600,6.812765625,-0.9998626708984375,-0.0157928466796875,0.0157012939453125
1761820800164835300,6.82283544921875,-1.000732421875,-0.0093231201171875,0.0169830322265625
1761820800174905600,6.832905517578125,-1.0013427734375,-0.004058837890625,0.0141754150390625
1761820800184976600,6.8429765625,-1.0016632080078125,-0.004425048828125,0.0111846923828125
1761820800195046400,6.85304638671875,-0.999420166015625,-0.0058135986328125,0.010467529296875
1761820800205116400,6.863116455078125,-0.9994354248046875,-0.0200653076171875,0.0113067626953125
1761820800215186700,6.873186767578125,-1.0012664794921875,-0.024810791015625,0.013580322265625
1761820800225256400,6.88325634765625,-0.9998626708984375,-0.0162353515625,0.012603759765625
1761820800235326500,6.893326416015625,-1.0011749267578125,-0.028228759765625,0.0119781494140625
1761820800245397500,6.9033974609375,-0.99993896484375,-0.0373077392578125,0.012725830078125
1761820800255467500,6.913467529296875,-0.9990234375,-0.026641845703125,0.007781982421875
1761820800265537500,6.92353759765625,-1.0008544921875,-0.025665283203125,0.0061187744140625
1761820800275607600,6.933607666015625,-0.9996337890625,-0.030029296875,0.0073394775390625
1761820800285677300,6.94367724609375,-0.9990692138671875,-0.0339508056640625,0.011138916015625
1761820800295747600,6.95374755859375,-0.999847412109375,-0.0247039794921875,0.0137939453125
1761820800305818600,6.963818603515625,-1.0002899169921875,-0.026947021484375,0.0113525390625
1761820800315888400,6.973888427734375,-1.001434326171875,-0.0360107421875,0.009521484375
1761820800325958400,6.98395849609375,-1.000823974609375,-0.0377349853515625,0.0079803466796875
1761820800336028700,6.994028564453125,-0.999847412109375,-0.028961181640625,0.0090789794921875
1761820800346098400,7.004098388671875,-1.0007476806640625,-0.014801025390625,0.0133056640625
1761820800356169500,7.01416943359375,-1.000152587890625,-0.0220184326171875,0.0144195556640625
1761820800366239500,7.024239501953125,-1.0018768310546875,-0.0265045166015625,0.012115478515625
1761820800376309500,7.0343095703125,-1.000579833984375,-0.029449462890625,0.009552001953125
1761820800386379500,7.044379638671875,-0.99884033203125,-0.0261993408203125,0.0091094970703125
1761820800396449500,7.054449462890625,-1.0005340576171875,-0.026763916015625,0.01129150390625
1761820800406519300,7.064519287109375,-0.999603271484375,-0.026947021484375,0.0126495361328125
1761820800416590300,7.07459033203125,-0.999481201171875,-0.0265350341796875,0.0145721435546875
1761820800426660600,7.08466064453125,-1.00103759765625,-0.0241241455078125,0.0133514404296875
1761820800436730400,7.09473046875,-0.9992828369140625,-0.0280303955078125,0.007232666015625
1761820800446800400,7.10480029296875,-1.0002899169921875,-0.026947021484375,0.008026123046875
1761820800456870700,7.11487060546875,-0.99993896484375,-0.032958984375,0.0076904296875
1761820800466940400,7.1249404296875,-0.999908447265625,-0.0377349853515625,0.003021240234375
1761820800477011500,7.135011474609375,-1.0001983642578125,-0.0275421142578125,0.0117034912109375
1761820800487081000,7.1450810546875,-0.9989776611328125,-0.0216522216796875,0.01275634765625
1761820800497151000,7.15515087890625,-1.0009918212890625,-0.0246429443359375,0.00811767578125
1761820800507221000,7.165220947265625,-1.0000762939453125,-0.0254669189453125,0.0068206787109375
1761820800517290800,7.175290771484375,-0.9998016357421875,-0.0290069580078125,0.0068511962890625
1761820800527361800,7.18536181640625,-1.0003814697265625,-0.025665283203125,0.0088653564453125
1761820800537432000,7.19543212890625,-1.0003814697265625,-0.0234222412109375,0.01287841796875
1761820800547502000,7.205502197265625,-1.0001068115234375,-0.0299530029296875,0.0085906982421875
1761820800557571800,7.21557177734375,-1.0001983642578125,-0.0301055908203125,0.00518798828125
1761820800567641900,7.225641845703125,-1.000518798828125,-0.0292816162109375,0.00616455078125
1761820800577712000,7.235712158203125,-1.0010833740234375,-0.027374267578125,0.0088653564453125
1761820800587783000,7.245782958984375,-0.999420166015625,-0.0252685546875,0.01116943359375
1761820800597853000,7.25585302734375,-1.000335693359375,-0.0254669189453125,0.011566162109375
1761820800607923000,7.2659228515625,-0.999969482421875,-0.02392578125,0.010955810546875
1761820800617993000,7.275992919921875,-0.9994354248046875,-0.0230560302734375,0.010955810546875
1761820800628063000,7.28606298828125,-1.0011444091796875,-0.0224609375,0.009674072265625
1761820800638133000,7.296133056640625,-0.999969482421875,-0.0212554931640625,0.0102081298828125
1761820800648203800,7.306203857421875,-1.00018310546875,-0.0167388916015625,0.0128936767578125
1761820800658274000,7.316274169921875,-1.00079345703125,0.00323486328125,0.015625
1761820800668344000,7.326343994140625,-1.000518798828125,-0.002777099609375,0.0104522705078125
1761820800678413800,7.336413818359375,-1.000732421875,-0.040130615234375,0.0073699951171875
1761820800688483800,7.34648388671875,-0.9989776611328125,-0.037628173828125,0.0106201171875
1761820800698554000,7.35655419921875,-1.0005950927734375,-0.0270538330078125,0.009674072265625
1761820800708625000,7.366625,-1.001251220703125,-0.0269317626953125,0.0106353759765625
1761820800718695000,7.37669482421875,-1.0003204345703125,-0.0239715576171875,0.0118255615234375
1761820800728765000,7.386764892578125,-1.001251220703125,-0.0161895751953125,0.011383056640625
1761820800738835000,7.3968349609375,-1.001129150390625,-0.0208587646484375,0.0099029541015625
1761820800748905000,7.406905029296875,-1.000396728515625,-0.0304412841796875,0.0103912353515625
1761820800758975000,7.41697509765625,-1.000457763671875,-0.0273590087890625,0.011138916015625
1761820800769045800,7.427045654296875,-0.999847412109375,-0.02667236328125,0.0099334716796875
1761820800779116000,7.437115966796875,-0.9999847412109375,-0.02880859375,0.009765625
1761820800789186000,7.44718603515625,-1.000152587890625,-0.02825927734375,0.0106658935546875
1761820800799255800,7.457255859375,-1.000701904296875,-0.0272216796875,0.010040283203125
1761820800809325800,7.467325927734375,-0.9995880126953125,-0.02679443359375,0.0100555419921875
1761820800819396900,7.47739697265625,-0.9997711181640625,-0.0254364013671875,0.01092529296875
1761820800829467100,7.487467041015625,-1.000244140625,-0.024444580078125,0.01165771484375
1761820800839537000,7.497536865234375,-0.9994049072265625,-0.023590087890625,0.011199951171875
1761820800849607000,7.50760693359375,-0.9998626708984375,-0.0235748291015625,0.011199951171875
1761820800859677000,7.517677001953125,-1.0005035400390625,-0.023101806640625,0.009979248046875
1761820800869747000,7.527746826171875,-1.000457763671875,-0.0226898193359375,0.0104217529296875
1761820800879818000,7.53781787109375,-1.00006103515625,-0.023406982421875,0.010772705078125
1761820800889888000,7.547887939453125,-1.000732421875,-0.02557373046875,0.0113372802734375
1761820800899958000,7.5579580078125,-1.000091552734375,-0.0252685546875,0.0107421875
1761820800910028000,7.568028076171875,-1.0002593994140625,-0.0241851806640625,0.0109100341796875
1761820800920097800,7.578097900390625,-1.0000457763671875,-0.024566650390625,0.010467529296875
1761820800930167800,7.588167724609375,-1.00048828125,-0.023223876953125,0.0100250244140625
1761820800940238800,7.59823876953125,-1.0015869140625,-0.0238037109375,0.0104827880859375
1761820800950309000,7.60830908203125,-1.000762939453125,-0.0235595703125,0.010467529296875
1761820800960379000,7.61837890625,-0.999176025390625,-0.023773193359375,0.0121307373046875
1761820800970449000,7.628448974609375,-1.0001220703125,-0.023712158203125,0.0109100341796875
1761820800980519200,7.638519287109375,-0.99981689453125,-0.0240325927734375,0.0101470947265625
1761820800990589000,7.6485888671875,-1.00146484375,-0.023162841796875,0.0095367431640625
1761820801000660000,7.658659912109375,-0.9998626708984375,-0.0231781005859375,0.010589599609375
1761820801010730000,7.66872998046875,-1.0011749267578125,-0.02386474609375,0.011688232421875
1761820801020800000,7.678800048828125,-1.00128173828125,-0.0241851806640625,0.0113067626953125
1761820801030870000,7.6888701171875,-0.999969482421875,-0.0235595703125,0.011474609375
1761820801040940000,7.69893994140625,-1.0007781982421875,-0.0233612060546875,0.0110015869140625
1761820801051009800,7.709009765625,-0.999755859375,-0.0240478515625,0.01080322265625
1761820801061080800,7.719080810546875,-0.99969482421875,-0.0236358642578125,0.0102996826171875
1761820801071151000,7.729151123046875,-0.9994049072265625,-0.024017333984375,0.01055908203125
1761820801081220900,7.739220947265625,-1.000885009765625,-0.024139404296875,0.011199951171875
1761820801091291000,7.749290771484375,-0.99981689453125,-0.02398681640625,0.011810302734375
1761820801101361200,7.759361083984375,-0.9994659423828125,-0.0238189697265625,0.0106658935546875
1761820801111431000,7.769430908203125,-1.00006103515625,-0.023193359375,0.01055908203125
1761820801121502000,7.779501953125,-1.0005950927734375,-0.0225677490234375,0.0099945068359375
1761820801131572000,7.789572021484375,-1.000091552734375,-0.023193359375,0.0106658935546875
1761820801141641700,7.799641845703125,-1.0000152587890625,-0.0244293212890625,0.0109710693359375
1761820801151712000,7.8097119140625,-1.0002593994140625,-0.0249786376953125,0.01092529296875
1761820801161782000,7.819781982421875,-0.9996795654296875,-0.0243377685546875,0.0103302001953125
1761820801171851800,7.829851806640625,-1.0012359619140625,-0.0238189697265625,0.010711669921875
1761820801181922800,7.8399228515625,-1.0002288818359375,-0.02313232421875,0.0099334716796875
1761820801191993000,7.8499931640625,-0.9990234375,-0.022613525390625,0.01123046875
1761820801202062800,7.860062744140625,-1.000335693359375,-0.0234222412109375,0.011383056640625
1761820801212132900,7.8701328125,-1.0009002685546875,-0.022857666015625,0.010589599609375
1761820801222203100,7.880203125,-0.999786376953125,-0.0242767333984375,0.010986328125
1761820801232274200,7.890274169921875,-0.99945068359375,-0.0247802734375,0.0106964111328125
1761820801242344000,7.900343994140625,-1.0001983642578125,-0.024566650390625,0.01116943359375
1761820801252414000,7.9104140625,-1.0004730224609375,-0.0244293212890625,0.010955810546875
1761820801262483700,7.920483642578125,-0.9997711181640625,-0.0241241455078125,0.01043701171875
1761820801272554000,7.930553955078125,-1.00128173828125,-0.02301025390625,0.01129150390625
1761820801282624000,7.9406240234375,-0.99951171875,-0.022216796875,0.0106658935546875
1761820801292695000,7.950695068359375,-1.0005340576171875,-0.0220489501953125,0.0103607177734375
1761820801302764800,7.960764892578125,-1.0007171630859375,-0.022918701171875,0.0106658935546875
1761820801312835000,7.9708349609375,-0.9994659423828125,-0.02392578125,0.0099334716796875
1761820801322905000,7.980905029296875,-0.999542236328125,-0.02490234375,0.01092529296875
1761820801332974800,7.990974853515625,-1.001007080078125,-0.02447509765625,0.010833740234375
1761820801343045000,8.001045166015626,-1.0001983642578125,-0.02484130859375,0.0092620849609375
1761820801353116200,8.0111162109375,-0.99957275390625,-0.024871826171875,0.01043701171875
1761820801363183000,8.02118310546875,-0.9996185302734375,-0.024688720703125,0.0109100341796875
1761820801373254100,8.031254150390625,-1.00006103515625,-0.0237274169921875,0.0101776123046875
1761820801383324000,8.041323974609375,-1.00177001953125,-0.02325439453125,0.0103302001953125
1761820801393394000,8.051393798828125,-1.000762939453125,-0.0235748291015625,0.0106658935546875
1761820801403464000,8.0614638671875,-0.9998321533203125,-0.0233154296875,0.0098724365234375
1761820801413534000,8.071533935546874,-1.000640869140625,-0.023101806640625,0.011260986328125
1761820801423604000,8.08160400390625,-0.9985809326171875,-0.0235748291015625,0.0105438232421875
1761820801433675000,8.091675048828124,-1.00018310546875,-0.0244293212890625,0.010650634765625
1761820801443745000,8.1017451171875,-1.00006103515625,-0.023651123046875,0.0106201171875
1761820801453815000,8.11181494140625,-1.000335693359375,-0.0245819091796875,0.0099639892578125
1761820801463884800,8.121884765625,-1.0001373291015625,-0.0238800048828125,0.0102691650390625
1761820801473954800,8.131954833984375,-0.9996337890625,-0.0232086181640625,0.0101165771484375
1761820801484025000,8.142025146484375,-0.9999542236328125,-0.02374267578125,0.0112152099609375
1761820801494096400,8.152096435546875,-1.0006866455078125,-0.023284912109375,0.011322021484375
1761820801504166400,8.16216650390625,-0.9999542236328125,-0.0234375,0.0113372802734375
1761820801514236200,8.172236083984375,-0.9997100830078125,-0.0244140625,0.0103759765625
1761820801524306200,8.18230615234375,-0.9997406005859375,-0.0238189697265625,0.009185791015625
1761820801534376400,8.19237646484375,-0.9989776611328125,-0.0245819091796875,0.0106964111328125
1761820801544447500,8.202447509765625,-1.000701904296875,-0.0238494873046875,0.0102691650390625
1761820801554517200,8.212517333984374,-1.001007080078125,-0.0235137939453125,0.0102386474609375
1761820801564587300,8.222587158203124,-0.9999847412109375,-0.023681640625,0.0108795166015625
1761820801574657500,8.232657470703124,-0.999847412109375,-0.0237884521484375,0.01019287109375
1761820801584727300,8.242727294921876,-1.0016326904296875,-0.0253448486328125,0.0094451904296875
1761820801594797300,8.25279736328125,-1.0011444091796875,-0.0266571044921875,0.0088958740234375
1761820801604868400,8.262868408203126,-1.0013580322265625,-0.024749755859375,0.0108642578125
1761820801614938400,8.2729384765625,-0.999176025390625,-0.024017333984375,0.0104827880859375
1761820801625008400,8.28300830078125,-1.000152587890625,-0.0211181640625,0.0117950439453125
1761820801635078400,8.293078369140625,-1.000518798828125,-0.0184326171875,0.011627197265625
1761820801645148200,8.303148193359375,-1.000091552734375,-0.01959228515625,0.0110015869140625
1761820801655218400,8.313218505859375,-1.0008697509765625,-0.022216796875,0.0091400146484375
1761820801665288200,8.3232880859375,-1.00006103515625,-0.025054931640625,0.0092010498046875
1761820801675359200,8.333359130859375,-1.000457763671875,-0.027313232421875,0.009674072265625
1761820801685429200,8.34342919921875,-1.00054931640625,-0.0296783447265625,0.009857177734375
1761820801695499500,8.35349951171875,-0.9991455078125,-0.02886962890625,0.0110626220703125
1761820801705569300,8.3635693359375,-1.0001983642578125,-0.026702880859375,0.0115814208984375
1761820801715639300,8.373639404296876,-1.0003662109375,-0.021270751953125,0.0105133056640625
1761820801725710300,8.38371044921875,-0.99932861328125,-0.017120361328125,0.010162353515625
1761820801735780400,8.3937802734375,-1.00042724609375,-0.0178680419921875,0.0105438232421875
1761820801745850400,8.403850341796876,-0.9990997314453125,-0.020172119140625,0.0113525390625
1761820801755920400,8.41392041015625,-1.0001068115234375,-0.0236663818359375,0.010650634765625
1761820801765990100,8.423990234375,-1.0002593994140625,-0.02740478515625,0.0105438232421875
1761820801776060400,8.434060302734375,-1.0001220703125,-0.02825927734375,0.0090789794921875
1761820801786131500,8.44413134765625,-1.0001983642578125,-0.0272979736328125,0.009002685546875
1761820801796201200,8.454201171875,-1.0008087158203125,-0.0257415771484375,0.00927734375
1761820801806271200,8.464271240234375,-1.0004119873046875,-0.022308349609375,0.0109710693359375
1761820801816341500,8.474341552734375,-1.00128173828125,-0.0214385986328125,0.0106353759765625
1761820801826411300,8.484411376953124,-1.0003204345703125,-0.020904541015625,0.01141357421875
1761820801836481300,8.494481201171874,-1.000823974609375,-0.0213470458984375,0.010162353515625
1761820801846552300,8.50455224609375,-1.00128173828125,-0.022003173828125,0.009765625
1761820801856622300,8.514622314453124,-0.9999237060546875,-0.023345947265625,0.0108795166015625
1761820801866692400,8.5246923828125,-1.000518798828125,-0.026153564453125,0.0097808837890625
1761820801876762400,8.534762451171876,-1.000335693359375,-0.0264129638671875,0.011383056640625
1761820801886832000,8.54483203125,-0.9999542236328125,-0.02642822265625,0.01055908203125
1761820801896902400,8.55490234375,-1.0003662109375,-0.025177001953125,0.0087890625
1761820801906973400,8.564973388671875,-0.9993133544921875,-0.02325439453125,0.00970458984375
1761820801917043200,8.575043212890625,-1.000640869140625,-0.02154541015625,0.0102996826171875
1761820801927113200,8.58511328125,-1.0007781982421875,-0.0206756591796875,0.0113067626953125
1761820801937183500,8.59518359375,-0.99951171875,-0.022216796875,0.01129150390625
1761820801947253200,8.605253173828125,-1.0006561279296875,-0.024078369140625,0.010833740234375
1761820801957323300,8.6153232421875,-1.00030517578125,-0.025115966796875,0.0106964111328125
1761820801967394300,8.625394287109375,-1.000762939453125,-0.026641845703125,0.010009765625
1761820801977464300,8.63546435546875,-0.9991302490234375,-0.026824951171875,0.009368896484375
1761820801987535400,8.645535400390624,-1.0020751953125,-0.0247955322265625,0.0101470947265625
1761820801997606400,8.6556064453125,-0.998748779296875,-0.02288818359375,0.01171875
1761820802007676400,8.665676513671874,-1.0004730224609375,-0.0218048095703125,0.0113525390625
1761820802017746200,8.67574609375,-1.0012359619140625,-0.02130126953125,0.010833740234375
1761820802027816200,8.685816162109376,-0.99957275390625,-0.0220184326171875,0.009124755859375
1761820802037886500,8.695886474609376,-1.0009613037109375,-0.0241546630859375,0.009613037109375
1761820802047957500,8.70595751953125,-1.0005035400390625,-0.0247650146484375,0.0106201171875
1761820802058027300,8.71602734375,-0.998809814453125,-0.02593994140625,0.010040283203125
1761820802068097300,8.72609716796875,-1.001129150390625,-0.0260467529296875,0.0108184814453125
1761820802078167600,8.73616748046875,-1.000030517578125,-0.024078369140625,0.0114288330078125
1761820802088237300,8.7462373046875,-1.0012359619140625,-0.023895263671875,0.0105133056640625
1761820802098307300,8.756307373046875,-1.0003662109375,-0.022796630859375,0.009613037109375
1761820802108377300,8.76637744140625,-0.9992218017578125,-0.0243072509765625,0.00994873046875
1761820802118448400,8.776448486328125,-1.0006866455078125,-0.02581787109375,0.0101776123046875
1761820802128518400,8.786518310546874,-0.99957275390625,-0.0254974365234375,0.010009765625
1761820802138588400,8.79658837890625,-0.9993896484375,-0.0242462158203125,0.0095062255859375
1761820802148658200,8.806658203125,-1.00140380859375,-0.0235595703125,0.009796142578125
1761820802158728400,8.816728515625,-1.0001068115234375,-0.022674560546875,0.0097198486328125
1761820802168799500,8.826799560546876,-0.999603271484375,-0.0220794677734375,0.009796142578125
1761820802178869200,8.836869140625,-1.0001220703125,-0.0219268798828125,0.0112457275390625
1761820802188939300,8.846939208984375,-1.000396728515625,-0.0222930908203125,0.0108642578125
1761820802199009500,8.857009521484375,-1.0009765625,-0.023223876953125,0.011474609375
1761820802209079300,8.867079345703125,-1.0002593994140625,-0.023590087890625,0.0098724365234375
1761820802219149300,8.8771494140625,-1.0003662109375,-0.0246429443359375,0.00958251953125
1761820802229220400,8.887220458984375,-1.0006561279296875,-0.024627685546875,0.010040283203125
1761820802239290000,8.8972900390625,-0.999267578125,-0.02459716796875,0.010986328125
1761820802249360400,8.9073603515625,-1.0005950927734375,-0.0242156982421875,0.0110015869140625
1761820802259430400,8.917430419921875,-0.99951171875,-0.0240325927734375,0.0111846923828125
1761820802269500200,8.927500244140624,-0.9999542236328125,-0.0240020751953125,0.0115203857421875
1761820802279570400,8.9375703125,-1.0004730224609375,-0.02227783203125,0.0092315673828125
1761820802289641500,8.947641357421874,-1.0002899169921875,-0.022613525390625,0.0088348388671875
1761820802299711200,8.957711181640626,-1.0006561279296875,-0.024078369140625,0.0096282958984375
1761820802309781200,8.96778125,-0.9999847412109375,-0.0250701904296875,0.0111846923828125
1761820802319851500,8.9778515625,-0.999755859375,-0.0262451171875,0.010711669921875
1761820802329921300,8.98792138671875,-1.0009765625,-0.024993896484375,0.01007080078125
1761820802339991300,8.9979912109375,-0.9998779296875,-0.0241851806640625,0.00970458984375
1761820802350062300,9.008062255859375,-1.000030517578125,-0.0228424072265625,0.0099334716796875
1761820802360132000,9.018132080078125,-1.0007171630859375,-0.02301025390625,0.010833740234375
1761820802370202400,9.028202392578125,-0.9987640380859375,-0.023040771484375,0.010498046875
1761820802380272400,9.0382724609375,-1.001800537109375,-0.022491455078125,0.0110931396484375
1761820802390342100,9.048342041015625,-1.000640869140625,-0.02288818359375,0.010162353515625
1761820802400412400,9.058412353515624,-1.000640869140625,-0.0237274169921875,0.0095672607421875
1761820802410483500,9.0684833984375,-1.0008544921875,-0.024322509765625,0.010162353515625
1761820802420553200,9.07855322265625,-0.999755859375,-0.0239715576171875,0.010650634765625
1761820802430623200,9.088623291015624,-1.00128173828125,-0.0232086181640625,0.0103912353515625
1761820802440693500,9.098693603515626,-1.0008697509765625,-0.022674560546875,0.009368896484375
1761820802450763300,9.10876318359375,-1.0001678466796875,-0.022613525390625,0.010406494140625
1761820802460833300,9.118833251953125,-1.000457763671875,-0.0230865478515625,0.0103912353515625
1761820802470904300,9.128904296875,-0.9998626708984375,-0.02392578125,0.0101776123046875
1761820802480974300,9.138974365234375,-1.0005950927734375,-0.0242462158203125,0.0100555419921875
1761820802491044400,9.14904443359375,-1.00030517578125,-0.0250091552734375,0.0101776123046875
1761820802501114000,9.159114013671875,-1.0007476806640625,-0.02532958984375,0.0100555419921875
1761820802511184100,9.16918408203125,-1.0000152587890625,-0.0247802734375,0.010406494140625
1761820802521254400,9.17925439453125,-1.00048828125,-0.0253143310546875,0.0103912353515625
1761820802531325200,9.1893251953125,-1.0007781982421875,-0.0233001708984375,0.010894775390625
1761820802541395200,9.199395263671875,-0.9995269775390625,-0.0225677490234375,0.0105743408203125
1761820802551465200,9.20946533203125,-0.999053955078125,-0.0214996337890625,0.009765625
1761820802561535200,9.21953515625,-1.0003204345703125,-0.0235443115234375,0.010650634765625
1761820802571605200,9.229605224609376,-1.000396728515625,-0.0242156982421875,0.010040283203125
1761820802581675300,9.23967529296875,-0.9992218017578125,-0.02447509765625,0.0089569091796875
1761820802591746000,9.24974609375,-1.0009765625,-0.0248260498046875,0.0100860595703125
1761820802601816000,9.259816162109376,-0.9994659423828125,-0.0240020751953125,0.010101318359375
1761820802611886300,9.26988623046875,-0.9992218017578125,-0.023101806640625,0.0095672607421875
1761820802621956000,9.2799560546875,-1.0012359619140625,-0.0226287841796875,0.0106353759765625
1761820802632026000,9.290026123046875,-0.999603271484375,-0.0231475830078125,0.0102386474609375
1761820802642096400,9.300096435546875,-1.000823974609375,-0.023529052734375,0.010650634765625
1761820802652167200,9.310167236328125,-0.9995880126953125,-0.02410888671875,0.00909423828125
1761820802662237200,9.3202373046875,-0.999359130859375,-0.0247039794921875,0.010009765625
1761820802672307200,9.33030712890625,-1.000091552734375,-0.0246124267578125,0.0108184814453125
1761820802682377200,9.340377197265624,-1.00054931640625,-0.02496337890625,0.0107879638671875
1761820802692447200,9.350447265625,-1.0003509521484375,-0.0242156982421875,0.0101165771484375
1761820802702517200,9.360517333984374,-1.0017547607421875,-0.0233001708984375,0.0102691650390625
1761820802712588300,9.37058837890625,-1.0002288818359375,-0.022125244140625,0.0115814208984375
1761820802722658000,9.380657958984376,-1.0006866455078125,-0.022613525390625,0.0118408203125
1761820802732728300,9.390728271484376,-0.9998626708984375,-0.0226898193359375,0.0106353759765625
1761820802742798000,9.400798095703125,-1.0004730224609375,-0.0229949951171875,0.0102386474609375
1761820802752868000,9.4108681640625,-1.00067138671875,-0.0240936279296875,0.0095672607421875
1761820802762938400,9.4209384765625,-0.9986572265625,-0.025787353515625,0.0100250244140625
1761820802773009400,9.431009521484375,-1.001007080078125,-0.025360107421875,0.0108642578125
1761820802783079200,9.4410791015625,-0.999847412109375,-0.024383544921875,0.0107421875
1761820802793149200,9.451149169921875,-1.0004730224609375,-0.0240325927734375,0.0093231201171875
1761820802803219200,9.46121923828125,-1.00079345703125,-0.02264404296875,0.01055908203125
1761820802813289200,9.471289306640625,-0.9993896484375,-0.0232391357421875,0.010589599609375
1761820802823359200,9.481359130859374,-1.00128173828125,-0.0231781005859375,0.0109405517578125
1761820802833430300,9.49143017578125,-0.9995269775390625,-0.022369384765625,0.01068115234375
1761820802843500000,9.5015,-0.999542236328125,-0.024017333984375,0.0102386474609375
1761820802853570300,9.5115703125,-0.9996795654296875,-0.024871826171875,0.010406494140625
1761820802863640300,9.521640380859376,-1.000091552734375,-0.0245361328125,0.00982666015625
1761820802873710000,9.5317099609375,-0.9990081787109375,-0.0248565673828125,0.0095672607421875
1761820802883780400,9.5417802734375,-0.9998016357421875,-0.0241241455078125,0.01031494140625
1761820802893851400,9.551851318359375,-0.99969482421875,-0.022430419921875,0.010040283203125
1761820802903921200,9.561921142578125,-0.9996490478515625,-0.0224151611328125,0.01031494140625
1761820802913991200,9.5719912109375,-1.0001373291015625,-0.0236663818359375,0.010650634765625
1761820802924061200,9.582061279296875,-0.998992919921875,-0.0240936279296875,0.0098876953125
1761820802934131200,9.592131103515625,-1.000091552734375,-0.024627685546875,0.0101318359375
1761820802944201200,9.602201171875,-0.9997100830078125,-0.024658203125,0.0107574462890625
1761820802954272300,9.612272216796875,-1.000762939453125,-0.0259552001953125,0.0103759765625
1761820802964342000,9.622342041015624,-1.00103759765625,-0.0247802734375,0.010589599609375
1761820802974412300,9.632412353515624,-1.0004425048828125,-0.022979736328125,0.00909423828125
1761820802984482300,9.642482421875,-1.001129150390625,-0.023468017578125,0.01043701171875
1761820802994552000,9.652552001953126,-1.0004119873046875,-0.02313232421875,0.010955810546875
1761820803004622300,9.662622314453126,-0.999755859375,-0.023529052734375,0.0100860595703125
1761820803014693400,9.672693359375,-0.9997100830078125,-0.024810791015625,0.01025390625
1761820803024763100,9.68276318359375,-1.00054931640625,-0.0242156982421875,0.011016845703125
1761820803034833200,9.692833251953125,-1.000946044921875,-0.0240936279296875,0.010894775390625
1761820803044903200,9.702903076171875,-1.0000762939453125,-0.0242462158203125,0.0101165771484375
1761820803054973200,9.71297314453125,-0.9990997314453125,-0.0233306884765625,0.0101470947265625
1761820803065043200,9.723043212890625,-1.0009002685546875,-0.0242462158203125,0.010284423828125
1761820803075114200,9.7331142578125,-1.000518798828125,-0.0241851806640625,0.0101165771484375
1761820803085184000,9.74318408203125,-1.00103759765625,-0.0241546630859375,0.0095977783203125
1761820803095254300,9.753254150390624,-0.999969482421875,-0.0247802734375,0.0109100341796875
1761820803105324300,9.76332421875,-0.9998779296875,-0.024169921875,0.010467529296875
1761820803115394000,9.77339404296875,-1.0016326904296875,-0.0235137939453125,0.0110321044921875
1761820803125464300,9.78346435546875,-0.9990997314453125,-0.0229034423828125,0.010345458984375
1761820803135535400,9.793535400390626,-1.0012054443359375,-0.023681640625,0.010040283203125
1761820803145605000,9.803605224609376,-1.001861572265625,-0.0232391357421875,0.0103912353515625
1761820803155675100,9.813675048828125,-0.998626708984375,-0.0242156982421875,0.0109405517578125
1761820803165745200,9.8237451171875,-0.9997100830078125,-0.02374267578125,0.01025390625
1761820803175815200,9.833815185546875,-0.9995574951171875,-0.023162841796875,0.0096893310546875
1761820803185885200,9.84388525390625,-1.0003509521484375,-0.0238189697265625,0.010650634765625
1761820803195956200,9.853956298828125,-0.999908447265625,-0.024169921875,0.0103607177734375
1761820803206026200,9.864026123046875,-0.99951171875,-0.023529052734375,0.009246826171875
1761820803216096300,9.87409619140625,-1.000579833984375,-0.0242156982421875,0.0106964111328125
1761820803226166300,9.884166259765625,-1.0003204345703125,-0.0240325927734375,0.010711669921875
1761820803236236000,9.894236083984374,-1.0002593994140625,-0.0235443115234375,0.01007080078125
1761820803246306300,9.904306396484374,-1.000823974609375,-0.023040771484375,0.0091400146484375
1761820803256377300,9.91437744140625,-0.9987335205078125,-0.0235595703125,0.00933837890625
1761820803266447400,9.924447265625,-1.000396728515625,-0.0236053466796875,0.0103912353515625
1761820803276517000,9.93451708984375,-1.0015716552734375,-0.02392578125,0.010162353515625
1761820803286587100,9.944587158203126,-0.999664306640625,-0.024505615234375,0.0103912353515625
1761820803296657200,9.9546572265625,-1.00128173828125,-0.0236968994140625,0.0113372802734375
1761820803306727200,9.96472705078125,-0.9992523193359375,-0.024139404296875,0.0102081298828125
1761820803316798200,9.974798095703125,-1.000457763671875,-0.0220184326171875,0.0094451904296875
1761820803326868200,9.9848681640625,-1.00030517578125,-0.0229034423828125,0.0103302001953125
1761820803336938200,9.994938232421875,-0.9985504150390625,-0.0236053466796875,0.0109100341796875
1761820803347008300,10.00500830078125,-1.00018310546875,-0.023834228515625,0.0108642578125
1761820803357078300,10.015078369140625,-1.0004730224609375,-0.02386474609375,0.0107421875
1761820803367148300,10.025148193359374,-0.9992828369140625,-0.0241241455078125,0.0101165771484375
1761820803377219300,10.03521923828125,-1.00067138671875,-0.023681640625,0.0097503662109375
1761820803387289300,10.045289306640624,-1.000091552734375,-0.02386474609375,0.009124755859375
1761820803397359000,10.055359130859374,-1.0001983642578125,-0.023895263671875,0.0106964111328125
1761820803407429000,10.06542919921875,-1.0002288818359375,-0.0234375,0.01080322265625
1761820803417499400,10.07549951171875,-1.0001068115234375,-0.0234832763671875,0.0112152099609375
1761820803427569200,10.085569091796875,-1.001007080078125,-0.023040771484375,0.0102386474609375
1761820803437640200,10.09564013671875,-1.000091552734375,-0.0234527587890625,0.0102081298828125
1761820803447710200,10.105710205078125,-0.99957275390625,-0.024322509765625,0.0100555419921875
1761820803457780200,10.1157802734375,-1.000518798828125,-0.024871826171875,0.0094757080078125
1761820803467850200,10.125850341796875,-1.000030517578125,-0.025054931640625,0.010528564453125
1761820803477920300,10.135920166015625,-1.00091552734375,-0.0248870849609375,0.010711669921875
1761820803487990000,10.145989990234375,-0.9998931884765625,-0.023651123046875,0.011138916015625
1761820803498059300,10.156059326171874,-1.00054931640625,-0.02264404296875,0.0105133056640625
1761820803508130300,10.16613037109375,-0.999664306640625,-0.0227203369140625,0.0097808837890625
1761820803518200300,10.176200439453124,-1.000762939453125,-0.02301025390625,0.0101318359375
1761820803528270300,10.186270263671876,-1.0006561279296875,-0.02386474609375,0.009765625
1761820803538340400,10.19634033203125,-1.0001373291015625,-0.0244903564453125,0.0102996826171875
1761820803548410400,10.206410400390626,-0.9997711181640625,-0.025115966796875,0.011138916015625
1761820803558480400,10.21648046875,-0.99908447265625,-0.0251922607421875,0.010223388671875
1761820803568551400,10.226551513671875,-1.0003662109375,-0.0238189697265625,0.010406494140625
1761820803578621400,10.236621337890625,-1.0000762939453125,-0.0236053466796875,0.0105438232421875
1761820803588691500,10.24669140625,-1.001129150390625,-0.023345947265625,0.01031494140625
1761820803598761200,10.25676123046875,-1.00018310546875,-0.0234222412109375,0.0113983154296875
1761820803608831500,10.26683154296875,-0.9992828369140625,-0.023590087890625,0.0111083984375
1761820803618901200,10.2769013671875,-1.0006866455078125,-0.024139404296875,0.01025390625
1761820803628972300,10.28697216796875,-1.0004730224609375,-0.0232391357421875,0.0098876953125
1761820803639042300,10.297042236328124,-0.99951171875,-0.0238800048828125,0.009368896484375
1761820803649112600,10.307112548828124,-1.0008087158203125,-0.0238494873046875,0.01031494140625
1761820803659182300,10.317182373046874,-0.999786376953125,-0.02374267578125,0.01104736328125
1761820803669252400,10.32725244140625,-0.999359130859375,-0.024322509765625,0.010528564453125
1761820803679322400,10.337322265625,-1.0014190673828125,-0.022979736328125,0.010101318359375
1761820803689393400,10.347393310546876,-1.0004119873046875,-0.023590087890625,0.0103759765625
1761820803699463400,10.35746337890625,-1.0002288818359375,-0.023193359375,0.0104217529296875
1761820803709533400,10.367533447265625,-1.001068115234375,-0.0232391357421875,0.0098724365234375
1761820803719603200,10.377603271484375,-1.0001068115234375,-0.023193359375,0.0106353759765625
1761820803729673500,10.387673583984375,-0.999298095703125,-0.0241546630859375,0.010650634765625
1761820803739743500,10.397743408203125,-1.000274658203125,-0.024139404296875,0.009613037109375
1761820803749814300,10.407814208984375,-1.0002288818359375,-0.0245819091796875,0.0101470947265625
1761820803759884300,10.41788427734375,-0.9990997314453125,-0.02435302734375,0.011199951171875
1761820803769954600,10.42795458984375,-1.0005035400390625,-0.023468017578125,0.009552001953125
1761820803780024300,10.4380244140625,-1.000762939453125,-0.0233612060546875,0.009857177734375
1761820803790094300,10.44809423828125,-0.997528076171875,-0.0236968994140625,0.009033203125
1761820803800164400,10.458164306640626,-1.00299072265625,-0.0238800048828125,0.0121002197265625
1761820803810235100,10.468235107421876,-1.000030517578125,-0.023651123046875,0.0117950439453125
1761820803820305400,10.478305419921876,-0.9994049072265625,-0.0248870849609375,0.010223388671875
1761820803830375400,10.48837548828125,-1.003692626953125,-0.024627685546875,0.0103759765625
1761820803840445200,10.498445068359375,-0.9984893798828125,-0.0236663818359375,0.00927734375
1761820803850515500,10.508515380859375,-0.9998931884765625,-0.0237884521484375,0.009857177734375
1761820803860585500,10.51858544921875,-1.0011444091796875,-0.02337646484375,0.01055908203125
