time,seconds_elapsed,z,y,x
1761231877006891300,0.101891357421875,-0.010448328778147697,0.02081818549260497,0.0047102600501850245
1761231877016960300,0.111960205078125,-0.0028179800301790237,0.0242961090025492,0.0008307243362534791
1761231877027030500,0.122030517578125,-0.010598550903797148,0.030271475351415573,-0.00977879548612982
1761231877037099300,0.132099365234375,-0.0052139352560043335,0.026474275025539097,-0.009027100335992872
1761231877047168300,0.142168212890625,0.0013747954845428467,0.019973660959862173,-0.0065614226085133846
1761231877057238300,0.15223828125,-0.008349310672283172,0.016766553747933358,0.0018593823974020777
1761231877067309300,0.162309326171875,-0.004753332006931304,0.02569381043864414,0.0008803995637223123
1761231877077378300,0.17237841796875,0.0001835398733615875,0.022302487499918786,-0.00044850181932561096
1761231877087447300,0.182447265625,-0.005647065976262093,0.027821616247575728,-0.002846667268546298
1761231877097517300,0.192517333984375,-0.006692191115021705,0.019951558725908397,-0.00493061566944234
1761231877107586300,0.20258642578125,0.00348608855009079,0.023731022465694696,-0.00149927124758251
1761231877117655300,0.2126552734375,-0.004143091154098511,0.013631561924144624,0.014830827311845495
1761231877127725300,0.222725341796875,-0.00563712910413742,0.012471212907880544,0.0071682476615533225
1761231877137794300,0.232794189453125,-0.002942483192682266,0.02407022782480344,0.016205723261088132
1761231877147864300,0.2428642578125,-0.011764672073721885,0.020156141387298702,0.0005758362597320228
1761231877157933600,0.25293359375,-0.009964929175376891,0.013731697830371557,-0.008194996893405913
1761231877168002300,0.263002197265625,0.007988076144456863,0.013257248719036578,-0.010029098719079046
1761231877178072600,0.273072509765625,0.0019996493846178055,0.013713321923464536,-0.004990675293607637
1761231877188141300,0.283141357421875,-0.009078209468722342,0.022883246529940515,0.007347047427715733
1761231877198211300,0.29321142578125,-0.0021937106519937513,0.017758578726276755,0.007675977987982332
1761231877208280300,0.3032802734375,-0.007279051092267036,0.015983641475625334,-0.002332141875149682
1761231877218349600,0.313349609375,-0.003537526476383209,0.020729867888335137,-0.007670443296339363
1761231877228419300,0.32341943359375,-0.007431026783585548,0.017490374510455875,-0.0027246757235378023
1761231877238488300,0.33348828125,-0.012067454412579537,0.026817060581222175,-0.01487136025163345
1761231877248557300,0.343557373046875,-0.018946108010411262,0.023335027151741086,0.00123693051696755
1761231877258627300,0.35362744140625,-0.009220248287916183,0.02125664997510612,0.004966618564585223
1761231877268696300,0.3636962890625,-0.001585223364830017,0.013803740153275429,0.01309111663820222
1761231877278766300,0.373766357421875,-0.014895371314883232,0.01036760995844379,0.004098841020418331
1761231877288835300,0.38383544921875,-0.015938158366084098,0.015760043586511164,-0.005356229803524911
1761231877298904300,0.393904296875,-0.008308978661894798,0.017078377909772097,-0.0077847903910093
1761231877308974300,0.403974365234375,-0.014441782328486441,0.022254191378783435,-0.0005181329894345253
1761231877319043300,0.414043212890625,-0.0036690439015626907,0.022330508018005638,0.0034631551990751174
1761231877329112300,0.4241123046875,0.0009714753806591034,0.025711894084606318,0.009743578042276203
1761231877339182300,0.434182373046875,-0.011747136417031288,0.015070472153462468,0.01233522023698315
1761231877349251300,0.444251220703125,-0.00890402194559574,0.014574194802809505,0.005884646724956109
1761231877359321300,0.4543212890625,-0.001419219148159027,0.017604246681090445,0.0026216811399441212
1761231877369390300,0.464390380859375,-0.004107435318827629,0.02009825545391068,0.003946746598090976
1761231877379459300,0.474459228515625,-0.016079028141498565,0.02366579347606748,0.00020018961406312883
1761231877389529300,0.484529296875,-0.012186112356185913,0.020410901599656788,-0.0029739195105619727
1761231877399598300,0.494598388671875,-0.007701660418510436,0.018893884632829577,-0.003718463400704786
1761231877409668400,0.50466845703125,-0.008750877210497856,0.02041373287755996,0.0016892317285761237
1761231877419737300,0.5147373046875,0.002921440404653549,0.007204780279658735,-0.0012182440828066318
1761231877429806600,0.524806640625,-0.00007248071432113647,0.01443597364220768,0.005331150161195546
1761231877439876400,0.53487646484375,-0.00530512067079544,0.01847878275960684,0.0009669910017866641
1761231877449945300,0.5449453125,-0.004705401211977005,0.022327384479157626,-0.00871323034754023
1761231877460014300,0.555014404296875,0.00008884732723236084,0.0223251925220713,0.0084041826646775
1761231877470084400,0.56508447265625,-0.004247720572352409,0.017268110061902552,0.002953689573286101
1761231877480153300,0.5751533203125,-0.006644844841957092,0.017196305201016365,-0.008775098336301744
1761231877490223400,0.585223388671875,0.005173018723726272,0.014916943825874477,-0.009608736148849129
1761231877500292400,0.595292236328125,-0.003953706061840057,0.009865596986748278,-0.008146006652526556
1761231877510361300,0.605361328125,0.0026285949379205704,0.00932858576690778,-0.00401097094072029
1761231877520431400,0.615431396484375,-0.005752864438295364,0.014467775286268442,0.0008960081248078495
1761231877530500400,0.625500244140625,-0.007995674929022789,0.02097757730539888,0.00310429529142566
1761231877540570400,0.6355703125,-0.003652677288651466,0.023707605057489124,0.0006396404772531241
1761231877550639400,0.645639404296875,-0.0018535189121961593,0.022059582122135907,0.007305993898119777
1761231877560708400,0.655708251953125,-0.004842179334163666,0.024318887089937923,0.006506705879746004
1761231877570778400,0.6657783203125,0.007129998010396957,0.024542758973687885,-0.0010784154870081691
1761231877580847400,0.675847412109375,0.0012947159856557845,0.024916999113559723,0.0005644746155012398
1761231877590916400,0.685916259765625,-0.007233458384871483,0.018866521701868623,-0.00034463045289739966
1761231877600986400,0.695986328125,-0.006034019467234611,0.012062303313426673,-0.007167928001144901
1761231877611055400,0.706055419921875,-0.005584522134065628,0.008123794820718467,0.006922529272176325
1761231877621125400,0.71612548828125,-0.0066296472728252405,-0.005618954126629978,-0.0011196882123127578
1761231877631194400,0.7261943359375,0.0035503859579563138,-0.00010230959700420498,0.00015280680838041007
1761231877641263400,0.736263427734375,-0.00587678307890892,0.012760167650785297,-0.0034437929114792495
1761231877651333400,0.74633349609375,-0.008719897550344467,0.024299871862214058,0.0009227682675700635
1761231877661402400,0.75640234375,-0.009164134186506271,0.020992738341912627,-0.006220783344144001
1761231877671472400,0.766472412109375,-0.0034749826341867445,0.027489845276251434,-0.0008930855153594166
1761231877681541400,0.776541259765625,-0.0010749357551336288,0.024004779639467597,0.0008652841929811984
1761231877691610400,0.7866103515625,-0.0013736264407634734,0.00945745457727462,0.0011180807771161197
1761231877701680400,0.796680419921875,-0.0007744915038347244,0.00798232225710526,-0.0034194073888938873
1761231877711749400,0.806749267578125,-0.006758826610445976,0.008087280468922108,-0.001580565456021577
1761231877721818400,0.816818359375,-0.0030184710383415222,0.0004744491113349795,-0.0044729258966632185
1761231877731888400,0.826888427734375,-0.005112812969088554,0.0052441477311775085,-0.00414126452319324
1761231877741957400,0.836957275390625,-0.004513093510270119,0.00982564856885001,-0.000904976882552728
1761231877752027400,0.84702734375,-0.004663315635919571,0.012412230995949357,0.0021749511525966225
1761231877762096400,0.857096435546875,0.003417699488997459,0.017745134722813964,-0.0004577628380153328
1761231877772165400,0.867165283203125,-0.004061258089542389,0.026730240814294665,0.006058742916537448
1761231877782235400,0.8772353515625,-0.0061573535859584805,0.01450549521446228,0.006619308541901409
1761231877792304400,0.887304443359375,0.0035696751803159714,0.011173848307412117,-0.008496573655866086
1761231877802374400,0.89737451171875,-0.007951251265406608,0.012508220450021326,-0.008866667343582957
1761231877812443100,0.907443115234375,-0.014686112478375434,0.01565084759099409,0.003136854987312108
1761231877822512400,0.917512451171875,-0.002116553762555122,0.018175909089203923,-0.0009813939864747225
1761231877832582400,0.92758251953125,-0.0027080899149179456,0.026622378259338438,-0.006416963503370061
1761231877842651400,0.9376513671875,-0.000008183306455612182,0.022285043174773454,-0.007303354416461661
1761231877852722000,0.947721923828125,-0.001353168174624443,0.02398455883534625,-0.009932963134534657
1761231877862791000,0.957791015625,-0.003300210589170456,0.01531608094498515,-0.0013734803102910518
1761231877872859600,0.967859619140625,-0.0010486322700977325,0.015412472257856278,0.0015284973420668392
1761231877882930000,0.977929931640625,0.0006032265901565551,0.016591416376736015,0.006461177104432135
1761231877892999000,0.9879990234375,-0.00014496142864227294,0.016745054302178323,-0.00028647052487358447
1761231877903068000,0.99806787109375,-0.0031382980257272717,0.021701452866848558,-0.0010167301613371819
1761231877913138000,1.008137939453125,-0.004634089541435241,0.016516414911765604,0.004480095422966406
1761231877923207000,1.01820703125,0.000007598784565925598,0.01925245227953419,0.0008591284468304365
1761231877933277000,1.02827685546875,0.001505143865942955,0.013214140229672192,0.003086613504262641
1761231877943345700,1.038345703125,0.0073415949344635,0.011390212738141416,-0.0048553767424542454
1761231877953415000,1.048414794921875,-0.004779635491967201,0.006899769451096653,-0.01072468890096061
1761231877963484700,1.058484619140625,-0.006724924340844154,0.011216098280251026,-0.0031792602237779646
1761231877973554000,1.068553955078125,-0.008672551277279854,0.0183040289808996,-0.004510865020565688
1761231877983623700,1.078623779296875,-0.0011906710892915725,0.008663162394426762,-0.0022477606604807076
1761231877993693000,1.08869287109375,-0.01031447326540947,0.01045145231699571,0.005055785552226006
1761231878003761700,1.09876171875,-0.0061263739258050915,-0.0008476663378998636,0.004191871332423761
1761231878013832000,1.10883203125,0.006589899784326553,-0.0017993593058548867,0.006241424273373559
1761231878023900700,1.118900634765625,-0.005977905365824699,0.011141717869788407,-0.003646795537136495
1761231878033971000,1.128970947265625,-0.005675707548856735,0.022514778543729335,0.000717464086972177
1761231878044039700,1.139039794921875,0.0027022446960210797,0.021816567146498708,0.0054272948788944625
1761231878054109000,1.14910888671875,-0.005378185907006263,0.014581610924284904,-0.011001807075599208
1761231878064178700,1.1591787109375,0.002104278802871704,0.010963767486996947,-0.009410418831463903
1761231878074248000,1.169248046875,0.0009065934509038925,0.014701291781198233,-0.003598134089820087
1761231878084318000,1.17931787109375,-0.0035813656181097027,0.01613320601414889,-0.003983580610295757
1761231878094387000,1.189386962890625,-0.0004389759391546249,0.011332399869989603,-0.004431287845177575
1761231878104455700,1.19945556640625,-0.0026858780831098554,0.012571878537070005,0.0025672292726580054
1761231878114525700,1.209525634765625,-0.008071078252792357,0.01922605746295303,0.005969740325678139
1761231878124595000,1.219594970703125,-0.010465864434838294,0.010543825041875243,-0.013961624995572491
1761231878134664000,1.229663818359375,0.0010556465327739716,0.009039831953402609,-0.0034187224023044106
1761231878144734000,1.23973388671875,-0.0016384148567914962,0.015699618636164814,-0.0020761852195486426
1761231878154802700,1.249802734375,0.004044891476631164,0.014143146441783756,-0.006920492578716948
1761231878164873000,1.259873046875,0.0010515548795461654,0.00653992316275835,-0.003946837929636239
1761231878174941700,1.269941650390625,-0.006880991685390472,0.011223076010309158,-0.00027023177612572907
1761231878185011000,1.280010986328125,-0.007330489018559455,0.008544632314983754,-0.001911149117257446
1761231878195080700,1.290080810546875,-0.0064268181771039955,0.017314250758569686,-0.01338620886094868
1761231878205150000,1.30014990234375,0.006142740538716316,0.020015399476047604,-0.012643044077139348
1761231878215219700,1.3102197265625,-0.008822773402929305,0.016942129510547965,-0.006936521264910698
1761231878225289000,1.3202890625,0.0038929157853126524,0.017970084318798034,-0.007435465496685356
1761231878235357700,1.330357666015625,0.004492050722241401,0.013614665588270873,0.0033513927871361374
1761231878245428000,1.340427978515625,-0.00015139116942882537,0.010312664900813251,0.0048781091640703374
1761231878255496700,1.35049658203125,-0.003295534414052963,0.010494524273741989,-0.004316776353726163
1761231878265566700,1.360566650390625,-0.004495557853579521,0.012258246010635047,-0.005801270157285035
1761231878275635700,1.3706357421875,-0.0009036708414554595,0.01985577020123601,-0.003753306385222822
1761231878285705000,1.380705078125,-0.0038999300479888913,0.016256448801327497,-0.006134520699642598
1761231878295775000,1.39077490234375,-0.006295885273814201,0.013295681033283472,-0.007715588479163125
1761231878305843700,1.40084375,-0.01243453415930271,0.01626749991830438,-0.0034156901950016614
1761231878315914000,1.4109140625,-0.007646130838990211,0.010314290602318942,-0.0009609722529537975
1761231878325982700,1.420982666015625,-0.0034568624556064603,0.012887100232392548,-0.0018248682064469903
1761231878336052000,1.431052001953125,-0.005403904870152473,0.009193031487427651,-0.009361848715692758
1761231878346121700,1.441121826171875,-0.000013444003462791442,0.009457070984784512,-0.00844580244985409
1761231878356191000,1.45119091796875,-0.009442366605997085,0.009182583158649504,-0.00345463396590203
1761231878366260700,1.4612607421875,-0.005105798706412315,0.01389852403094992,-0.0014698990226257591
1761231878376330000,1.471330078125,0.004469838890433312,0.015118914405070244,-0.004396326129650697
1761231878386398700,1.481398681640625,-0.0025637130081653595,0.019906495741475374,-0.006838129791198298
1761231878396469000,1.491468994140625,0.0013256956458091735,0.013643252361938356,-0.007244235507212579
1761231878406537700,1.501537841796875,0.00416881011724472,0.008251384989451617,-0.01545882301707752
1761231878416607700,1.511607666015625,-0.002269113975763321,0.012277882292866707,-0.0062036586794070895
1761231878426676700,1.5216767578125,-0.0034679683715105056,0.01757209797715768,-0.0017584793061949312
1761231878436746000,1.53174609375,-0.0009212064981460571,0.019859587859828023,-0.005632745189964771
1761231878446815700,1.541815673828125,-0.0033159926801919937,0.021950404392927884,-0.006724065824318677
1761231878456884700,1.551884765625,-0.013643325427174568,0.02168954323334619,-0.006432243270892649
1761231878466954800,1.561954833984375,-0.002269113975763321,0.013853132252953947,-0.006852158316550776
1761231878477023700,1.572023681640625,-0.0030155484288930893,0.007234444765560328,-0.0097405275686644
1761231878487092700,1.5820927734375,-0.0021159692406654356,0.012270228709373622,-0.0053889264967292546
1761231878497162800,1.592162841796875,0.00521451977789402,0.0121492326782085,-0.004863331720046699
1761231878507231700,1.602231689453125,0.00327039997279644,0.010645312654972075,0.004204657748760656
1761231878517301800,1.6123017578125,-0.004813537761569023,0.01644625401869416,-0.0021455971939489246
1761231878527371000,1.62237109375,0.0019178163200616835,0.02045673176907003,-0.010590404129959641
1761231878537439700,1.632439697265625,-0.0001771101325750351,0.022596008820086715,-0.010897643448226153
1761231878547510000,1.642510009765625,-0.009153612792491913,0.01907537867957726,-0.008093271818291396
1761231878557578800,1.652578857421875,-0.002718026787042618,0.014416264294739812,-0.0014157850820571184
1761231878567648800,1.662648681640625,-0.00047580081820487974,0.011785787926986813,-0.00479073227471672
1761231878577717800,1.6727177734375,-0.010201076018810271,0.011669961261283605,-0.0052139169896952805
1761231878587787000,1.682787109375,-0.011251461854577064,0.01024986533029005,-0.003055661243572831
1761231878597856800,1.692856689453125,-0.006160276195406913,0.015557799012679606,-0.0031928229582495987
1761231878607926000,1.702926025390625,-0.004663315635919571,0.015420856493711471,0.000782400815654546
1761231878617995800,1.712995849609375,0.008204933765530586,0.02462974313739687,-0.0042446244329679755
1761231878628064800,1.723064697265625,-0.0024169980138540265,0.017079802681878208,-0.0029891627454664556
1761231878638133800,1.7331337890625,-0.009600187516212463,0.013001995316334067,-0.015273474779119714
1761231878648203800,1.743203857421875,-0.002265606844425201,0.016786847617290913,-0.004387713564932346
1761231878658272800,1.753272705078125,-0.014235446101427077,0.011252009843848646,0.001248557022679597
1761231878668342800,1.7633427734375,-0.008699439284205437,0.020409348963387308,-0.004238605684135109
1761231878678411800,1.773411865234375,0.005815408280491829,0.021928393490519373,-0.007926838343357667
1761231878688480800,1.783480712890625,0.0031201778471469876,0.019570103393960744,0.001712923131417483
1761231878698551000,1.793551025390625,-0.007206570377945899,0.009793682528007774,0.00044141449141316114
1761231878708619800,1.803619873046875,0.00012684125006198882,0.012912344271503388,0.002596829826477915
1761231878718689800,1.813689697265625,-0.009149521139264106,0.022712054681498554,0.004577400051290169
1761231878728758800,1.8237587890625,0.0010240823507308959,0.013044994207844137,0.0012969718748237938
1761231878738827800,1.833827880859375,-0.0027186113089323043,0.003790240862127393,-0.0019506408774293959
1761231878748897800,1.843897705078125,-0.002413490882515907,0.010836469579208642,-0.001139854217506945
1761231878758967000,1.853967041015625,-0.007351531806588173,0.0076789919289760285,0.0016798245794139802
1761231878769036800,1.864036865234375,-0.005106967750191688,0.00570011133775115,-0.005898108994727954
1761231878779105800,1.874105712890625,-0.01348725808262825,0.0053920500355772675,-0.010196445509465411
1761231878789175800,1.88417578125,-0.00675298139154911,0.00866354598691687,-0.00181052002068609
1761231878799244800,1.894244873046875,-0.0063064066678285595,0.013419417010806501,0.00727087691896595
1761231878809313800,1.904313720703125,-0.001668225473165512,0.01537170185605064,0.006195776767050847
1761231878819383800,1.9143837890625,-0.002415244448184967,0.013254654903151095,-0.0019748163374606518
1761231878829452800,1.924452880859375,-0.010945172384381294,0.009342614292260258,0.0004313040893524885
1761231878839522800,1.934522705078125,0.0011737199544906616,0.00936301775947213,-0.0026934677345212548
1761231878849595100,1.94459521484375,-0.0058604164659976955,0.01240010216673836,0.0005871065724175423
1761231878859664000,1.954663818359375,0.0038689503878355023,0.017028693549148738,0.0004560001391917467
1761231878869734100,1.964734130859375,-0.007951835787296295,0.01701784336157143,-0.0032663905179593712
1761231878879803100,1.97480322265625,-0.0042132337808609005,0.02338838304048404,0.0036389958231709896
1761231878889873200,1.984873046875,-0.002121229937672615,0.020642701061535627,-0.009440448643546552
1761231878899942100,1.994942138671875,-0.012449147206544876,0.021204243934433906,-0.016168998846737666
1761231878910011100,2.00501123046875,0.003712298521399498,0.01906666565015912,0.008914351543365047
1761231878920081200,2.0150810546875,0.007456161224842071,0.019545754403993486,0.008249284363910555
1761231878930150100,2.025150146484375,-0.008405424773693083,0.014875205309689044,0.0011386760405730455
1761231878940220200,2.03522021484375,-0.00421498734652996,0.006336783539783209,-0.006881028218008577
1761231878950289000,2.045288818359375,-0.007657236754894256,0.010539459394011646,-0.003317846710560843
1761231878960358100,2.055358154296875,0.0032668928414583205,0.014707776320911943,0.0008646996710915118
1761231878970428000,2.065427978515625,-0.013787117812037467,0.012304551104083657,-0.005795991193968802
1761231878980497200,2.0754970703125,-0.002114215674996376,0.01030908470423892,-0.003692561774468049
1761231878990567000,2.08556689453125,-0.004660977548360824,0.012060348818358033,0.003567264027521014
1761231879000636200,2.09563623046875,-0.0018155249893665312,0.010140851997863501,-0.0009596570787020028
1761231879010705000,2.105704833984375,-0.007500000366568565,0.008278199931140989,-0.0059270793608855454
1761231879020775200,2.115775146484375,0.0016249708533287047,0.01642342113237828,0.005035665212804451
1761231879030844000,2.125843994140625,-0.0012128829210996627,0.009823785405326635,-0.002377177460119128
1761231879040914200,2.1359140625,-0.010932897424697875,0.01050802307613194,-0.004782603767188266
1761231879050983200,2.145983154296875,-0.013178630524873733,0.012319858271069824,0.004538648076634854
1761231879061052200,2.15605224609375,-0.00030687399208545685,0.010179101649019867,-0.0018701869192067533
1761231879071122200,2.1661220703125,-0.00045300446450710294,0.01380258937580511,-0.0012177782919257879
1761231879081191200,2.176191162109375,-0.0015004676908254623,0.02279182365313172,-0.006863958352198824
1761231879091261200,2.18626123046875,0.0013414777368307112,0.02267334837261587,-0.006870470291376113
1761231879101330000,2.196329833984375,-0.000008767828345298767,0.018419435521494595,0.0007529463923070579
1761231879111400200,2.206400146484375,-0.0032990415453910825,0.017018811475951225,-0.012534807062847538
1761231879121469000,2.216468994140625,-0.012727964147925376,0.010327679806854576,0.0023874431258067486
1761231879131538200,2.2265380859375,-0.0012029460489749908,0.015184673117659985,0.0057305704080965365
1761231879141608000,2.23660791015625,0.0010433715730905533,0.017678663624171167,-0.004373721572197974
1761231879151677200,2.24667724609375,-0.008829203143715858,0.014833174532558769,-0.007552716934494674
1761231879161747000,2.256746826171875,-0.005381108516454697,0.014282554912474005,0.00008085581702180206
1761231879171816200,2.266816162109375,-0.004780804535746574,0.01013666901309043,-0.0016621245259419084
1761231879181885000,2.276885009765625,-0.012262684723734854,0.0060522675099782645,-0.0026772837847005575
1761231879191955200,2.286955078125,-0.01734510255455971,0.012321118646394461,-0.00241941829980351
1761231879202024000,2.29702392578125,-0.004922258833050728,0.010461827580537646,-0.006202316105691716
1761231879212094000,2.307093994140625,-0.0028267478585243225,0.021640753921866415,-0.0006974898780230432
1761231879222163000,2.317162841796875,-0.017193711385130882,0.013886413468047976,-0.0012361633319873363
1761231879232232200,2.327232177734375,-0.015395137530565262,0.023039039879851043,-0.0014197032053489237
1761231879242302200,2.33730224609375,0.002561374920606613,0.019318978177104144,-0.014680815248750149
1761231879252371200,2.34737109375,-0.0017751929789781569,0.00606587591022253,-0.00416017015306279
1761231879262441200,2.357441162109375,-0.0011737199544906616,0.008969324000459165,-0.00421393703375943
1761231879272510000,2.367510009765625,-0.012996259695291518,0.009739084530249237,-0.00022642916701734066
1761231879282579200,2.3775791015625,0.0018207856863737106,0.012944438176508992,-0.0074730575607158236
1761231879292649000,2.38764892578125,-0.005510872375965118,0.020448274467978627,0.004879497403558343
1761231879302718200,2.39771826171875,-0.0029652795463800427,0.015011599839385598,0.0036049839557148514
1761231879312788000,2.4077880859375,-0.008054711639881133,0.016383801508042962,-0.007735991946374997
1761231879322857200,2.417857177734375,-0.012543839752674101,0.01235250016534701,-0.0015749302996788173
1761231879332927000,2.427927001953125,-0.013145312777161598,0.0020094583925791085,0.008516255603870376
1761231879342996200,2.437996337890625,-0.006858779853582382,0.0004400719176977873,0.004759807413490489
1761231879353065000,2.44806494140625,-0.004014496338367462,0.009545114594418555,-0.0010023180434945971
1761231879363135000,2.458135009765625,-0.008051204508543014,0.022160156419780103,0.005649586726911366
1761231879373204000,2.468203857421875,-0.00027004911303520204,0.017656287395581602,0.0009535104657057672
1761231879383274000,2.47827392578125,-0.01433423030078411,0.008490417909715324,0.00042950485791079697
1761231879393343000,2.488343017578125,0.0040665187865495675,0.008660623377468436,-0.000958369303913787
1761231879403412200,2.498412109375,-0.001169043779373169,0.009527195345237851,-0.00023829313474707303
1761231879413482200,2.508482177734375,-0.011342062747478484,0.01375074959071353,-0.005555414770590141
1761231879423551000,2.518551025390625,-0.0022147534400224684,0.009205690039601177,0.001880142057640478
1761231879433621200,2.528621337890625,0.0016799159109592437,0.00921334362309426,-0.002412193974573165
1761231879443690000,2.53868994140625,-0.006247369956970215,0.014737678268831222,-0.0069776113271247595
1761231879453759200,2.54875927734375,-0.004302665629982948,0.014156389515846968,-0.0015982381100300698
1761231879463829000,2.5588291015625,-0.010735913547873496,0.014273732285201549,-0.0063566390177235005
1761231879473898200,2.568898193359375,-0.0031055647999048233,0.018968593836855143,-0.003315252894675359
1761231879483968000,2.578968017578125,-0.00684533585011959,0.018279241599515078,-0.01167468310217373
1761231879494037200,2.589037353515625,0.0030319150418043135,0.00862858427138999,-0.005605957647738978
1761231879504106000,2.59910595703125,-0.01118365731537342,-0.000036021161451935764,-0.0005012457867152989
1761231879514176300,2.60917626953125,-0.010582768812775612,0.013759773147385567,0.0019624591793864963
1761231879524245000,2.619244873046875,-0.007291326051950454,0.013626904015336184,0.004472624502563849
1761231879534315000,2.62931494140625,-0.00010696750581264495,0.018606975716538725,-0.0014327088173944503
1761231879544384000,2.639384033203125,-0.007886953857541084,0.01378996735624969,-0.010676648508151993
1761231879554454000,2.6494541015625,-0.004146013763546943,0.013550660441350192,-0.0025762436961755154
1761231879564523000,2.65952294921875,0.0028857845693826675,0.011457980744726955,-0.005674319309368729
1761231879574592000,2.669592041015625,-0.00699088180065155,0.006007186259236187,-0.011496166463801636
1761231879584662000,2.679662109375,-0.01058627594411373,0.003139156542252749,-0.0014105335182044655
1761231879594731000,2.68973095703125,-0.003847907599806785,0.010168287994060665,-0.002681411970546469
1761231879604801300,2.69980126953125,-0.005938742399215698,0.017798161817993968,0.002736841085366905
1761231879614870000,2.7098701171875,-0.012817395997047424,0.008801547951810061,-0.001862414604704827
1761231879624939000,2.71993896484375,-0.004436521142721176,0.013851415219902992,-0.005553058416722342
1761231879635009000,2.730009033203125,0.006035773032903671,0.011202891738805919,0.00025480587813071906
1761231879645078300,2.740078369140625,-0.00518704724907875,0.007340590287465602,0.0007973974553868174
1761231879655148000,2.75014794921875,-0.0005424363136291504,0.012560900485329329,-0.0006864204947371036
1761231879665217300,2.76021728515625,-0.003683656948804855,0.010698084021825342,-0.007722210016194731
1761231879675286000,2.7702861328125,-0.004729951131343842,0.015344448522944002,-0.0029887152208946644
1761231879685356000,2.78035595703125,-0.010419102683663367,0.02068471357235685,-0.0055607120002154255
1761231879695425000,2.790425048828125,-0.004879588735103607,0.017298505200166254,-0.008019485062872991
1761231879705495000,2.8004951171875,-0.0009878419935703277,0.01573215093258768,-0.007805129926139488
1761231879715564000,2.81056396484375,-0.001737199056148529,0.006317969241458922,0.00007268164372071623
1761231879725634000,2.820634033203125,-0.0074240125209093085,0.008750073492899536,0.00204298620284535
1761231879735703000,2.830703125,0.0008078092515468597,0.010800978140719234,0.0010737301787361502
1761231879745772000,2.84077197265625,-0.00008943184912204742,0.012757171976100653,-0.0039508382513187825
1761231879755842000,2.850842041015625,-0.0060702598243951795,0.004332731974683702,-0.00005337415505200624
1761231879765911000,2.8609111328125,-0.01085515601336956,0.0012176321614533663,-0.012317456251429394
1761231879775981300,2.870981201171875,-0.006814940711855888,0.011721490519121289,-0.005062608018657193
1761231879786050000,2.881050048828125,-0.011602174988389015,0.013298603642731905,-0.003766686456603929
1761231879796119000,2.891119140625,-0.012951836031675337,0.015828852772712707,-0.0032539054957218465
1761231879806189000,2.90118896484375,-0.0014268179327249525,0.01121450911136344,-0.009406500708172097
1761231879816258300,2.91125830078125,-0.00037760114073753353,0.011174560693465172,-0.0026039354206994175
1761231879826328000,2.921328125,-0.010849310794472693,0.000983111019525677,0.0020839210014324634
1761231879836397000,2.93139697265625,-0.0006745382606983184,0.005670866976957768,-0.004626929148286581
1761231879846466000,2.941466064453125,-0.006363105291128158,0.0057980004879646,-0.012271251622680574
1761231879856532700,2.95153271484375,-0.009507833057641982,0.01520874811299145,0.00009773388658650219
1761231879866601700,2.961601806640625,-0.005769231051206588,0.017295472992863506,-0.004104019519034773
1761231879876671700,2.971671630859375,-0.007864742025732993,0.005331369356904179,-0.00043662871844135225
1761231879886741000,2.981740966796875,-0.011605097597837448,0.008025869137886912,-0.007691093358723446
1761231879896809700,2.991809814453125,0.006947627180814743,0.010443415141012519,-0.008477768490696326
1761231879906880000,3.0018798828125,0.004548749345541,0.0006138575820252299,-0.006289866524981334
1761231879916948700,3.01194873046875,-0.003685410514473915,0.009089297118317335,-0.0005376688069663941
1761231879927019000,3.02201904296875,-0.009224924463033676,0.010622424969729035,-0.0028493889485951512
1761231879937087700,3.032087646484375,-0.00473521182835102,0.01506250804271549,-0.0027418917198199777
1761231879947157800,3.04215771484375,-0.019247136783599853,0.017796864910051224,-0.009940634984336793
1761231879957226800,3.052226806640625,-0.015205752438306807,0.010298837304860352,-0.004575646485621109
1761231879967296000,3.0622958984375,-0.011457213559746741,0.01415364956948906,-0.0030791791164781895
1761231879977365800,3.07236572265625,-0.0033715222597122192,0.01270253744572401,0.00981365673695691
1761231879987434800,3.082434814453125,-0.005615501794219017,0.004288874566648155,0.017808180888509377
1761231879997504800,3.0925048828125,0.0048562078595161436,0.0009813939864747225,0.011108053062204271
1761231880007573800,3.10257373046875,-0.006813771668076515,0.007545574807655065,0.005903935947315767
1761231880017642800,3.112642822265625,-0.012951251509785652,0.01628393959645182,-0.012496621343772857
1761231880027712800,3.122712646484375,-0.006220481950044631,0.01572429641969502,-0.020884656591247767
1761231880037781800,3.13278173828125,-0.005172434201836586,0.011727335738018154,-0.013813046837737783
1761231880047851800,3.142851806640625,-0.005771569138765335,0.020702906816173344,0.007613808605121448
1761231880057921000,3.152921142578125,-0.008466799572110176,0.01401193954385817,0.010827345557836815
1761231880067989800,3.16298974609375,0.009788403564691543,-0.001529967779945582,-0.006517546934168786
1761231880078060000,3.17306005859375,-0.02432487843930721,0.002520385323092341,0.015227151419362052
1761231880088128800,3.183128662109375,-0.005473462975025177,0.015473390398547053,0.008001721077319234
1761231880098198800,3.19319873046875,0.007698153287172317,0.01709041540743783,-0.014853285738825796
1761231880108267800,3.203267822265625,-0.024474516043066975,0.022821561204269526,-0.018134179706173016
1761231880118337000,3.2133369140625,-0.01400046830177307,0.0205716451193206,-0.00469855134608224
1761231880128406800,3.22340673828125,0.010092354947328568,0.01841183673692867,-0.0011757109821774064
1761231880138475800,3.233475830078125,0.005759294179081917,-0.0004114486114121973,-0.002840091397287324
1761231880148545800,3.2435458984375,-0.02775777549743652,0.00817863028049469,0.001428845493029803
1761231880158614800,3.25361474609375,0.0005231470912694931,0.016664189352001993,-0.0070247018718626346
1761231880168684800,3.263684814453125,0.0029179332733154295,0.014997936640214173,-0.01048601217372343
1761231880178753800,3.27375390625,-0.02715045725405216,0.01304886666536331,-0.003326632805215195
1761231880188822800,3.28382275390625,-0.002008417212963104,0.014433562489412724,0.0019125830225180834
1761231880198892800,3.293892822265625,-0.001260229194164276,0.007675174270384013,-0.004704204768734052
1761231880208961800,3.3039619140625,-0.006644844841957092,0.00634657428143546,0.0023850593724753706
1761231880219031800,3.31403173828125,-0.007545008552074432,0.0058431365376338355,-0.006042056643217802
1761231880229101000,3.32410107421875,-0.0006593406915664673,0.007034538279287517,-0.002883839207468554
1761231880239169800,3.334169677734375,0.004130231672525406,0.01161220319205895,-0.0041379217886365945
1761231880249239800,3.34423974609375,-0.008441080608963966,0.008984978227317333,-0.0033793676394503563
1761231880259308800,3.354308837890625,-0.008889408898353577,0.011791687944810838,-0.0030043785809073594
1761231880269378800,3.36437890625,0.006222235515713691,0.008542184629570692,-0.0012396978627890348
1761231880279447800,3.37444775390625,-0.008441080608963966,0.013451492649503051,0.0037462829893920566
1761231880289516800,3.384516845703125,-0.00036941783428192136,0.02075257291048765,0.008305654193647205
1761231880299586800,3.3945869140625,-0.0020171850413084028,0.016340656486060468,-0.0017184852225240318
1761231880309655800,3.40465576171875,-0.005908931782841682,0.012809797212481497,-0.003174721045978367
1761231880319725800,3.414725830078125,-0.014738719448447226,0.00982632442228496,-0.0008523516461718827
1761231880329794800,3.424794921875,-0.001121112984418869,0.013527590093016623,0.00012401910531334578
1761231880339864800,3.43486474609375,0.0014227262794971466,0.024025365769769994,0.00032779804910533126
1761231880349933800,3.444933837890625,-0.0175806648761034,0.012762176944781094,-0.004175404254812747
1761231880360002800,3.4550029296875,-0.001419219148159027,0.006744359693676233,-0.004098028169665486
1761231880370072800,3.46507275390625,-0.0023217209458351136,0.007051599011942744,-0.012807550456468015
1761231880380141800,3.475141845703125,-0.013841478347778319,0.007566763726156204,-0.00518734864317812
1761231880390211800,3.4852119140625,-0.008307809618115424,0.006319832404982299,-0.0028498364731669424
1761231880400280800,3.49528076171875,-0.005315057542920112,0.016026786497607828,-0.009150470987334847
1761231880410349800,3.505349853515625,-0.009952654215693474,0.01040805156668648,0.003910487974621356
1761231880420419800,3.515419921875,-0.010247837769985198,0.016128456773795187,-0.0021068452192936093
1761231880430488800,3.52548876953125,-0.0021662381231784818,0.017676562998630106,-0.005685397825809195
1761231880440558800,3.535558837890625,-0.00336626156270504,0.00851239227950573,-0.011549768947716801
1761231880450627800,3.5456279296875,-0.012940145593881605,0.008273943881131708,-0.013571292237425222
1761231880460696800,3.55569677734375,-0.003658522507548332,0.016193941491749138,-0.0010105470157228409
1761231880470766800,3.565766845703125,0.0042716859698295594,0.018144801564887163,-0.0016502057592850177
1761231880480835800,3.5758359375,0.005769231051206588,0.014843732459191232,0.00027392157055437566
1761231880490905900,3.58590576171875,-0.010242577072978019,0.014586889887601137,-0.0004010459484066814
1761231880500974800,3.595974853515625,-0.005906009173393249,0.006598813743144274,-0.0019839220925234255
1761231880511043800,3.6060439453125,-0.012337503525614737,0.012314561041444539,-0.0030303350060712545
1761231880521113900,3.61611376953125,-0.0014157120168209075,0.01303724929280579,-0.0026135891650337726
1761231880531182800,3.626182861328125,-0.001415127494931221,0.008369677606876938,0.0021670783733949064
1761231880541252900,3.6362529296875,-0.0035118075132369994,0.0166351824532263,-0.003165834486624226
1761231880551321900,3.64632177734375,-0.003958966758847236,0.01519570596832782,-0.00609111994933337
1761231880561391900,3.656391845703125,0.005471709409356117,0.014894056140631436,-0.00474222609102726
1761231880571460600,3.666460693359375,-0.0023100305080413818,0.005777834482770413,-0.0023543354406487197
1761231880581529900,3.67652978515625,-0.01263502516746521,0.0033961269780062135,-0.0055073378451634195
1761231880591599900,3.686599853515625,-0.01009001685976982,0.0052088024231605225,-0.00771883074901998
1761231880601668900,3.6966689453125,-0.0014110358417034148,0.0056623183443211015,-0.011724760188441723
1761231880611739000,3.70673876953125,-0.0024579145461320877,0.00893823474245146,0.006983036420913412
1761231880621807900,3.716807861328125,0.0017348609685897826,0.013182813509646802,0.0006208992441650479
1761231880631876600,3.726876708984375,0.0006903203517198563,0.010357581754773854,-0.006309438875131308
1761231880641947000,3.73694677734375,-0.005593874484300613,0.012190258808340876,-0.0017979893326759337
1761231880652015900,3.747015869140625,-0.012479542344808577,0.016155454378575084,-0.0057635319627821445
1761231880662086000,3.7570859375,-0.007844283759593963,0.007573430928960442,0.0018872933176346121
1761231880672155000,3.76715478515625,-0.01487842018008232,0.02165379606653005,0.005429011911945417
1761231880682223900,3.777223876953125,-0.006502221500873566,0.011319120263308287,0.0007964658736251294
1761231880692294000,3.7872939453125,-0.004708323821425438,0.005689790873136371,-0.005523266066657379
1761231880702363000,3.79736279296875,-0.005458265405893325,0.005144084890186786,0.00246832634229213
1761231880712433000,3.807432861328125,-0.0038128362864255903,0.009372972897905856,-0.0029715814230032262
1761231880722501600,3.817501708984375,-0.004708323821425438,0.01615790206398815,-0.010048369675129652
1761231880732572000,3.827572021484375,-0.012640870386362075,0.015572558190394192,-0.004196867167949677
1761231880742640600,3.837640625,-0.0069517188340425485,0.011166943642590195,-0.0006235113263595849
1761231880752710000,3.8477099609375,0.010554711762070654,0.004928122318256646,0.002664616099372506
1761231880762779600,3.857779541015625,-0.00007072714865207672,0.011703534737322479,-0.006072269118390977
1761231880772849000,3.867848876953125,-0.007699906852841377,0.00996072792429477,-0.006975273239566013
1761231880782919000,3.8779189453125,-0.0014127894073724745,0.015513905072025954,-0.006328508901782334
1761231880792988000,3.88798779296875,-0.010987842482328414,0.012775730546098202,0.000319870470976457
1761231880803056600,3.898056640625,-0.00769932233095169,0.006154357911273837,-0.008118789852038025
1761231880813127000,3.908126953125,-0.011440846946835517,0.008587521608639508,-0.00851877635451965
1761231880823196000,3.91819580078125,0.0018745617002248762,0.004763944732490926,-0.008319710118463263
1761231880833265700,3.928265625,-0.007251578563451767,0.009178528038039802,-0.0011246931809931993
1761231880843335000,3.9383349609375,-0.015327332991361617,0.009900704832747577,-0.003907738895108923
1761231880853404000,3.94840380859375,-0.009042553633451461,0.007691705280076712,-0.0052072223874274634
1761231880863474000,3.958473876953125,0.0021808511704206465,0.006623126200493425,-0.014775416463334112
1761231880873543000,3.96854296875,0.0009808277308940886,0.00770438209855929,-0.009875917451363056
1761231880883613000,3.978613037109375,-0.0032078561305999755,0.012777977302111684,-0.005307239562645554
1761231880893681700,3.988681640625,-0.007097849306464195,0.011436463032662868,-0.0019613449345342814
1761231880903752000,3.998751953125,-0.0015641805768013,0.01277854355769232,0.0009532090716063976
1761231880913820700,4.008820556640625,-0.0068026657521724695,0.010224730889033525,-0.006945636153127998
1761231880923890000,4.018889892578125,-0.005454173752665519,0.00970899991923943,-0.004858564213383943
1761231880933959700,4.028959716796875,-0.0050075990289449685,0.0029284364010207353,0.005210190662648529
1761231880944029000,4.03902880859375,0.0015741174489259718,0.011960267711058258,-0.0049672030864749105
1761231880954099000,4.049098876953125,0.003969488152861595,0.014900394549872725,-0.004944817724730819
1761231880964168000,4.05916796875,-0.0015624270111322402,0.010575699751172214,-0.0037900673321913927
1761231880974236700,4.069236572265625,0.007120061138272285,0.012672507633641361,-0.003821083524962887
1761231880984306700,4.079306640625,-0.006198854640126228,0.01088735951622948,0.008554322591936215
1761231880994375700,4.089375732421875,0.0015787936240434645,0.004451134189963341,0.0010383574712555855
1761231881004445700,4.09944580078125,-0.0006646013885736465,0.0141363696411252,-0.0038827505843248215
1761231881014515000,4.109514892578125,-0.0053045361489057535,0.019065368742216378,-0.008931165680848062
1761231881024584000,4.119583984375,0.0015758710145950317,0.014207078523468225,-0.00004263356532901525
1761231881034654000,4.129654052734375,-0.002763619494438171,0.015094200088921933,0.0012223448691889643
1761231881044722700,4.13972265625,-0.004861468556523323,0.007805942776892334,0.00045315059497952456
1761231881054793000,4.14979296875,-0.0109971948325634,0.004392974261939526,-0.0060938142299186435
1761231881064861700,4.15986181640625,-0.007407645907998085,0.007292093236930668,-0.011854186121234669
1761231881074932000,4.169931884765625,-0.005315057542920112,0.013782094577047974,-0.00878755595907569
1761231881085000700,4.180000732421875,-0.005163666373491287,0.012978450043965131,-0.006941763695608824
1761231881095070000,4.190070068359375,-0.01743336535990238,0.0007118563300929963,0.0013436970933806151
1761231881105139700,4.2001396484375,-0.005162497329711913,0.003969816946424544,-0.0025808559392113237
1761231881115209000,4.210208984375,-0.001270166066288948,0.008377203326206653,-0.0054893272644374515
1761231881125278700,4.22027880859375,-0.008600070562958717,0.010688859535753726,-0.004080026722094044
1761231881135348000,4.230347900390625,-0.008148235142230988,0.00768264519078657,-0.003459164010547101
1761231881145416700,4.240416748046875,-0.007695230677723884,0.00861744182286784,-0.0058863180922344325
1761231881155486700,4.25048681640625,-0.004257072922587394,0.013961506264563649,0.0039414128358475865
1761231881165555700,4.2605556640625,-0.0018617022186517714,0.015423632972687482,-0.0020406846479047087
1761231881175625700,4.270625732421875,-0.009644611179828642,0.005617638952378184,0.0057517319271340964
1761231881185695000,4.280695068359375,-0.015779752933979034,0.007845945993717759,-0.008056757466495037
1761231881195764700,4.2907646484375,-0.004852116206288337,0.010721647560503334,-0.0018274072234053165
1761231881205834000,4.300833984375,-0.01262976447045803,0.008760631419532,-0.0033606903384439646
1761231881215902700,4.31090283203125,-0.012476619735360146,0.020763952821027488,-0.0033137367910239844
1761231881225973000,4.320972900390625,0.00039630584120750427,0.013467914061341435,-0.007795923706376925
1761231881236041700,4.331041748046875,0.005786182186007499,0.009746409320179372,-0.010550218250043689
1761231881246111700,4.34111181640625,-0.0061859951585531234,0.001688720271922648,-0.0026998792089987546
1761231881256180700,4.3511806640625,-0.001998480340838432,0.00156573321307078,0.000004000321682542562
1761231881266250000,4.36125,0.006080196696519852,0.01113092248113826,0.0012726959500927477
1761231881276319700,4.37131982421875,-0.0030465280890464783,0.014962956658378242,0.0031887039055582132
1761231881286389000,4.381388916015625,-0.00663841510117054,0.011831179704982786,-0.0009085662122815846
1761231881296458800,4.391458740234375,0.0048871875196695325,0.011888152322918176,0.0008589914495125413
1761231881306527700,4.40152783203125,-0.006034019467234611,0.0068901613725349305,-0.0010056425117421894
1761231881316596700,4.4115966796875,-0.015015782824158668,0.003855816911626607,-0.013927403065562248
1761231881326666800,4.421666748046875,0.0021919570863246918,0.010758107113372535,-0.004990949288243428
1761231881336735700,4.43173583984375,-0.0006517419070005417,0.014508235160820185,0.006482503020251169
1761231881346805800,4.4418056640625,-0.00019873744249343872,0.014655900003202259,-0.003941814694646746
1761231881356875000,4.451875,-0.002141688203811645,0.019929474758263677,-0.001455788298882544
1761231881366944800,4.46194482421875,0.004143675675988197,0.007173069967143237,-0.006432873458554968
1761231881377014000,4.472013916015625,-0.00812543878853321,0.008022416805475949,-0.005678675824077799
1761231881387082800,4.482082763671875,-0.006626724663376808,-0.002552552293334156,0.002222553153987974
1761231881397153000,4.492153076171875,-0.01470890883207321,0.005263966676499694,0.00047295127399265766
1761231881407221800,4.5022216796875,-0.014110942938923834,0.009146160138398408,0.0017162932654377072
1761231881417291800,4.512291748046875,-0.0037841947138309477,0.01059126264648512,-0.000882874648598954
1761231881427360800,4.52236083984375,-0.006626724663376808,0.015647797117382286,-0.001510788155440241
1761231881437430000,4.532429931640625,-0.012608721682429313,0.018655984223727134,-0.008086906009586527
1761231881447499800,4.542499755859375,-0.0027262100934982297,0.007627517470065504,-0.012127760631917044
1761231881457568800,4.55256884765625,-0.010953940212726592,0.010424436445906758,-0.00017515563750639557
1761231881467638800,4.562638671875,-0.013049451187252998,0.01407824624571949,0.004130953191732988
1761231881477707800,4.572707763671875,-0.006913724911212921,0.007586071214824915,-0.0012258154679089784
1761231881487776800,4.58277685546875,-0.012298925080895423,0.0066143949047662316,-0.0009245218332391232
1761231881497846800,4.5928466796875,-0.0024216741889715194,0.007955616913270205,-0.007665301330341026
1761231881507915800,4.602915771484375,-0.0037719197541475295,0.011686930662393569,-0.009604206104204057
1761231881517985800,4.61298583984375,-0.00990881507396698,0.016275756289996206,-0.00924169293474406
1761231881528054800,4.6230546875,0.005353635987639427,0.00910235752929002,-0.0010791004735976456
1761231881538124800,4.633124755859375,-0.01035363623201847,0.012547566079720854,0.0011591799724847078
1761231881548194000,4.643194091796875,-0.0033200843334197996,0.010094053714070468,-0.004607557727536187
1761231881558262800,4.6532626953125,-0.00047463177442550657,0.0046110009267926215,-0.001805113193206489
1761231881568332800,4.663332763671875,-0.0043622868627309795,0.009141155169717967,-0.007490867212042212
1761231881578401800,4.67340185546875,0.0017699322819709777,0.004388115423731505,-0.01829318792647682
1761231881588471800,4.683471923828125,-0.002720364874601364,0.01056857589064166,-0.011113003231957554
1761231881598540800,4.693540771484375,-0.001373041918873787,0.005423650750238448,0.005388314575375989
1761231881608609800,4.70360986328125,-0.004212649258971214,0.015474869969580321,0.0006205247848294675
1761231881618679800,4.7136796875,-0.01528232480585575,0.007218005087412893,-0.0042387518146075305
1761231881628748800,4.723748779296875,-0.0034632921963930127,-0.003929046544618904,-0.005349343405012041
1761231881638818800,4.73381884765625,0.007757774519920348,0.004368150347936898,-0.008188658484164625
1761231881648887800,4.7438876953125,0.00042377837002277374,0.00022164339404553174,-0.009791664100857451
1761231881658957800,4.753957763671875,-0.008702361893653868,0.011552326230984181,-0.014627550691552459
1761231881669026800,4.76402685546875,-0.0037631519258022306,0.007802892303280532,-0.007359395452635363
1761231881679095800,4.774095703125,-0.0025678046613931654,0.009778338828403501,-0.012205986100435256
1761231881689165800,4.784165771484375,-0.0007686462849378586,0.00022557065049186347,0.00050111792255193
1761231881699234800,4.79423486328125,-0.006003039807081222,0.006249744577147066,-0.009513568678684532
1761231881709304800,4.804304931640625,-0.003456277933716774,0.00793283882588148,-0.0010776483020279557
1761231881719373800,4.814373779296875,0.002827332380414009,0.012325009370222687,-0.0036023536072112617
1761231881729442800,4.82444287109375,0.0004313771545886993,0.010485847776941955,-0.002014308097632602
1761231881739512800,4.834512939453125,-0.021713819158077238,0.0002228307041339576,-0.0006083776893094181
1761231881749581800,4.844581787109375,-0.011240940460562706,0.012101265350636095,-0.0068183017127215854
1761231881759651800,4.85465185546875,-0.0021159692406654356,0.01175862592542544,0.00020567863993346689
1761231881769720800,4.864720947265625,-0.005408581045269966,0.009103142980579286,-0.0150208882575389
1761231881779790800,4.874790771484375,-0.0018143559455871582,0.010550930636096745,-0.004080940037546679
1761231881789859800,4.88485986328125,-0.014084639453887939,0.0046957383344881235,0.0015948040439281613
1761231881799928800,4.8949287109375,-0.004054243826866149,0.002185107220429927,0.0004004614265169948
1761231881809998800,4.904998779296875,-0.0034568624556064603,0.014790814961865543,-0.007850183777417988
1761231881820067800,4.91506787109375,-0.008696516674757003,0.016181977059319615,-0.00003318075039424002
1761231881830137900,4.925137939453125,0.0022287819653749466,0.004719046144839376,-0.002197765772603452
1761231881840206800,4.935206787109375,-0.010492752441763877,0.010452548295538872,-0.007136692612664774
1761231881850275800,4.94527587890625,-0.004204465952515602,0.008773271705396473,-0.007226133594941347
1761231881860350000,4.955349853515625,-0.0018055881172418593,0.00768925759466365,-0.004052672924287617
1761231881870418700,4.965418701171875,0.0001426233410835266,0.012135094555001705,-0.00942241979651153
1761231881880489000,4.975489013671875,-0.0034539398461580274,0.012099730980675667,-0.012130372714111581
1761231881890557700,4.9855576171875,-0.007495908713340759,0.006008172639925032,-0.005746032838709652
1761231881900628000,4.9956279296875,-0.005694412249326705,0.008494454764015972,-0.0016615948029793798
1761231881910696700,5.00569677734375,-0.007639701098203658,0.008186155999824404,0.002363304198393598
1761231881920766000,5.015765869140625,0.006423895567655563,0.007509590178821236,-0.006354976783599704
1761231881930835700,5.025835693359375,0.007622749963402748,0.008024608762562275,-0.0055214942346792665
1761231881940905000,5.035905029296875,-0.008234744381904602,0.009494206391088665,-0.006579095262521878
1761231881950975000,5.04597509765625,-0.008231821772456169,-0.000022832886315882206,0.0032254009204450993
1761231881961043700,5.056043701171875,-0.005087678527832031,0.006931972953956574,0.005019335132511332
1761231881971112700,5.06611279296875,-0.005533668729662895,0.009731230017356573,-0.0029114304672926664
1761231881981182700,5.0761826171875,-0.001644260075688362,0.010651486667431891,0.0005051365105435252
1761231881991251700,5.086251708984375,-0.010326748225092887,0.018084084353595972,-0.008430650546494872
1761231882001321700,5.09632177734375,0.001197100830078125,0.01114301477773115,-0.01277500902689062
1761231882011391000,5.106390869140625,0.010020458754897116,0.009371602924726902,-0.008243548742868007
1761231882021460700,5.116460693359375,-0.004196867167949677,0.010771222323272376,-0.006452208346687257
1761231882031530000,5.126530029296875,-0.010330839878320694,0.008737232277635485,-0.010013133964966982
1761231882041598700,5.1365986328125,-0.002547346395254135,0.008039988994784652,0.0006094371352344751
1761231882051669000,5.1466689453125,-0.01317044721841812,0.00844542799051851,-0.0016426983062643556
1761231882061737700,5.15673779296875,-0.008386135551333426,0.010504442879557608,-0.004949630897166207
1761231882071807700,5.166807861328125,-0.005395721563696861,0.006716576637607067,-0.0013103976119775325
1761231882081876700,5.176876708984375,-0.0038987610042095183,0.004475063054822385,0.004560238853935152
1761231882091946000,5.186946044921875,-0.018111410751938818,0.011144658745545894,-0.007803549890406429
1761231882102015700,5.197015625,-0.01332300743162632,0.010555533745978027,-0.0008061196179594844
1761231882112085000,5.2070849609375,-0.013772504764795303,0.02025172898257151,-0.008843962321430443
1761231882122154800,5.21715478515625,-0.0032978725016117095,0.017035963540151713,-0.006407592886826023
1761231882132223700,5.2272236328125,-0.004195113602280616,0.005950158842373639,-0.004557736369594932
1761231882142292700,5.237292724609375,-0.0032949498921632766,0.009182528359722346,-0.005069056025752797
1761231882152362800,5.24736279296875,-0.0022469021439552304,0.011562500565126537,0.003169515147898346
1761231882162431700,5.257431640625,-0.0035901334464550016,0.013102606146596371,0.003990878000762314
1761231882172501800,5.267501708984375,-0.008829787665605545,0.01258824514998123,-0.0073843746302649374
1761231882182571000,5.277571044921875,-0.0022457331001758574,0.014809537928644567,-0.00893888319642283
1761231882192640800,5.287640869140625,-0.008381459376215934,-0.0001581679700873792,-0.008254599859844893
1761231882202710000,5.2977099609375,-0.0070341364204883575,0.012109558254946022,-0.009527880331827327
1761231882212778800,5.30777880859375,-0.001048047748208046,0.011396131022274493,0.00047727125608362255
1761231882222848800,5.317848876953125,-0.002542085698246956,0.009933803384751081,0.0004046170118264854
1761231882232917800,5.327917724609375,0.004492050722241401,0.012548223666846752,-0.00803170522362925
1761231882242987800,5.33798779296875,0.0004489128112792969,0.0071596624962985515,-0.007818126405030488
1761231882253056800,5.348056884765625,0.0040402153015136714,0.010893807523325085,-0.0029141430141869933
1761231882263126800,5.358126708984375,-0.007930792999267577,0.007327420278638601,-0.012253615501290187
1761231882273195800,5.36819580078125,-0.011523849055171013,0.010524919412005692,-0.014399568888265638
1761231882283264800,5.3782646484375,-0.001945288848876953,0.006731500212103128,-0.0007516220849007368
1761231882293334800,5.388334716796875,-0.006584054565429687,-0.0010384579359553753,-0.0062161802342627194
1761231882303403800,5.39840380859375,-0.014962591332197189,0.00830912479236722,-0.004531953474367037
1761231882313474000,5.40847412109375,-0.006584054565429687,0.00514640471143648,-0.011716047159023583
1761231882323542800,5.418542724609375,-0.01615501598715782,0.009655644030496478,-0.006910099048865958
1761231882333611800,5.42861181640625,-0.0014864391654729843,0.0012770707311108708,-0.010766016425192355
1761231882343681800,5.438681884765625,-0.004324292939901352,-0.00250295926425606,-0.004991186750261113
1761231882353750800,5.448750732421875,-0.010159574964642525,0.016518497270997613,0.0016449907280504702
1761231882363820800,5.45882080078125,-0.009561609071493149,0.012307528512459247,-0.004568075100518763
1761231882373890000,5.46889013671875,-0.023030162453651425,0.001915112906321883,-0.008677410115487873
1761231882383958800,5.478958740234375,-0.010308628046512603,0.005756645564269274,0.00010774382394738494
1761231882394028800,5.48902880859375,-0.002979308071732521,0.002727178207878023,-0.005574256468378007
1761231882404097800,5.499097900390625,-0.0005880290210247039,0.00912091609928757,-0.009327453255746514
1761231882414167800,5.509167724609375,-0.012260346636176108,0.01502571969628334,0.0025978801392484456
1761231882424236800,5.51923681640625,-0.000886135184764862,0.0063911440755240615,-0.00019287395728752015
1761231882434306800,5.529306884765625,-0.01166296526491642,0.004551982482243329,0.0019109207883942871
1761231882444375800,5.539375732421875,-0.0041810850769281385,0.004993022514320909,-0.0013034107487648724
1761231882454444800,5.54944482421875,-0.007921440649032592,0.009939155413303523,0.0005789689317345619
1761231882464514800,5.559514892578125,-0.006870470291376113,0.006996233829203993,0.009094804410496727
1761231882474583800,5.569583740234375,-0.011661796221137046,0.0025879158676601947,-0.0041755869179032745
1761231882484653800,5.57965380859375,-0.008071078252792357,0.013258198567107318,-0.0013940755737479776
1761231882494722800,5.589722900390625,-0.0046294133663177485,0.011452665248792617,-0.006654352455819025
1761231882504791800,5.599791748046875,-0.011215221497416496,-0.0006545183859765529,-0.001965838446561247
1761231882514861800,5.60986181640625,-0.0133107324719429,0.0141957716781646,-0.0047518341695889825
1761231882524930800,5.619930908203125,-0.005524900901317596,0.002820062389411032,0.0013625296580139546
1761231882535000800,5.630000732421875,-0.002234627184271812,0.00919451105846092,-0.004913290075305849
1761231882545069800,5.64006982421875,-0.0077735566109418865,0.004601118853595107,-0.005643284850288182
1761231882555139800,5.650139892578125,-0.004485620981454849,0.008357841038610786,0.0039414037026930596
1761231882565208800,5.660208740234375,-0.003734510353207588,0.0028449959012679755,-0.00924419541908428
1761231882575277800,5.67027783203125,-0.008968903875350952,0.0008565985630266368,-0.008980238120118155
1761231882585347800,5.680347900390625,-0.007619242832064628,0.002552990684751421,-0.014769032388320192
1761231882595416800,5.690416748046875,-0.009711246675252914,0.0027884434084407984,-0.0037118783962912854
1761231882605486800,5.70048681640625,-0.016145663636922835,0.010353106509055942,-0.003945276160212233
1761231882615555800,5.710555908203125,-0.006119359663128853,0.007906590139772742,-0.006433156586345285
1761231882625624800,5.720624755859375,-0.008362170153856277,0.0039317134257406,-0.014691738501563667
1761231882635694800,5.73069482421875,-0.007464344531297683,0.00751333477217704,-0.005459991572098806
1761231882645763800,5.740763916015625,-0.0046223991036415096,0.0104203265263699,-0.0056925034200306975
1761231882655833600,5.75083349609375,-0.00177636202275753,0.009479684675391764,-0.011906245102034882
1761231882665902800,5.76090283203125,-0.008809329399466515,0.017698354705329985,-0.012398229870060458
1761231882675972900,5.770972900390625,-0.009561609071493149,0.012659958679322153,-0.00045354332062415775
1761231882686041900,5.781041748046875,-0.014201543831825255,0.006313037338014691,0.007547255308087915
1761231882696110800,5.79111083984375,-0.006271919876337051,0.016095449553336947,-0.004826744303014129
1761231882706180900,5.801180908203125,-0.005671031373739242,0.013070512241590768,-0.0042124574627261605
1761231882716249900,5.811249755859375,-0.0019295067578554152,0.009765150553267448,-0.013303088021604343
1761231882726319900,5.82131982421875,-0.010904255852103233,0.005885806635580956,-0.008342890064651146
1761231882736388900,5.831388916015625,-0.007909165689349174,0.012087638684082776,0.007829825975978746
1761231882746457900,5.841457763671875,-0.014646364989876747,0.011277527877595275,0.008740894672600552
1761231882756527900,5.85152783203125,-0.003273322582244873,0.003308211232535541,-0.0004379621590021997
1761231882766596900,5.861596923828125,-0.007612228569388389,0.007000051487796008,-0.0038039405939169226
1761231882776667000,5.8716669921875,0.009446458259224891,0.009875369462091475,-0.010327268814900889
1761231882786735900,5.88173583984375,-0.0007359130591154098,0.009091123749222605,-0.009910504707554354
1761231882796806000,5.891805908203125,0.0003127192109823227,0.01040184102160856,0.003459876396600157
1761231882806875000,5.901875,-0.011359598404169082,0.00776433212487027,-0.0029136132912244645
1761231882816943900,5.91194384765625,-0.014650456643104553,0.015620452452730386,0.00300708199464716
1761231882827013600,5.922013671875,-0.010460603737831115,0.0138781388300471,0.0005805033016949892
1761231882837083000,5.932082763671875,-0.003426467317342758,-0.0006716156512498855,-0.009106823641853407
1761231882847152600,5.942152587890625,-0.004174655336141586,0.005362897006329148,-0.00026915406389161944
1761231882857218300,5.95221826171875,-0.001332125386595726,0.0036201815248467027,-0.003017055399389937
1761231882867287000,5.962287109375,-0.007463760009407997,0.0016807378948666153,-0.0012409034391865133
1761231882877357300,5.972357421875,-0.0035790275305509567,0.007443100813869386,-0.0015492844017688185
1761231882887426000,5.982426025390625,-0.004176408901810646,0.00846891846396029,-0.004665160533133894
1761231882897496300,5.992496337890625,-0.0077712185233831405,0.0057552755910903215,-0.006464410241134464
1761231882907565000,6.00256494140625,-0.0032832594543695448,0.01180838335128501,-0.005689672142127528
1761231882917635300,6.01263525390625,0.0016547814697027206,0.007931322722230107,-0.002598026269720867
1761231882927704000,6.0227041015625,-0.007322305712103843,0.009849906227272004,-0.009322439153911545
1761231882937773300,6.032773193359375,-0.004629997888207435,0.004162033316586166,-0.006457322913222014
1761231882947843300,6.04284326171875,-0.010613748472929,0.004428410901501775,-0.006928420156845822
1761231882957912300,6.052912353515625,-0.006724339818954468,0.009298355025425553,0.0013749781476333736
1761231882967982300,6.062982421875,-0.0065747022151947014,0.012911230026651174,-0.0008221939699258655
1761231882978051000,6.073051025390625,-0.001491115340590477,0.015160963448509573,-0.006811113920109346
1761231882988120300,6.083120361328125,-0.011816694521903991,0.013568908484093844,-0.009103079048497602
1761231882998190000,6.093190185546875,-0.0010386953979730606,0.009891754341311752,-0.0030480898584704843
1761231883008259300,6.10325927734375,-0.0059749827563762665,0.007732731410209089,-0.000192015440762043
1761231883018329000,6.1133291015625,-0.004776128360629081,0.00769844554811716,-0.005331926479330286
1761231883028398300,6.1233984375,-0.004625321713089943,0.011682455416675657,0.0010456548617221414
1761231883038467000,6.133467041015625,-0.015547113221883773,0.01098559572631493,-0.00576228985376656
1761231883048537300,6.143537353515625,-0.006266659179329872,0.0037087731237523255,-0.006899385858606547
1761231883058606000,6.153606201171875,-0.005814239236712456,-0.000012713351100683212,-0.002481167557556182
1761231883068676400,6.16367626953125,-0.008057634249329567,0.008910926610417664,-0.005207076256955042
1761231883078745000,6.1737451171875,-0.005063713130354881,0.00903086319565773,-0.006403574298834428
1761231883088815000,6.183815185546875,0.005558218649029731,0.008829696334060281,-0.003939476607088
1761231883098884000,6.193884033203125,-0.010006430229544639,0.013385733936913311,-0.0011915570052806288
1761231883108953300,6.203953369140625,-0.007014262676239013,0.004236669455375522,-0.00070718928813003
1761231883119023000,6.214023193359375,-0.018387305083870886,0.00008707549525424838,-0.005177694898843765
1761231883129092000,6.224092041015625,-0.014049568140506744,0.006120163380727172,-0.005087870324077084
1761231883139162400,6.234162353515625,-0.0067155719906091685,0.012517280539311467,-0.003348853770177811
1761231883149231000,6.244231201171875,-0.007160977670550346,0.011348492488265038,0.0013221428486984222
1761231883159300000,6.254300048828125,-0.007759528085589409,0.015090839088056236,-0.0040331736393738535
1761231883169370000,6.2643701171875,0.0013654431343078613,0.004730791381560266,-0.004647926270542666
1761231883179439400,6.274439453125,-0.009559270983934403,0.0047530214796774085,-0.004563983447290957
1761231883189509000,6.284509033203125,-0.006114098966121673,-0.0038124526939354833,-0.006958166841138154
1761231883199578400,6.294578369140625,-0.005962707796692848,0.011381572773959486,-0.00637830286026001
1761231883209648000,6.304648193359375,-0.01404839909672737,0.008626465379539877,0.005257610000949353
1761231883219717400,6.31471728515625,-0.0065641808211803435,0.01018580538444221,-0.0005667761704418808
1761231883229786000,6.3247861328125,-0.0028249942928552626,0.009062646573409437,-0.0003938490226399153
1761231883239856000,6.334856201171875,-0.007912672820687293,0.001955298786237836,-0.005594495538808405
1761231883249925000,6.344925048828125,-0.0008773673564195632,0.007277918581105768,-0.01015427773501724
1761231883259995100,6.3549951171875,-0.011650690305233,0.0015869951968081294,-0.0005514507371466606
1761231883270064000,6.365064208984375,-0.009109773650765419,0.0012285371479578316,0.00285309700933285
1761231883280133000,6.375133056640625,-0.005666939720511436,0.009516637418605386,-0.0035343024728354063
1761231883290203100,6.385203125,-0.0005740004956722259,0.008924388880189508,-0.0021858744054101408
1761231883300272000,6.395272216796875,-0.010603227078914642,0.00485428989706561,0.00392645272873342
1761231883310342400,6.40534228515625,-0.01000292309820652,0.006457980500347912,-0.007278384371986612
1761231883320411100,6.4154111328125,-0.0016296470284461973,0.009949969068262725,-0.005457233359431848
1761231883330481400,6.4254814453125,0.005102291575074196,0.0034247137516736983,-0.0008336834783200174
1761231883340550100,6.435550048828125,0.0013666121780872343,0.01613037473624572,-0.001305109515506774
1761231883350619400,6.445619384765625,-0.004020341557264328,0.0046317697201855475,-0.0009693747551180422
1761231883360689200,6.455689208984375,-0.0091062665194273,0.002494885555654764,0.0010389967920724301
1761231883370758400,6.46575830078125,-0.009109189128875731,0.005144194488041103,0.006559376781899481
1761231883380828200,6.475828125,-0.003573182311654091,0.01054198014466092,0.003249667712021619
1761231883390897200,6.485897216796875,0.0004664484679698944,0.005369052752479911,0.00199350277162157
1761231883400966100,6.495966064453125,-0.0019295067578554152,0.003047843263298273,-0.003638904491625726
1761231883411036200,6.5060361328125,-0.0014782558590173721,0.0036111214355565606,0.005928147939965128
1761231883421105200,6.516105224609375,0.002114215674996376,0.009673636344913392,-0.003000113397743553
1761231883431175200,6.526175048828125,-0.0004284545451402664,0.008875398639310151,-0.0015135737675707787
1761231883441244200,6.536244140625,-0.005368833556771278,0.010214446957036853,-0.001364274090528488
1761231883451313200,6.546313232421875,-0.0038677813440561293,0.01038023197799921,-0.00885729672703892
1761231883461383200,6.556383056640625,-0.008209025418758393,0.011654014773480593,0.003127694433322176
1761231883471452200,6.5664521484375,-0.00895896700322628,0.0036147198984399437,0.007273434202233329
1761231883481522200,6.576522216796875,-0.005216857865452766,0.00571300735194236,0.0009508892503567039
1761231883491591200,6.586591064453125,0.008996376404166222,0.009964454251341522,0.0006152366883587091
1761231883501661200,6.5966611328125,-0.00013385551273822782,0.011652626533992587,-0.00015428637941367925
1761231883511730200,6.606730224609375,-0.004623568147420883,0.01329641168564558,-0.010690092511614784
1761231883521799200,6.616799072265625,0.0019628245055675507,0.00933256782228127,-0.0003128927409183234
1761231883531869200,6.626869140625,-0.005966214928030967,0.00647268487913534,-0.00047854989771731193
1761231883541938400,6.6369384765625,-0.002524550041556358,0.012707688544876873,-0.0033164858705364165
1761231883552008200,6.64700830078125,-0.008656769186258316,0.01273987378142774,-0.005384807444037869
1761231883562077200,6.6570771484375,-0.014196283134818076,0.0064142874890938395,0.0008623159177601337
1761231883572146200,6.667146240234375,-0.012849544700980186,0.011758589392807333,-0.005963465848518535
1761231883582216200,6.67721630859375,-0.005516717594861984,0.0057709480842575425,-0.00021987156206741928
1761231883592285200,6.68728515625,-0.004465747237205505,0.004269256550725549,0.004945703640719876
1761231883602355200,6.697355224609375,-0.009394435811042785,0.017545045573450622,-0.0009152973471675068
1761231883612424200,6.707424072265625,-0.004753916528820991,0.010307586866896598,-0.004172225917037576
1761231883622494200,6.717494140625,0.0027308862686157226,0.0024073351363651453,0.006593269918346777
1761231883632563200,6.727563232421875,-0.008042436680197716,0.00394798870710656,0.0028622392970137295
1761231883642632200,6.737632080078125,-0.01702420003712177,0.009409834309574216,-0.003283551715314388
1761231883652702200,6.7477021484375,-0.0028097967237234113,0.01286496146582067,-0.006505418104957789
1761231883662771200,6.757771240234375,-0.009094576081633568,0.014972108079213647,-0.006374439535895362
1761231883672841200,6.76784130859375,-0.004307926326990127,0.009944306512456386,-0.0018603870443999766
1761231883682910200,6.77791015625,0.004373392778635025,0.005345544012729078,-0.006097522290656343
1761231883692979200,6.787979248046875,0.0009299743264913558,0.005863119879737496,0.00030286453724838794
1761231883703049200,6.79804931640625,-0.007300093880295753,0.011872644226532428,0.005648362884204834
1761231883713118200,6.8081181640625,-0.01148819321990013,0.008377038929425179,-0.002861143318470567
1761231883723188200,6.818188232421875,-0.012835516175627708,0.01564726739441976,0.00027959325951524075
1761231883733257200,6.82825732421875,0.0007785831570625305,0.01202299421634525,-0.004195223200134933
1761231883743326200,6.838326171875,-0.007005494847893715,0.011543394005857407,-0.006254365953337401
1761231883753396200,6.848396240234375,-0.0055097033321857445,0.009639368749130517,-0.0044407589264214035
1761231883763465200,6.85846533203125,-0.0017699322819709777,0.005166826444957405,-0.00480497999577783
1761231883773535200,6.86853515625,-0.013139467558264731,0.006558372134901583,0.0034616299622692165
1761231883783604200,6.878604248046875,-0.00445814845263958,0.00723654539110139,-0.0011011753080878406
1761231883793674200,6.88867431640625,-0.006704466074705123,0.007779748889710753,0.006882589987432583
1761231883803743200,6.8987431640625,-0.004905892220139503,0.01274979238724336,-0.0019193872226402162
1761231883813812200,6.908812255859375,-0.0075982000440359115,0.00506890076212585,0.0013255951811093837
1761231883823882000,6.918882080078125,-0.0017599954098463056,0.005557341866195202,-0.003201088463095948
1761231883833951200,6.928951171875,-0.007899813339114188,0.007611936308443546,-0.007882241149805486
1761231883844021000,6.93902099609375,0.012300094124674796,0.012773867382574825,0.0074016819580923765
1761231883854090200,6.94909033203125,0.000026888006925582884,0.013614665588270873,0.005417102278443053
1761231883864159200,6.9591591796875,-0.012396540236473083,0.001882836338225752,-0.006527410741057247
1761231883874229200,6.969229248046875,-0.012545593318343162,0.0017855317099019885,-0.006021963703259825
1761231883884298000,6.979298095703125,-0.007606383350491523,0.004587583518587053,-0.0034905455294996497
1761231883894368300,6.9893681640625,-0.0010234978288412094,0.008788871133327483,-0.0026803342583123593
1761231883904437200,6.999437255859375,-0.007460837399959563,0.00604501578528434,0.0004395604610443115
1761231883914506200,7.00950634765625,-0.0017798691540956495,0.00278791368547827,-0.00610827201353386
1761231883924576300,7.019576171875,-0.011955810731649398,0.008939769112411886,-0.004317223878297955
1761231883934645200,7.029645263671875,-0.015101707541942596,0.006551869328878819,-0.01053912146729417
1761231883944715300,7.03971533203125,0.00165828860104084,0.005340319848340005,-0.00036321642235852774
1761231883954784300,7.0497841796875,-0.011956395253539085,0.017694153454247862,-0.0021079137983731925
1761231883964854300,7.059854248046875,-0.010005845707654953,0.00986864746036008,-0.00010576192941516638
1761231883974923000,7.069923095703125,-0.003271569016575813,0.009069149379432201,-0.003462680275039747
1761231883984992300,7.0799921875,-0.00865443109869957,0.012655264237895607,-0.0010039072123821824
1761231883995062000,7.09006201171875,-0.004614215797185898,0.004430657657515258,0.0013656349305529146
1761231884005131300,7.10013134765625,-0.01284545304775238,0.0037547128910198806,0.0021773897048551587
1761231884015201000,7.110200927734375,-0.006861702463030815,0.017580719675030557,0.00530319357519038
1761231884025269200,7.120269287109375,-0.006862871506810188,0.017614603678323328,0.005295768320560455
1761231884035338200,7.130338134765625,0.0013683657437562943,0.0024840171017684043,-0.005720980595843866
1761231884045407200,7.1404072265625,0.0018137714236974715,0.013382939191628246,0.0011442746642976998
1761231884055477200,7.150477294921875,-0.014052490749955177,0.011264339602459221,-0.015240485824970527
1761231884065546200,7.160546142578125,-0.00731762953698635,0.005884601059183478,-0.008327208438329398
1761231884075616000,7.170615966796875,-0.0011813187390565872,0.01602667689975351,0.004747642051661387
1761231884085685200,7.180685302734375,-0.002081482449173927,0.0034195443862117827,0.004759195492137223
1761231884095755000,7.190755126953125,-0.007620996397733688,0.006929561801161617,-0.008955615135515108
1761231884105824300,7.20082421875,-0.013756138151884078,0.005999149083252996,0.0034880704446230083
1761231884115893200,7.210893310546875,-0.007318798580765723,0.005300207033660262,-0.011409100101701914
1761231884125963300,7.22096337890625,-0.005823591586947441,0.015486359477974474,-0.002222196960961446
1761231884136032000,7.231031982421875,-0.010164835661649703,0.014950791296549141,0.007910371265746653
1761231884146102300,7.241102294921875,-0.015699088913202285,0.008692790347710252,-0.007106498403800651
1761231884156171000,7.2511708984375,-0.00911444982588291,0.0020925152998417613,-0.010684484754735603
1761231884166240300,7.261240234375,-0.0116594581335783,0.007520166371762752,0.0006515501107554882
1761231884176310300,7.271310302734375,-0.0014876082092523575,0.0001580766385421157,-0.004048343809042126
1761231884186379300,7.281379150390625,0.006742459997534751,0.006606010668911039,0.0016750570727512239
1761231884196449300,7.29144921875,0.0046510406762361525,0.0078072762174531815,0.003926726723369211
1761231884206518300,7.301518310546875,0.0021089549779891967,0.0087592797126621,-0.004071532888384535
1761231884216587300,7.311587158203125,-0.006865209594368934,0.007986578307114542,-0.014768274336494504
1761231884226657300,7.3216572265625,-0.011502221745252608,0.014775489528570324,-0.013595942621491849
1761231884236726300,7.331726318359375,-0.0067144029468297955,0.01886442107632756,-0.004708305555116385
1761231884246796000,7.341796142578125,0.004207973083853721,0.0070325107189826664,0.0068075976556167
1761231884256865300,7.351865234375,0.0016594576448202133,0.010371701611671596,0.007136309020174667
1761231884266935000,7.36193505859375,-0.005975567278265953,0.012152063956111668,-0.0009580131108872592
1761231884277004300,7.37200439453125,-0.01002162779867649,0.010260989512503146,0.007195519260969013
1761231884287073000,7.382072998046875,-0.0013426467806100845,0.0033963827063329516,-0.002377259658509865
1761231884297143300,7.392143310546875,-0.009421323817968367,0.008088449512701481,-0.0027481935964431613
1761231884307212000,7.4022119140625,-0.014359364742040633,0.00915629793992266,-0.001052833521179855
1761231884317282300,7.4122822265625,-0.007020692417025565,0.010257043989747762,-0.0029442276251967995
1761231884327351000,7.42235107421875,0.0010603227078914642,0.005720058147236705,-0.0029790432102512567
1761231884337420300,7.432420166015625,-0.016149170768260956,0.012366254696063696,-0.0002549702749121934
1761231884347490300,7.442490234375,-0.0043324762463569635,0.010227744830027223,-0.004517513957060873
1761231884357559300,7.452559326171875,0.0012058686584234238,0.0036053492818959054,-0.004870026322314516
1761231884367629300,7.46262939453125,-0.0076233344852924345,0.0029998759357258674,-0.000032459231186658144
1761231884377698300,7.4726982421875,-0.0017880524605512619,0.006196333889476955,-0.007609799150284379
1761231884387767300,7.482767333984375,-0.009417816686630248,-0.0021301621627993882,-0.0027189035698771476
1761231884397837000,7.492837158203125,-0.010619593691825866,0.0066841722053475675,0.003571008620876819
1761231884407906300,7.50290625,-0.002237549793720245,0.008370006400439887,-0.011427028484037146
1761231884417976000,7.51297607421875,-0.003880640825629234,0.014214348514471202,-0.0022186167643871157
1761231884428045300,7.52304541015625,-0.009716507372260094,0.004973605427797884,0.0010106840130407362
1761231884438114000,7.533114013671875,-0.00687456194460392,0.007089264141209423,-0.00832820395217277
1761231884448184300,7.543184326171875,-0.012856558963656424,0.007274612379167229,-0.005877897323761135
1761231884458253000,7.553253173828125,-0.01375730719566345,0.0037053025250323116,0.0037151115329936146
1761231884468323300,7.5633232421875,-0.006724339818954468,0.009561937865056097,-0.0031504268549382686
1761231884478392000,7.57339208984375,-0.007922025170922279,0.009477803245559335,-0.005572986959898844
1761231884488462300,7.58346240234375,-0.002836100208759308,0.011911788926832378,-0.0021591781947296112
1761231884498531000,7.593531005859375,-0.005827683240175247,0.007854220631718634,-0.004631459192931652
1761231884508600300,7.603600341796875,-0.006124620360136032,0.006430343574751168,0.004499950900906696
1761231884518670000,7.613670166015625,-0.007322305712103843,0.006284779357910156,-0.0008894870524760335
1761231884528739300,7.6237392578125,-0.004027355819940567,0.009211864052060991,-0.0053990825645625585
1761231884538809300,7.633809326171875,-0.010163082095980644,0.015685535311885178,-0.0043517198029439895
1761231884548878000,7.643878173828125,-0.010159574964642525,0.01566929656313732,0.0025096538665238767
1761231884558947000,7.653947021484375,-0.004172901770472527,0.00721636111959815,0.001399235806055367
1761231884569017000,7.66401708984375,-0.012998597782850264,-0.003825841898471117,-0.00658046523570083
1761231884579086300,7.67408642578125,-0.005663432589173316,0.004176116640865803,-0.006305749080702662
1761231884589156000,7.684156005859375,-0.0019236615389585494,0.009903517844341694,-0.0024050335814245045
1761231884599225300,7.694225341796875,0.0003197334736585617,0.005908219396788626,-0.006459195209899917
1761231884609294000,7.704294189453125,-0.007609890481829642,0.00045305926343426107,0.0049770029612816865
1761231884619364400,7.7143642578125,-0.018536358165740965,0.008338771011959761,0.0025761432314757257
1761231884629433000,7.72443310546875,-0.004320201286673545,0.008470891225337982,-0.004907316992245614
1761231884639503400,7.73450341796875,-0.0065676879525184625,0.011232428360544144,-0.0029709969011135397
1761231884649572000,7.744572021484375,-0.0016249708533287047,0.012741736944951116,-0.005829884330416098
1761231884659644200,7.75464404296875,-0.0005798457145690918,0.007051635544560849,0.0016574757502879945
1761231884669713200,7.764713134765625,-0.01045651208460331,0.005462174396030604,-0.00004009454837068915
1761231884679782100,7.7747822265625,-0.0047679450541734695,0.0035410518740303814,0.009782229552231729
1761231884689852200,7.78485205078125,0.010647650742530821,0.0009176628341898322,0.007327593808574602
1761231884699921200,7.794921142578125,-0.01089957967698574,0.010904767308756709,0.004307086076773703
1761231884709991200,7.8049912109375,-0.009701309803128243,0.00754351071473211,-0.003247777149034664
1761231884720060200,7.81506005859375,0.008108487653732298,0.006870214563049376,0.0025583244469948112
1761231884730129200,7.825129150390625,-0.0034130233138799666,0.009120148914307355,0.00502715311278589
1761231884740199200,7.83519921875,-0.003564414483308792,0.007341704532317817,-0.004521422947198152
1761231884750268200,7.84526806640625,-0.01194528933763504,0.005412197774462402,0.0017943269377108662
1761231884760338400,7.85533837890625,-0.004319616764783859,0.004085808008909226,0.007023231433983892
1761231884770407200,7.8654072265625,-0.013746201279759406,0.013405826876871287,-0.0031597974714823065
1761231884780476200,7.87547607421875,-0.007458499312400817,0.017331640284787862,-0.004778968771686778
1761231884790546200,7.885546142578125,-0.008953121784329414,0.01173108033137396,0.009575199205428361
1761231884800615400,7.895615478515625,-0.007753682866692543,0.001281162384338677,-0.007252619743067771
1761231884810685200,7.905685302734375,-0.004613046753406525,0.005379336684476584,-0.00908199972785078
1761231884820754200,7.915754150390625,-0.003561491873860359,-0.0002820135454647243,-0.0026536745802499353
1761231884830824200,7.92582421875,-0.005956278055906296,0.007497625746391713,-0.007241340297227725
1761231884840893200,7.93589306640625,-0.010744096854329109,0.011650160582270473,-0.0021649868810083715
1761231884850962200,7.945962158203125,-0.005659925457835197,0.013566844391170889,0.001665147600090131
1761231884861032200,7.9560322265625,-0.0038631051689386364,0.0064959013579413295,-0.005335524942213669
1761231884871101400,7.966101318359375,-0.006851765590906143,0.011036193402390926,-0.004886036742199212
1761231884881171200,7.976171142578125,-0.01613163511157036,0.005859795411489904,-0.003756457323534414
1761231884891240400,7.986240478515625,-0.0007218845337629318,0.0062891267394646995,0.0010811645665206014
1761231884901309200,7.99630908203125,-0.010597966381907463,0.012606621056888251,-0.004977304355381056
1761231884911379500,8.00637939453125,-0.004760346269607543,0.010600797659810632,-0.006302561609772965
1761231884921448200,8.0164482421875,-0.0007224690556526184,0.01370449929619208,-0.0011775741457007824
1761231884931518200,8.026518310546875,-0.009700725281238555,0.010379282129928469,-0.002898306124238297
1761231884941587200,8.036587158203124,0.0010796119302511214,0.005848488566186279,-0.007343083638651296
1761231884951656400,8.046656494140626,0.005267711269855499,0.008912625377159564,-0.000011105915904045104
1761231884961726500,8.0567265625,-0.0028127193331718443,0.005923398699611425,0.0011733911609277128
1761231884971795200,8.066795166015625,-0.008050619986653327,0.012661219054646788,-0.0059224031857680525
1761231884981865500,8.076865478515625,-0.015834697991609574,0.00044387130998075003,-0.0005391027122270315
1761231884991934200,8.086934326171875,-0.00850537801682949,0.0017324315494857728,-0.008230378734041005
1761231885002004500,8.09700439453125,-0.00850362445116043,0.01601127840122208,0.0030897370431106535
1761231885012073200,8.1070732421875,-0.007454407659173011,0.010005809175036847,0.003942234819754958
1761231885022142500,8.117142578125,-0.010147300004959106,0.01776422301577404,-0.009639167819730936
1761231885032212200,8.127212158203125,-0.01329027420580387,0.016116145281493664,-0.01015252416934818
1761231885042281500,8.137281494140625,0.0016769933015108108,0.00613399097668007,-0.0057379773964174085
1761231885052351200,8.147351318359375,-0.013583704194426536,0.010059804384596645,-0.003865680718515068
1761231885062420500,8.15742041015625,-0.014480360773205756,0.0022487653074786066,-0.0012420085508842021
1761231885072489200,8.1674892578125,-0.006997896063327789,0.002096753083541989,0.0010176434767898172
1761231885082559200,8.177559326171876,0.0019815292060375213,0.013755352700594812,-0.0018297361778095364
1761231885092628200,8.187628173828125,-0.01447626911997795,0.012775456551462411,-0.0016754041326232252
1761231885102698200,8.1976982421875,-0.012079729372262954,0.009520656006596982,0.004260981912724673
1761231885112767200,8.207767333984375,-0.01641395918428898,0.002348134028725326,-0.0038878468845505265
1761231885122836200,8.217836181640624,0.0004956745624542236,-0.0001939882021397352,-0.001568893284536898
1761231885132906500,8.227906494140624,-0.006238017606735229,0.00563908359920606,0.006302241949364543
1761231885142975200,8.237975341796876,-0.010427870512008667,0.012472582881059497,0.009188665839564054
1761231885153045500,8.24804541015625,-0.005184709161520004,0.004759122426901012,0.001411118040094152
1761231885163114200,8.2581142578125,-0.01476385388970375,0.006222893102839589,-0.01485387939387001
1761231885173183500,8.26818359375,-0.005489245066046714,-0.000296188201289624,0.00014627660289406777
1761231885183253200,8.278253173828125,-0.0066857613742351526,-0.00015318126771599053,0.0022663283636327834
1761231885193322500,8.288322509765624,-0.009678513449430465,0.012233202900923787,0.008443838821630925
1761231885203392300,8.298392333984374,-0.0032440964877605435,0.013364252757467329,-0.00401019462258555
1761231885213461500,8.30846142578125,-0.0033937340915203094,0.009914112303592263,-0.0038808874208014457
1761231885223530200,8.3185302734375,-0.005638298147916793,0.013255075028259306,-0.007330945676285773
1761231885233600300,8.328600341796875,-0.01177227085828781,0.017553101015742867,0.004360268435580655
1761231885243669200,8.338669189453125,-0.007284311789274215,0.008165058412868529,0.0039178675634786485
1761231885253739300,8.3487392578125,-0.0036918402552604673,0.005312317596562206,-0.0016566172337625176
1761231885263808300,8.358808349609374,-0.005192307946085929,0.0031049802780151363,-0.001452500363253057
1761231885273878300,8.368878173828126,-0.003999298769235611,0.007155150717962533,0.005853402203321457
1761231885283947300,8.378947265625,-0.008042436680197716,0.009965331034176052,0.005863877931563183
1761231885294016300,8.389016357421875,-0.005201660296320915,0.010809344110265373,0.0009320018867962061
1761231885304086300,8.399086181640625,0.0018348142117261886,0.006322042628377675,0.003603294322127476
1761231885314155300,8.4091552734375,-0.009987141007184982,0.010234357233904302,-0.003002917276183143
1761231885324225500,8.4192255859375,-0.01028524717092514,0.010648490992747247,0.0028516539709176865
1761231885334294300,8.429294189453126,-0.0035498014360666272,0.009367693934589624,0.008386911869468166
1761231885344363300,8.43936328125,-0.002205401089787483,0.008370609188638627,-0.0013099866200238465
1761231885354433300,8.449433349609375,-0.007590016737580299,0.004553023661859334,-0.003205463244114071
1761231885364502500,8.45950244140625,0.002883446481823921,0.002347001517564058,-0.0036894656350836158
1761231885374572300,8.469572265625,-0.0008615852653980255,0.010429971137549728,-0.006882096797088161
1761231885384641500,8.4796416015625,-0.0023597148686647414,0.006124547294899821,-0.002614484214177355
1761231885394710300,8.489710205078126,-0.0075982000440359115,0.012245788387861101,-0.0035333982905372974
1761231885404780300,8.4997802734375,-0.0032581250131130217,0.006682820498477667,0.0010908000445459037
1761231885414849300,8.509849365234375,-0.00490472317636013,0.0030419067128561435,-0.0001611179789993912
1761231885424919300,8.519919189453125,-0.012983984735608101,0.0035976774320937693,0.0002825524015817791
1761231885434988300,8.52998828125,-0.010736498069763184,0.0018706527100875972,-0.0006931972953956574
1761231885445058300,8.540058349609374,-0.007442717221379279,0.01372630926920101,-0.010077568370150402
1761231885455127300,8.550127197265626,-0.01028349360525608,-0.0020152853451669214,0.0031041034951806066
1761231885465196300,8.5601962890625,-0.012379004579782485,0.013114241785462945,-0.00015775697813369332
1761231885475266300,8.570266357421875,-0.008636895442008971,0.005330748302396386,0.00012308752355165778
1761231885485335300,8.580335205078125,0.0007926116824150085,0.004962755240220576,-0.01091385479751043
1761231885495405300,8.5904052734375,-0.0048895256072282785,0.008994659371115267,-0.0006928411023691296
1761231885505474300,8.600474365234374,0.0007996259450912475,0.0048110718098469075,-0.00257300142631866
1761231885515543300,8.610543212890626,0.0030430209577083584,0.009356989877484739,-0.0012295874607283622
1761231885525613300,8.62061328125,-0.006532616639137268,0.00036591070294380185,-0.0023198851817753164
1761231885535682600,8.6306826171875,-0.0020481647014617918,0.006052925097104161,0.0053837753975763914
1761231885545752300,8.64075244140625,-0.004290975192189217,0.011073968129511922,-0.007198432737262919
1761231885555821300,8.6508212890625,0.0033417116433382033,0.005646426655445248,-0.009685545978415757
1761231885565890300,8.660890380859374,-0.0053343467652797695,0.008079992211610078,0.0037471049732994287
1761231885575960300,8.670960205078124,-0.004437690186500549,0.008836089542228727,0.003211545925028622
1761231885586029300,8.681029296875,-0.005935235267877578,0.018472462616674602,-0.0031899186151102183
1761231885596099300,8.691099365234376,-0.006677578067779541,0.010214337359182537,-0.0008970949701964855
1761231885606168300,8.701168212890625,-0.000841126999258995,0.0051357371869497,-0.007712793733878061
1761231885616237300,8.7112373046875,-0.00203822782933712,0.005300462761987,-0.0021556527970824388
1761231885626307300,8.721307373046875,-0.006226911690831184,-0.002562416100222617,-0.011958240150753408
1761231885636376300,8.731376220703124,-0.0005383446604013442,0.00014119856897741554,-0.008368727758806198
1761231885646446300,8.7414462890625,-0.007716857987642288,0.008373659662250428,0.004276645272737369
1761231885656515300,8.751515380859376,0.0024555764585733413,0.00696644147913903,0.006255452798726037
1761231885666584300,8.761584228515625,0.0014075287103652954,0.011150814491696656,0.00787278833487071
1761231885676654300,8.771654296875,-0.010412672942876814,0.013321783588919788,-0.0038793256513774393
1761231885686723300,8.781723388671875,0.0014063596665859221,0.008618355138320476,-0.0021356785881333053
1761231885696793300,8.79179345703125,-0.003083352968096733,-0.0003390774949453771,-0.002880679136002436
1761231885706862300,8.8018623046875,-0.005176525855064392,0.004548329220432788,-0.003454907960537821
1761231885716932400,8.811932373046876,-0.001883329528570175,0.005573544082324951,-0.00470796762839891
1761231885727001300,8.82200146484375,0.0014081132322549819,0.019120733924955127,-0.003977781057171523
1761231885737070300,8.8320703125,-0.004874328038096428,0.0063456426996737715,-0.004611448451364413
1761231885747140400,8.842140380859375,0.006200023683905601,0.010609857749100773,-0.008574890455929561
1761231885757209300,8.852209228515624,-0.0035270050823688506,0.0013366371649317442,-0.0009497110734228044
1761231885767279400,8.862279296875,-0.0050192894667387,0.0018170776256360112,-0.006971318583656102
1761231885777348400,8.872348388671876,-0.01429506733417511,-0.001228317952249199,0.00491511670621112
1761231885787417300,8.882417236328125,-0.00935585736632347,0.008628949597571045,0.00046996473246254023
1761231885797487400,8.8924873046875,0.00336450799703598,0.004694459692854434,0.0009296363997738807
1761231885807556400,8.902556396484375,0.0020177695631980893,0.00752305244859308,-0.007764852714678272
1761231885817626000,8.912626220703125,-0.011593407160043716,0.013178667057491837,-0.00791849064012058
1761231885827695400,8.9226953125,-0.00814940418601036,0.00798805787814781,0.004768438244517892
1761231885837764400,8.932764404296876,-0.004258241966366767,0.0015176928202621637,-0.00958940126071684
1761231885847834400,8.94283447265625,-0.0015641805768013,-0.004792330576758832,-0.00003563756896182894
1761231885857903000,8.952903076171875,-0.004705985733866692,0.005523165601957589,0.003279204333759844
1761231885867972900,8.962972900390625,0.0005324994415044785,0.007603113681171089,0.00863394543309696
1761231885878041900,8.973041748046874,-0.010689151796698569,0.007829999505914747,-0.0004098777088336646
1761231885888110800,8.98311083984375,-0.006501052457094192,0.00451283778194338,-0.01243047903869301
1761231885898180900,8.993180908203126,0.0012806874603033065,0.0010744608310982585,-0.00019754099925048648
1761231885908249900,9.003249755859375,-0.009337737187743186,-0.0010867540570907294,-0.001648890585033223
1761231885918319900,9.01331982421875,-0.006346154156327247,0.00987703169621527,-0.0033466070141643283
1761231885928388900,9.023388916015625,-0.006047463470697402,0.006905523338448256,0.0029337518969550728
1761231885938457900,9.033457763671874,-0.010984335350990295,0.006098006347846239,-0.0030390115028712896
1761231885948528000,9.043528076171874,0.0012865326792001724,0.011031316297873853,-0.005691142580006271
1761231885958596900,9.053596923828126,-0.0005073650002479553,0.0059074704781174655,-0.010061073893075808
1761231885968667100,9.063667236328126,-0.0014069441884756089,0.011452920977119356,-0.011288003605837002
1761231885978735900,9.07373583984375,-0.007238719081878662,0.0040610206275247035,0.00008870119675993918
1761231885988806000,9.083805908203125,-0.0024497312396764754,0.008560067346133291,0.013385523874359205
1761231885998875000,9.093875,-0.007236965516209602,0.00013898834558203816,0.0024715503458399325
1761231886008944000,9.103944091796874,0.007125321835279464,0.007720237254817039,0.008559053565980867
1761231886019014000,9.114013916015624,-0.0018505963027477263,0.004199990706797689,-0.0017540588594041765
1761231886029083100,9.124083251953126,-0.00798339996933937,0.012197017342690377,-0.00592521619736217
1761231886039153000,9.13415283203125,-0.0033469723403453827,0.006629044484626501,-0.00480886158645153
1761231886049222000,9.144221923828125,0.0008446341305971145,0.003257485692296177,-0.004523952831001952
1761231886059291000,9.154290771484375,-0.003493687334656715,-0.0011145736457780003,0.006575880392128601
1761231886069361000,9.16436083984375,-0.003797638717293739,0.0032477680158801373,-0.003804735178360715
1761231886079430000,9.174429931640624,-0.013823358169198035,0.0056399969146586956,-0.011427731736935674
1761231886089500000,9.1845,-0.006940612918138503,0.01281595295863226,-0.003254453484993428
1761231886099569000,9.19456884765625,-0.007089666000008582,0.0035115700512193143,-0.0000048953708261251445
1761231886109638000,9.204637939453125,0.00024257658421993254,0.006030183542333543,-0.008896468826802447
1761231886119708200,9.214708251953125,-0.007987491622567176,0.00914570348067209,0.002244226129679009
1761231886129777000,9.22477685546875,-0.003199672824144363,0.006341587579064071,-0.0021607125646900386
1761231886139847200,9.23484716796875,-0.0039449382334947585,0.003837495803646743,-0.0004840206572785973
1761231886149916000,9.244916015625,-0.012026537880301474,0.0035757578612305224,-0.009497768321353942
1761231886159985200,9.254985107421875,-0.002751344534754753,-0.001991027686744928,-0.007811093876045197
1761231886170055000,9.265054931640625,-0.0011064999371767042,0.004147694263979792,0.0016476941417902706
1761231886180124200,9.275124267578125,-0.010085340684652328,0.0038715624700300395,-0.00735006136870943
1761231886190194000,9.28519384765625,-0.0017085574835538863,0.007845434537064284,0.0017223485468886792
1761231886200263000,9.295262939453124,-0.009488543835282325,0.007183847089484333,0.0005879833552520722
1761231886210332000,9.305331787109376,-0.014279285243153571,0.01309023985536769,-0.0014285714983940123
1761231886220402000,9.31540185546875,-0.0015647650986909865,0.005555296039581299,0.00401522699072957
1761231886230471000,9.325470947265625,-0.005156067588925361,0.005515731214173138,-0.005387930982885882
1761231886240541000,9.335541015625,-0.0006686930418014526,0.0048126244461163875,-0.006941334437346085
1761231886250610000,9.34560986328125,-0.00485854594707489,0.00647842050017789,0.001807807473791763
1761231886260680000,9.355679931640625,-0.01488192731142044,0.003398081473074853,-0.006440490509429946
1761231886270749000,9.3657490234375,-0.007097849306464195,0.006260941824596375,-0.003417462026979774
1761231886280818000,9.37581787109375,-0.007999182060360908,0.0014610672621987759,-0.003489102491084486
1761231886290888000,9.385887939453125,-0.0014162965387105942,0.0016126410947181283,-0.0067242028216365725
1761231886300957000,9.39595703125,-0.01892448070049286,0.007778068389277905,-0.004468852509744465
1761231886311027000,9.40602685546875,-0.016382979524135588,0.000812631557136774,-0.007956868155440316
1761231886321096000,9.416095947265624,-0.013234744626283644,0.005109963424876332,-0.007233577115880325
1761231886331165000,9.4261650390625,-0.000367079746723175,0.0068030676109716295,-0.006075721450801938
1761231886341235000,9.43623486328125,-0.005154898545145988,0.007504329481814056,0.0012132573804352431
1761231886351304000,9.446303955078125,-0.006349661287665367,0.005822860934585333,0.003455291553027928
1761231886361374000,9.4563740234375,-0.01532850203514099,0.0027096060185693204,-0.0006837718799244612
1761231886371443000,9.46644287109375,-0.00829495013654232,0.005891487457696348,-0.003366380293713882
1761231886381512000,9.476511962890624,-0.003205518043041229,0.0011628515006043016,-0.002110854674130678
1761231886391582000,9.48658203125,-0.007245733344554901,0.0068101001399569205,0.005765011533815413
1761231886401651000,9.49665087890625,-0.004251227703690528,0.010200820290483534,0.0038277233283035457
1761231886411721000,9.506720947265626,-0.014574468797445296,0.010974763805046677,0.007282092432724312
1761231886421790000,9.5167900390625,-0.0011076689809560775,0.011852953145373612,-0.0010789086773525924
1761231886431859000,9.52685888671875,-0.013829787909984587,0.0013260609719902277,-0.011721892377920448
1761231886441929000,9.536928955078125,-0.004554010042548179,0.0010956314832903445,-0.0040955622179433705
1761231886451998000,9.546998046875,-0.012486556607484817,0.009369374435022473,0.002104361001262441
1761231886462068000,9.55706787109375,-0.004108604362607002,0.011693250805325805,0.004338832921907306
1761231886472137000,9.567136962890626,-0.008297872745990753,-0.0032683358798734842,-0.0030416053187567738
1761231886482206000,9.5772060546875,-0.00589899491071701,0.0014570669405162334,-0.0037068916939198967
1761231886492276000,9.58727587890625,-0.007995090407133101,-0.001347761347144842,0.0004878839816432446
1761231886502345000,9.597344970703125,-0.0015595044016838073,0.003249612913094461,-0.007892926940601319
1761231886512415000,9.6074150390625,-0.009787819042801857,0.002924673541355878,-0.009724133556289597
1761231886522484000,9.61748388671875,-0.004698971471190453,0.0024502244300208986,-0.006823863803828135
1761231886532553000,9.627552978515626,-0.009187515062093735,-0.0004386288792826235,0.007206972236745059
1761231886542623000,9.637623046875,-0.003503624206781387,0.011781257882341741,0.006145014694193378
1761231886552692000,9.64769189453125,-0.0012549684971570967,0.011938092411868273,-0.004841238619247451
1761231886562762000,9.657761962890625,-0.0039449382334947585,0.010060936895757914,-0.006627263519493862
1761231886572831000,9.6678310546875,0.007877016985416412,0.0031477051748894152,-0.007282284228969365
1761231886582901000,9.67790087890625,-0.0027525135785341263,-0.002470993223413825,-0.006640652724029496
1761231886592970000,9.687969970703126,-0.0018546879559755325,0.002339256602525711,0.0005867595125455409
1761231886603039000,9.6980390625,-0.01172960076034069,0.0018823248815722762,0.0029543745598755774
1761231886613109000,9.70810888671875,-0.002303016245365143,0.0024511012128554284,-0.005593089033011347
1761231886623178000,9.718177978515625,0.0011392331629991531,0.008582717569358647,-0.005097533201565966
1761231886633247700,9.728247802734375,-0.006792728880047798,0.009954572178144007,-0.004989990307018161
1761231886643317000,9.73831689453125,-0.007239888125658035,0.005111698724236339,-0.004231143896887078
1761231886653386000,9.748385986328126,-0.0002098433583974838,0.0005878828905522823,-0.0018205482243560253
1761231886663456000,9.7584560546875,-0.011885668104887007,0.005498688747826963,0.00042077356218360364
1761231886673524700,9.768524658203125,-0.0000672200173139572,-0.002071289848722517,-0.00227747994530946
1761231886683595000,9.778594970703125,-0.011291209343075752,0.007386456989496946,0.008910223357519134
1761231886693663700,9.788663818359375,-0.0066512745827436446,0.005524078917410224,0.0034829010791610922
1761231886703733000,9.79873291015625,-0.007102525481581688,0.017869583086390046,-0.0044850821253377944
1761231886713803000,9.808802978515626,0.0029220249265432354,0.014336385725252329,-0.006705607719020918
1761231886723872000,9.8188720703125,-0.007702829462289809,0.0037253406660631297,-0.010046917503559962
1761231886733942000,9.82894189453125,-0.001571194839477539,0.0023894706861115993,-0.0026717125604394823
1761231886744011000,9.839010986328125,-0.008902852901816367,0.010866517657600343,0.01029263589293696
1761231886754080000,9.849080078125,-0.00530862780213356,0.004634381802380085,0.007952529907040297
1761231886764150000,9.85914990234375,-0.0005184709161520004,0.006808109112270176,-0.0007167608340736478
1761231886774219000,9.869218994140626,-0.011145078870654105,0.008545600429363549,0.00149538965690881
1761231886784288800,9.879288818359376,-0.005903671085834503,0.0010675744325853883,0.0062134859536774455
1761231886794358000,9.88935791015625,-0.004254734835028648,0.00695381945958361,-0.01262270454200916
1761231886804427000,9.899427001953125,0.0009825812965631483,0.010859923520032316,-0.003300155790243298
1761231886814497000,9.9094970703125,-0.0029062428355216977,0.016647676608618347,-0.002922737312596291
1761231886824565800,9.919565673828124,-0.0072463178664445875,0.018294384369719772,-0.0028160620677284893
1761231886834636000,9.929635986328124,-0.013824527212977408,0.004759122426901012,0.0008335921467747539
1761231886844704800,9.939704833984376,-0.01696808593571186,0.000017700053472071883,-0.005171137293893843
1761231886854773200,9.949773193359375,-0.025496844828128813,-0.00249587193634361,-0.0032579514831770208
1761231886864843300,9.95984326171875,-0.017564298263192175,0.0013425919816829263,-0.0005070910056121647
1761231886874912300,9.969912353515625,-0.009781389302015305,0.005615940185636281,-0.00584107244471088
1761231886884982300,9.979982177734374,-0.007089081478118896,0.007779639291856437,-0.004158453120011836
1761231886895051300,9.99005126953125,-0.007539163333177566,0.005125380189716816,-0.00465953450994566
1761231886905120300,10.000120361328126,-0.013977671948075294,0.007969371443986892,0.00009869286781176925
1761231886915190300,10.010190185546875,-0.012931962287425994,0.011939864243846385,-0.004523249578103423
1761231886925259300,10.02025927734375,-0.013829203388094902,0.007587715182639658,-0.006847801801841706
1761231886935329500,10.03032958984375,-0.013233575582504271,0.0032555859961546957,0.002340946236113086
1761231886945398300,10.040398193359374,-0.013686580047011374,0.007981408941652625,-0.006101732674892992
1761231886955468500,10.050468505859374,-0.0017149872243404387,0.005424143940582871,0.005795762865105644
1761231886965537300,10.060537353515626,-0.002613397368788719,0.008421279929950834,0.0032027050314471124
1761231886975606500,10.0706064453125,-0.01099544126689434,0.013171214403398334,0.002174037837143987
1761231886985676300,10.08067626953125,-0.0033650925189256664,0.0037864414698444305,-0.0033840346814133226
1761231886995745500,10.09074560546875,-0.006512158372998237,0.004392864664085209,-0.004184455210948363
1761231887005815300,10.100815185546875,-0.013998130214214324,0.0009642601885832846,0.000582412130990997
1761231887015884300,10.11088427734375,-0.0038221886366605756,0.001685980325564742,-0.0028896022279746828
1761231887025953300,10.120953369140626,-0.011001286485791205,0.008436294835992156,0.0019291688311379401
1761231887036023300,10.131023193359376,0.00007540332376956939,0.005582951231487095,-0.0015599336599465459
1761231887046092300,10.14109228515625,-0.0063590136379003525,3.6532618105411526e-7,-0.010521046954486519
1761231887056162300,10.151162353515625,-0.0005196399599313736,0.010041318879835308,-0.013020389489550142
1761231887066231300,10.161231201171875,-0.0014168810606002807,0.013006689757760613,-0.008996796529274433
1761231887076300300,10.17130029296875,-0.010094108512997626,0.002400667933560908,-0.005181065032863989
1761231887086370300,10.181370361328124,-0.01652501834332943,0.0024471739564090964,-0.0003933375659864396
1761231887096439300,10.191439208984375,-0.010540683236718177,0.0043403307592496275,-0.003433664243109524
1761231887106509300,10.20150927734375,0.0005289923101663589,0.004745002570003271,-0.003550048031238839
1761231887116578300,10.211578369140625,-0.002610474759340286,0.006399309115670621,-0.008829586736205965
1761231887126647300,10.221647216796875,-0.005604395878314972,0.006784052383247762,-0.0068120546350255605
1761231887136717300,10.23171728515625,-0.009046645286679268,0.0036376806489191948,0.0051100182238034905
1761231887146786300,10.241786376953126,-0.003806406545639038,0.0070941412457264956,-0.0027292788334190845
1761231887156856300,10.251856201171876,-0.01337912153303623,0.008106788886990398,-0.00472572248079814
1761231887166925300,10.26192529296875,-0.002307107898592949,0.0038533692262135446,0.004944342800695449
1761231887176994300,10.271994384765625,-0.006503390544652939,-0.0009602233342826366,-0.0020320172842592
1761231887187064300,10.282064208984375,-0.00635433746278286,0.0027802966346032916,-0.00448238784475252
1761231887197133300,10.29213330078125,-0.014136661902070045,0.009300784444529562,-0.002161598480679095
1761231887207203300,10.302203369140624,-0.010701426756381988,0.005940185437630862,-0.0010012768638785927
1761231887217272300,10.312272216796876,-0.0006762918263673782,0.013441866304632276,-0.004740582123212516
1761231887227341300,10.32234130859375,0.0023158757269382477,0.011221523374039678,0.007662241723574698
1761231887237411300,10.332411376953125,-0.011749474504590034,0.0038516704594716428,-0.0009312347018159926
1761231887247480300,10.342480224609375,-0.011449614775180816,0.006822612561658024,-0.008964255099697038
1761231887257550300,10.35255029296875,-0.008455693656206131,-0.0013154665127396582,-0.004993515704665333
1761231887267619300,10.362619384765624,-0.0063636898130178445,0.005716258754953742,-0.010158186725154518
1761231887277689300,10.372689453125,0.008298457267880439,0.008396730010583997,-0.005916740629961714
1761231887287758300,10.38275830078125,-0.010265373426675797,0.008219583345390856,0.002321145557099953
1761231887297827300,10.392827392578125,-0.0021913725644350053,0.0013254033848643302,0.007528715004399418
1761231887307897300,10.4028974609375,-0.02643500246107578,0.0013223529112525285,0.0074153816898819055
1761231887317966300,10.41296630859375,-0.007428688696026801,0.0019183095104061067,0.0011559559689369053
1761231887328036400,10.423036376953124,0.00903086319565773,0.006545202126074582,0.006707224287372082
1761231887338105300,10.433105224609376,-0.00757774177789688,0.009945987012889236,-0.004747276725480333
1761231887348174300,10.44317431640625,-0.01999064862728119,0.006895988325122743,-0.013827559420280158
1761231887358244400,10.453244384765625,-0.012358546313643455,0.01304305797908455,-0.006090626758988946
1761231887368313300,10.463313232421875,-0.00682137045264244,0.01500635740868747,0.0022403262726962566
1761231887378383400,10.47338330078125,0.008293781092762947,0.006447934030368924,0.008930809487821535
1761231887388452400,10.483452392578124,-0.011156769308447837,0.0061059521922841664,0.009249163855146616
1761231887398521300,10.493521240234376,-0.005316811108589172,0.009939411141630262,-0.005271264066966251
1761231887408591400,10.50359130859375,0.0050075990289449685,0.018119301797449586,-0.0029771435141097754
