time,seconds_elapsed,z,y,x
1761818108419508500,0.100508544921875,0.022090787068009377,0.5398371815681458,-0.4415695369243622
1761818108429437400,0.1104375,0.008020240813493729,0.5241006016731262,-0.5289478302001953
1761818108439365400,0.120365478515625,-0.007786951959133148,0.4517829716205597,-0.598452091217041
1761818108449293300,0.130293212890625,-0.059505537152290344,0.3647197484970093,-0.6736160516738892
1761818108459222500,0.140222412109375,-0.07649943232536316,0.345127671957016,-0.7313424944877625
1761818108469150500,0.150150390625,-0.03279369696974754,0.3213082551956177,-0.7506098747253418
1761818108479079400,0.160079345703125,0.04690006747841835,0.32529181241989136,-0.7542880177497864
1761818108489007400,0.17000732421875,0.10383918136358261,0.33217093348503113,-0.7532019019126892
1761818108498935600,0.179935546875,0.12191113084554672,0.26473116874694824,-0.7385068535804749
1761818108508864500,0.189864501953125,0.12227984517812729,0.18239662051200867,-0.7352145910263062
1761818108518792400,0.19979248046875,0.17637263238430023,0.2075328677892685,-0.7285330295562744
1761818108528721700,0.2097216796875,0.25576308369636536,0.3507530093193054,-0.7306016683578491
1761818108538649600,0.219649658203125,0.2794031500816345,0.5410915017127991,-0.7466455698013306
1761818108548577500,0.22957763671875,0.3290495276451111,0.8114019632339478,-0.7440265417098999
1761818108558506500,0.239506591796875,0.44531941413879395,1.1289710998535156,-0.662506639957428
1761818108568434400,0.249434326171875,0.6264716982841492,1.3950246572494507,-0.47496846318244934
1761818108578363400,0.25936328125,0.9096629619598389,1.734639286994934,-0.13620105385780334
1761818108588291300,0.269291259765625,1.1964869499206543,2.046858310699463,0.31787657737731934
1761818108598219500,0.279219482421875,1.388511300086975,2.2130842208862305,0.8217160105705261
1761818108608148500,0.2891484375,1.4883928298950195,2.308908224105835,1.333237886428833
1761818108618076700,0.29907666015625,1.5368943214416504,2.3520920276641846,1.8353265523910522
1761818108628005600,0.309005615234375,1.5484247207641602,2.3515491485595703,2.2906863689422607
1761818108637933600,0.31893359375,1.3246654272079468,2.1392922401428223,2.594752550125122
1761818108647861500,0.328861572265625,0.7192618250846863,1.5191607475280762,2.557171106338501
1761818108657790500,0.33879052734375,0.14101476967334747,0.5083936452865601,2.125369071960449
1761818108667718400,0.348718505859375,-0.10942702740430832,-0.35665205121040344,1.6466847658157349
1761818108677647600,0.358647705078125,-0.23598577082157135,-0.8696224093437195,1.2862707376480103
1761818108687575600,0.368575439453125,-0.3716685175895691,-1.1978158950805664,0.9824273586273193
1761818108697503500,0.37850341796875,-0.5309359431266785,-1.1749897003173828,0.8262646794319153
1761818108707432400,0.388432373046875,-0.6754419207572937,-0.9281488060951233,0.882169246673584
1761818108717360400,0.3983603515625,-0.7769541144371033,-0.5898965001106262,0.9744259119033813
1761818108727288600,0.40828857421875,-0.8311589360237122,-0.3604513108730316,0.9830686450004578
1761818108737217500,0.418217529296875,-0.8441418409347534,-0.3244461715221405,0.849828839302063
1761818108747145500,0.4281455078125,-0.8269514441490173,-0.4972583055496216,0.5920597314834595
1761818108757074700,0.43807470703125,-0.8307744264602661,-0.8600583672523499,0.30860036611557007
1761818108767002600,0.448002685546875,-0.8903971314430237,-1.3671976327896118,0.10796810686588287
1761818108776930600,0.4579306640625,-1.0324640274047852,-1.9701511859893799,0.011192561127245426
1761818108786859500,0.467859619140625,-1.22113037109375,-2.569310188293457,0.006862202659249306
1761818108796787500,0.477787353515625,-1.42605721950531,-3.0392043590545654,0.04005051776766777
1761818108806716400,0.48771630859375,-1.5952743291854858,-3.3699421882629395,0.052329160273075104
1761818108816644400,0.497644287109375,-1.698083758354187,-3.489184856414795,0.02281281352043152
1761818108826572500,0.507572509765625,-1.691491961479187,-3.17635178565979,0.002104228362441063
1761818108836501500,0.51750146484375,-1.5493311882019043,-2.6660447120666504,0.13346651196479797
1761818108846429700,0.5274296875,-1.3876736164093018,-2.281496286392212,0.27621912956237793
1761818108856358700,0.537358642578125,-1.3173803091049194,-1.9208664894104004,0.28946247696876526
1761818108866286600,0.54728662109375,-1.3401316404342651,-1.4804797172546387,0.1307329684495926
1761818108876214500,0.557214599609375,-1.337527871131897,-0.9602195024490356,-0.13142913579940796
1761818108886143500,0.5671435546875,-1.2069275379180908,-0.2573198974132538,-0.39606502652168274
1761818108896071400,0.577071533203125,-0.8708179593086243,0.37761178612709045,-0.6207697987556458
1761818108906000400,0.58700048828125,-0.307268887758255,0.633252739906311,-0.7081292271614075
1761818108915928600,0.596928466796875,0.3260268270969391,0.5539853572845459,-0.5729988217353821
1761818108925856500,0.6068564453125,0.7866774797439575,0.46718114614486694,-0.27834630012512207
1761818108935785500,0.616785400390625,1.0943914651870728,0.529858410358429,0.08605081588029861
1761818108945713400,0.62671337890625,1.4302337169647217,0.5550005435943604,0.23562702536582947
1761818108955642400,0.636642333984375,2.163767099380493,0.5955708622932434,0.48146021366119385
1761818108965570600,0.646570556640625,3.1177010536193848,0.5508683323860168,0.8543933033943176
1761818108975498500,0.65649853515625,4.000550746917725,0.4578486382961273,1.2353485822677612
1761818108985427500,0.666427490234375,4.777332305908203,0.26688507199287415,1.5337650775909424
1761818108995355600,0.676355712890625,5.277761936187744,-0.12130048125982285,1.7428677082061768
1761818109005283600,0.68628369140625,5.387089252471924,-0.5931518077850342,1.9065983295440674
1761818109015212500,0.696212646484375,5.087517261505127,-1.0010195970535278,2.0831310749053955
1761818109025139000,0.706138916015625,4.485198020935059,-1.3579537868499756,2.2088136672973633
1761818109035068000,0.71606787109375,3.9412291049957275,-1.541300654411316,2.2073190212249756
1761818109044995800,0.725995849609375,3.5328543186187744,-1.6429071426391602,2.1098639965057373
1761818109054923800,0.735923828125,3.1053948402404785,-1.621105432510376,2.084155559539795
1761818109064852700,0.745852783203125,2.7145462036132812,-1.638364553451538,2.001816987991333
1761818109074781000,0.755781005859375,2.231982707977295,-1.7658565044403076,1.8472565412521362
1761818109084710000,0.7657099609375,1.5637706518173218,-2.0165929794311523,1.590478777885437
1761818109094637800,0.775637939453125,0.6407764554023743,-2.095118761062622,1.118862271308899
1761818109104565800,0.785565673828125,-0.42701566219329834,-2.1203720569610596,0.37876835465431213
1761818109114494700,0.79549462890625,-1.4224662780761719,-2.1831166744232178,-0.5581939816474915
1761818109124423000,0.8054228515625,-2.1805033683776855,-2.0843567848205566,-1.5295032262802124
1761818109134351600,0.8153515625,-2.77251935005188,-1.5979797840118408,-2.4355411529541016
1761818109144279800,0.82527978515625,-3.310019016265869,-0.9498968124389648,-3.2233848571777344
1761818109154207700,0.835207763671875,-3.919435739517212,-0.40260258316993713,-3.8729403018951416
1761818109164137000,0.845136962890625,-4.553611755371094,-0.03958036005496979,-4.331325054168701
1761818109174065000,0.85506494140625,-5.1423492431640625,0.27909430861473083,-4.599954605102539
1761818109183993900,0.864993896484375,-5.658006191253662,0.7719407677650452,-4.804239749908447
1761818109193921800,0.874921875,-6.142769813537598,1.4943441152572632,-5.082252502441406
1761818109203849700,0.884849609375,-6.474878311157227,2.179687738418579,-5.461936950683594
1761818109213778700,0.89477880859375,-6.600194454193115,2.7802555561065674,-5.892454624176025
1761818109223706600,0.90470654296875,-6.632238864898682,3.1200332641601562,-6.2932562828063965
1761818109233634800,0.914634765625,-6.462235927581787,2.870882034301758,-6.358439922332764
1761818109243563800,0.924563720703125,-6.053709506988525,2.034588098526001,-5.91819953918457
1761818109253492000,0.934491943359375,-5.4192914962768555,0.7897467613220215,-5.00669527053833
1761818109263421000,0.9444208984375,-4.418125629425049,-0.4311240315437317,-3.59232497215271
1761818109273348900,0.954348876953125,-3.015495777130127,-1.3685476779937744,-1.98097825050354
1761818109283276800,0.96427685546875,-1.5787066221237183,-1.9341487884521484,-0.4519202411174774
1761818109293205800,0.974205810546875,-0.4361060857772827,-2.1905477046966553,0.7896177172660828
1761818109303133700,0.9841337890625,0.45832282304763794,-2.481401205062866,1.5296555757522583
1761818109313063000,0.99406298828125,1.1156005859375,-2.8592052459716797,1.864638328552246
1761818109322990800,1.003990966796875,1.706568956375122,-2.949533700942993,2.1324644088745117
1761818109332918800,1.013918701171875,2.362466335296631,-2.962257146835327,2.4483120441436768
1761818109342847700,1.02384765625,3.1529459953308105,-2.979071617126465,2.9085230827331543
1761818109352776000,1.03377587890625,4.132105827331543,-2.897493839263916,3.557546854019165
1761818109362704600,1.04370458984375,5.143612384796143,-2.602125883102417,4.303699493408203
1761818109372632800,1.0536328125,5.930844783782959,-2.1271839141845703,4.904049873352051
1761818109382560800,1.063560791015625,6.395233631134033,-1.6302207708358765,5.216357707977295
1761818109392490000,1.073489990234375,6.542802810668945,-1.1534757614135742,5.194024085998535
1761818109402418000,1.08341796875,6.506251335144043,-0.71235591173172,4.843883514404297
1761818109412347000,1.093346923828125,6.391477108001709,-0.44402194023132324,4.286044120788574
1761818109422274800,1.10327490234375,6.207948684692383,-0.3392165005207062,3.7163360118865967
1761818109432202800,1.11320263671875,5.942265510559082,-0.3922685384750366,3.1775026321411133
1761818109442131700,1.123131591796875,5.527395725250244,-0.8358042240142822,2.646824359893799
1761818109452059600,1.1330595703125,4.843742847442627,-1.495120644569397,2.199492931365967
1761818109461988900,1.14298876953125,3.783285140991211,-2.1757779121398926,1.8777987957000732
1761818109471916800,1.152916748046875,2.5081565380096436,-3.0491364002227783,1.662649154663086
1761818109481845000,1.162844970703125,1.2735189199447632,-4.156430244445801,1.4812875986099243
1761818109491774000,1.17277392578125,0.2507910132408142,-5.167876720428467,1.241761326789856
1761818109501702000,1.182701904296875,-0.4584680497646332,-5.770280838012695,0.9696946144104004
1761818109511630800,1.192630859375,-0.9819666743278503,-5.792572021484375,0.6639445424079895
1761818109521558800,1.202558837890625,-1.3151209354400635,-5.246387481689453,0.2952621579170227
1761818109531486700,1.21248681640625,-1.4601489305496216,-4.1865715980529785,-0.12693409621715546
1761818109541416000,1.222416015625,-1.4853606224060059,-2.973661422729492,-0.4791150391101837
1761818109551343900,1.23234375,-1.6223900318145752,-1.7379038333892822,-0.6872269511222839
1761818109561272800,1.24227294921875,-1.8925237655639648,-0.8428506851196289,-0.7289130091667175
1761818109571200800,1.25220068359375,-2.2799432277679443,-0.691605269908905,-0.5956284403800964
1761818109581129000,1.26212890625,-2.6310200691223145,-1.1647249460220337,-0.37722086906433105
1761818109591057700,1.2720576171875,-2.8218321800231934,-1.974124789237976,-0.1664860099554062
1761818109600985900,1.28198583984375,-2.8399505615234375,-2.969118595123291,0.009767222218215466
1761818109610914800,1.291914794921875,-2.759284734725952,-4.097933769226074,0.17180460691452026
1761818109620843000,1.301843017578125,-2.801670789718628,-4.788878440856934,0.4148584306240082
1761818109630771000,1.31177099609375,-3.027716636657715,-5.281495571136475,0.6389405131340027
1761818109640700000,1.321699951171875,-3.365382432937622,-5.474771022796631,0.7880907654762268
1761818109650627800,1.3316279296875,-3.712940216064453,-5.268009185791016,0.8887563943862915
1761818109660556800,1.341556884765625,-3.909503221511841,-4.572942733764648,0.8812980651855469
1761818109670484700,1.351484619140625,-3.9356958866119385,-3.4994187355041504,0.6966429948806763
1761818109680412700,1.36141259765625,-3.8767077922821045,-2.547844648361206,0.3728603720664978
1761818109690341600,1.371341552734375,-3.8096275329589844,-2.094364643096924,0.015839673578739166
1761818109700269800,1.381269775390625,-3.5837574005126953,-2.085069179534912,-0.22763726115226746
1761818109710198800,1.39119873046875,-3.171038866043091,-2.2824220657348633,-0.310128390789032
1761818109720127000,1.401126953125,-2.7295031547546387,-2.615262269973755,-0.3160788416862488
1761818109730055000,1.411054931640625,-2.345078468322754,-2.7968649864196777,-0.28131046891212463
1761818109739984000,1.42098388671875,-1.9757745265960693,-2.781435966491699,-0.20463398098945618
1761818109749911800,1.430911865234375,-1.4974955320358276,-2.754462242126465,-0.11305505782365799
1761818109759839700,1.44083984375,-0.9127604961395264,-2.7774863243103027,-0.09241337329149246
1761818109769768700,1.450768798828125,-0.17235060036182404,-2.918067693710327,-0.2567916512489319
1761818109779697000,1.46069677734375,0.8214238882064819,-2.9830563068389893,-0.6548289060592651
1761818109789625900,1.4706259765625,1.878958821296692,-2.586787223815918,-1.2381664514541626
1761818109799553800,1.4805537109375,3.021594524383545,-1.731184482574463,-1.9587867259979248
1761818109809482000,1.49048193359375,4.125408172607422,-0.6732498407363892,-2.70474910736084
1761818109819410700,1.50041064453125,4.9153733253479,0.11469672620296478,-3.356281042098999
1761818109829339000,1.5103388671875,5.218435764312744,0.5120430588722229,-3.8790485858917236
1761818109839267800,1.520267822265625,4.942625045776367,0.4417089819908142,-4.199166774749756
1761818109849195800,1.53019580078125,4.162527561187744,-0.17884854972362518,-4.1446757316589355
1761818109859123700,1.540123779296875,3.060858964920044,-1.264266848564148,-3.567859172821045
1761818109869053000,1.550052978515625,1.9004864692687988,-2.342689037322998,-2.4434914588928223
1761818109878980900,1.55998095703125,0.8907766938209534,-2.968020439147949,-0.9752818942070007
1761818109888909800,1.569909912109375,0.25096559524536133,-3.03354811668396,0.3207140266895294
1761818109898837800,1.579837646484375,0.048661213368177414,-2.745182991027832,0.9997434616088867
1761818109908765700,1.589765625,0.0013411014806479216,-2.1788363456726074,1.1500040292739868
1761818109918694700,1.599694580078125,-0.07006990164518356,-1.5236589908599854,1.0604192018508911
1761818109928622800,1.609622802734375,-0.33963853120803833,-0.8874237537384033,0.9784629344940186
1761818109938551800,1.6195517578125,-0.8739722371101379,-0.40365996956825256,1.0761103630065918
1761818109948480000,1.62947998046875,-1.610530972480774,-0.01353376917541027,1.35797119140625
1761818109958408000,1.639407958984375,-2.402423858642578,0.23330391943454742,1.646894931793213
1761818109968337000,1.6493369140625,-3.074337959289551,0.2862589955329895,1.8377043008804321
1761818109978264800,1.659264892578125,-3.526895046234131,0.26357173919677734,1.9654427766799927
1761818109988193800,1.66919384765625,-3.7583487033843994,0.2260826826095581,2.0641493797302246
1761818109998121700,1.679121826171875,-3.820540189743042,0.21224018931388855,2.1195297241210938
1761818110008049700,1.689049560546875,-3.7997214794158936,0.25742098689079285,2.128326177597046
1761818110017979000,1.698978759765625,-3.73771333694458,0.4089810848236084,2.07779598236084
1761818110027907600,1.708907470703125,-3.61940598487854,0.5887817740440369,1.996924877166748
1761818110037836500,1.71883642578125,-3.462465763092041,0.7724003791809082,1.8898591995239258
1761818110047764500,1.728764404296875,-3.2835910320281982,0.9743564128875732,1.7609204053878784
1761818110057692400,1.7386923828125,-3.0531837940216064,1.1197320222854614,1.5969953536987305
1761818110067621600,1.74862158203125,-2.7028586864471436,1.0732507705688477,1.3572930097579956
1761818110077549600,1.758549560546875,-2.2476067543029785,0.8520799279212952,1.0251786708831787
1761818110087478500,1.768478515625,-1.743980050086975,0.5505104660987854,0.6452076435089111
1761818110097406700,1.77840673828125,-1.2214808464050293,0.2606537938117981,0.25221484899520874
1761818110107334700,1.788334716796875,-0.7263879179954529,0.019007612019777298,-0.10493423044681549
1761818110117263600,1.798263671875,-0.304269015789032,-0.1827106922864914,-0.4182646870613098
1761818110127191600,1.808191650390625,0.10032986849546432,-0.45089098811149597,-0.6516720652580261
1761818110137120800,1.818120849609375,0.5528525710105896,-0.828090250492096,-0.799534261226654
1761818110147048700,1.828048583984375,1.0687898397445679,-1.2725414037704468,-0.8919323086738586
1761818110156976600,1.8379765625,1.63065767288208,-1.6348952054977417,-0.932894766330719
1761818110166905600,1.847905517578125,2.23081111907959,-1.731674313545227,-0.9946239590644836
1761818110176833500,1.85783349609375,2.873983144760132,-1.540631890296936,-1.1054396629333496
1761818110186762500,1.867762451171875,3.5009689331054688,-0.9878975749015808,-1.2689039707183838
1761818110196690400,1.8776904296875,4.013311386108398,-0.12423942238092422,-1.5468783378601074
1761818110206618600,1.88761865234375,4.401352882385254,0.7995078563690186,-1.9353080987930298
1761818110216547800,1.8975478515625,4.670910358428955,1.402734637260437,-2.3599486351013184
1761818110226475800,1.907475830078125,4.697671413421631,1.6166913509368896,-2.680163860321045
1761818110236404700,1.91740478515625,4.452990531921387,1.3562464714050293,-2.7387750148773193
1761818110246332700,1.927332763671875,3.9248523712158203,0.454135000705719,-2.448155641555786
1761818110256260600,1.937260498046875,3.122657060623169,-0.8050543069839478,-1.8045440912246704
1761818110266189600,1.947189453125,2.2773118019104004,-1.8908600807189941,-0.8710964918136597
1761818110276117500,1.957117431640625,1.6678451299667358,-2.4344544410705566,0.019656725227832794
1761818110286046500,1.96704638671875,1.3143881559371948,-2.33479642868042,0.524020791053772
1761818110295974700,1.976974609375,1.18944251537323,-1.5736695528030396,0.5407738089561462
1761818110305902600,1.986902587890625,1.1766412258148193,-0.41519659757614136,0.14140509068965912
1761818110315831600,1.99683154296875,0.9934289455413818,0.6459014415740967,-0.3957913815975189
1761818110325759700,2.006759765625,0.5127568244934082,1.067343831062317,-0.7011672854423523
1761818110335688700,2.016688720703125,-0.2540321946144104,0.8040567636489868,-0.5719650387763977
1761818110345616600,2.02661669921875,-1.2040072679519653,0.20525245368480682,-0.05121639743447304
1761818110355544600,2.036544677734375,-2.110405921936035,-0.24515928328037262,0.6427982449531555
1761818110365473500,2.0464736328125,-2.7270100116729736,-0.4825265407562256,1.2267242670059204
1761818110375401700,2.056401611328125,-3.0153019428253174,-0.5125343203544617,1.5987765789031982
1761818110385330700,2.06633056640625,-3.0753698348999023,-0.2825690507888794,1.736129879951477
1761818110395258600,2.076258544921875,-3.0103766918182373,0.04878583922982216,1.671356201171875
1761818110405186600,2.0861865234375,-2.9151594638824463,0.34303584694862366,1.5127055644989014
1761818110415115500,2.096115478515625,-2.8335814476013184,0.5565323233604431,1.350642442703247
1761818110425043500,2.10604345703125,-2.7606706619262695,0.6546130776405334,1.215102195739746
1761818110434972400,2.115972412109375,-2.6809182167053223,0.6709674596786499,1.0802767276763916
1761818110444900600,2.125900634765625,-2.6035568714141846,0.6873270273208618,0.9649099707603455
1761818110454828500,2.13582861328125,-2.5632262229919434,0.7455344200134277,0.8650036454200745
1761818110464757800,2.1457578125,-2.5355210304260254,0.8843756318092346,0.7909908890724182
1761818110474685700,2.155685791015625,-2.459249973297119,1.0245990753173828,0.7133113145828247
1761818110484614700,2.16561474609375,-2.3083338737487793,1.1005582809448242,0.5986360907554626
1761818110494542600,2.17554248046875,-2.071326732635498,1.1070008277893066,0.44701430201530457
1761818110504470500,2.185470458984375,-1.7124203443527222,1.056835651397705,0.25540491938591003
1761818110514399500,2.1953994140625,-1.2288233041763306,0.9774807691574097,-0.018311016261577606
1761818110524327400,2.205327392578125,-0.6669005751609802,0.8383820056915283,-0.3597879409790039
1761818110534255600,2.215255615234375,-0.0650591030716896,0.5642107129096985,-0.6554494500160217
1761818110544184600,2.2251845703125,0.5856238603591919,0.09920123219490051,-0.852389395236969
1761818110554112800,2.23511279296875,1.237493872642517,-0.4829006791114807,-0.9219912886619568
1761818110564041700,2.245041748046875,1.8646336793899536,-1.011635184288025,-0.8578948378562927
1761818110573969700,2.2549697265625,2.4244611263275146,-1.4127041101455688,-0.7670627236366272
1761818110583897600,2.264897705078125,2.8941235542297363,-1.6524436473846436,-0.7089805006980896
1761818110593826600,2.27482666015625,3.26208233833313,-1.6865577697753906,-0.6928210258483887
1761818110603754500,2.28475439453125,3.519489049911499,-1.4980502128601074,-0.7562292814254761
1761818110613683700,2.29468359375,3.686006784439087,-1.1568284034729004,-0.9452993869781494
1761818110623611600,2.304611572265625,3.845266103744507,-0.7432184815406799,-1.2328057289123535
1761818110633539600,2.31453955078125,4.068035125732422,-0.40744853019714355,-1.536522626876831
1761818110643468500,2.324468505859375,4.369222640991211,-0.3117627501487732,-1.7635509967803955
1761818110653396500,2.334396484375,4.613735675811768,-0.39799776673316956,-1.8379842042922974
1761818110663325400,2.344325439453125,4.59288215637207,-0.6981263756752014,-1.7826671600341797
1761818110673253600,2.354253662109375,4.12338399887085,-0.9879815578460693,-1.5778908729553223
1761818110683181600,2.364181640625,3.169984817504883,-1.1125749349594116,-1.1977590322494507
1761818110693110800,2.37411083984375,1.9636831283569336,-1.0967961549758911,-0.6365412473678589
1761818110703038700,2.384038818359375,0.8557829856872559,-0.9525108933448792,0.003525017760694027
1761818110712967700,2.3939677734375,0.051287416368722916,-0.7715270519256592,0.5963711142539978
1761818110722895600,2.4038955078125,-0.46472081542015076,-0.545680046081543,1.0338841676712036
1761818110732823600,2.413823486328125,-0.9439637660980225,-0.23335827887058258,1.292207956314087
1761818110742752500,2.42375244140625,-1.4761056900024414,0.04637110233306885,1.3659892082214355
1761818110752680400,2.433680419921875,-2.0707130432128906,0.2683230936527252,1.2819154262542725
1761818110762609700,2.443609619140625,-2.5937628746032715,0.4150558114051819,1.167922854423523
1761818110772537600,2.45353759765625,-2.9126644134521484,0.4833151698112488,1.1132763624191284
1761818110782465800,2.4634658203125,-3.047353982925415,0.43919217586517334,1.1667643785476685
1761818110792394800,2.473394775390625,-3.108734607696533,0.36436182260513306,1.3268924951553345
1761818110802322700,2.48332275390625,-3.1455960273742676,0.28929901123046875,1.5079078674316406
1761818110812250600,2.493250732421875,-3.144578695297241,0.22464124858379364,1.657426118850708
1761818110822179600,2.5031796875,-3.092702627182007,0.18405547738075256,1.7228487730026245
1761818110832107500,2.513107421875,-2.9817376136779785,0.18650907278060913,1.6973596811294556
1761818110842036700,2.52303662109375,-2.8280868530273438,0.28087127208709717,1.5935693979263306
1761818110851964700,2.532964599609375,-2.6723499298095703,0.4461481273174286,1.4404399394989014
1761818110861892600,2.542892578125,-2.533111333847046,0.6311984062194824,1.2857393026351929
1761818110871821600,2.552821533203125,-2.3847081661224365,0.8212864995002747,1.1227748394012451
1761818110881749500,2.56274951171875,-2.222512722015381,1.0098812580108643,0.9268562197685242
1761818110891678500,2.572678466796875,-2.0161328315734863,1.195678949356079,0.7061800360679626
1761818110901606700,2.582606689453125,-1.7135356664657593,1.3609784841537476,0.4528481662273407
1761818110911534600,2.59253466796875,-1.3212428092956543,1.4673012495040894,0.1226280927658081
1761818110921463800,2.6024638671875,-0.8941766619682312,1.4520533084869385,-0.28376683592796326
1761818110931391700,2.612391845703125,-0.4167614281177521,1.2725396156311035,-0.6726794242858887
1761818110941320700,2.62232080078125,0.0877733826637268,0.8396495580673218,-0.9112709164619446
1761818110951248600,2.63224853515625,0.5951449275016785,0.2211744487285614,-0.9641290903091431
1761818110961176600,2.642176513671875,1.0787200927734375,-0.4534687101840973,-0.8940016627311707
1761818110971105500,2.65210546875,1.5382626056671143,-1.0515984296798706,-0.7520255446434021
1761818110981033500,2.662033447265625,1.982861876487732,-1.5240442752838135,-0.5993435978889465
1761818110990961700,2.671961669921875,2.4025323390960693,-1.8125481605529785,-0.497097909450531
1761818111000890600,2.681890625,2.7769367694854736,-1.8659123182296753,-0.49604034423828125
1761818111010818800,2.69181884765625,3.0902435779571533,-1.618454098701477,-0.6108843088150024
1761818111020747800,2.701747802734375,3.3914389610290527,-1.1445459127426147,-0.8440158367156982
1761818111030675500,2.711675537109375,3.688469648361206,-0.5692074298858643,-1.1586405038833618
1761818111040603400,2.721603271484375,4.022891044616699,-0.0379856713116169,-1.493822693824768
1761818111050532600,2.73153271484375,4.371674537658691,0.35910436511039734,-1.7389386892318726
1761818111060460500,2.74146044921875,4.593446254730225,0.5389686822891235,-1.8273528814315796
1761818111070389500,2.751389404296875,4.550221920013428,0.45453304052352905,-1.7685108184814453
1761818111080317400,2.7613173828125,4.188267230987549,0.15373991429805756,-1.5951178073883057
1761818111090245400,2.771245361328125,3.5394206047058105,-0.4402117431163788,-1.3470635414123535
1761818111100174300,2.78117431640625,2.669426679611206,-1.1070157289505005,-0.9959469437599182
1761818111110102500,2.7911025390625,1.678650140762329,-1.6000727415084839,-0.5794609785079956
1761818111120031500,2.801031494140625,0.8115864396095276,-1.8876630067825317,-0.10824952274560928
1761818111129959700,2.810959716796875,0.29844146966934204,-1.6718546152114868,0.3091789782047272
1761818111139887600,2.8208876953125,-0.04164924845099449,-0.9806593656539917,0.5592207908630371
1761818111149816600,2.830816650390625,-0.4341011941432953,-0.09733227640390396,0.5809628367424011
1761818111159744500,2.84074462890625,-0.952608048915863,0.6220855712890625,0.4731311798095703
1761818111169672400,2.85067236328125,-1.600716233253479,1.281604290008545,0.2164233773946762
1761818111179601400,2.860601318359375,-2.3146486282348633,1.768369436264038,0.028367191553115845
1761818111189529300,2.870529296875,-2.910088300704956,1.9071396589279175,0.12204045057296753
1761818111199458600,2.88045849609375,-3.300302267074585,1.6728698015213013,0.44810882210731506
1761818111209386500,2.890386474609375,-3.5101444721221924,1.2214491367340088,0.8722280859947205
1761818111219314700,2.900314697265625,-3.5491576194763184,0.673901379108429,1.267896294593811
1761818111229243400,2.910243408203125,-3.4570939540863037,0.18510988354682922,1.531324028968811
1761818111239171600,2.920171630859375,-3.3242249488830566,-0.16664814949035645,1.6534243822097778
1761818111249100500,2.9301005859375,-3.1927618980407715,-0.34301289916038513,1.6672378778457642
1761818111259028500,2.940028564453125,-3.075787305831909,-0.31665295362472534,1.602121353149414
1761818111268956400,2.949956298828125,-2.9530189037323,-0.1233525350689888,1.4565541744232178
1761818111278885600,2.9598857421875,-2.833998680114746,0.10011064261198044,1.2398191690444946
1761818111288813600,2.9698134765625,-2.715850353240967,0.3393639028072357,0.9980630874633789
1761818111298741500,2.979741455078125,-2.56660795211792,0.642426073551178,0.7640079855918884
1761818111308670500,2.98967041015625,-2.3831560611724854,0.9653134942054749,0.5597608089447021
1761818111318598400,2.999598388671875,-2.137000322341919,1.2586692571640015,0.3890056014060974
1761818111328527400,3.00952734375,-1.8294141292572021,1.4721492528915405,0.24020931124687195
1761818111338455600,3.01945556640625,-1.4764560461044312,1.5624994039535522,0.11399251967668533
1761818111348383500,3.029383544921875,-1.068250060081482,1.449615716934204,0.004952861927449703
1761818111358312700,3.039312744140625,-0.6715540289878845,1.1826125383377075,-0.10130087286233902
1761818111368240600,3.04924072265625,-0.284633606672287,0.7857115268707275,-0.21738532185554504
1761818111378168600,3.05916845703125,0.11080612987279892,0.26655566692352295,-0.3093370795249939
1761818111388097500,3.06909765625,0.5457968711853027,-0.2680323123931885,-0.33416861295700073
1761818111398025500,3.079025390625,1.0150660276412964,-0.7671598196029663,-0.31497281789779663
1761818111407954400,3.088954345703125,1.5023832321166992,-1.1316940784454346,-0.2955743074417114
1761818111417882400,3.09888232421875,1.990446925163269,-1.3086763620376587,-0.3323379158973694
1761818111427810300,3.108810302734375,2.421377182006836,-1.293838620185852,-0.45338761806488037
1761818111437739500,3.118739501953125,2.7431702613830566,-1.086806297302246,-0.6819579005241394
1761818111447667700,3.128667724609375,3.0153205394744873,-0.7246947884559631,-1.0246737003326416
1761818111457595600,3.138595703125,3.2845537662506104,-0.3406912088394165,-1.4037091732025146
1761818111467524600,3.148524658203125,3.58520245552063,-0.0000618105405010283,-1.6993778944015503
1761818111477452500,3.15845263671875,3.8748579025268555,0.26651182770729065,-1.9173225164413452
1761818111487381500,3.168381591796875,4.078186511993408,0.3302014172077179,-2.1080548763275146
1761818111497309400,3.178309326171875,4.167043685913086,0.045986201614141464,-2.245750904083252
1761818111507237400,3.1882373046875,4.076761245727539,-0.4196872115135193,-2.207656145095825
1761818111517166300,3.198166259765625,3.599730968475342,-0.7151628136634827,-1.9547775983810425
1761818111527094500,3.208094482421875,2.745070219039917,-0.7354470491409302,-1.51958167552948
1761818111537023500,3.2180234375,1.7352161407470703,-0.47425833344459534,-0.989745020866394
1761818111546951400,3.227951416015625,0.8023112416267395,-0.04911607503890991,-0.5869815349578857
1761818111556879600,3.237879638671875,0.1334654986858368,0.3605119287967682,-0.3790552616119385
1761818111566808600,3.24780859375,-0.20282064378261566,0.7188129425048828,-0.36042898893356323
1761818111576736500,3.257736572265625,-0.5386902689933777,1.035762071609497,-0.39227721095085144
1761818111586664400,3.26766455078125,-1.0701887607574463,1.1953456401824951,-0.3143690228462219
1761818111596593400,3.277593505859375,-1.7302827835083008,1.2521748542785645,-0.18054412305355072
1761818111606521600,3.287521484375,-2.385693073272705,1.2535765171051025,0.03457297757267952
1761818111616450600,3.297450439453125,-2.867995023727417,1.219169020652771,0.3609555959701538
1761818111626378500,3.30737841796875,-3.112487554550171,1.202565312385559,0.7594359517097473
1761818111636306400,3.317306396484375,-3.1319284439086914,1.1407440900802612,1.1132715940475464
1761818111646235400,3.3272353515625,-3.030945062637329,1.0526130199432373,1.3727242946624756
1761818111656163300,3.337163330078125,-2.9211723804473877,0.9174051284790039,1.5593876838684082
1761818111666091500,3.347091552734375,-2.831430673599243,0.7599433660507202,1.6884533166885376
1761818111676020500,3.3570205078125,-2.74318265914917,0.5896971225738525,1.7535194158554077
1761818111685948700,3.36694873046875,-2.6144001483917236,0.44005945324897766,1.7648842334747314
1761818111695876600,3.376876708984375,-2.4572904109954834,0.2703319489955902,1.6985472440719604
1761818111705805600,3.3868056640625,-2.316035747528076,0.13920342922210693,1.5727696418762207
1761818111715733500,3.3967333984375,-2.2020206451416016,0.18795977532863617,1.4071218967437744
1761818111725662500,3.406662353515625,-2.109891653060913,0.42706677317619324,1.2072103023529053
1761818111735590400,3.41659033203125,-2.0261316299438477,0.7986423969268799,0.9997719526290894
1761818111745518300,3.426518310546875,-1.893013596534729,1.1817986965179443,0.7994781136512756
1761818111755447300,3.436447265625,-1.6933034658432007,1.4504435062408447,0.5929619669914246
1761818111765375500,3.44637548828125,-1.4294724464416504,1.5662049055099487,0.3775668442249298
1761818111775303700,3.4563037109375,-1.0871411561965942,1.500726580619812,0.14818799495697021
1761818111785232600,3.466232666015625,-0.6592737436294556,1.2290364503860474,-0.11313624680042267
1761818111795160600,3.47616064453125,-0.18432612717151642,0.7878194451332092,-0.339561402797699
1761818111805089500,3.486089599609375,0.2829839587211609,0.2629914879798889,-0.4411613643169403
1761818111815017500,3.496017578125,0.7379599809646606,-0.26466166973114014,-0.43560174107551575
1761818111824945400,3.5059453125,1.1882537603378296,-0.7804273366928101,-0.39220130443573
1761818111834874400,3.515874267578125,1.6003007888793945,-1.1896460056304932,-0.3549695312976837
1761818111844802300,3.52580224609375,1.9402071237564087,-1.4913454055786133,-0.372821569442749
1761818111854730500,3.53573046875,2.158057928085327,-1.65516197681427,-0.4563359022140503
1761818111864659500,3.545659423828125,2.2813704013824463,-1.692076325416565,-0.6122942566871643
1761818111874587600,3.555587646484375,2.405148506164551,-1.6358073949813843,-0.8144868016242981
1761818111884516400,3.565516357421875,2.568227529525757,-1.4602959156036377,-1.0233806371688843
1761818111894444500,3.575444580078125,2.7568917274475098,-1.2086455821990967,-1.233054518699646
1761818111904372500,3.58537255859375,2.9757046699523926,-0.9767658710479736,-1.4318938255310059
1761818111914301400,3.595301513671875,3.236908435821533,-0.8263846635818481,-1.579591155052185
1761818111924229400,3.6052294921875,3.548581123352051,-0.8000296950340271,-1.65749192237854
1761818111934157600,3.615157470703125,3.882141590118408,-0.8979597091674805,-1.6492912769317627
1761818111944086500,3.62508642578125,4.064911365509033,-1.0785871744155884,-1.5759352445602417
1761818111954014500,3.635014404296875,3.9936838150024414,-1.3176361322402954,-1.4198068380355835
1761818111963943400,3.644943359375,3.6500301361083984,-1.5963293313980103,-1.2149826288223267
1761818111973871400,3.654871337890625,3.0708792209625244,-1.805483341217041,-0.9734364151954651
1761818111983799600,3.664799560546875,2.2875020503997803,-1.7961841821670532,-0.7189853191375732
1761818111993728500,3.674728515625,1.4515732526779175,-1.5105856657028198,-0.4939633905887604
1761818112003656400,3.684656494140625,0.7709293961524963,-1.0295509099960327,-0.2974596917629242
1761818112013584400,3.69458447265625,0.34462597966194153,-0.4319152235984802,-0.1303013265132904
1761818112023513600,3.704513671875,0.01624152995646,0.14243222773075104,0.019079256802797318
1761818112033441800,3.71444189453125,-0.43657201528549194,0.653195321559906,0.20488986372947693
1761818112043369700,3.72436962890625,-1.0518733263015747,0.9543558359146118,0.4177309274673462
1761818112053298700,3.734298583984375,-1.7393829822540283,1.035574197769165,0.5933613181114197
1761818112063226600,3.7442265625,-2.357558250427246,0.9915493726730347,0.7531720399856567
1761818112073155600,3.754155517578125,-2.7615530490875244,0.8726911544799805,0.9094780087471008
1761818112083083500,3.76408349609375,-2.9248077869415283,0.713546633720398,1.0804719924926758
1761818112093012000,3.774011962890625,-2.9312174320220947,0.6071363091468811,1.2498383522033691
1761818112102940700,3.783940673828125,-2.8816025257110596,0.6096765398979187,1.3840097188949585
1761818112112868900,3.793868896484375,-2.811940908432007,0.6943850517272949,1.4427834749221802
1761818112122796800,3.803796875,-2.721451997756958,0.7939073443412781,1.4582935571670532
1761818112132725800,3.813725830078125,-2.642025947570801,0.8980662822723389,1.4623445272445679
1761818112142653700,3.82365380859375,-2.5589802265167236,0.9967687129974365,1.4619313478469849
1761818112152581600,3.83358154296875,-2.465869188308716,1.0778958797454834,1.436801791191101
1761818112162510600,3.843510498046875,-2.3511252403259277,1.1361607313156128,1.3575091361999512
1761818112172438800,3.853438720703125,-2.1917307376861572,1.1352049112319946,1.2022793292999268
1761818112182367700,3.86336767578125,-1.97951340675354,1.068573236465454,0.9928033947944641
1761818112192295700,3.873295654296875,-1.7092872858047485,0.9941081404685974,0.7646434903144836
1761818112202223900,3.883223876953125,-1.40056574344635,0.9178288578987122,0.5329059362411499
1761818112212152800,3.89315283203125,-1.0510591268539429,0.8206983208656311,0.31626948714256287
1761818112222080800,3.903080810546875,-0.6548638939857483,0.6749473810195923,0.0886368677020073
1761818112232008700,3.9130087890625,-0.22781455516815186,0.4690546691417694,-0.1497860848903656
1761818112241937700,3.922937744140625,0.21296030282974243,0.23194850981235504,-0.3832642436027527
1761818112251865600,3.932865478515625,0.6793946027755737,-0.014751290902495384,-0.5693550109863281
1761818112261793800,3.942793701171875,1.1446058750152588,-0.25315937399864197,-0.6960881352424622
1761818112271722800,3.95272265625,1.599507451057434,-0.5077493190765381,-0.7911427021026611
1761818112281650700,3.962650634765625,2.012671709060669,-0.7419339418411255,-0.8827892541885376
1761818112291579600,3.97257958984375,2.3447110652923584,-0.9207298159599304,-0.9901236891746521
1761818112301507600,3.982507568359375,2.585347890853882,-1.0360273122787476,-1.1250641345977783
1761818112311435800,3.992435791015625,2.7560832500457764,-1.0690901279449463,-1.3055546283721924
1761818112321364700,4.00236474609375,2.9169232845306396,-1.041612148284912,-1.539182186126709
1761818112331292700,4.012292724609375,3.0995588302612305,-0.9334496259689331,-1.7839258909225464
1761818112341220900,4.022220947265625,3.326598882675171,-0.7095280885696411,-2.029541254043579
1761818112351149800,4.03214990234375,3.6103029251098633,-0.542540431022644,-2.2571353912353516
1761818112361077800,4.042077880859375,3.929231643676758,-0.6170101761817932,-2.4168434143066406
1761818112371005700,4.052005615234375,4.141201019287109,-0.9314165711402893,-2.4134976863861084
1761818112380934700,4.0619345703125,4.037742614746094,-1.337066888809204,-2.2101011276245117
1761818112390862600,4.071862548828125,3.5410208702087402,-1.5665695667266846,-1.872340202331543
1761818112400791600,4.08179150390625,2.7098941802978516,-1.484677791595459,-1.3386043310165405
1761818112410719700,4.0917197265625,1.7426671981811523,-1.0423805713653564,-0.7641791701316833
1761818112420648000,4.10164794921875,0.8282036781311035,-0.462435781955719,-0.29030466079711914
1761818112430577000,4.111576904296875,0.10957598686218262,-0.07988440990447998,0.14516718685626984
1761818112440504800,4.1215048828125,-0.43450725078582764,0.11645746976137161,0.4774240255355835
1761818112450432800,4.131432861328125,-0.9790738821029663,0.15513908863067627,0.7609913349151611
1761818112460361700,4.14136181640625,-1.683245301246643,0.22179090976715088,0.9127343893051147
1761818112470289700,4.15128955078125,-2.3749213218688965,0.32054784893989563,1.0329279899597168
1761818112480217600,4.161217529296875,-2.8529796600341797,0.37640634179115295,1.1678053140640259
1761818112490146600,4.171146484375,-3.0918707847595215,0.44519710540771484,1.2855678796768188
1761818112500074800,4.18107470703125,-3.1601402759552,0.5960558652877808,1.3842952251434326
1761818112510003700,4.191003662109375,-3.14949893951416,0.7204805612564087,1.5063897371292114
1761818112519932000,4.200931884765625,-3.0753045082092285,0.7679339647293091,1.616205096244812
1761818112529859800,4.21085986328125,-2.983182907104492,0.7731537818908691,1.7048499584197998
1761818112539788800,4.220788818359375,-2.8828647136688232,0.7619116306304932,1.755223035812378
1761818112549716700,4.230716796875,-2.7719364166259766,0.687063455581665,1.739077091217041
1761818112559644700,4.240644775390625,-2.655305862426758,0.5759932398796082,1.6734585762023926
1761818112569573600,4.25057373046875,-2.5310304164886475,0.5027890801429749,1.5516586303710938
1761818112579501600,4.26050146484375,-2.395040273666382,0.5005761981010437,1.3703064918518066
1761818112589429800,4.2704296875,-2.2523367404937744,0.581251323223114,1.1384236812591553
1761818112599358700,4.280358642578125,-2.1179165840148926,0.699809193611145,0.8783485889434814
1761818112609287000,4.290286865234375,-1.9532145261764526,0.842896580696106,0.6227937936782837
1761818112619214800,4.30021484375,-1.734449028968811,1.0121945142745972,0.3793800473213196
1761818112629143800,4.310143798828125,-1.4620057344436646,1.180067777633667,0.15275171399116516
1761818112639071700,4.32007177734375,-1.0804448127746582,1.2451163530349731,-0.06253314763307571
1761818112649000700,4.330000732421875,-0.5673190951347351,1.0924679040908813,-0.28854283690452576
1761818112658928600,4.3399287109375,0.02868473529815674,0.7081813812255859,-0.4837862551212311
1761818112668856800,4.34985693359375,0.6422181725502014,0.14237180352210999,-0.6216975450515747
1761818112678785800,4.359785888671875,1.2024023532867432,-0.486155241727829,-0.6829971075057983
1761818112688713700,4.369713623046875,1.703587293624878,-1.0489922761917114,-0.7023885250091553
1761818112698641700,4.3796416015625,2.1023097038269043,-1.527553677558899,-0.7468920946121216
1761818112708570600,4.389570556640625,2.397986888885498,-1.838006854057312,-0.8442487120628357
1761818112718498800,4.399498779296875,2.6090762615203857,-1.8945902585983276,-1.0034775733947754
1761818112728426800,4.4094267578125,2.783780574798584,-1.659548282623291,-1.2198128700256348
1761818112738355700,4.419355712890625,2.981980323791504,-1.0840661525726318,-1.4777480363845825
1761818112748283600,4.42928369140625,3.2850208282470703,-0.2662658989429474,-1.806015133857727
1761818112758212900,4.439212890625,3.6803414821624756,0.5819234251976013,-2.1915955543518066
1761818112768140800,4.449140869140625,4.067708492279053,1.1660957336425781,-2.544980525970459
1761818112778068700,4.45906884765625,4.295995712280273,1.1529237031936646,-2.7519850730895996
1761818112787997700,4.468997802734375,4.183023929595947,0.5912824273109436,-2.7334887981414795
1761818112797925600,4.478925537109375,3.6554160118103027,-0.3164331316947937,-2.4122731685638428
1761818112807853800,4.488853759765625,2.743276357650757,-1.267038345336914,-1.7646843194961548
1761818112817782500,4.498782470703125,1.677072525024414,-1.9869986772537231,-0.9178282022476196
1761818112827710700,4.508710693359375,0.7800444960594177,-2.179201364517212,-0.15888744592666626
1761818112837639000,4.518638916015625,0.2070726454257965,-1.869269609451294,0.3474276065826416
1761818112847568000,4.52856787109375,-0.1124398335814476,-1.1950565576553345,0.555859386920929
1761818112857495800,4.538495849609375,-0.3863535523414612,-0.25255683064460754,0.5493755340576172
1761818112867423700,4.548423828125,-0.8169422149658203,0.7231513261795044,0.47532978653907776
1761818112877352700,4.558352783203125,-1.4115002155303955,1.4547120332717896,0.4532451331615448
1761818112887280600,4.56828076171875,-2.013826608657837,1.8671482801437378,0.596582293510437
1761818112897209600,4.578209716796875,-2.468345880508423,1.952353835105896,0.861900269985199
1761818112907137500,4.588137451171875,-2.728566884994507,1.7589575052261353,1.1593157052993774
1761818112917066000,4.59806591796875,-2.8516550064086914,1.4540995359420776,1.4314680099487305
1761818112926994700,4.60799462890625,-2.9001810550689697,1.1563016176223755,1.6317998170852661
1761818112936923000,4.6179228515625,-2.8841867446899414,0.9082695245742798,1.7590874433517456
1761818112946850800,4.627850830078125,-2.8174006938934326,0.7218865752220154,1.8411740064620972
1761818112956779800,4.63777978515625,-2.7136123180389404,0.6084373593330383,1.8882267475128174
1761818112966707700,4.647707763671875,-2.579484224319458,0.5501498579978943,1.882195234298706
1761818112976635600,4.6576357421875,-2.4187285900115967,0.525799036026001,1.818732500076294
1761818112986564600,4.667564697265625,-2.2567036151885986,0.5534150004386902,1.7125341892242432
1761818112996492500,4.677492431640625,-2.0950028896331787,0.6023995280265808,1.601127028465271
1761818113006420700,4.687420654296875,-1.930014729499817,0.651913583278656,1.4837615489959717
1761818113016349700,4.697349609375,-1.760690689086914,0.6582640409469604,1.3307113647460938
1761818113026278000,4.70727783203125,-1.5765410661697388,0.6723252534866333,1.1504449844360352
1761818113036206800,4.717206787109375,-1.3652969598770142,0.6585162281990051,0.929799497127533
1761818113046134800,4.727134765625,-1.0827525854110718,0.5839130878448486,0.6698816418647766
1761818113056063000,4.73706298828125,-0.7164351344108582,0.44131040573120117,0.35464510321617126
1761818113065992000,4.746991943359375,-0.2897847592830658,0.19960084557533264,-0.005260348320007324
1761818113075920000,4.756919921875,0.1883646696805954,-0.104115791618824,-0.3794223666191101
1761818113085847800,4.766847900390625,0.6831831932067871,-0.46594351530075073,-0.7307531833648682
1761818113095776800,4.77677685546875,1.1583279371261597,-0.8160139918327332,-0.9830936789512634
1761818113105704700,4.78670458984375,1.6046031713485718,-1.1048513650894165,-1.1480464935302734
1761818113115633000,4.7966328125,2.0222063064575195,-1.3515266180038452,-1.2467458248138428
1761818113125561600,4.8065615234375,2.4027693271636963,-1.4798901081085205,-1.308836579322815
1761818113135490000,4.816489990234375,2.7196335792541504,-1.4294288158416748,-1.3596943616867065
1761818113145418000,4.82641796875,2.9473135471343994,-1.155860424041748,-1.4721721410751343
1761818113155347000,4.836346923828125,3.122598648071289,-0.6914738416671753,-1.6843510866165161
1761818113165275000,4.84627490234375,3.22470760345459,-0.13493627309799194,-1.994209885597229
1761818113175202800,4.856202880859375,3.237692356109619,0.3944428861141205,-2.340090274810791
1761818113185131800,4.8661318359375,3.1368961334228516,0.6962152719497681,-2.674022674560547
1761818113195059700,4.876059814453125,2.9172537326812744,0.5616756081581116,-2.9226207733154297
1761818113204988700,4.88598876953125,2.674644708633423,-0.013383978046476841,-2.9271271228790283
1761818113214916600,4.89591650390625,2.4352974891662598,-0.6774898171424866,-2.6217010021209717
1761818113224845000,4.905844970703125,2.160653591156006,-1.1583456993103027,-2.052527904510498
1761818113234773800,4.915773681640625,1.8202201128005981,-1.3019053936004639,-1.3999824523925781
1761818113244702000,4.925701904296875,1.357494831085205,-1.0501253604888916,-0.8163369297981262
1761818113254630000,4.9356298828125,0.7326449155807495,-0.5162231922149658,-0.34429609775543213
1761818113264558800,4.945558837890625,0.020690318197011948,0.06845144182443619,0.04057382792234421
1761818113274486800,4.95548681640625,-0.6706970930099487,0.5884510278701782,0.3240857720375061
1761818113284414700,4.965414794921875,-1.3028616905212402,0.8928977251052856,0.5300546288490295
1761818113294343700,4.97534375,-1.8513394594192505,0.9318336844444275,0.7781636118888855
1761818113304272000,4.98527197265625,-2.2712209224700928,0.8354421854019165,1.125615119934082
1761818113314199800,4.99519970703125,-2.533263683319092,0.6768046021461487,1.5028587579727173
1761818113324128800,5.005128662109375,-2.67804217338562,0.53518146276474,1.8172966241836548
1761818113334057000,5.015056884765625,-2.7425177097320557,0.45346716046333313,2.022984504699707
1761818113343986000,5.02498583984375,-2.743407964706421,0.39335936307907104,2.105053424835205
1761818113353913900,5.034913818359375,-2.7093899250030518,0.3323664665222168,2.102670907974243
1761818113363841800,5.044841796875,-2.6467113494873047,0.2936675250530243,2.0420567989349365
1761818113373770800,5.054770751953125,-2.56042742729187,0.27472200989723206,1.9559489488601685
1761818113383699000,5.064698974609375,-2.44053316116333,0.272328644990921,1.8464876413345337
1761818113393627000,5.074626953125,-2.2845981121063232,0.2773324251174927,1.7151492834091187
1761818113403555800,5.084555908203125,-2.0928304195404053,0.2813202440738678,1.563671350479126
1761818113413483800,5.09448388671875,-1.8995673656463623,0.28633615374565125,1.3945990800857544
1761818113423412000,5.104411865234375,-1.7114249467849731,0.30601799488067627,1.1986738443374634
1761818113433340700,5.114340576171875,-1.517088532447815,0.33397409319877625,0.9764590263366699
1761818113443268900,5.124268798828125,-1.2999076843261719,0.3630920350551605,0.750802755355835
1761818113453196800,5.13419677734375,-1.061037540435791,0.35997533798217773,0.5307366847991943
1761818113463126000,5.1441259765625,-0.7898308634757996,0.29793938994407654,0.317904531955719
1761818113473054000,5.154053955078125,-0.4896935224533081,0.17246058583259583,0.10273526608943939
1761818113482982000,5.16398193359375,-0.1609361171722412,0.00015406066086143255,-0.1089538112282753
1761818113492910800,5.173910888671875,0.22348663210868835,-0.238492950797081,-0.3206363320350647
1761818113502838800,5.1838388671875,0.6786261796951294,-0.4822305142879486,-0.499599426984787
1761818113512767700,5.193767822265625,1.2130097150802612,-0.6502177715301514,-0.6768702268600464
1761818113522695700,5.20369580078125,1.796869158744812,-0.6267294883728027,-0.8860644102096558
1761818113532624000,5.213623779296875,2.3835318088531494,-0.434749960899353,-1.1311503648757935
1761818113542552800,5.223552734375,2.9118611812591553,-0.11646866798400879,-1.3948371410369873
1761818113552481000,5.23348095703125,3.322267770767212,0.25207799673080444,-1.639633297920227
1761818113562409000,5.243408935546875,3.5865366458892822,0.553372323513031,-1.8581323623657227
1761818113572338000,5.253337890625,3.6737372875213623,0.6442976593971252,-2.044984817504883
1761818113582265900,5.263265869140625,3.512083053588867,0.5159245133399963,-2.144503116607666
1761818113592193800,5.27319384765625,3.1055214405059814,0.05509811267256737,-2.1149137020111084
1761818113602122800,5.283122802734375,2.589020013809204,-0.8025587797164917,-1.8789687156677246
1761818113612050700,5.29305078125,2.126211404800415,-1.8240389823913574,-1.3921372890472412
1761818113621979000,5.302978759765625,1.82883620262146,-2.6971120834350586,-0.7761624455451965
1761818113631907800,5.312907958984375,1.7449742555618286,-3.1502952575683594,-0.20494644343852997
1761818113641836000,5.3228359375,1.8089345693588257,-3.0993194580078125,0.22967611253261566
1761818113651764000,5.332763916015625,1.8832858800888062,-2.5329673290252686,0.492258757352829
1761818113661693000,5.34269287109375,1.8265727758407593,-1.6195251941680908,0.5519239902496338
1761818113671620900,5.352620849609375,1.5328929424285889,-0.7318196892738342,0.3968832194805145
1761818113681549800,5.3625498046875,0.9575276970863342,-0.11628270894289017,0.23292624950408936
1761818113691477800,5.372477783203125,0.15024670958518982,0.22659136354923248,0.2590676546096802
1761818113701405700,5.38240576171875,-0.7270102500915527,0.2995705008506775,0.41840484738349915
1761818113711335000,5.3923349609375,-1.4933300018310547,0.2437652051448822,0.5915061831474304
1761818113721262800,5.402262939453125,-2.038729429244995,0.19037334620952606,0.735210120677948
1761818113731191000,5.41219091796875,-2.3474948406219482,0.183813214302063,0.828802227973938
1761818113741119700,5.42211962890625,-2.4543800354003906,0.2721180319786072,0.8977373838424683
1761818113751048000,5.4320478515625,-2.4255735874176025,0.45074430108070374,0.9562838673591614
1761818113760976000,5.441975830078125,-2.3482000827789307,0.6738058924674988,0.9988154172897339
1761818113770904800,5.45190478515625,-2.2786290645599365,0.8330668807029724,1.0297282934188843
1761818113780832800,5.461832763671875,-2.231956958770752,0.8987598419189453,1.0611789226531982
1761818113790760700,5.4717607421875,-2.20854115486145,0.9224485158920288,1.0969685316085815
1761818113800690000,5.48168994140625,-2.1910178661346436,0.8814480900764465,1.1273746490478516
1761818113810617900,5.491617919921875,-2.1654446125030518,0.7823987007141113,1.1622868776321411
1761818113820545800,5.5015458984375,-2.1023430824279785,0.6360987424850464,1.1622772216796875
1761818113830474800,5.511474853515625,-1.9750077724456787,0.46990323066711426,1.1301153898239136
1761818113840403000,5.52140283203125,-1.7630939483642578,0.3064562678337097,1.0469506978988647
1761818113850332000,5.531331787109375,-1.4845647811889648,0.15952065587043762,0.9026983380317688
1761818113860259800,5.541259765625,-1.1388009786605835,0.046668678522109985,0.7064071297645569
1761818113870187800,5.551187744140625,-0.7327808141708374,-0.02102864347398281,0.46760475635528564
1761818113880117000,5.561116943359375,-0.3146783411502838,-0.036516789346933365,0.17933091521263123
1761818113890045000,5.571044921875,0.10348539799451828,0.019722312688827515,-0.13266754150390625
1761818113899972900,5.580972900390625,0.559698760509491,0.05019553005695343,-0.44528430700302124
1761818113909901800,5.59090185546875,1.0249241590499878,-0.0025766510516405106,-0.7243463397026062
1761818113919829800,5.600829833984375,1.4817465543746948,-0.11062189936637878,-0.9282099604606628
1761818113929758000,5.610758056640625,1.9312320947647095,-0.21337398886680603,-1.0901073217391968
1761818113939686700,5.620686767578125,2.353698492050171,-0.23199720680713654,-1.2564870119094849
1761818113949614800,5.63061474609375,2.7117960453033447,-0.113799549639225,-1.4234856367111206
1761818113959542800,5.640542724609375,2.9972124099731445,0.14212970435619354,-1.5564042329788208
1761818113969472000,5.650471923828125,3.184849500656128,0.4468596279621124,-1.672267198562622
1761818113979400000,5.66039990234375,3.2699825763702393,0.656582772731781,-1.7967289686203003
1761818113989328000,5.670327880859375,3.2589871883392334,0.5805500149726868,-1.892521858215332
1761818113999256800,5.6802568359375,3.1277647018432617,0.10261350870132446,-1.8524540662765503
1761818114009184800,5.690184814453125,2.922579765319824,-0.7249425053596497,-1.656997561454773
1761818114019112700,5.70011279296875,2.64941668510437,-1.6805076599121094,-1.3857362270355225
1761818114029041400,5.71004150390625,2.355803966522217,-2.379096746444702,-1.0634676218032837
1761818114038969300,5.71996923828125,2.0229642391204834,-2.550877094268799,-0.7369427680969238
1761818114048898300,5.729898193359375,1.6426175832748413,-2.099067211151123,-0.4968622326850891
1761818114058826200,5.739826171875,1.2198255062103271,-1.1503154039382935,-0.3364824056625366
1761818114068754400,5.74975439453125,0.7589223980903625,0.03017963469028473,-0.2530854046344757
1761818114078683400,5.759683349609375,0.20969785749912262,0.9744089841842651,-0.20419107377529144
1761818114088611300,5.769611328125,-0.4112672805786133,1.363358497619629,-0.050828926265239716
1761818114098539300,5.779539306640625,-1.0731781721115112,1.3657264709472656,0.1319989562034607
1761818114108468200,5.78946826171875,-1.7556174993515015,1.1324243545532227,0.36531203985214233
1761818114118396200,5.799396240234375,-2.3351964950561523,0.8223904371261597,0.6588835120201111
1761818114128324400,5.809324462890625,-2.711137056350708,0.5800655484199524,0.9377872943878174
1761818114138253300,5.81925341796875,-2.877178192138672,0.4208287000656128,1.1483559608459473
1761818114148181500,5.829181396484375,-2.90266752243042,0.3509190082550049,1.3110618591308594
1761818114158109400,5.839109375,-2.869669198989868,0.3914051949977875,1.4133669137954712
1761818114168038400,5.849038330078125,-2.8058907985687256,0.47772008180618286,1.4569580554962158
1761818114177966300,5.85896630859375,-2.728187322616577,0.5847112536430359,1.4554365873336792
1761818114187894300,5.868894287109375,-2.6391806602478027,0.6814574599266052,1.4163100719451904
1761818114197823200,5.8788232421875,-2.5338196754455566,0.7067745327949524,1.3437632322311401
1761818114207751200,5.888751220703125,-2.3935599327087402,0.6763593554496765,1.246066689491272
1761818114217679400,5.898679443359375,-2.235973596572876,0.5564337372779846,1.1504517793655396
1761818114227608300,5.9086083984375,-2.0691258907318115,0.3606131672859192,1.0717054605484009
1761818114237536500,5.91853662109375,-1.8883180618286133,0.09510719031095505,1.0151468515396118
1761818114247465500,5.928465576171875,-1.6904247999191284,-0.20351845026016235,0.9583462476730347
1761818114257393400,5.938393310546875,-1.4890857934951782,-0.49641796946525574,0.8617389798164368
1761818114267321300,5.9483212890625,-1.2710041999816895,-0.7425377368927002,0.7153251767158508
1761818114277250300,5.958250244140625,-1.0398024320602417,-0.920154333114624,0.5114037394523621
1761818114287178200,5.96817822265625,-0.7948113083839417,-1.004076361656189,0.2800021767616272
1761818114297106200,5.978106201171875,-0.5175547003746033,-1.045755386352539,0.032689034938812256
1761818114307035100,5.98803515625,-0.1869773268699646,-1.1186621189117432,-0.20496514439582825
1761818114316963300,5.99796337890625,0.2056298851966858,-1.21999192237854,-0.41677963733673096
1761818114326891500,6.0078916015625,0.661142110824585,-1.362389326095581,-0.5918558835983276
1761818114336820500,6.017820556640625,1.1392685174942017,-1.4965444803237915,-0.7024028897285461
1761818114346748400,6.02774853515625,1.6368292570114136,-1.5375125408172607,-0.7525261044502258
1761818114356676400,6.03767626953125,2.1335272789001465,-1.50528883934021,-0.7761406302452087
1761818114366605300,6.047605224609375,2.5952885150909424,-1.3979963064193726,-0.7560003995895386
1761818114376533200,6.057533203125,2.9933583736419678,-1.19002366065979,-0.7241820096969604
1761818114386461200,6.067461181640625,3.2985472679138184,-0.8581625819206238,-0.7887633442878723
1761818114396390400,6.077390380859375,3.5326287746429443,-0.36969783902168274,-0.9621673226356506
1761818114406318300,6.087318359375,3.713346004486084,0.26903048157691956,-1.2157803773880005
1761818114416247300,6.097247314453125,3.8491084575653076,0.8755017518997192,-1.5343849658966064
1761818114426175200,6.10717529296875,3.9697768688201904,1.1960729360580444,-1.8065669536590576
1761818114436103400,6.117103515625,4.064384460449219,1.1570971012115479,-1.9205728769302368
1761818114446032400,6.127032470703125,4.093239784240723,0.9011518359184265,-1.916668176651001
1761818114455960300,6.136960205078125,3.991640329360962,0.5130046010017395,-1.8387610912322998
1761818114465888300,6.14688818359375,3.67582631111145,0.08740974217653275,-1.7171443700790405
1761818114475817500,6.1568173828125,3.065185070037842,-0.3837639093399048,-1.3885453939437866
1761818114485745400,6.166745361328125,2.2376160621643066,-0.7004292607307434,-0.8460088968276978
1761818114495673300,6.17667333984375,1.2749525308609009,-0.8142916560173035,-0.29894691705703735
1761818114505602300,6.186602294921875,0.4174613654613495,-0.7112234234809875,0.13514040410518646
1761818114515530200,6.1965302734375,-0.3155316412448883,-0.2566750943660736,0.3610270619392395
1761818114525458400,6.20645849609375,-0.9832361340522766,0.3481046259403229,0.3866110146045685
1761818114535387400,6.216387451171875,-1.6154640913009644,0.9588683843612671,0.2574085295200348
1761818114545315300,6.2263154296875,-2.275345802307129,1.4727636575698853,0.16906432807445526
1761818114555243300,6.2362431640625,-2.797659158706665,1.8001543283462524,0.24512074887752533
1761818114565172500,6.24617236328125,-3.0567984580993652,1.8756229877471924,0.416555792093277
1761818114575100400,6.256100341796875,-3.106574296951294,1.8437881469726562,0.6155208349227905
1761818114585028400,6.2660283203125,-3.065781593322754,1.7104700803756714,0.8439655900001526
1761818114594957300,6.275957275390625,-2.9871530532836914,1.4941542148590088,1.0648058652877808
1761818114604885200,6.28588525390625,-2.9036331176757812,1.237976312637329,1.229089617729187
1761818114614813400,6.2958134765625,-2.8208272457122803,1.0051422119140625,1.329016923904419
1761818114624742100,6.3057421875,-2.7261159420013428,0.8253421187400818,1.3786813020706177
1761818114634670300,6.31567041015625,-2.6055777072906494,0.7343597412109375,1.3672417402267456
1761818114644599600,6.325599609375,-2.4902775287628174,0.734113872051239,1.2838023900985718
1761818114654527500,6.335527587890625,-2.3866140842437744,0.8044346570968628,1.1606147289276123
1761818114664455400,6.345455322265625,-2.250922441482544,0.897003173828125,1.020233154296875
1761818114674384400,6.35538427734375,-2.040127754211426,0.9450657963752747,0.851516604423523
1761818114684312300,6.365312255859375,-1.7429673671722412,0.9026230573654175,0.6387513875961304
1761818114694240300,6.375240234375,-1.3677998781204224,0.803282618522644,0.39396825432777405
1761818114704169200,6.385169189453125,-0.9379734396934509,0.6224181056022644,0.135857492685318
1761818114714097200,6.39509716796875,-0.4761895537376404,0.3931891918182373,-0.09607242792844772
1761818114724025300,6.405025390625,-0.005363184958696365,0.10628178715705872,-0.28822028636932373
1761818114733954300,6.414954345703125,0.46940040588378906,-0.25337252020835876,-0.4058947265148163
1761818114743882500,6.424882568359375,0.9333174824714661,-0.642788290977478,-0.414955735206604
1761818114753810400,6.434810546875,1.3637841939926147,-1.0463533401489258,-0.3521954119205475
1761818114763739400,6.444739501953125,1.731684684753418,-1.376228928565979,-0.2892147898674011
1761818114773667300,6.454667236328125,2.0316102504730225,-1.570770263671875,-0.29863783717155457
1761818114783595300,6.46459521484375,2.2794291973114014,-1.5396047830581665,-0.4028533101081848
1761818114793524200,6.474524169921875,2.5116467475891113,-1.3027962446212769,-0.604864239692688
1761818114803452200,6.4844521484375,2.758727788925171,-0.8944043517112732,-0.8875814080238342
1761818114813380400,6.49438037109375,3.0304720401763916,-0.4074562191963196,-1.199697732925415
1761818114823309300,6.504309326171875,3.355430841445923,0.005767456255853176,-1.5015405416488647
1761818114833237500,6.514237548828125,3.6344945430755615,0.21313422918319702,-1.737924575805664
1761818114843166500,6.52416650390625,3.752026081085205,0.22419267892837524,-1.867634892463684
1761818114853094400,6.534094482421875,3.6177186965942383,0.05277726426720619,-1.8607386350631714
1761818114863022300,6.544022216796875,3.1411354541778564,-0.2897259294986725,-1.665125846862793
1761818114872951300,6.553951416015625,2.3411483764648438,-0.6786420345306396,-1.26104736328125
1761818114882879200,6.563879150390625,1.4208288192749023,-1.0905035734176636,-0.7271100878715515
1761818114892807200,6.57380712890625,0.6390513181686401,-1.3681710958480835,-0.16010768711566925
1761818114902736400,6.583736328125,0.08737979829311371,-1.3704837560653687,0.31412962079048157
1761818114912664300,6.593664306640625,-0.2892284691333771,-1.0638937950134277,0.5966537594795227
1761818114922592500,6.603592529296875,-0.6255065202713013,-0.4614495635032654,0.662322998046875
1761818114932521200,6.613521240234375,-1.075322151184082,0.27379488945007324,0.5765106081962585
1761818114942449400,6.623449462890625,-1.6534748077392578,0.9111891388893127,0.4993293583393097
1761818114952377300,6.63337744140625,-2.202847957611084,1.250231146812439,0.553000807762146
1761818114962306300,6.643306396484375,-2.5970962047576904,1.286650538444519,0.7076140642166138
1761818114972234200,6.653234130859375,-2.82039213180542,1.09589684009552,0.9212006330490112
1761818114982162200,6.663162109375,-2.9172704219818115,0.8067801594734192,1.1555956602096558
1761818114992091400,6.67309130859375,-2.9486701488494873,0.5329462289810181,1.3447567224502563
1761818115002019300,6.683019287109375,-2.9323480129241943,0.351390540599823,1.4568167924880981
1761818115011947500,6.692947509765625,-2.882476329803467,0.23612786829471588,1.4905774593353271
1761818115021876200,6.702876220703125,-2.8148715496063232,0.18407852947711945,1.466342568397522
1761818115031804000,6.712803955078125,-2.7173991203308105,0.20438407361507416,1.3952393531799316
1761818115041731800,6.72273193359375,-2.58716082572937,0.2724759876728058,1.303035020828247
1761818115051661000,6.7326611328125,-2.4339451789855957,0.38874906301498413,1.2185124158859253
1761818115061589000,6.742589111328125,-2.2870476245880127,0.5114055871963501,1.1619054079055786
1761818115071518000,6.75251806640625,-2.1464223861694336,0.6101377606391907,1.1153373718261719
1761818115081446000,6.76244580078125,-2.013518810272217,0.6825222373008728,1.0511200428009033
1761818115091373800,6.772373779296875,-1.8521515130996704,0.7125813364982605,0.9524107575416565
1761818115101302800,6.782302734375,-1.603442668914795,0.6599584817886353,0.7735944390296936
1761818115111231000,6.79223095703125,-1.2456413507461548,0.5217792987823486,0.49042850732803345
1761818115121159000,6.802158935546875,-0.7995271682739258,0.32227784395217896,0.12837035953998566
1761818115131088100,6.812088134765625,-0.30607694387435913,0.05506690964102745,-0.24699421226978302
1761818115141016000,6.82201611328125,0.21174508333206177,-0.27753543853759766,-0.564356803894043
1761818115150944000,6.831944091796875,0.7085071802139282,-0.6544057726860046,-0.7588986158370972
1761818115160873000,6.841873046875,1.1747733354568481,-1.0069615840911865,-0.8276590704917908
1761818115170801000,6.85180078125,1.6022076606750488,-1.3380905389785767,-0.8148295283317566
1761818115180728800,6.861728759765625,1.9880683422088623,-1.5687559843063354,-0.7550197243690491
1761818115190657800,6.87165771484375,2.348539113998413,-1.6001144647598267,-0.6964155435562134
1761818115200585700,6.881585693359375,2.684368848800659,-1.3308621644973755,-0.7083513140678406
1761818115210514200,6.89151416015625,2.97297739982605,-0.8425137400627136,-0.8328522443771362
1761818115220443100,6.901443115234375,3.201490640640259,-0.19611875712871552,-1.0678857564926147
1761818115230371000,6.91137109375,3.401787042617798,0.45714831352233887,-1.4098705053329468
1761818115240300000,6.921300048828125,3.6094372272491455,0.8998503088951111,-1.7781283855438232
1761818115250228000,6.93122802734375,3.774770736694336,0.9502719044685364,-2.028729200363159
1761818115260156000,6.941156005859375,3.7667648792266846,0.48279571533203125,-2.1173245906829834
1761818115270084900,6.9510849609375,3.4756693840026855,-0.4793865382671356,-1.9367769956588745
1761818115280012800,6.9610126953125,2.874729633331299,-1.5237990617752075,-1.3742958307266235
1761818115289940700,6.970940673828125,2.0973246097564697,-2.2234466075897217,-0.5747102499008179
1761818115299870000,6.980869873046875,1.3228875398635864,-2.3503761291503906,0.12579546868801117
1761818115309798000,6.9907978515625,0.7053704261779785,-1.8863763809204102,0.5144119262695312
1761818115319726000,7.00072607421875,0.31054285168647766,-1.0555706024169922,0.5837934613227844
1761818115329655000,7.010655029296875,0.008933715522289276,-0.20973707735538483,0.4543231129646301
1761818115339583000,7.0205830078125,-0.402635782957077,0.364833265542984,0.3111434876918793
1761818115349511000,7.030510986328125,-1.0377321243286133,0.5595487356185913,0.3028549253940582
1761818115359440000,7.04043994140625,-1.7795852422714233,0.4590121805667877,0.43624114990234375
1761818115369367800,7.050367919921875,-2.3991856575012207,0.20181313157081604,0.7191583514213562
1761818115379296000,7.0602958984375,-2.7962450981140137,-0.051683660596609116,1.0443021059036255
1761818115389225000,7.070224853515625,-2.964855909347534,-0.2103547900915146,1.3229098320007324
1761818115399153000,7.08015283203125,-2.983120918273926,-0.20739074051380157,1.4933148622512817
1761818115409081000,7.0900810546875,-2.925632953643799,-0.06632843613624573,1.5441205501556396
1761818115419010000,7.100010009765625,-2.834150791168213,0.20019344985485077,1.5008430480957031
1761818115428938000,7.10993798828125,-2.7452399730682373,0.5257681012153625,1.4073905944824219
1761818115438867000,7.119866943359375,-2.6820015907287598,0.8397905826568604,1.3285064697265625
1761818115448795000,7.129794921875,-2.6354260444641113,1.0691356658935547,1.3053315877914429
1761818115458723000,7.13972314453125,-2.600034713745117,1.1781378984451294,1.2887576818466187
1761818115468652000,7.149652099609375,-2.549509286880493,1.157850980758667,1.2359296083450317
1761818115478580000,7.159580078125,-2.4254097938537598,0.9934661984443665,1.133174180984497
1761818115488508000,7.1695078125,-2.200288772583008,0.7260193228721619,0.9446514844894409
1761818115498436900,7.179436767578125,-1.863221526145935,0.36683332920074463,0.6735455989837646
1761818115508364800,7.18936474609375,-1.417755365371704,0.04467633366584778,0.379629522562027
1761818115518293000,7.19929296875,-0.9325128197669983,-0.19570763409137726,0.09189439564943314
1761818115528222000,7.209221923828125,-0.44139689207077026,-0.3833315968513489,-0.16595205664634705
1761818115538150000,7.21914990234375,0.03218424692749977,-0.5125231146812439,-0.3560575246810913
1761818115548078000,7.229078125,0.5153136253356934,-0.5852261185646057,-0.4542061984539032
1761818115558007000,7.239007080078125,1.0080111026763916,-0.6296564340591431,-0.46465182304382324
1761818115567935000,7.24893505859375,1.4926743507385254,-0.7089555263519287,-0.4226878583431244
1761818115577863000,7.25886279296875,1.956545352935791,-0.772856593132019,-0.39423516392707825
1761818115587792000,7.2687919921875,2.367537260055542,-0.7678700685501099,-0.44663578271865845
1761818115597719800,7.2787197265625,2.697950839996338,-0.6548610925674438,-0.5885304808616638
1761818115607648800,7.288648681640625,2.931833028793335,-0.5076101422309875,-0.8182640671730042
1761818115617577000,7.298576904296875,3.0739400386810303,-0.4427931308746338,-1.0973604917526245
1761818115627505200,7.308505126953125,3.1682679653167725,-0.4291638731956482,-1.3432633876800537
1761818115637434000,7.31843408203125,3.2679836750030518,-0.45593130588531494,-1.5135178565979004
1761818115647362000,7.328362060546875,3.3249807357788086,-0.6894742846488953,-1.578640341758728
1761818115657290000,7.3382900390625,3.3010900020599365,-0.99214106798172,-1.4781442880630493
1761818115667219000,7.348218994140625,3.1741373538970947,-1.1995735168457031,-1.2273077964782715
1761818115677147000,7.35814697265625,2.9315185546875,-1.201598882675171,-0.9054238796234131
1761818115687074800,7.36807470703125,2.541355848312378,-0.9491610527038574,-0.6068670153617859
1761818115697003800,7.378003662109375,1.9947540760040283,-0.6075802445411682,-0.3950665295124054
1761818115706932000,7.387931884765625,1.3726460933685303,-0.27321264147758484,-0.22488150000572205
1761818115716860200,7.397860107421875,0.7665078043937683,-0.04165228456258774,-0.024570167064666748
1761818115726789000,7.4077890625,0.19419978559017181,0.04159919545054436,0.19590015709400177
1761818115736717000,7.417717041015625,-0.36645448207855225,0.048001084476709366,0.3868871033191681
1761818115746645000,7.42764501953125,-0.9660018086433411,0.09830420464277267,0.5036110877990723
1761818115756574000,7.437573974609375,-1.571405053138733,0.18654048442840576,0.5614979267120361
1761818115766502000,7.447501953125,-2.0711121559143066,0.301217257976532,0.6240981817245483
1761818115776429800,7.457429931640625,-2.39919114112854,0.4183410108089447,0.7302115559577942
1761818115786358800,7.46735888671875,-2.5506036281585693,0.5124009251594543,0.8444837927818298
1761818115796287000,7.477286865234375,-2.5993223190307617,0.5888343453407288,0.9284315705299377
1761818115806216000,7.4872158203125,-2.5991902351379395,0.6370202302932739,0.9674338102340698
1761818115816144000,7.497143798828125,-2.568856716156006,0.655247688293457,0.9939113855361938
1761818115826072000,7.507072021484375,-2.5249698162078857,0.655109703540802,1.005295753479004
1761818115836001000,7.5170009765625,-2.485379457473755,0.62291020154953,1.0132628679275513
1761818115845929000,7.526928955078125,-2.4265546798706055,0.5651717782020569,1.0218873023986816
1761818115855857000,7.53685693359375,-2.351916551589966,0.4721927046775818,1.007091999053955
1761818115865785900,7.546785888671875,-2.248995304107666,0.3841528594493866,0.96120685338974
1761818115875714000,7.556714111328125,-2.115607976913452,0.31624776124954224,0.8788753151893616
1761818115885642000,7.56664208984375,-1.9426510334014893,0.2974384129047394,0.7357950806617737
1761818115895571000,7.576571044921875,-1.7066173553466797,0.3038488030433655,0.5243750214576721
1761818115905499000,7.586498779296875,-1.3795945644378662,0.3692326247692108,0.2505660951137543
1761818115915427000,7.596427001953125,-1.0031352043151855,0.4820399284362793,-0.056135714054107666
1761818115925356000,7.60635595703125,-0.616644024848938,0.6162747144699097,-0.3569165766239166
1761818115935284000,7.616283935546875,-0.233613058924675,0.666196882724762,-0.6119192242622375
1761818115945212000,7.6262119140625,0.16317476332187653,0.5908281207084656,-0.7672278881072998
1761818115955141000,7.63614111328125,0.5634095668792725,0.39563044905662537,-0.8055731058120728
1761818115965069000,7.646069091796875,0.9504219889640808,0.09444583207368851,-0.7584348917007446
1761818115974998000,7.655998046875,1.3295978307724,-0.2627810835838318,-0.6682819128036499
1761818115984926000,7.665926025390625,1.7129619121551514,-0.6060910224914551,-0.5528455972671509
1761818115994854000,7.67585400390625,2.076357364654541,-0.8221271634101868,-0.51004958152771
1761818116004782800,7.685782958984375,2.417707681655884,-0.8105477094650269,-0.6086664795875549
1761818116014710800,7.695710693359375,2.7003087997436523,-0.6435701251029968,-0.8330876231193542
1761818116024639000,7.705638916015625,2.906468391418457,-0.3673843443393707,-1.1148409843444824
1761818116034568400,7.715568359375,3.051105499267578,-0.0011408146237954497,-1.4198302030563354
1761818116044496600,7.72549658203125,3.1436257362365723,0.2849990725517273,-1.7199351787567139
1761818116054424600,7.735424560546875,3.1176486015319824,0.27217990159988403,-1.8959048986434937
1761818116064353500,7.745353515625,2.9008734226226807,0.018840570002794266,-1.843488335609436
1761818116074281500,7.755281494140625,2.511294364929199,-0.38842785358428955,-1.5558370351791382
1761818116084209400,7.76520947265625,2.015293836593628,-0.816889762878418,-1.1223676204681396
1761818116094138400,7.775138427734375,1.481346845626831,-1.0526050329208374,-0.6385487914085388
1761818116104066600,7.785066650390625,0.9334772229194641,-1.0375560522079468,-0.19063544273376465
1761818116113994500,7.794994384765625,0.4183911383152008,-0.7803229093551636,0.16260091960430145
1761818116123923500,7.80492333984375,-0.04598211869597435,-0.35693755745887756,0.39038562774658203
1761818116133851600,7.8148515625,-0.5135647654533386,0.15125462412834167,0.4800654947757721
1761818116143780400,7.8247802734375,-1.0218123197555542,0.5898828506469727,0.4847409427165985
1761818116153708500,7.83470849609375,-1.544455885887146,0.8523695468902588,0.4804088771343231
1761818116163636500,7.844636474609375,-2.0002708435058594,0.962784469127655,0.5354859828948975
1761818116173565400,7.8545654296875,-2.313538074493408,0.9462591409683228,0.6465850472450256
1761818116183493400,7.864493408203125,-2.488436460494995,0.8423542976379395,0.8190004825592041
1761818116193421600,7.874421630859375,-2.5849156379699707,0.7235326766967773,1.0049011707305908
1761818116203350500,7.8843505859375,-2.642277717590332,0.6169846653938293,1.1695743799209595
1761818116213278500,7.894278564453125,-2.677859306335449,0.5110028386116028,1.2837778329849243
1761818116223206400,7.904206298828125,-2.6936123371124268,0.425731360912323,1.3400856256484985
1761818116233135400,7.91413525390625,-2.6922667026519775,0.3493490517139435,1.3394278287887573
1761818116243063600,7.9240634765625,-2.6690733432769775,0.30252349376678467,1.307003378868103
1761818116252991500,7.933991455078125,-2.6186625957489014,0.28296154737472534,1.2685707807540894
1761818116262920400,7.94392041015625,-2.5455803871154785,0.25396451354026794,1.2207918167114258
1761818116272848600,7.9538486328125,-2.454331636428833,0.2551262676715851,1.156416654586792
1761818116282776600,7.963776611328125,-2.3560211658477783,0.2778816521167755,1.0493394136428833
1761818116292705500,7.97370556640625,-2.198467493057251,0.3076835572719574,0.8713396787643433
1761818116302633500,7.983633544921875,-1.9265621900558472,0.3569949269294739,0.59004807472229
1761818116312562400,7.9935625,-1.5442272424697876,0.43756407499313354,0.20732803642749786
1761818116322490400,8.003490478515625,-1.0804576873779297,0.4941253662109375,-0.2439001351594925
1761818116332418600,8.01341845703125,-0.5590451955795288,0.46401798725128174,-0.6989871859550476
1761818116342347300,8.02334716796875,-0.00761050172150135,0.2630390524864197,-1.0382270812988281
1761818116352275700,8.033275634765625,0.5374307036399841,-0.04339087754487991,-1.181293249130249
1761818116362203600,8.04320361328125,1.0441540479660034,-0.4260477125644684,-1.1797089576721191
1761818116372132600,8.053132568359375,1.5155441761016846,-0.8361812233924866,-1.111212134361267
1761818116382060500,8.063060546875,1.9901362657546997,-1.2539513111114502,-0.9677810072898865
1761818116391988500,8.072988525390626,2.446413993835449,-1.5672956705093384,-0.7547634840011597
1761818116401917400,8.08291748046875,2.8619353771209717,-1.6511069536209106,-0.5458651185035706
1761818116411845400,8.092845458984375,3.2674763202667236,-1.5191398859024048,-0.4700239300727844
1761818116421773300,8.102773193359376,3.617676258087158,-1.1066484451293945,-0.5927133560180664
1761818116431702300,8.112702392578125,3.8227109909057617,-0.38428983092308044,-0.9251925349235535
1761818116441630700,8.122630615234375,3.908982992172241,0.4688016176223755,-1.4300005435943604
1761818116451558700,8.13255859375,3.9525208473205566,1.1663068532943726,-1.9571303129196167
1761818116461487600,8.142487548828125,3.9404726028442383,1.4457910060882568,-2.323593854904175
1761818116471415600,8.15241552734375,3.7937867641448975,1.2301125526428223,-2.445780038833618
1761818116481343500,8.162343505859376,3.427093029022217,0.4880819320678711,-2.3053886890411377
1761818116491272400,8.1722724609375,2.8093669414520264,-0.6338381767272949,-1.8538612127304077
1761818116501200400,8.182200439453124,2.0585825443267822,-1.6482096910476685,-1.137152075767517
1761818116511129300,8.19212939453125,1.346240520477295,-2.1743009090423584,-0.36190202832221985
1761818116521057500,8.2020576171875,0.7395811080932617,-2.0610575675964355,0.22053635120391846
1761818116530985500,8.2119853515625,0.23823627829551697,-1.3636218309402466,0.5472509860992432
1761818116540914400,8.22191455078125,-0.21968360245227814,-0.33089733123779297,0.6121093034744263
1761818116550842600,8.231842529296875,-0.6872679591178894,0.6472551822662354,0.5100764036178589
1761818116560770600,8.2417705078125,-1.2218979597091675,1.319290280342102,0.39514899253845215
1761818116570699500,8.251699462890626,-1.7872135639190674,1.6753093004226685,0.39460113644599915
1761818116580627500,8.26162744140625,-2.2597885131835938,1.74167799949646,0.5234768390655518
1761818116590555400,8.271555419921874,-2.580702066421509,1.5415185689926147,0.7622532248497009
1761818116600484600,8.281484619140626,-2.763054132461548,1.1909831762313843,1.0392086505889893
1761818116610412500,8.29141259765625,-2.843377113342285,0.8243619799613953,1.2931424379348755
1761818116620340500,8.301340576171874,-2.8608243465423584,0.5115577578544617,1.4932243824005127
1761818116630269400,8.31126953125,-2.8464066982269287,0.3288230895996094,1.6112276315689087
1761818116640197600,8.32119775390625,-2.808682918548584,0.30441707372665405,1.6512573957443237
1761818116650126300,8.331126220703124,-2.748098373413086,0.4243013858795166,1.6158397197723389
1761818116660054500,8.341054443359376,-2.6671783924102783,0.6113972663879395,1.5291383266448975
1761818116669982500,8.350982421875,-2.5620298385620117,0.8176509737968445,1.4175423383712769
1761818116679911400,8.360911376953124,-2.4145097732543945,1.0017633438110352,1.2690777778625488
1761818116689839600,8.370839599609376,-2.210973024368286,1.1235939264297485,1.0705543756484985
1761818116699767600,8.380767578125,-1.9341002702713013,1.192680835723877,0.8367061614990234
1761818116709696500,8.390696533203124,-1.6091829538345337,1.2032345533370972,0.5850673913955688
1761818116719624400,8.40062451171875,-1.258277416229248,1.172463059425354,0.3315525949001312
1761818116729552400,8.410552490234375,-0.8992644548416138,1.0766905546188354,0.06767053157091141
1761818116739481300,8.4204814453125,-0.5604016780853271,0.8970070481300354,-0.19346971809864044
1761818116749409500,8.430409423828126,-0.23646052181720734,0.6502415537834167,-0.4382026493549347
1761818116759337500,8.44033740234375,0.10069833695888519,0.3355979025363922,-0.6370457410812378
1761818116769266700,8.4502666015625,0.46080100536346436,-0.047003112733364105,-0.7459874749183655
1761818116779194600,8.460194580078126,0.8485673666000366,-0.4428236782550812,-0.76650071144104
1761818116789122600,8.47012255859375,1.2460139989852905,-0.8125573396682739,-0.7452200055122375
1761818116799051500,8.480051513671874,1.640541911125183,-1.1213111877441406,-0.6820663213729858
1761818116808979500,8.4899794921875,2.046302080154419,-1.2896134853363037,-0.5969128012657166
1761818116818908400,8.499908447265625,2.4721930027008057,-1.329327940940857,-0.5890135765075684
1761818116828836400,8.50983642578125,2.8692469596862793,-1.2545212507247925,-0.7079868316650391
1761818116838764500,8.5197646484375,3.193453550338745,-0.9953280687332153,-0.9398259520530701
1761818116848693500,8.529693603515625,3.4473676681518555,-0.6619040966033936,-1.2667293548583984
1761818116858621700,8.53962158203125,3.6084280014038086,-0.3399406969547272,-1.6383596658706665
1761818116868549600,8.549549560546875,3.6251091957092285,-0.05651780217885971,-1.9678568840026855
1761818116878478600,8.559478515625,3.467158794403076,-0.027286414057016373,-2.1901912689208984
1761818116888406500,8.569406494140624,3.1180779933929443,-0.2395046204328537,-2.2277472019195557
1761818116898334500,8.57933447265625,2.5994138717651367,-0.5722021460533142,-2.0187809467315674
1761818116908263400,8.589263427734375,2.004911422729492,-0.897613525390625,-1.5388644933700562
1761818116918191400,8.59919140625,1.4047653675079346,-1.0444961786270142,-0.8665443062782288
1761818116928119300,8.609119384765625,0.8243812918663025,-0.9503350853919983,-0.15528422594070435
1761818116938048500,8.619048583984375,0.27015912532806396,-0.692806601524353,0.43334120512008667
1761818116947976700,8.628976806640624,-0.2766447365283966,-0.3334828019142151,0.8307166695594788
1761818116957904600,8.638904541015625,-0.8168746829032898,0.04111183434724808,1.0282204151153564
1761818116967833600,8.64883349609375,-1.3691871166229248,0.3906468451023102,1.0675140619277954
1761818116977761500,8.658761474609374,-1.9014766216278076,0.6632855534553528,1.0443195104599
1761818116987690500,8.6686904296875,-2.31648850440979,0.7940497994422913,1.047681212425232
1761818116997618400,8.678618408203125,-2.5590720176696777,0.7870150208473206,1.1181524991989136
1761818117007546400,8.68854638671875,-2.673621654510498,0.6839494109153748,1.2301348447799683
1761818117017475600,8.6984755859375,-2.7293152809143066,0.5390601754188538,1.3559322357177734
1761818117027403500,8.708403564453125,-2.7513253688812256,0.4500465989112854,1.4701069593429565
1761818117037331700,8.718331787109374,-2.7460436820983887,0.45245489478111267,1.5414572954177856
1761818117047260700,8.7282607421875,-2.7171058654785156,0.511597752571106,1.560096025466919
1761818117057188900,8.73818896484375,-2.6574196815490723,0.6054962873458862,1.551340103149414
1761818117067116800,8.74811669921875,-2.589171886444092,0.7512187957763672,1.5269397497177124
1761818117077046000,8.7580458984375,-2.4986984729766846,0.924739420413971,1.4824092388153076
1761818117086974000,8.767973876953125,-2.382593870162964,1.0710070133209229,1.4072041511535645
1761818117096902000,8.77790185546875,-2.2268645763397217,1.1870286464691162,1.3013315200805664
1761818117106830800,8.787830810546875,-2.008497714996338,1.2278655767440796,1.144521951675415
1761818117116758800,8.7977587890625,-1.7129184007644653,1.195211410522461,0.9004778265953064
1761818117126686700,8.807686767578126,-1.348168134689331,1.0992755889892578,0.5821177363395691
1761818117136615700,8.81761572265625,-0.9303484559059143,0.9779437780380249,0.23124569654464722
1761818117146543600,8.827543701171875,-0.48767298460006714,0.818892240524292,-0.15146596729755402
1761818117156472800,8.837472900390624,-0.05831974744796753,0.6252474188804626,-0.5352338552474976
1761818117166401000,8.847401123046875,0.3535461127758026,0.39284804463386536,-0.8484295606613159
1761818117176329000,8.857328857421875,0.7580432891845703,0.13457734882831573,-1.0446690320968628
1761818117186258000,8.8672578125,1.1637572050094604,-0.17402474582195282,-1.137795329093933
1761818117196185900,8.877185791015625,1.5751357078552246,-0.5094509720802307,-1.1392054557800293
1761818117206113800,8.88711376953125,1.9427043199539185,-0.8070164322853088,-1.0849689245224
1761818117216042800,8.897042724609374,2.2563230991363525,-1.0432950258255005,-1.041714072227478
1761818117225970700,8.906970703125,2.514863967895508,-1.165442943572998,-1.0573328733444214
1761818117235898600,8.916898681640625,2.7316384315490723,-1.1541261672973633,-1.1685919761657715
1761818117245827800,8.926827880859374,2.9347715377807617,-1.0422511100769043,-1.3948109149932861
1761818117255755800,8.936755859375,3.1308422088623047,-0.8180914521217346,-1.6660114526748657
1761818117265684000,8.94668408203125,3.315856456756592,-0.5611215829849243,-1.943490743637085
1761818117275613000,8.956613037109374,3.485774040222168,-0.34521937370300293,-2.189401388168335
1761818117285540900,8.966540771484375,3.588735818862915,-0.26402851939201355,-2.388805866241455
1761818117295468800,8.97646875,3.525883436203003,-0.3711898624897003,-2.4713284969329834
1761818117305397800,8.986397705078126,3.254953384399414,-0.6408061981201172,-2.3715944290161133
1761818117315325700,8.99632568359375,2.7209763526916504,-0.9878661632537842,-2.040470838546753
1761818117325253600,9.006253662109375,1.9430431127548218,-1.2370573282241821,-1.4858318567276
1761818117335182800,9.016182861328126,1.030496597290039,-1.2504260540008545,-0.777558445930481
1761818117345110800,9.02611083984375,0.14886465668678284,-0.9876613616943359,-0.09373214095830917
1761818117355039700,9.036039794921875,-0.5670425891876221,-0.5798699259757996,0.40705054998397827
1761818117364968000,9.045968017578126,-1.0811687707901,-0.15498021245002747,0.6817783117294312
1761818117374895900,9.055895751953125,-1.533583164215088,0.28611648082733154,0.8089679479598999
1761818117384824800,9.065824951171875,-2.043419361114502,0.6832958459854126,0.9149587154388428
1761818117394752800,9.075752685546876,-2.5613722801208496,0.9455748796463013,1.0308560132980347
1761818117404680700,9.0856806640625,-2.953533172607422,1.040102481842041,1.1570121049880981
1761818117414610000,9.09560986328125,-3.1855247020721436,0.9631478190422058,1.3063331842422485
1761818117424537900,9.105537841796876,-3.2924890518188477,0.8441193699836731,1.48550283908844
1761818117434465800,9.1154658203125,-3.3035311698913574,0.7627462148666382,1.6709022521972656
1761818117444394800,9.125394775390625,-3.254065752029419,0.7154496908187866,1.7959662675857544
1761818117454322700,9.13532275390625,-3.1768743991851807,0.7075406312942505,1.8480422496795654
1761818117464251000,9.1452509765625,-3.082463026046753,0.7668552994728088,1.8288600444793701
1761818117474179800,9.155179931640625,-2.961566925048828,0.8264302611351013,1.7479817867279053
1761818117484107800,9.165107666015626,-2.8038034439086914,0.8662607669830322,1.6217060089111328
1761818117494035700,9.17503564453125,-2.6449215412139893,0.8934892416000366,1.4816423654556274
1761818117503965000,9.18496484375,-2.4720757007598877,0.8744916915893555,1.3387513160705566
1761818117513892900,9.194892822265626,-2.266711473464966,0.799217164516449,1.1641372442245483
1761818117523821800,9.20482177734375,-2.0289113521575928,0.6365481019020081,0.947493314743042
1761818117533749800,9.214749755859375,-1.758955955505371,0.45041951537132263,0.7149441838264465
1761818117543677700,9.224677734375,-1.4210461378097534,0.3057710826396942,0.4961511194705963
1761818117553606700,9.234606689453125,-1.036984920501709,0.1791284680366516,0.26792991161346436
1761818117563534800,9.244534912109375,-0.6085063219070435,0.05285701900720596,0.05828394368290901
1761818117573462800,9.254462890625,-0.15746377408504486,-0.10321886092424393,-0.10092940926551819
1761818117583392000,9.26439208984375,0.35606253147125244,-0.31235599517822266,-0.20793776214122772
1761818117593320000,9.27431982421875,0.9242556095123291,-0.592593789100647,-0.2829374372959137
1761818117603247900,9.284247802734376,1.4912996292114258,-0.8581106066703796,-0.3183676600456238
1761818117613176800,9.2941767578125,1.9953025579452515,-1.0749508142471313,-0.37302398681640625
1761818117623104800,9.304104736328124,2.373164653778076,-1.2191624641418457,-0.4883389174938202
1761818117633032700,9.31403271484375,2.6477792263031006,-1.2446513175964355,-0.6726925373077393
1761818117642961700,9.323961669921875,2.85249924659729,-1.136986255645752,-0.9381842613220215
1761818117652889900,9.333889892578124,3.017199754714966,-0.9198832511901855,-1.2764629125595093
1761818117662817800,9.34381787109375,3.1686320304870605,-0.6232937574386597,-1.619677186012268
1761818117672747000,9.3537470703125,3.3811891078948975,-0.3573509752750397,-1.8979994058609009
1761818117682675000,9.363675048828124,3.6814849376678467,-0.25705182552337646,-2.0769340991973877
1761818117692603000,9.373602783203125,3.9827005863189697,-0.45578837394714355,-2.1107752323150635
1761818117702531800,9.38353173828125,4.125977516174316,-0.8234809637069702,-1.9469448328018188
1761818117712459800,9.393459716796874,3.953238010406494,-1.1744509935379028,-1.6467069387435913
1761818117722388700,9.403388671875,3.461069107055664,-1.367687463760376,-1.3062533140182495
1761818117732316700,9.413316650390625,2.6725029945373535,-1.3440372943878174,-0.9930170178413391
1761818117742244600,9.42324462890625,1.7078323364257812,-1.088921070098877,-0.7206245064735413
1761818117752173800,9.433173828125,0.876697301864624,-0.648699939250946,-0.4900358319282532
1761818117762102000,9.44310205078125,0.33636483550071716,-0.2366756647825241,-0.3031617999076843
1761818117772030000,9.453030029296874,-0.02568577229976654,0.10766869783401489,-0.09657609462738037
1761818117781959000,9.462958984375,-0.4803173840045929,0.4901030957698822,0.1643514633178711
1761818117791886800,9.472886962890625,-1.1357241868972778,0.8592560887336731,0.39369145035743713
1761818117801814800,9.482814697265624,-1.8873889446258545,1.143485188484192,0.5841842889785767
1761818117811743700,9.49274365234375,-2.5571744441986084,1.3583234548568726,0.7672808766365051
1761818117821671700,9.502671630859375,-2.9721574783325195,1.4430649280548096,0.9625017642974854
1761818117831599600,9.512599609375,-3.1283040046691895,1.4249104261398315,1.1444727182388306
1761818117841528800,9.52252880859375,-3.107454299926758,1.3614581823349,1.30866277217865
1761818117851456800,9.532456787109375,-2.991105794906616,1.2794864177703857,1.4486342668533325
1761818117861385000,9.542385009765624,-2.861095905303955,1.1992429494857788,1.5414507389068604
1761818117871314000,9.55231396484375,-2.741867780685425,1.1425315141677856,1.5906200408935547
1761818117881241900,9.562241943359375,-2.635730504989624,1.0790666341781616,1.5772989988327026
1761818117891170800,9.5721708984375,-2.5173773765563965,0.922008216381073,1.5016826391220093
1761818117901098800,9.5820986328125,-2.4133214950561523,0.7411141991615295,1.40413498878479
1761818117911026700,9.592026611328125,-2.3218467235565186,0.6060588955879211,1.3199783563613892
1761818117920956000,9.601955810546874,-2.2265427112579346,0.5449771285057068,1.2344141006469727
1761818117930883800,9.6118837890625,-2.0902585983276367,0.5550188422203064,1.1308600902557373
1761818117940811800,9.621811767578125,-1.8752787113189697,0.6190146207809448,0.9915078282356262
1761818117950740700,9.63174072265625,-1.5807334184646606,0.6863909959793091,0.7935941815376282
1761818117960669000,9.6416689453125,-1.202878475189209,0.755854606628418,0.5416131615638733
1761818117970596900,9.651596923828125,-0.7440069913864136,0.7575340270996094,0.21177265048027039
1761818117980525800,9.66152587890625,-0.24866105616092682,0.6114265322685242,-0.14434584975242615
1761818117990453800,9.671453857421875,0.2509421110153198,0.34409523010253906,-0.45434364676475525
1761818118000381700,9.681381591796875,0.7307714819908142,0.025643976405262947,-0.6879393458366394
1761818118010311000,9.691310791015624,1.1500462293624878,-0.28503480553627014,-0.8517050743103027
1761818118020238800,9.70123876953125,1.496887445449829,-0.5556510090827942,-0.9632009863853455
1761818118030166500,9.71116650390625,1.7816838026046753,-0.7614177465438843,-1.0457919836044312
1761818118040095700,9.721095703125,2.0291295051574707,-0.9117058515548706,-1.1312161684036255
1761818118050023700,9.731023681640625,2.231886625289917,-0.9781152606010437,-1.211035132408142
1761818118059951900,9.740951904296875,2.382321834564209,-0.9072607755661011,-1.313405990600586
1761818118069880800,9.750880859375,2.5273869037628174,-0.800112247467041,-1.454752802848816
1761818118079808800,9.760808837890625,2.7433083057403564,-0.7389695048332214,-1.5936744213104248
1761818118089736700,9.77073681640625,3.064918279647827,-0.7751001119613647,-1.6946929693222046
1761818118099665700,9.780665771484376,3.3998076915740967,-0.9327517747879028,-1.7823456525802612
1761818118109593600,9.790593505859375,3.62339186668396,-1.2025251388549805,-1.8140041828155518
1761818118119522800,9.800522705078125,3.647657871246338,-1.532619833946228,-1.7587378025054932
1761818118129450800,9.81045068359375,3.3759377002716064,-1.8216757774353027,-1.6120905876159668
1761818118139378700,9.820378662109375,2.7556991577148438,-1.9044268131256104,-1.3111772537231445
1761818118149307600,9.8303076171875,1.8551121950149536,-1.6590405702590942,-0.859480082988739
1761818118159235800,9.84023583984375,0.8939297199249268,-1.1126940250396729,-0.3654782474040985
1761818118169163800,9.850163818359375,0.11820387840270996,-0.42113348841667175,0.04042955860495567
1761818118179092700,9.8600927734375,-0.39977407455444336,0.22822429239749908,0.2844221293926239
1761818118189020700,9.870020751953126,-0.78429114818573,0.6656509041786194,0.38706064224243164
1761818118198948600,9.879948486328125,-1.2534778118133545,0.9413949251174927,0.46394506096839905
1761818118208877800,9.8898779296875,-1.8482228517532349,1.0621215105056763,0.6414162516593933
1761818118218805800,9.8998056640625,-2.391735076904297,1.0219740867614746,0.9310049414634705
1761818118228733700,9.909733642578125,-2.7258262634277344,0.8718528747558594,1.258158802986145
1761818118238662700,9.91966259765625,-2.8664169311523438,0.6923584938049316,1.5517008304595947
1761818118248590600,9.929590576171876,-2.89522647857666,0.5636292695999146,1.7793833017349243
1761818118258518800,9.939518798828125,-2.872290849685669,0.5137015581130981,1.9087408781051636
1761818118268447700,9.94944775390625,-2.8142073154449463,0.5034018158912659,1.9465402364730835
1761818118278375700,9.959375732421876,-2.745853900909424,0.5398021936416626,1.9382085800170898
1761818118288303600,9.9693037109375,-2.666294813156128,0.6054741740226746,1.914581060409546
1761818118298232800,9.97923291015625,-2.558485984802246,0.6395480036735535,1.8772776126861572
1761818118308160800,9.989160888671876,-2.4204249382019043,0.622769296169281,1.8130149841308594
1761818118318089700,9.99908984375,-2.2603847980499268,0.5645288825035095,1.7269890308380127
1761818118328017700,10.009017578125,-2.104818820953369,0.5052157640457153,1.5788565874099731
1761818118337945600,10.018945556640626,-1.9386310577392578,0.4642147719860077,1.3516569137573242
1761818118347874600,10.02887451171875,-1.7204638719558716,0.47661179304122925,1.0579286813735962
1761818118357802800,10.038802734375,-1.4438048601150513,0.518847644329071,0.7266433835029602
1761818118367730700,10.048730712890626,-1.0560613870620728,0.5553539991378784,0.34029120206832886
1761818118377660000,10.058659912109375,-0.6091550588607788,0.516686201095581,-0.11082541197538376
1761818118387587800,10.068587890625,-0.1290270835161209,0.4058244526386261,-0.5453406572341919
1761818118397515800,10.078515869140626,0.37491345405578613,0.18069978058338165,-0.8865346312522888
1761818118407444700,10.08844482421875,0.8955736756324768,-0.14257414638996124,-1.0817943811416626
1761818118417372700,10.09837255859375,1.4057059288024902,-0.5547435879707336,-1.1317719221115112
1761818118427300600,10.108300537109375,1.871522068977356,-1.0151383876800537,-1.103300929069519
1761818118437229600,10.1182294921875,2.266334295272827,-1.459755539894104,-1.0394643545150757
1761818118447157500,10.128157470703124,2.5895135402679443,-1.7619372606277466,-0.9992899894714355
1761818118457085700,10.138085693359375,2.832463502883911,-1.8298566341400146,-1.0151649713516235
1761818118467015000,10.148014892578125,3.0255935192108154,-1.5967456102371216,-1.123381495475769
1761818118476942800,10.15794287109375,3.2053639888763428,-1.123906135559082,-1.3671482801437378
1761818118486870800,10.167870849609375,3.3977444171905518,-0.48265495896339417,-1.7221144437789917
1761818118496799700,10.1777998046875,3.634251832962036,0.1582445353269577,-2.0870137214660645
1761818118506727700,10.187727783203124,3.899507522583008,0.5727524757385254,-2.3568947315216064
1761818118516656600,10.19765673828125,4.115357875823975,0.6220147013664246,-2.4859323501586914
1761818118526584600,10.20758447265625,4.089715480804443,0.3280581533908844,-2.4507980346679688
1761818118536512500,10.217512451171874,3.6602559089660645,-0.26177725195884705,-2.1962692737579346
1761818118546441700,10.227441650390626,2.8106095790863037,-0.9543610215187073,-1.651462435722351
1761818118556369700,10.23736962890625,1.7283000946044922,-1.4266242980957031,-0.8250172734260559
1761818118566297900,10.2472978515625,0.6795554757118225,-1.4918980598449707,0.037843722850084305
1761818118576226800,10.257226806640626,-0.11136738955974579,-1.2106051445007324,0.6483414173126221
1761818118586154800,10.26715478515625,-0.5872913002967834,-0.6857128739356995,0.9092116355895996
1761818118596082700,10.277082763671874,-0.925658106803894,-0.04194357618689537,0.8625823855400085
1761818118606011600,10.28701171875,-1.3399195671081543,0.6170255541801453,0.6901872158050537
1761818118615939600,10.296939697265625,-1.8181612491607666,1.1280750036239624,0.6046434044837952
1761818118625867500,10.306867431640624,-2.2097327709198,1.3509522676467896,0.6703776717185974
1761818118635796700,10.316796630859375,-2.4222729206085205,1.2918810844421387,0.8148012161254883
1761818118645724700,10.326724609375,-2.4704954624176025,1.1071295738220215,0.990566074848175
1761818118655652900,10.33665283203125,-2.412761926651001,0.9073119163513184,1.1932073831558228
1761818118665581800,10.346581787109375,-2.309824228286743,0.7587383985519409,1.3794283866882324
1761818118675509800,10.356509765625,-2.188123941421509,0.6044877171516418,1.5222229957580566
1761818118685437700,10.366437744140624,-2.0689940452575684,0.4980579614639282,1.623497724533081
1761818118695366700,10.37636669921875,-1.9723483324050903,0.4246506094932556,1.6724213361740112
1761818118705294600,10.386294677734375,-1.8873753547668457,0.36385515332221985,1.6553009748458862
1761818118715222500,10.396222412109376,-1.7819095849990845,0.3351168930530548,1.557827115058899
1761818118725151700,10.40615185546875,-1.6571069955825806,0.3060727119445801,1.3812485933303833
1761818118735079700,10.41607958984375,-1.5099091529846191,0.2825258672237396,1.157151222229004
1761818118745008600,10.426008544921874,-1.3189618587493896,0.3426334261894226,0.8972811102867126
1761818118754936600,10.4359365234375,-1.0968691110610962,0.4118129312992096,0.5935543775558472
1761818118764864800,10.44586474609375,-0.8354836106300354,0.449776828289032,0.2899118959903717
1761818118774793700,10.455793701171874,-0.5378492474555969,0.47963014245033264,0.014757622964680195
1761818118784721700,10.4657216796875,-0.23539859056472778,0.43986275792121887,-0.23904669284820557
1761818118794649600,10.475649658203125,0.07881446927785873,0.31473520398139954,-0.47141095995903015
1761818118804578800,10.485578857421874,0.3994681239128113,0.11628096550703049,-0.6657924056053162
1761818118814506800,10.4955068359375,0.743539035320282,-0.1370994746685028,-0.8115571737289429
1761818118824434700,10.5054345703125,1.105764389038086,-0.4410838782787323,-0.9065172672271729
1761818118834363600,10.51536376953125,1.4544686079025269,-0.7926800847053528,-0.9480531811714172
1761818118844291600,10.52529150390625,1.7738466262817383,-1.1440844535827637,-0.9374352097511292
1761818118854219800,10.5352197265625,2.0826597213745117,-1.3755444288253784,-0.9282647371292114
1761818118864148700,10.545148681640624,2.3813893795013428,-1.4943736791610718,-0.9720596075057983
1761818118874076700,10.55507666015625,2.6885063648223877,-1.4285985231399536,-1.0810999870300293
1761818118884004600,10.565004638671875,2.990342140197754,-1.110205054283142,-1.3018710613250732
1761818118893933800,10.574933837890624,3.2773277759552,-0.5486927628517151,-1.6591702699661255
1761818118903861800,10.58486181640625,3.547485828399658,0.1785816103219986,-2.1050403118133545
1761818118913789700,10.594789794921875,3.724987506866455,0.9264348745346069,-2.5693156719207764
1761818118923718700,10.60471875,3.748523235321045,1.3277579545974731,-2.875375986099243
1761818118933646600,10.614646484375,3.5595076084136963,1.2781896591186523,-2.9046149253845215
1761818118943575600,10.624575439453125,3.1435139179229736,0.8585070967674255,-2.68677020072937
1761818118953503500,10.63450341796875,2.503079891204834,0.18326865136623383,-2.2424163818359375
1761818118963431700,10.644431640625,1.7800536155700684,-0.49072548747062683,-1.581254482269287
1761818118973361000,10.65436083984375,1.116440773010254,-0.9015458822250366,-0.8137784004211426
1761818118983288800,10.664288818359376,0.47995030879974365,-0.32817208766937256,-0.3613709807395935
1761818118993216800,10.674216796875,-0.08170569688081741,0.6395021080970764,-0.11760330945253372
1761818119003145700,10.684145751953125,-0.5639956593513489,1.1683859825134277,0.320905864238739
1761818119013073700,10.69407373046875,-1.1487702131271362,1.344356656074524,0.7802862524986267
1761818119023001600,10.704001708984375,-1.739000678062439,1.5922058820724487,1.036250114440918
1761818119032930300,10.713930419921875,-2.1760056018829346,1.7911317348480225,1.226729393005371
1761818119042858500,10.7238583984375,-2.410156011581421,1.8879916667938232,1.3880615234375
1761818119052786700,10.73378662109375,-2.464003086090088,1.8623888492584229,1.459256649017334
1761818119062715600,10.743715576171875,-2.3879477977752686,1.7411402463912964,1.515616774559021
1761818119072643600,10.7536435546875,-2.244222402572632,1.5483777523040771,1.611213207244873
1761818119082571500,10.763571533203125,-2.0999019145965576,1.3564972877502441,1.7315648794174194
1761818119092500500,10.77350048828125,-1.9827336072921753,1.1226762533187866,1.8281415700912476
1761818119102428400,10.783428466796876,-1.9068175554275513,0.8759413361549377,1.8797621726989746
1761818119112356400,10.7933564453125,-1.8601458072662354,0.6836562752723694,1.8807803392410278
1761818119122285600,10.80328564453125,-1.8240479230880737,0.6098488569259644,1.8683120012283325
1761818119132213500,10.813213623046876,-1.7748970985412598,0.6569674015045166,1.8287684917449951
1761818119142141700,10.8231416015625,-1.6968179941177368,0.7484733462333679,1.735323190689087
1761818119152070400,10.8330703125,-1.5487650632858276,0.8189098834991455,1.554916262626648
1761818119161998600,10.84299853515625,-1.2849371433258057,0.8690718412399292,1.2889682054519653
1761818119171926500,10.852926513671875,-0.9495740532875061,0.8978568315505981,0.9315652847290039
1761818119181855500,10.86285546875,-0.5690383911132812,0.8857804536819458,0.5361433625221252
1761818119191783400,10.872783447265626,-0.18371456861495972,0.8208681344985962,0.14838473498821259
1761818119201712600,10.882712646484375,0.20450560748577118,0.6507357954978943,-0.21652905642986298
1761818119211640600,10.892640625,0.5884337425231934,0.4013986587524414,-0.5690166354179382
1761818119221568500,10.902568603515626,0.9300283789634705,0.10119462758302689,-0.9017930030822754
1761818119231497500,10.91249755859375,1.2455531358718872,-0.1338328719139099,-1.1700174808502197
1761818119241425400,10.92242529296875,1.5216881036758423,-0.21895788609981537,-1.3917491436004639
1761818119251353600,10.932353515625,1.6975955963134766,-0.0017484044656157494,-1.6041717529296875
1761818119261282600,10.942282470703125,1.8190102577209473,0.5310662388801575,-1.8682196140289307
1761818119271210500,10.95221044921875,1.9410854578018188,1.2147490978240967,-2.1903061866760254
1761818119281138400,10.962138427734375,2.0808889865875244,1.985512137413025,-2.5358872413635254
1761818119291067600,10.972067626953125,2.2280466556549072,2.8172075748443604,-2.9105424880981445
1761818119300995600,10.98199560546875,2.362236738204956,3.5530319213867188,-3.321286201477051
1761818119310923500,10.991923583984375,2.387486219406128,3.931967258453369,-3.7313551902770996
1761818119320852500,11.0018525390625,2.25992751121521,3.6674745082855225,-4.000764846801758
1761818119330780400,11.011780517578124,1.9113640785217285,2.8237175941467285,-3.908001661300659
1761818119340708600,11.02170849609375,1.3490700721740723,1.7585421800613403,-3.2580320835113525
1761818119350637300,11.03163720703125,0.7489283084869385,0.7635224461555481,-2.10089373588562
1761818119360565500,11.0415654296875,0.3157571852207184,0.013764850795269012,-0.772511899471283
1761818119370493400,11.051493408203125,0.09570363163948059,-0.22287258505821228,0.3173418641090393
1761818119380422700,11.061422607421875,0.025791127234697342,0.23471654951572418,0.939096212387085
1761818119390350600,11.0713505859375,-0.002125993836671114,1.264406681060791,1.1149191856384277
1761818119400279600,11.081279541015626,-0.10972622036933899,2.553325891494751,1.062990427017212
1761818119410207500,11.09120751953125,-0.27430784702301025,3.8657891750335693,0.9966632127761841
1761818119420135400,11.101135498046874,-0.40175315737724304,4.828937530517578,1.0210111141204834
1761818119430064400,11.111064453125,-0.4508470594882965,5.2365522384643555,1.1360092163085938
1761818119439992300,11.120992431640625,-0.385470986366272,5.162502765655518,1.3364472389221191
1761818119449920500,11.13092041015625,-0.32566431164741516,4.631039142608643,1.5008203983306885
1761818119459849500,11.140849365234375,-0.24263332784175873,3.925245523452759,1.6725589036941528
1761818119469777700,11.150777587890625,-0.09546519070863724,3.1738924980163574,1.8914767503738403
1761818119479705600,11.16070556640625,0.048553768545389175,2.3737802505493164,2.139039993286133
1761818119489634600,11.170634521484375,0.15620897710323334,1.6700955629348755,2.301272392272949
1761818119499562500,11.1805625,0.24451301991939545,1.1024837493896484,2.306600570678711
1761818119509490400,11.190490478515626,0.33103644847869873,0.7597270011901855,2.109940528869629
1761818119519419400,11.20041943359375,0.41747093200683594,0.7185643315315247,1.722494125366211
1761818119529347300,11.210347412109375,0.5151995420455933,0.9330348968505859,1.205229640007019
1761818119539275500,11.220275634765626,0.6019104719161987,1.2806363105773926,0.6484867334365845
1761818119549204500,11.23020458984375,0.6772087812423706,1.633837103843689,0.18097633123397827
1761818119559132700,11.240132568359375,0.7178742289543152,1.9635177850723267,-0.15591327846050262
1761818119569060600,11.250060546875,0.690237283706665,2.0672152042388916,-0.4066969156265259
1761818119578989600,11.259989501953125,0.6186384558677673,1.9367884397506714,-0.5689492225646973
1761818119588917500,11.26991748046875,0.5521355867385864,1.660428762435913,-0.6466661095619202
1761818119598845400,11.279845458984376,0.5065510869026184,1.3059356212615967,-0.6905850768089294
1761818119608774400,11.2897744140625,0.4664844572544098,0.9469664096832275,-0.7592363357543945
1761818119618702300,11.299702392578125,0.42473912239074707,0.6316225528717041,-0.887270987033844
1761818119628630300,11.30963037109375,0.33151742815971375,0.3317241370677948,-1.001516580581665
1761818119638559500,11.3195595703125,0.20102013647556305,0.2454928457736969,-0.9484528303146362
1761818119648487700,11.32948779296875,0.039273060858249664,0.3452422618865967,-0.7625498175621033
1761818119658416400,11.33941650390625,-0.15863442420959473,0.7979051470756531,-0.5197232961654663
1761818119668344600,11.349344482421875,-0.38022270798683167,1.7330936193466187,-0.38563331961631775
1761818119678272500,11.3592724609375,-0.3403615653514862,1.0827704668045044,-1.0767420530319214
1761818119688201500,11.369201416015626,0.08052828907966614,-0.1816171407699585,-1.949253797531128
1761818119698129400,11.37912939453125,0.5566495656967163,-0.5234482288360596,-1.9959486722946167
1761818119708057300,11.389057373046874,0.9007048606872559,-0.15807218849658966,-1.7113381624221802
1761818119717986600,11.398986572265626,1.1124870777130127,0.27020832896232605,-1.4042704105377197
1761818119727914500,11.40891455078125,1.2383389472961426,0.46967756748199463,-1.1729496717453003
1761818119737842400,11.418842529296874,1.2539619207382202,0.561629056930542,-0.980254054069519
1761818119747771400,11.428771484375,1.1696521043777466,0.6764784455299377,-0.7659398317337036
1761818119757699600,11.438699462890625,1.0745623111724854,0.6921841502189636,-0.5203362107276917
1761818119767627500,11.44862744140625,1.0247653722763062,0.5647477507591248,-0.2610572576522827
1761818119777556500,11.458556396484376,1.0104252099990845,0.3692150413990021,-0.006593020632863045
1761818119787484400,11.468484375,0.9739628434181213,0.13303707540035248,0.16141287982463837
1761818119797412400,11.478412353515624,0.9067835211753845,-0.09542033821344376,0.14872130751609802
1761818119807341600,11.488341552734376,0.7973296642303467,-0.24717412889003754,-0.03738420456647873
1761818119817269500,11.49826953125,0.7053033113479614,-0.14437530934810638,-0.2424875646829605
1761818119827198500,11.508198486328125,0.6717402935028076,0.060233693569898605,-0.4011438488960266
1761818119837126400,11.51812646484375,0.6955606937408447,0.33993351459503174,-0.505870521068573
1761818119847054600,11.5280546875,0.7482523322105408,0.6097234487533569,-0.5489795207977295
1761818119856982500,11.537982421875,0.7255496978759766,0.7920756340026855,-0.5275879502296448
1761818119866911500,11.547911376953126,0.632541298866272,0.9135358333587646,-0.4206071197986603
1761818119876839400,11.55783935546875,0.4943277835845947,0.9265006184577942,-0.268018901348114
1761818119886768600,11.5677685546875,0.3473580479621887,0.7617874145507812,-0.09862976521253586
1761818119896696600,11.577696533203126,0.2255016416311264,0.49707427620887756,0.059408605098724365
1761818119906624500,11.58762451171875,0.14692933857440948,0.22482049465179443,0.13579216599464417
1761818119916553500,11.597553466796874,0.12968803942203522,0.025274626910686493,0.1512691229581833
1761818119926481400,11.6074814453125,0.16985729336738586,-0.08252738416194916,0.134987935423851
1761818119936409600,11.61740966796875,0.1996319591999054,-0.14971813559532166,0.11102800816297531
1761818119946338300,11.62733837890625,0.17093327641487122,-0.2431316077709198,0.11916878074407578
1761818119956266500,11.6372666015625,0.10395451635122299,-0.3496505916118622,0.18909567594528198
1761818119966194400,11.6471943359375,0.06180539354681969,-0.4648045301437378,0.2956902086734772
1761818119976123600,11.65712353515625,0.062215790152549744,-0.5621081590652466,0.39695531129837036
1761818119986051600,11.667051513671876,0.08361581712961197,-0.5698266625404358,0.43806126713752747
1761818119995979500,11.6769794921875,0.10872410237789154,-0.4946799576282501,0.413217157125473
1761818120005908500,11.686908447265624,0.12945812940597534,-0.35145074129104614,0.3434470295906067
1761818120015836400,11.69683642578125,0.1424359828233719,-0.18393178284168243,0.25168702006340027
1761818120025764400,11.706764404296875,0.14207354187965393,-0.02471013367176056,0.14576540887355804
1761818120035693600,11.716693603515624,0.12857051193714142,0.10149121284484863,0.03918943554162979
1761818120045621800,11.726621826171876,0.09834376722574234,0.16169887781143188,-0.0357881560921669
1761818120055549700,11.7365498046875,0.07050813734531403,0.15283215045928955,-0.06200750917196274
1761818120065478700,11.746478759765624,0.04887455701828003,0.12381142377853394,-0.039900172501802444
1761818120075406600,11.756406494140625,0.03367163613438606,0.09413475543260574,0.008592529222369194
1761818120085335800,11.766335693359375,0.01269556488841772,0.05661286041140556,0.058078330010175705
1761818120095263700,11.776263671875,0.003768382826820016,0.030403628945350647,0.09295588731765747
1761818120105191700,11.786191650390625,0.017289649695158005,0.032986048609018326,0.08476234972476959
1761818120115120600,11.79612060546875,0.03417994827032089,0.06341239809989929,0.0516589879989624
1761818120125048600,11.806048583984374,0.026660777628421783,0.14026138186454773,0.0251096673309803
1761818120134976500,11.8159765625,-0.0001535244518890977,0.2584173083305359,0.012841550633311272
1761818120144905500,11.825905517578125,-0.03338863328099251,0.3871649205684662,0.0055766236037015915
1761818120154833700,11.835833740234374,-0.06540222465991974,0.5683296322822571,-0.024610839784145355
1761818120164761600,11.84576171875,-0.10799489915370941,0.7587337493896484,-0.06352050602436066
1761818120174690800,11.85569091796875,-0.18897736072540283,0.8503156304359436,-0.07149933278560638
1761818120184618800,11.86561865234375,-0.21364529430866241,0.7206780314445496,-0.0864579826593399
1761818120194546700,11.875546630859375,-0.1361028403043747,0.5242499113082886,-0.08420868217945099
1761818120204475600,11.8854755859375,-0.03941550850868225,0.2767099142074585,-0.09772995859384537
1761818120214403600,11.895403564453124,0.0035444749519228935,0.018530018627643585,-0.11596515774726868
1761818120224331500,11.90533154296875,0.006333865690976381,-0.22283898293972015,-0.13668116927146912
1761818120234260500,11.915260498046875,0.016856547445058823,-0.3859219253063202,-0.1579369157552719
1761818120244188700,11.925188720703124,-0.009857344441115856,-0.4254034161567688,-0.17498576641082764
1761818120254116600,11.93511669921875,-0.0832844227552414,-0.3421838879585266,-0.17670002579689026
