time,seconds_elapsed,z,y,x
1761818108395931400,0.076931396484375,0.02906893566250801,0.46243980526924133,-0.15550197660923004
1761818108405860400,0.0868603515625,0.025046763941645622,0.5269338488578796,-0.28120025992393494
1761818108415788300,0.096788330078125,0.0264824740588665,0.5355430245399475,-0.3943678140640259
1761818108425717500,0.106717529296875,0.016261527314782143,0.542518138885498,-0.49081897735595703
1761818108435645700,0.116645751953125,-0.001112668658606708,0.4807538390159607,-0.5635195374488831
1761818108445573600,0.12657373046875,-0.042277947068214417,0.39295288920402527,-0.6350163817405701
1761818108455502600,0.136502685546875,-0.08004503697156906,0.3527474105358124,-0.705639660358429
1761818108465430500,0.146430419921875,-0.05742094665765762,0.33483418822288513,-0.7367709875106812
1761818108475359500,0.156359375,0.013428723439574242,0.3080073595046997,-0.7449373006820679
1761818108485287400,0.166287353515625,0.08507627993822098,0.341646283864975,-0.7453897595405579
1761818108495215400,0.17621533203125,0.11942066997289658,0.3024868965148926,-0.7342628240585327
1761818108505144600,0.18614453125,0.11348315328359604,0.19315214455127716,-0.7278429865837097
1761818108515072500,0.196072509765625,0.14961612224578857,0.1904948502779007,-0.7195301651954651
1761818108525001500,0.20600146484375,0.2291964292526245,0.28688663244247437,-0.7210372686386108
1761818108534929400,0.215929443359375,0.2686719298362732,0.4578962028026581,-0.7335304617881775
1761818108544857600,0.225857666015625,0.3042086362838745,0.7121055722236633,-0.7450661659240723
1761818108554786600,0.23578662109375,0.3956187069416046,1.0170245170593262,-0.6942653059959412
1761818108564714500,0.245714599609375,0.5427019000053406,1.29701828956604,-0.5528309345245361
1761818108574643500,0.2556435546875,0.7936760783195496,1.5921865701675415,-0.273127943277359
1761818108584571600,0.265571533203125,1.0984364748001099,1.952086091041565,0.15219645202159882
1761818108594499600,0.27549951171875,1.3287056684494019,2.1661980152130127,0.638465940952301
1761818108604428500,0.285428466796875,1.4582886695861816,2.2763302326202393,1.1517876386642456
1761818108614356500,0.2953564453125,1.5151288509368896,2.351146697998047,1.6586313247680664
1761818108624285400,0.305285400390625,1.554290533065796,2.364262819290161,2.138427972793579
1761818108634213400,0.31521337890625,1.4546902179718018,2.2668983936309814,2.522305727005005
1761818108644141300,0.325141357421875,0.9760645031929016,1.7987596988677979,2.6349117755889893
1761818108654070300,0.3350703125,0.31048116087913513,0.8999140858650208,2.320788860321045
1761818108663998700,0.344998779296875,-0.03623869642615318,-0.06479843705892563,1.821083664894104
1761818108673927400,0.354927490234375,-0.19477880001068115,-0.7052007913589478,1.4209117889404297
1761818108683855600,0.364855712890625,-0.31640538573265076,-1.104920744895935,1.0958958864212036
1761818108693783600,0.374783447265625,-0.473558247089386,-1.2253673076629639,0.866727888584137
1761818108703712500,0.38471240234375,-0.6263080835342407,-1.0368138551712036,0.8626330494880676
1761818108713640400,0.394640380859375,-0.7457908391952515,-0.71146559715271,0.9518529176712036
1761818108723568400,0.404568359375,-0.8153238296508789,-0.426341712474823,1.007437825202942
1761818108733497300,0.414497314453125,-0.8452684283256531,-0.3077716827392578,0.9228673577308655
1761818108743425500,0.424425537109375,-0.8352317810058594,-0.4069800078868866,0.714449942111969
1761818108753354500,0.4343544921875,-0.8266534805297852,-0.701150119304657,0.41473060846328735
1761818108763282400,0.444282470703125,-0.8630130290985107,-1.1602619886398315,0.1826038956642151
1761818108773210600,0.454210693359375,-0.9735310673713684,-1.7393512725830078,0.04157274216413498
1761818108783139600,0.4641396484375,-1.1509321928024292,-2.3509864807128906,0.006844590418040752
1761818108793067500,0.474067626953125,-1.353857398033142,-2.8819189071655273,0.03578809276223183
1761818108802996500,0.48399658203125,-1.538273811340332,-3.256652593612671,0.0648927167057991
1761818108812924400,0.49392431640625,-1.6715866327285767,-3.491635799407959,0.05084240809082985
1761818108822852400,0.503852294921875,-1.7096953392028809,-3.330976724624634,0.005212871357798576
1761818108832781600,0.513781494140625,-1.6167973279953003,-2.853598117828369,0.07769506424665451
1761818108842709500,0.52370947265625,-1.445618748664856,-2.4095914363861084,0.24099956452846527
1761818108852638500,0.533638427734375,-1.328309416770935,-2.075733184814453,0.3127581775188446
1761818108862566400,0.54356640625,-1.3263298273086548,-1.6457163095474243,0.21776162087917328
1761818108872494300,0.553494384765625,-1.3497568368911743,-1.1783502101898193,-0.019292738288640976
1761818108882423300,0.56342333984375,-1.2737311124801636,-0.5296822190284729,-0.28699156641960144
1761818108892351500,0.5733515625,-1.0254136323928833,0.17879292368888855,-0.5381795763969421
1761818108902280400,0.583280517578125,-0.5436002016067505,0.5809739232063293,-0.6907824277877808
1761818108912208600,0.593208740234375,0.09953564405441284,0.6037924289703369,-0.6414551138877869
1761818108922136600,0.603136474609375,0.6384896636009216,0.45834359526634216,-0.3933853805065155
1761818108932065500,0.6130654296875,0.9842897057533264,0.51039057970047,-0.022831546142697334
1761818108941993500,0.622993408203125,1.2729151248931885,0.5425754189491272,0.20652547478675842
1761818108951922400,0.63292236328125,1.834096074104309,0.591910719871521,0.3759443461894989
1761818108961850400,0.642850341796875,2.7629196643829346,0.5734164118766785,0.720425009727478
1761818108971778300,0.6527783203125,3.6793200969696045,0.49593278765678406,1.1057159900665283
1761818108981707500,0.66270751953125,4.509280681610107,0.3603997230529785,1.4446918964385986
1761818108991635500,0.672635498046875,5.133116245269775,0.0422784797847271,1.6843593120574951
1761818109001563600,0.682563720703125,5.395701885223389,-0.41100725531578064,1.8525683879852295
1761818109011492600,0.69249267578125,5.244698524475098,-0.8629845380783081,2.0261411666870117
1761818109021418800,0.702418701171875,4.733454704284668,-1.2294731140136719,2.1844942569732666
1761818109031347700,0.71234765625,4.117501735687256,-1.504591464996338,2.234658718109131
1761818109041275600,0.722275634765625,3.694035530090332,-1.5564945936203003,2.156184434890747
1761818109051203800,0.732203857421875,3.26511287689209,-1.6653717756271362,2.096783399581909
1761818109061132800,0.7421328125,2.8645074367523193,-1.6446284055709839,2.0369231700897217
1761818109071061000,0.75206103515625,2.4259066581726074,-1.6955838203430176,1.9176921844482422
1761818109080990000,0.761989990234375,1.8393055200576782,-1.9183686971664429,1.7187974452972412
1761818109090918000,0.77191796875,1.0146169662475586,-2.065955877304077,1.3421263694763184
1761818109100845800,0.781845703125,-0.023619042709469795,-2.120783805847168,0.6859940886497498
1761818109110774800,0.79177490234375,-1.0761131048202515,-2.1501078605651855,-0.1802065223455429
1761818109120702700,0.80170263671875,-1.918274164199829,-2.176687717437744,-1.1625092029571533
1761818109130632000,0.8116318359375,-2.5651378631591797,-1.810784935951233,-2.097871780395508
1761818109140560000,0.821559814453125,-3.1057374477386475,-1.20009446144104,-2.9375100135803223
1761818109150487800,0.83148779296875,-3.6838572025299072,-0.5768918395042419,-3.6357533931732178
1761818109160416800,0.841416748046875,-4.320089817047119,-0.16595488786697388,-4.1783270835876465
1761818109170344700,0.8513447265625,-4.929291725158691,0.15696005523204803,-4.5047783851623535
1761818109180273700,0.861273681640625,-5.466102600097656,0.5515395998954773,-4.718140125274658
1761818109190201900,0.871201904296875,-5.969900608062744,1.2173492908477783,-4.952865123748779
1761818109200129800,0.8811298828125,-6.377490997314453,1.9373745918273926,-5.299705982208252
1761818109210059000,0.89105908203125,-6.575425624847412,2.5650124549865723,-5.724750518798828
1761818109219987000,0.900987060546875,-6.633632183074951,3.048464059829712,-6.1479644775390625
1761818109229915000,0.910914794921875,-6.554991245269775,3.043663501739502,-6.381856918334961
1761818109239843800,0.92084375,-6.230317115783691,2.4011693000793457,-6.128006458282471
1761818109249771800,0.930771728515625,-5.695333003997803,1.2844468355178833,-5.411627292633057
1761818109259700700,0.94070068359375,-4.844142913818359,-0.008956477046012878,-4.16077995300293
1761818109269628700,0.950628662109375,-3.5843238830566406,-1.0479645729064941,-2.574002742767334
1761818109279556900,0.960556884765625,-2.0801658630371094,-1.7716602087020874,-0.9934341907501221
1761818109289485800,0.97048583984375,-0.8436508178710938,-2.110304832458496,0.3823135495185852
1761818109299414000,0.9804140625,0.15524524450302124,-2.349419355392456,1.3221012353897095
1761818109309343000,0.990343017578125,0.8852858543395996,-2.731091022491455,1.767961025238037
1761818109319271000,1.00027099609375,1.4791146516799927,-2.9499380588531494,2.0375702381134033
1761818109329198800,1.01019873046875,2.1054883003234863,-2.9469094276428223,2.3272225856781006
1761818109339127800,1.0201279296875,2.8365209102630615,-2.977444648742676,2.7230796813964844
1761818109349055700,1.0300556640625,3.743847131729126,-2.943352699279785,3.3019094467163086
1761818109358984700,1.039984619140625,4.779792308807373,-2.737476110458374,4.04146146774292
1761818109368913000,1.049912841796875,5.668997287750244,-2.3152570724487305,4.717408657073975
1761818109378840800,1.0598408203125,6.261059284210205,-1.8160423040390015,5.147219657897949
1761818109388769800,1.069769775390625,6.514945030212402,-1.3265812397003174,5.249032020568848
1761818109398697700,1.07969775390625,6.530239105224609,-0.8650916814804077,5.016406536102295
1761818109408626700,1.089626708984375,6.443418025970459,-0.5128483772277832,4.514110565185547
1761818109418555000,1.099554931640625,6.288496017456055,-0.372729629278183,3.932199716567993
1761818109428482800,1.10948291015625,6.053540229797363,-0.33333829045295715,3.3901824951171875
1761818109438411800,1.119411865234375,5.707372665405273,-0.6233309507369995,2.851872205734253
1761818109448340000,1.129340087890625,5.141305923461914,-1.2465378046035767,2.364871025085449
1761818109458269000,1.13926904296875,4.217491149902344,-1.9070401191711426,1.9890925884246826
1761818109468196900,1.14919677734375,2.994475841522217,-2.694133996963501,1.7414554357528687
1761818109478124800,1.159124755859375,1.7166531085968018,-3.72495436668396,1.5583065748214722
1761818109488053800,1.1690537109375,0.5959653854370117,-4.829212188720703,1.3465051651000977
1761818109497981700,1.178981689453125,-0.22146767377853394,-5.608161926269531,1.0821853876113892
1761818109507910700,1.18891064453125,-0.8071907758712769,-5.846827507019043,0.7941578030586243
1761818109517838600,1.198838623046875,-1.212740421295166,-5.5225019454956055,0.45258957147598267
1761818109527767000,1.20876708984375,-1.4298887252807617,-4.615808010101318,0.04008616507053375
1761818109537696000,1.218696044921875,-1.4763108491897583,-3.4497296810150146,-0.35667264461517334
1761818109547624000,1.2286240234375,-1.5569941997528076,-2.1840429306030273,-0.622016429901123
1761818109557553000,1.238552978515625,-1.773787260055542,-1.1006410121917725,-0.7243641018867493
1761818109567480800,1.248480712890625,-2.1313583850860596,-0.6572313904762268,-0.6517263650894165
1761818109577408800,1.25840869140625,-2.5140504837036133,-0.9337599277496338,-0.45660004019737244
1761818109587337700,1.268337646484375,-2.7698936462402344,-1.6472692489624023,-0.23061563074588776
1761818109597265700,1.278265625,-2.8544626235961914,-2.574146032333374,-0.04423856735229492
1761818109607195000,1.28819482421875,-2.7853052616119385,-3.7235162258148193,0.11091959476470947
1761818109617122800,1.298122802734375,-2.760472059249878,-4.561282157897949,0.32668864727020264
1761818109627050800,1.30805078125,-2.922774076461792,-5.121910572052002,0.5701369643211365
1761818109636979700,1.317979736328125,-3.230478286743164,-5.448232173919678,0.7455838918685913
1761818109646908000,1.327907958984375,-3.592780351638794,-5.398223400115967,0.8696579337120056
1761818109656836900,1.3378369140625,-3.860440969467163,-4.892495632171631,0.9119158983230591
1761818109666764800,1.347764892578125,-3.9465019702911377,-3.915316343307495,0.7986111640930176
1761818109676692700,1.357692626953125,-3.9011218547821045,-2.8576393127441406,0.5151081085205078
1761818109686622000,1.3676220703125,-3.841923475265503,-2.2033298015594482,0.1549064964056015
1761818109696550000,1.3775498046875,-3.695369243621826,-2.050097703933716,-0.14826270937919617
1761818109706478800,1.387478759765625,-3.337944984436035,-2.18544340133667,-0.28536224365234375
1761818109716406800,1.39740673828125,-2.8921849727630615,-2.4891958236694336,-0.3098350763320923
1761818109726334700,1.407334716796875,-2.4809987545013428,-2.75034236907959,-0.28775668144226074
1761818109736263700,1.417263671875,-2.122609853744507,-2.796741247177124,-0.23316720128059387
1761818109746191600,1.427191650390625,-1.6921265125274658,-2.7580716609954834,-0.13519111275672913
1761818109756119800,1.437119873046875,-1.1440989971160889,-2.761935234069824,-0.07931612432003021
1761818109766049000,1.447049072265625,-0.48335495591163635,-2.85186505317688,-0.15512913465499878
1761818109775977000,1.45697705078125,0.4265579879283905,-2.99387264251709,-0.4722948372364044
1761818109785906000,1.466906005859375,1.493517279624939,-2.802056074142456,-0.981706976890564
1761818109795833900,1.476833740234375,2.571073532104492,-2.0861265659332275,-1.6741211414337158
1761818109805761800,1.48676171875,3.7439136505126953,-1.0634568929672241,-2.4168310165405273
1761818109815690800,1.496690673828125,4.661345958709717,-0.1334717720746994,-3.120893955230713
1761818109825618700,1.50661865234375,5.172727108001709,0.4111558496952057,-3.6894259452819824
1761818109835548000,1.5165478515625,5.1113200187683105,0.5295051336288452,-4.106515407562256
1761818109845475800,1.526475830078125,4.504623889923096,0.12261006981134415,-4.211070537567139
1761818109855403800,1.53640380859375,3.4959120750427246,-0.8261961936950684,-3.8391072750091553
1761818109865332700,1.546332763671875,2.3277833461761475,-1.9709721803665161,-2.9106457233428955
1761818109875261000,1.556260986328125,1.2401920557022095,-2.815434217453003,-1.5352202653884888
1761818109885190000,1.56618994140625,0.4292014241218567,-3.0581138134002686,-0.09177093207836151
1761818109895117800,1.576117919921875,0.09381650388240814,-2.892930507659912,0.8277099132537842
1761818109905045800,1.586045654296875,0.016089221462607384,-2.4084408283233643,1.1515429019927979
1761818109914975000,1.59597509765625,-0.031193073838949203,-1.7791122198104858,1.1113083362579346
1761818109924903000,1.60590283203125,-0.2139224112033844,-1.1059311628341675,1.0063883066177368
1761818109934831900,1.615831787109375,-0.6435273289680481,-0.5782542824745178,1.0217571258544922
1761818109944759800,1.625759765625,-1.3146891593933105,-0.14721554517745972,1.2497591972351074
1761818109954687700,1.635687744140625,-2.1154496669769287,0.16704411804676056,1.5577508211135864
1761818109964616700,1.64561669921875,-2.846048355102539,0.28760993480682373,1.7856316566467285
1761818109974544600,1.655544677734375,-3.3872320652008057,0.2744360864162445,1.9316258430480957
1761818109984473900,1.665473876953125,-3.6948471069335938,0.24308961629867554,2.042357921600342
1761818109994402000,1.675402099609375,-3.8133926391601562,0.21272185444831848,2.113184690475464
1761818110004330000,1.685330078125,-3.812614917755127,0.23105666041374207,2.1409668922424316
1761818110014259000,1.695259033203125,-3.7678334712982178,0.34119993448257446,2.1083083152770996
1761818110024187600,1.705187744140625,-3.6722490787506104,0.5236621499061584,2.0369772911071777
1761818110034116600,1.71511669921875,-3.522364854812622,0.7032500505447388,1.9385322332382202
1761818110044044800,1.725044921875,-3.3540236949920654,0.9026579260826111,1.8193869590759277
1761818110053972700,1.73497265625,-3.1496026515960693,1.0761770009994507,1.6727386713027954
1761818110063901700,1.744901611328125,-2.8490848541259766,1.1167694330215454,1.4686001539230347
1761818110073829600,1.75482958984375,-2.426671028137207,0.9467566609382629,1.1683015823364258
1761818110083758600,1.764758544921875,-1.93614661693573,0.664533257484436,0.7964521646499634
1761818110093686500,1.7746865234375,-1.4193027019500732,0.36773672699928284,0.4070417881011963
1761818110103614500,1.784614501953125,-0.9038798213005066,0.10203848034143448,0.03236592933535576
1761818110113543400,1.79454345703125,-0.45479121804237366,-0.10148827731609344,-0.3016117811203003
1761818110123471600,1.8044716796875,-0.056890446692705154,-0.3395964503288269,-0.5676474571228027
1761818110133400600,1.814400634765625,0.3754710853099823,-0.6739200949668884,-0.7426312565803528
1761818110143328800,1.824328857421875,0.8655084371566772,-1.1064212322235107,-0.855738639831543
1761818110153256700,1.834256591796875,1.4146479368209839,-1.5237147808074951,-0.9112452864646912
1761818110163185700,1.844185546875,2.0023605823516846,-1.7245709896087646,-0.9526710510253906
1761818110173113600,1.854113525390625,2.631861686706543,-1.6551002264022827,-1.0520623922348022
1761818110183042600,1.86404248046875,3.2739498615264893,-1.2321271896362305,-1.1893621683120728
1761818110192970500,1.873970458984375,3.8402676582336426,-0.47391271591186523,-1.4188792705535889
1761818110202898400,1.8838984375,4.267788887023926,0.47260937094688416,-1.7718583345413208
1761818110212827600,1.89382763671875,4.587101936340332,1.2299377918243408,-2.1956472396850586
1761818110222755600,1.903755615234375,4.722502708435059,1.5829036235809326,-2.5719850063323975
1761818110232684500,1.9136845703125,4.575558185577393,1.5226969718933105,-2.7444958686828613
1761818110242612500,1.923612548828125,4.154964447021484,0.862311065196991,-2.58921217918396
1761818110252540700,1.933540771484375,3.4460513591766357,-0.31927573680877686,-2.076176643371582
1761818110262469600,1.9434697265625,2.5784008502960205,-1.5385688543319702,-1.2352081537246704
1761818110272397600,1.9533974609375,1.8622891902923584,-2.299065589904785,-0.2745777666568756
1761818110282326800,1.963326904296875,1.420058250427246,-2.4549367427825928,0.399286150932312
1761818110292254700,1.973254638671875,1.2131556272506714,-1.9237186908721924,0.6013910174369812
1761818110302182700,1.9831826171875,1.188892126083374,-0.8692653775215149,0.3318197429180145
1761818110312111600,1.993111572265625,1.0934348106384277,0.29837682843208313,-0.192172110080719
1761818110322039600,2.00303955078125,0.7304552793502808,0.9997445344924927,-0.6289635300636292
1761818110331968500,2.012968505859375,0.058754391968250275,0.9674941897392273,-0.6624501347541809
1761818110341896400,2.022896484375,-0.8381268978118896,0.4365752041339874,-0.2735455334186554
1761818110351824600,2.03282470703125,-1.793604850769043,-0.10922102630138397,0.38951048254966736
1761818110361753600,2.042753662109375,-2.5402753353118896,-0.41002827882766724,1.03932785987854
1761818110371681800,2.052681884765625,-2.943530559539795,-0.5338950753211975,1.4949055910110474
1761818110381610800,2.06261083984375,-3.077475070953369,-0.3887253701686859,1.717820405960083
1761818110391538700,2.07253857421875,-3.042229652404785,-0.0711764395236969,1.7198084592819214
1761818110401466600,2.082466552734375,-2.947364330291748,0.23861630260944366,1.5866464376449585
1761818110411395600,2.0923955078125,-2.8619720935821533,0.4909561276435852,1.4183779954910278
1761818110421323500,2.102323486328125,-2.7861623764038086,0.6334975957870483,1.2733556032180786
1761818110431252700,2.112252685546875,-2.708928108215332,0.6704031229019165,1.1401325464248657
1761818110441180700,2.1221806640625,-2.6279189586639404,0.6782759428024292,1.0134395360946655
1761818110451108600,2.132108642578125,-2.5757038593292236,0.714300274848938,0.907737672328949
1761818110461037600,2.14203759765625,-2.548527956008911,0.8290846347808838,0.8254774212837219
1761818110470965500,2.151965576171875,-2.4962565898895264,0.9782914519309998,0.7523552775382996
1761818110480894500,2.16189453125,-2.3775906562805176,1.082065463066101,0.6559085845947266
1761818110490822700,2.17182275390625,-2.171980381011963,1.1126359701156616,0.5160481929779053
1761818110500750600,2.18175048828125,-1.8625916242599487,1.0830663442611694,0.341239869594574
1761818110510679800,2.1916796875,-1.4242031574249268,1.0118193626403809,0.10495704412460327
1761818110520607700,2.201607666015625,-0.8846874833106995,0.8970482349395752,-0.22305917739868164
1761818110530535700,2.21153564453125,-0.2945818305015564,0.6897352933883667,-0.5463064908981323
1761818110540464600,2.221464599609375,0.33796659111976624,0.2981709837913513,-0.7815698385238647
1761818110550392600,2.231392578125,0.9950099587440491,-0.2612702250480652,-0.900796115398407
1761818110560321500,2.241321533203125,1.6348307132720947,-0.828763484954834,-0.8833742737770081
1761818110570249500,2.25124951171875,2.225316047668457,-1.2792845964431763,-0.7861382365226746
1761818110580177700,2.261177734375,2.728290557861328,-1.584244728088379,-0.7187703847885132
1761818110590106600,2.271106689453125,3.1380057334899902,-1.701770305633545,-0.6859282851219177
1761818110600034800,2.281034912109375,3.4349775314331055,-1.5904067754745483,-0.7111479043960571
1761818110609963800,2.2909638671875,3.631150007247925,-1.2962454557418823,-0.847961962223053
1761818110619891700,2.3008916015625,3.7821860313415527,-0.8969635963439941,-1.1059125661849976
1761818110629819600,2.310819580078125,3.9716954231262207,-0.5102608799934387,-1.4179130792617798
1761818110639748600,2.32074853515625,4.249983310699463,-0.3212885558605194,-1.6862174272537231
1761818110649676500,2.330676513671875,4.5410356521606445,-0.33502697944641113,-1.819305181503296
1761818110659605500,2.34060546875,4.645811557769775,-0.569568932056427,-1.8058639764785767
1761818110669533700,2.35053369140625,4.360315799713135,-0.9021716713905334,-1.6644059419631958
1761818110679461600,2.360461669921875,3.573711633682251,-1.0782023668289185,-1.3527108430862427
1761818110689390600,2.370390625,2.421367645263672,-1.1258203983306885,-0.8546384572982788
1761818110699318500,2.380318603515625,1.2410389184951782,-1.0163501501083374,-0.22597773373126984
1761818110709247500,2.39024755859375,0.30679136514663696,-0.8380166292190552,0.402283251285553
1761818110719175700,2.40017578125,-0.2873542904853821,-0.6406345963478088,0.9012051820755005
1761818110729103600,2.410103515625,-0.7599830627441406,-0.3505500257015228,1.221341609954834
1761818110739032600,2.420032470703125,-1.2686681747436523,-0.048594433814287186,1.371346354484558
1761818110748960800,2.429960693359375,-1.8443835973739624,0.19684462249279022,1.3329925537109375
1761818110758889700,2.4398896484375,-2.417611598968506,0.36824139952659607,1.2170497179031372
1761818110768817700,2.449817626953125,-2.81803297996521,0.4717465043067932,1.131240725517273
1761818110778745600,2.45974560546875,-3.00881028175354,0.463991641998291,1.140184760093689
1761818110788674600,2.469674560546875,-3.088320255279541,0.39199867844581604,1.2714892625808716
1761818110798602500,2.4796025390625,-3.138873338699341,0.3201676309108734,1.4531711339950562
1761818110808530700,2.48953076171875,-3.1531333923339844,0.24817119538784027,1.6212842464447021
1761818110818459400,2.49945947265625,-3.1198372840881348,0.19846569001674652,1.7206082344055176
1761818110828387600,2.5093876953125,-3.0307366847991943,0.17615532875061035,1.7272570133209229
1761818110838316800,2.51931689453125,-2.8877406120300293,0.23489773273468018,1.6511518955230713
1761818110848244700,2.52924462890625,-2.7291982173919678,0.3791942000389099,1.5106005668640137
1761818110858172700,2.539172607421875,-2.5797178745269775,0.5598257780075073,1.35245680809021
1761818110868101600,2.5491015625,-2.444650650024414,0.7477077841758728,1.1956110000610352
1761818110878029600,2.559029541015625,-2.2848281860351562,0.9400181174278259,1.0132355690002441
1761818110887958500,2.56895849609375,-2.1009137630462646,1.1200954914093018,0.8009533882141113
1761818110897886500,2.578886474609375,-1.8425482511520386,1.3013195991516113,0.5620872974395752
1761818110907814400,2.588814453125,-1.4712971448898315,1.441605567932129,0.2662660479545593
1761818110917743600,2.59874365234375,-1.0589556694030762,1.4731671810150146,-0.1159825325012207
1761818110927671600,2.608671630859375,-0.6011345982551575,1.3683830499649048,-0.5295780897140503
1761818110937600500,2.6186005859375,-0.10124406218528748,1.032079815864563,-0.8344325423240662
1761818110947528700,2.62852880859375,0.40665778517723083,0.46357858180999756,-0.9532260298728943
1761818110957456600,2.63845654296875,0.9029234647750854,-0.2031262218952179,-0.9230252504348755
1761818110967385600,2.648385498046875,1.3667597770690918,-0.8410601019859314,-0.8024882078170776
1761818110977313500,2.6583134765625,1.8188107013702393,-1.3630303144454956,-0.6488935947418213
1761818110987241500,2.668241455078125,2.249032974243164,-1.72761070728302,-0.5190820693969727
1761818110997170700,2.678170654296875,2.645695686340332,-1.8802428245544434,-0.4748208522796631
1761818111007098600,2.6880986328125,2.9761905670166016,-1.7440519332885742,-0.5449504256248474
1761818111017027600,2.698027587890625,3.276332378387451,-1.3394496440887451,-0.7359312772750854
1761818111026955500,2.70795556640625,3.571828603744507,-0.7870514392852783,-1.0241092443466187
1761818111036883700,2.7178837890625,3.892793655395508,-0.2207169234752655,-1.363601565361023
1761818111046812400,2.7278125,4.246405601501465,0.2323453575372696,-1.6515542268753052
1761818111056740600,2.73774072265625,4.537137031555176,0.5004209876060486,-1.8034194707870483
1761818111066669600,2.747669677734375,4.601073265075684,0.5179252028465271,-1.800222635269165
1761818111076597500,2.757597412109375,4.357321262359619,0.2994125485420227,-1.660136103630066
1761818111086525400,2.767525390625,3.8119380474090576,-0.18653792142868042,-1.439558982849121
1761818111096454400,2.777454345703125,3.017644166946411,-0.8816525340080261,-1.127318263053894
1761818111106382600,2.787382568359375,2.0545482635498047,-1.4285308122634888,-0.7343927621841431
1761818111116311600,2.7973115234375,1.099485993385315,-1.822417140007019,-0.27610161900520325
1761818111126239500,2.807239501953125,0.4569377303123474,-1.8177012205123901,0.17544931173324585
1761818111136167400,2.81716748046875,0.08264214545488358,-1.276628017425537,0.4991762638092041
1761818111146096400,2.827096435546875,-0.27227386832237244,-0.42997321486473083,0.6089887619018555
1761818111156024600,2.837024658203125,-0.7385571599006653,0.35814350843429565,0.5391774773597717
1761818111165952500,2.846952392578125,-1.3467661142349243,1.047232985496521,0.33111560344696045
1761818111175881500,2.856881591796875,-2.0529730319976807,1.6174505949020386,0.0819779559969902
1761818111185809400,2.866809326171875,-2.711261034011841,1.8994852304458618,0.06095975637435913
1761818111195738600,2.876738525390625,-3.1753993034362793,1.8013019561767578,0.31472572684288025
1761818111205666600,2.88666650390625,-3.4504401683807373,1.4107786417007446,0.7203403115272522
1761818111215594500,2.896594482421875,-3.554807662963867,0.8894204497337341,1.1396872997283936
1761818111225523500,2.9065234375,-3.4978017807006836,0.3499566614627838,1.457972526550293
1761818111235451400,2.916451416015625,-3.3733432292938232,-0.050694335252046585,1.6318581104278564
1761818111245380400,2.92638037109375,-3.239759683609009,-0.3010919392108917,1.6812535524368286
1761818111255308300,2.936308349609375,-3.1221113204956055,-0.3499332368373871,1.645267128944397
1761818111265236500,2.946236572265625,-2.997201681137085,-0.20376591384410858,1.5307117700576782
1761818111275165400,2.95616552734375,-2.8773248195648193,0.01739257201552391,1.3361364603042603
1761818111285093600,2.96609375,-2.763288974761963,0.2449524998664856,1.0951884984970093
1761818111295021600,2.976021484375,-2.6267831325531006,0.524818480014801,0.8584747910499573
1761818111304950500,2.985950439453125,-2.4578981399536133,0.8445025086402893,0.6397597193717957
1761818111314878500,2.99587841796875,-2.2376224994659424,1.156937837600708,0.459510862827301
1761818111324807400,3.005807373046875,-1.9496314525604248,1.4045008420944214,0.3015662431716919
1761818111334735400,3.0157353515625,-1.6118603944778442,1.5500963926315308,0.16673438251018524
1761818111344663300,3.025663330078125,-1.2238585948944092,1.5170800685882568,0.05525340139865875
1761818111354592500,3.035592529296875,-0.8188525438308716,1.2980886697769165,-0.05126292258501053
1761818111364520400,3.0455205078125,-0.43260708451271057,0.9511066675186157,-0.16115505993366241
1761818111374448600,3.05544873046875,-0.043605268001556396,0.47149190306663513,-0.27210289239883423
1761818111384377600,3.065377685546875,0.3753693699836731,-0.07096285372972488,-0.3230536878108978
1761818111394305500,3.075305419921875,0.8353502750396729,-0.5870850682258606,-0.3158857822418213
1761818111404234500,3.085234375,1.3169680833816528,-1.0142589807510376,-0.29227420687675476
1761818111414162400,3.095162353515625,1.8074924945831299,-1.2668622732162476,-0.3027481436729431
1761818111424090400,3.10509033203125,2.26519775390625,-1.3159472942352295,-0.3869074881076813
1761818111434019600,3.11501953125,2.63507342338562,-1.1877679824829102,-0.5737003087997437
1761818111443947500,3.124947509765625,2.912792682647705,-0.8701913356781006,-0.8773640394210815
1761818111453875500,3.13487548828125,3.179373025894165,-0.4810260236263275,-1.2564804553985596
1761818111463804400,3.144804443359375,3.469848155975342,-0.12411582469940186,-1.59334135055542
1761818111473732400,3.154732421875,3.774650812149048,0.1820068210363388,-1.830445408821106
1761818111483661300,3.164661376953125,4.0153422355651855,0.33909016847610474,-2.03010630607605
1761818111493589500,3.174589599609375,4.145233154296875,0.20151713490486145,-2.1966068744659424
1761818111503517400,3.184517333984375,4.14338493347168,-0.2512601912021637,-2.2409205436706543
1761818111513446700,3.19444677734375,3.83056640625,-0.6338523030281067,-2.0634868144989014
1761818111523374600,3.20437451171875,3.0949509143829346,-0.761456310749054,-1.6922388076782227
1761818111533303600,3.214303466796875,2.1155359745025635,-0.5977504849433899,-1.1764167547225952
1761818111543231500,3.2242314453125,1.129276156425476,-0.20772071182727814,-0.7091199159622192
1761818111553159400,3.234159423828125,0.34013840556144714,0.21861302852630615,-0.4274005889892578
1761818111563088400,3.24408837890625,-0.1010051742196083,0.5834293365478516,-0.3438495099544525
1761818111573016300,3.254016357421875,-0.39513319730758667,0.9275779128074646,-0.3787316083908081
1761818111582944500,3.263944580078125,-0.8490080237388611,1.148993730545044,-0.34622079133987427
1761818111592873500,3.27387353515625,-1.4785065650939941,1.2441822290420532,-0.22759774327278137
1761818111602801700,3.2838017578125,-2.1532034873962402,1.2611335515975952,-0.050703924149274826
1761818111612730600,3.293730712890625,-2.7167809009552,1.2368961572647095,0.23409558832645416
1761818111622658600,3.303658447265625,-3.0472726821899414,1.2073912620544434,0.6202225089073181
1761818111632586500,3.31358642578125,-3.146373748779297,1.167609453201294,0.994185745716095
1761818111642515500,3.323515380859375,-3.078474283218384,1.0907937288284302,1.294622540473938
1761818111652443400,3.333443359375,-2.9667043685913086,0.9737874865531921,1.5058420896530151
1761818111662371300,3.343371337890625,-2.861989974975586,0.818457841873169,1.6582581996917725
1761818111672300500,3.353300537109375,-2.781867027282715,0.6552140712738037,1.7452267408370972
1761818111682228500,3.363228515625,-2.6693050861358643,0.49326083064079285,1.7776240110397339
1761818111692156700,3.37315673828125,-2.515902042388916,0.3386422395706177,1.7415318489074707
1761818111702085400,3.38308544921875,-2.365603446960449,0.17387884855270386,1.6346312761306763
1761818111712013600,3.393013671875,-2.24428391456604,0.14575906097888947,1.483611822128296
1761818111721942500,3.402942626953125,-2.143808126449585,0.31815481185913086,1.2957922220230103
1761818111731870500,3.412870361328125,-2.058274745941162,0.649510383605957,1.084069848060608
1761818111741798400,3.42279833984375,-1.9530502557754517,1.049631953239441,0.8838152885437012
1761818111751727600,3.4327275390625,-1.7807292938232422,1.368662714958191,0.6776120662689209
1761818111761655600,3.442655517578125,-1.538580060005188,1.5427007675170898,0.4697059690952301
1761818111771583500,3.45258349609375,-1.226928949356079,1.5503685474395752,0.24646782875061035
1761818111781512400,3.462512451171875,-0.8284385800361633,1.3592947721481323,-0.005221659783273935
1761818111791440400,3.4724404296875,-0.3657500147819519,0.969312846660614,-0.2566400468349457
1761818111801369300,3.482369384765625,0.10918720811605453,0.4636331796646118,-0.41118326783180237
1761818111811297500,3.492297607421875,0.5688347220420837,-0.06483705341815948,-0.43692460656166077
1761818111821225500,3.5022255859375,1.0216690301895142,-0.5935834646224976,-0.3991931974887848
1761818111831154700,3.51215478515625,1.451235294342041,-1.0462931394577026,-0.35676664113998413
1761818111841082600,3.52208251953125,1.8260552883148193,-1.3924281597137451,-0.3495763838291168
1761818111851010600,3.532010498046875,2.090179920196533,-1.6106843948364258,-0.40343746542930603
1761818111860939500,3.541939453125,2.238119125366211,-1.6898638010025024,-0.5392653346061707
1761818111870867500,3.551867431640625,2.3569159507751465,-1.6678227186203003,-0.7265678644180298
1761818111880796400,3.56179638671875,2.505182981491089,-1.5414503812789917,-0.935687243938446
1761818111890724400,3.571724365234375,2.680755853652954,-1.3023285865783691,-1.1449896097183228
1761818111900652300,3.58165234375,2.8889572620391846,-1.05350923538208,-1.3521819114685059
1761818111910581500,3.59158154296875,3.1300346851348877,-0.8693782687187195,-1.5231348276138306
1761818111920509700,3.601509765625,3.425306558609009,-0.7951871156692505,-1.6304244995117188
1761818111930437600,3.611437744140625,3.763787031173706,-0.8501401543617249,-1.6557034254074097
1761818111940366600,3.62136669921875,4.021186351776123,-1.0006228685379028,-1.6031036376953125
1761818111950294500,3.63129443359375,4.050349235534668,-1.2179551124572754,-1.4771499633789062
1761818111960223500,3.641223388671875,3.808432102203369,-1.4914155006408691,-1.2868953943252563
1761818111970151400,3.6511513671875,3.314568519592285,-1.7445400953292847,-1.05948007106781
1761818111980079400,3.661079345703125,2.5993614196777344,-1.833282232284546,-0.8059237003326416
1761818111990008600,3.671008544921875,1.7562156915664673,-1.6453049182891846,-0.562617301940918
1761818111999936500,3.6809365234375,0.9970776438713074,-1.2291854619979858,-0.3592090308666229
1761818112009864400,3.690864501953125,0.4797394275665283,-0.6550276279449463,-0.18036843836307526
1761818112019793400,3.70079345703125,0.14492203295230865,-0.06982462108135223,-0.030583208426833153
1761818112029721900,3.710721923828125,-0.24362118542194366,0.48171523213386536,0.13771498203277588
1761818112039649800,3.72064990234375,-0.8050272464752197,0.8720648884773254,0.346610426902771
1761818112049578800,3.730578857421875,-1.4823522567749023,1.0268243551254272,0.5392605662345886
1761818112059506700,3.740506591796875,-2.144786834716797,1.0159090757369995,0.7058151960372925
1761818112069436000,3.750435791015625,-2.64290189743042,0.9255909323692322,0.857306182384491
1761818112079363800,3.76036376953125,-2.8879408836364746,0.7714056372642517,1.0268347263336182
1761818112089291800,3.770291748046875,-2.9388506412506104,0.6418161988258362,1.1998339891433716
1761818112099220700,3.780220703125,-2.907310724258423,0.5966625809669495,1.3509336709976196
1761818112109148700,3.790148681640625,-2.8403360843658447,0.6624466776847839,1.4356012344360352
1761818112119076600,3.80007666015625,-2.754617214202881,0.7551938891410828,1.4646000862121582
1761818112129005600,3.810005615234375,-2.67105770111084,0.860588788986206,1.4727821350097656
1761818112138933800,3.819933837890625,-2.5901973247528076,0.9621825218200684,1.4742900133132935
1761818112148861700,3.82986181640625,-2.503617763519287,1.0539164543151855,1.4632304906845093
1761818112158791000,3.839791015625,-2.3982088565826416,1.1185457706451416,1.4032994508743286
1761818112168718800,3.84971875,-2.257261276245117,1.148849368095398,1.2782267332077026
1761818112178647800,3.859647705078125,-2.065377712249756,1.0991946458816528,1.083694577217102
1761818112188575700,3.86957568359375,-1.8165762424468994,1.0267993211746216,0.8609203696250916
1761818112198503700,3.879503662109375,-1.5189405679702759,0.9493830800056458,0.6285057663917542
1761818112208432600,3.8894326171875,-1.1886487007141113,0.8578901886940002,0.4080359637737274
1761818112218360600,3.899360595703125,-0.8083500862121582,0.7425963878631592,0.18491259217262268
1761818112228288800,3.909288818359375,-0.38822630047798157,0.5501039028167725,-0.05300329625606537
1761818112238217700,3.9192177734375,0.043405529111623764,0.32343053817749023,-0.28760167956352234
1761818112248146000,3.92914599609375,0.5028639435768127,0.07966739684343338,-0.4985538721084595
1761818112258073900,3.939073974609375,0.9708055853843689,-0.1615031361579895,-0.6464189887046814
1761818112268002800,3.9490029296875,1.4302139282226562,-0.4108980596065521,-0.7477934956550598
1761818112277930800,3.9589306640625,1.8646467924118042,-0.6571038365364075,-0.8385229110717773
1761818112287859700,3.968859619140625,2.2290234565734863,-0.8616239428520203,-0.9370646476745605
1761818112297787600,3.97878759765625,2.501875877380371,-1.0043212175369263,-1.0607868432998657
1761818112307715600,3.988715576171875,2.6969215869903564,-1.0691313743591309,-1.2263611555099487
1761818112317644800,3.998644775390625,2.8554022312164307,-1.057904839515686,-1.4411078691482544
1761818112327572700,4.00857275390625,3.028141975402832,-0.9855802655220032,-1.683529019355774
1761818112337501000,4.0185009765625,3.234210968017578,-0.7981182336807251,-1.932869553565979
1761818112347429600,4.0284296875,3.496997833251953,-0.5786130428314209,-2.1668412685394287
1761818112357357800,4.03835791015625,3.8101422786712646,-0.5578864216804504,-2.3621785640716553
1761818112367285800,4.04828564453125,4.089809894561768,-0.7941951155662537,-2.4275386333465576
1761818112377214700,4.058214599609375,4.121541976928711,-1.1867674589157104,-2.297769069671631
1761818112387142700,4.068142578125,3.775758981704712,-1.5118027925491333,-2.009542465209961
1761818112397072000,4.07807177734375,3.049215078353882,-1.5595405101776123,-1.5498467683792114
1761818112406999800,4.087999755859375,2.098478317260742,-1.2415776252746582,-0.9608528017997742
1761818112416927700,4.097927734375,1.1591863632202148,-0.6663545966148376,-0.45388466119766235
1761818112426856700,4.107856689453125,0.34854573011398315,-0.19484858214855194,-0.00105301383882761
1761818112436784600,4.11778466796875,-0.23405057191848755,0.06197468936443329,0.3742806613445282
1761818112446712800,4.127712890625,-0.7669522762298584,0.14293691515922546,0.671855092048645
1761818112456641800,4.137641845703125,-1.403127670288086,0.19385921955108643,0.8758585453033447
1761818112466569700,4.14756982421875,-2.1330769062042236,0.28515851497650146,0.9945247173309326
1761818112476497700,4.15749755859375,-2.70401930809021,0.35590776801109314,1.1252542734146118
1761818112486427000,4.167427001953125,-3.023341417312622,0.41026875376701355,1.2548860311508179
1761818112496354800,4.177354736328125,-3.1490097045898438,0.5360817909240723,1.3550416231155396
1761818112506283800,4.18728369140625,-3.1622424125671387,0.6870007514953613,1.4674968719482422
1761818112516211700,4.197211669921875,-3.1100499629974365,0.7594999670982361,1.5885177850723267
1761818112526139600,4.2071396484375,-3.022604465484619,0.7740762829780579,1.6852859258651733
1761818112536068600,4.217068603515625,-2.9240036010742188,0.7729095220565796,1.7509645223617554
1761818112545996500,4.22699658203125,-2.816124439239502,0.7215294241905212,1.7609965801239014
1761818112555924700,4.2369248046875,-2.6995553970336914,0.618961751461029,1.7155479192733765
1761818112565854000,4.24685400390625,-2.5798025131225586,0.5197225213050842,1.6149033308029175
1761818112575782000,4.256781982421875,-2.4456429481506348,0.49143096804618835,1.4531080722808838
1761818112585709800,4.266709716796875,-2.3031177520751953,0.542448878288269,1.2392500638961792
1761818112595638800,4.276638671875,-2.1689207553863525,0.6552193760871887,0.9882727265357971
1761818112605566700,4.286566650390625,-2.017673969268799,0.7896749377250671,0.7289604544639587
1761818112615494700,4.29649462890625,-1.823326587677002,0.9484163522720337,0.47726351022720337
1761818112625423600,4.306423583984375,-1.5760661363601685,1.1212984323501587,0.24374155700206757
1761818112635351600,4.3163515625,-1.2400013208389282,1.2434749603271484,0.028713403269648552
1761818112645280800,4.32628076171875,-0.7708562612533569,1.1843793392181396,-0.19369196891784668
1761818112655208700,4.336208740234375,-0.20243220031261444,0.8810487985610962,-0.40737947821617126
1761818112665137000,4.346136962890625,0.4139274060726166,0.37453925609588623,-0.5704536437988281
1761818112675065900,4.35606591796875,1.0017189979553223,-0.2553199231624603,-0.6620309352874756
1761818112684993800,4.365993896484375,1.525354027748108,-0.8491901755332947,-0.6860420107841492
1761818112694921700,4.375921630859375,1.9638655185699463,-1.3596917390823364,-0.7158175110816956
1761818112704850700,4.3858505859375,2.2976510524749756,-1.7432277202606201,-0.7923908233642578
1761818112714778600,4.395778564453125,2.534705400466919,-1.9044499397277832,-0.9256260991096497
1761818112724706600,4.40570654296875,2.7219483852386475,-1.7832614183425903,-1.1257104873657227
1761818112734635800,4.4156357421875,2.8996479511260986,-1.3334295749664307,-1.3650460243225098
1761818112744563700,4.425563720703125,3.155620813369751,-0.5864927768707275,-1.6639435291290283
1761818112754492700,4.43549267578125,3.5257997512817383,0.275404155254364,-2.035524606704712
1761818112764420900,4.4454208984375,3.9289772510528564,1.0034782886505127,-2.416335105895996
1761818112774348800,4.455348876953125,4.240890979766846,1.231357216835022,-2.6888630390167236
1761818112784277800,4.46527783203125,4.270301342010498,0.8569096326828003,-2.760019063949585
1761818112794205700,4.475205810546875,3.8997790813446045,0.04706364870071411,-2.5649189949035645
1761818112804133600,4.485133544921875,3.1200082302093506,-0.9209346771240234,-2.0339033603668213
1761818112814062800,4.495062744140625,2.071420431137085,-1.766260027885437,-1.2316632270812988
1761818112823990800,4.50499072265625,1.0819555521011353,-2.1712279319763184,-0.4130173921585083
1761818112833918700,4.514918701171875,0.38219717144966125,-2.034395933151245,0.20114216208457947
1761818112843847700,4.52484765625,-0.01125158928334713,-1.4828834533691406,0.5181499719619751
1761818112853775600,4.534775634765625,-0.2729537785053253,-0.6278460621833801,0.5797712206840515
1761818112863703800,4.544703857421875,-0.6295377016067505,0.37083426117897034,0.5118619799613953
1761818112873632800,4.5546328125,-1.1788554191589355,1.2198673486709595,0.45159274339675903
1761818112883560700,4.564560791015625,-1.8010718822479248,1.75205659866333,0.5336066484451294
1761818112893490000,4.574489990234375,-2.3226754665374756,1.9612061977386475,0.7624659538269043
1761818112903417900,4.58441796875,-2.6506752967834473,1.8553776741027832,1.0565564632415771
1761818112913345800,4.594345703125,-2.8188867568969727,1.5743441581726074,1.3447245359420776
1761818112923274800,4.604274658203125,-2.8870363235473633,1.2640776634216309,1.575702428817749
1761818112933202700,4.61420263671875,-2.8978216648101807,0.9976062774658203,1.724790096282959
1761818112943130600,4.624130615234375,-2.849047899246216,0.7810377478599548,1.8210927248001099
1761818112953059600,4.6340595703125,-2.754066228866577,0.6391040682792664,1.8849347829818726
1761818112962987800,4.64398779296875,-2.632838010787964,0.5699676275253296,1.9036006927490234
1761818112972915700,4.653915771484375,-2.4802916049957275,0.5294393301010132,1.8577947616577148
1761818112982845000,4.663844970703125,-2.3176941871643066,0.5371310710906982,1.762277603149414
1761818112992772900,4.67377294921875,-2.1579716205596924,0.5788207650184631,1.6506426334381104
1761818113002700800,4.68370068359375,-1.9953668117523193,0.6368582248687744,1.5412200689315796
1761818113012629800,4.693629638671875,-1.8257465362548828,0.6629880666732788,1.403710126876831
1761818113022557700,4.7035576171875,-1.6476281881332397,0.6741073131561279,1.2287029027938843
1761818113032487000,4.71348681640625,-1.4512041807174683,0.6729869246482849,1.0253074169158936
1761818113042414800,4.723414794921875,-1.1986746788024902,0.6178842782974243,0.7818689346313477
1761818113052342800,4.7333427734375,-0.8627992272377014,0.5053310990333557,0.4890032410621643
1761818113062271700,4.743271728515625,-0.45364871621131897,0.29773661494255066,0.14321787655353546
1761818113072200000,4.753199951171875,0.006048304960131645,0.02334021031856537,-0.22934824228286743
1761818113082128000,4.7631279296875,0.4978944659233093,-0.3265956938266754,-0.5999792814254761
1761818113092056800,4.773056884765625,0.9848412275314331,-0.6899451613426208,-0.8908899426460266
1761818113101984800,4.78298486328125,1.440116047859192,-1.0009664297103882,-1.0820950269699097
1761818113111912700,4.79291259765625,1.8663299083709717,-1.2693986892700195,-1.207136869430542
1761818113121842000,4.802842041015625,2.266139030456543,-1.447498083114624,-1.2776411771774292
1761818113131769900,4.812769775390625,2.6107425689697266,-1.4736170768737793,-1.331618309020996
1761818113141697800,4.82269775390625,2.8698177337646484,-1.2799327373504639,-1.4130796194076538
1761818113151626800,4.832626708984375,3.061061143875122,-0.8851702809333801,-1.587739109992981
1761818113161554700,4.8425546875,3.193920850753784,-0.3463776409626007,-1.8597298860549927
1761818113171483000,4.85248291015625,3.241264581680298,0.20532305538654327,-2.1982860565185547
1761818113181411800,4.862411865234375,3.194735288619995,0.6293108463287354,-2.5461275577545166
1761818113191339800,4.87233984375,3.0035243034362793,0.6701141595840454,-2.8427181243896484
1761818113201269000,4.88226904296875,2.7607650756835938,0.2397172600030899,-2.9531779289245605
1761818113211197000,4.892197021484375,2.529724597930908,-0.4400588572025299,-2.7641608715057373
1761818113221124900,4.902124755859375,2.267343521118164,-1.0108344554901123,-2.277616262435913
1761818113231053800,4.9120537109375,1.957362413406372,-1.297523021697998,-1.6289615631103516
1761818113240981800,4.921981689453125,1.5495115518569946,-1.189667820930481,-1.0154407024383545
1761818113250909700,4.93190966796875,0.9801950454711914,-0.7330617308616638,-0.5047371983528137
1761818113260838700,4.941838623046875,0.28739210963249207,-0.15060734748840332,-0.08484112471342087
1761818113270766800,4.951766845703125,-0.4170595407485962,0.4088761806488037,0.23951591551303864
1761818113280694800,4.96169482421875,-1.0750744342803955,0.8164095878601074,0.46287602186203003
1761818113290624000,4.9716240234375,-1.6565476655960083,0.9401078224182129,0.6825208067893982
1761818113300552000,4.981552001953125,-2.1344940662384033,0.8823007345199585,0.9958483576774597
1761818113310480000,4.99147998046875,-2.450939655303955,0.7450605630874634,1.375395655632019
1761818113320408800,5.001408935546875,-2.6324150562286377,0.5818756818771362,1.719026803970337
1761818113330336800,5.011336669921875,-2.725297689437866,0.48021426796913147,1.97193443775177
1761818113340265700,5.021265625,-2.7500085830688477,0.41586166620254517,2.098273515701294
1761818113350193700,5.031193603515625,-2.727844476699829,0.3548166751861572,2.1187899112701416
1761818113360121600,5.04112158203125,-2.672748565673828,0.30904653668403625,2.075335741043091
1761818113370050800,5.05105078125,-2.597226142883301,0.27767208218574524,1.9984654188156128
1761818113379979000,5.06097900390625,-2.4919071197509766,0.27380090951919556,1.8981454372406006
1761818113389907000,5.070906982421875,-2.3462963104248047,0.2768547534942627,1.7721070051193237
1761818113399836000,5.0808359375,-2.1677658557891846,0.2800455093383789,1.6333461999893188
1761818113409763800,5.090763916015625,-1.9720414876937866,0.28618329763412476,1.4700331687927246
1761818113419691800,5.10069189453125,-1.783205270767212,0.29691237211227417,1.28447425365448
1761818113429620700,5.110620849609375,-1.5947341918945312,0.32208484411239624,1.0715279579162598
1761818113439548700,5.120548583984375,-1.3847219944000244,0.3562318682670593,0.8453299403190613
1761818113449476600,5.1304765625,-1.1541807651519775,0.371942400932312,0.6181196570396423
1761818113459405800,5.14040576171875,-0.8981585502624512,0.3303946852684021,0.40691077709198
1761818113469333800,5.150333740234375,-0.6053439974784851,0.2251734584569931,0.1934373676776886
1761818113479262000,5.160261962890625,-0.29279884696006775,0.06842699646949768,-0.018666362389922142
1761818113489191000,5.17019091796875,0.07135380804538727,-0.14503255486488342,-0.23463194072246552
1761818113499118800,5.180118896484375,0.5000314116477966,-0.3918710947036743,-0.4276738464832306
1761818113509047800,5.1900478515625,1.0054833889007568,-0.6040592789649963,-0.5986093878746033
1761818113518975700,5.199975830078125,1.5746808052062988,-0.6593952178955078,-0.794992983341217
1761818113528903700,5.209903564453125,2.162722110748291,-0.5205134749412537,-1.02827787399292
1761818113538833000,5.2198330078125,2.7260007858276367,-0.24574239552021027,-1.2851924896240234
1761818113548760800,5.2297607421875,3.1851563453674316,0.1204017773270607,-1.5420459508895874
1761818113558688800,5.239688720703125,3.506030797958374,0.4570719301700592,-1.7681562900543213
1761818113568617700,5.24961767578125,3.6665966510772705,0.6424663066864014,-1.970442295074463
1761818113578546000,5.2595458984375,3.6012375354766846,0.589138388633728,-2.114056348800659
1761818113588473900,5.269473876953125,3.281242847442627,0.2839326560497284,-2.133183717727661
1761818113598402800,5.27940283203125,2.780484676361084,-0.44310125708580017,-1.9891527891159058
1761818113608330800,5.289330810546875,2.2868053913116455,-1.4452391862869263,-1.590510606765747
1761818113618258700,5.2992587890625,1.920162320137024,-2.4051830768585205,-0.9992076754570007
1761818113628188000,5.30918798828125,1.7509405612945557,-3.0383996963500977,-0.40032610297203064
1761818113638115800,5.31911572265625,1.7750458717346191,-3.176211357116699,0.09521439671516418
1761818113648043800,5.329043701171875,1.8617613315582275,-2.7977454662323,0.42263540625572205
1761818113657972700,5.33897265625,1.8701984882354736,-1.9835798740386963,0.5691827535629272
1761818113667901000,5.34890087890625,1.671883463859558,-1.0395827293395996,0.4804707467556
1761818113677829600,5.35882958984375,1.2021522521972656,-0.3121131658554077,0.2857401371002197
1761818113687757800,5.3687578125,0.4721371829509735,0.13605956733226776,0.23343299329280853
1761818113697685800,5.378685791015625,-0.4027831256389618,0.3012767434120178,0.3592066466808319
1761818113707615000,5.388614990234375,-1.2264208793640137,0.26851773262023926,0.5371707677841187
1761818113717543000,5.39854296875,-1.8605111837387085,0.2119854837656021,0.6946259140968323
1761818113727470800,5.408470947265625,-2.258986473083496,0.18076978623867035,0.8057641386985779
1761818113737399800,5.41839990234375,-2.43465518951416,0.23036396503448486,0.881062388420105
1761818113747327700,5.42832763671875,-2.4471495151519775,0.3743094205856323,0.9462858438491821
1761818113757255700,5.438255615234375,-2.378720760345459,0.5901064276695251,0.9934166073799133
1761818113767184600,5.4481845703125,-2.303654670715332,0.7844189405441284,1.0288387537002563
1761818113777112800,5.45811279296875,-2.244412660598755,0.8818389177322388,1.0585676431655884
1761818113787040800,5.468040771484375,-2.215677261352539,0.9220638871192932,1.093113899230957
1761818113796970000,5.477969970703125,-2.1986052989959717,0.9007042646408081,1.1257871389389038
1761818113806898000,5.48789794921875,-2.1739940643310547,0.8274718523025513,1.1590279340744019
1761818113816825900,5.497825927734375,-2.1332178115844727,0.6980928182601929,1.1731067895889282
1761818113826754800,5.5077548828125,-2.0342016220092773,0.5317879915237427,1.1579397916793823
1761818113836682800,5.517682861328125,-1.851331353187561,0.3705567717552185,1.092747449874878
1761818113846611700,5.52761181640625,-1.5955091714859009,0.213673934340477,0.9722074270248413
1761818113856539600,5.53753955078125,-1.2762017250061035,0.08457134664058685,0.7964063286781311
1761818113866467800,5.5474677734375,-0.8880374431610107,0.004206729121506214,0.5713298320770264
1761818113876396800,5.557396728515625,-0.47208070755004883,-0.03990986570715904,0.3021627962589264
1761818113886325000,5.567324951171875,-0.056590575724840164,-0.004932973068207502,-0.00469462014734745
1761818113896253000,5.5772529296875,0.38663771748542786,0.0481472872197628,-0.32189494371414185
1761818113906182000,5.587181884765625,0.8499481081962585,0.02792271040380001,-0.6181287169456482
1761818113916109800,5.59710986328125,1.3072091341018677,-0.06835029274225235,-0.8520602583885193
1761818113926037800,5.607037841796875,1.7608733177185059,-0.18123076856136322,-1.0247465372085571
1761818113935966700,5.616966796875,2.196749210357666,-0.23935027420520782,-1.1808900833129883
1761818113945894700,5.626894775390625,2.5841853618621826,-0.17366819083690643,-1.3543705940246582
1761818113955822600,5.636822509765625,2.8974273204803467,0.03260082006454468,-1.5019557476043701
1761818113965751800,5.646751708984375,3.1273200511932373,0.33741211891174316,-1.6201143264770508
1761818113975680000,5.656679931640625,3.251608371734619,0.5980764627456665,-1.7406429052352905
1761818113985608000,5.66660791015625,3.274923086166382,0.6599672436714172,-1.8541384935379028
1761818113995537000,5.676536865234375,3.1873574256896973,0.32730647921562195,-1.87950599193573
1761818114005464800,5.68646484375,3.0069453716278076,-0.380016028881073,-1.731950283050537
1761818114015392800,5.696392822265625,2.758443593978882,-1.327737808227539,-1.4821444749832153
1761818114025321200,5.7063212890625,2.4675521850585938,-2.1684751510620117,-1.179134488105774
1761818114035249200,5.716249267578125,2.1527764797210693,-2.5604896545410156,-0.8417314887046814
1761818114045178400,5.726178466796875,1.790757656097412,-2.3332204818725586,-0.5690509676933289
1761818114055106300,5.736106201171875,1.3806593418121338,-1.5505778789520264,-0.3792130947113037
1761818114065034500,5.746034423828125,0.9328784346580505,-0.40868043899536133,-0.26699575781822205
1761818114074963500,5.75596337890625,0.4307103753089905,0.6778413653373718,-0.2219981700181961
1761818114084891400,5.765891357421875,-0.17771859467029572,1.276478886604309,-0.11081653088331223
1761818114094819300,5.7758193359375,-0.8174487948417664,1.4001632928848267,0.0696035772562027
1761818114104748300,5.785748291015625,-1.5062745809555054,1.241434931755066,0.2804947793483734
1761818114114676200,5.79567626953125,-2.1412312984466553,0.9360129833221436,0.552682101726532
1761818114124604200,5.805604248046875,-2.597910165786743,0.6593648791313171,0.8466764092445374
1761818114134533400,5.815533447265625,-2.8349404335021973,0.47861185669898987,1.0863838195800781
1761818114144461300,5.82546142578125,-2.9037158489227295,0.36222079396247864,1.262041687965393
1761818114154389500,5.835389404296875,-2.888129949569702,0.3698664605617523,1.3898259401321411
1761818114164318200,5.845318115234375,-2.8354783058166504,0.4423427879810333,1.4581637382507324
1761818114174246400,5.855246337890625,-2.75944447517395,0.542153537273407,1.4700905084609985
1761818114184174300,5.86517431640625,-2.671849250793457,0.6524747014045715,1.4468770027160645
1761818114194103300,5.875103271484375,-2.579252243041992,0.699284553527832,1.3836528062820435
1761818114204031200,5.88503125,-2.449023962020874,0.7004987001419067,1.2931876182556152
1761818114213959200,5.894959228515625,-2.3000648021698,0.6117445826530457,1.1921217441558838
1761818114223888400,5.904888427734375,-2.1313860416412354,0.43909189105033875,1.1064808368682861
1761818114233816300,5.91481640625,-1.9626961946487427,0.20336830615997314,1.0431463718414307
1761818114243745300,5.924745361328125,-1.7681390047073364,-0.08632130920886993,0.9940056800842285
1761818114253673200,5.934673095703125,-1.5648680925369263,-0.3936255872249603,0.9170405864715576
1761818114263601400,5.944601318359375,-1.3560101985931396,-0.656010627746582,0.7834457755088806
1761818114273530400,5.9545302734375,-1.127173900604248,-0.8607301712036133,0.6014400124549866
1761818114283458300,5.964458251953125,-0.8898734450340271,-0.985973060131073,0.37873825430870056
1761818114293386200,5.97438623046875,-0.6251136660575867,-1.0259101390838623,0.1342579424381256
1761818114303315500,5.9843154296875,-0.3182951509952545,-1.0859010219573975,-0.11134090274572372
1761818114313243400,5.994243408203125,0.05229409784078598,-1.178819179534912,-0.33088549971580505
1761818114323171300,6.00417138671875,0.4853893220424652,-1.3027385473251343,-0.5218091011047363
1761818114333100300,6.014100341796875,0.9581204056739807,-1.4520549774169922,-0.6615135073661804
1761818114343028200,6.0240283203125,1.4474234580993652,-1.5312955379486084,-0.7293471097946167
1761818114352956400,6.033956298828125,1.9488093852996826,-1.5258322954177856,-0.7615343928337097
1761818114362885000,6.043885009765625,2.425691604614258,-1.4497300386428833,-0.7626025676727295
1761818114372813300,6.053813232421875,2.851972818374634,-1.2778022289276123,-0.719977080821991
1761818114382741200,6.0637412109375,3.1972169876098633,-1.0011134147644043,-0.7389709949493408
1761818114392670500,6.07367041015625,3.450939178466797,-0.5720943808555603,-0.8747389316558838
1761818114402598400,6.083598388671875,3.6466457843780518,0.017199227586388588,-1.1038410663604736
1761818114412527400,6.09352734375,3.798820734024048,0.670671284198761,-1.4027806520462036
1761818114422455300,6.103455322265625,3.923886299133301,1.1160650253295898,-1.7098641395568848
1761818114432383200,6.11338330078125,4.033380508422852,1.2054774761199951,-1.887967824935913
1761818114442312200,6.123312255859375,4.0947089195251465,1.01816725730896,-1.921055793762207
1761818114452240100,6.133240234375,4.044689655303955,0.6609779596328735,-1.8610566854476929
1761818114462168300,6.143168212890625,3.831230878829956,0.25571247935295105,-1.7664164304733276
1761818114472097300,6.15309716796875,3.3225698471069336,-0.21325768530368805,-1.529398798942566
1761818114482025500,6.163025390625,2.5768187046051025,-0.600805401802063,-1.0530061721801758
1761818114491953400,6.172953369140625,1.6330927610397339,-0.7957797050476074,-0.48410144448280334
1761818114501882400,6.18288232421875,0.722751259803772,-0.7879436016082764,0.0009933591354638338
1761818114511810300,6.192810302734375,-0.049675412476062775,-0.4675480127334595,0.31701338291168213
1761818114521738200,6.20273828125,-0.7393292188644409,0.12363219261169434,0.40611422061920166
1761818114531667200,6.212667236328125,-1.375993013381958,0.7315043210983276,0.32501083612442017
1761818114541595100,6.22259521484375,-2.0300376415252686,1.2990846633911133,0.18797549605369568
1761818114551523300,6.2325234375,-2.632235527038574,1.7062764167785645,0.2110709547996521
1761818114561452300,6.242452392578125,-2.990187406539917,1.8714847564697266,0.35639166831970215
1761818114571380500,6.25238037109375,-3.1066198348999023,1.8675304651260376,0.5452843308448792
1761818114581308400,6.262308349609375,-3.086059093475342,1.7739393711090088,0.7700902819633484
1761818114591237400,6.2722373046875,-3.0205743312835693,1.5814870595932007,0.9941872954368591
1761818114601165300,6.282165283203125,-2.934981346130371,1.336523413658142,1.1840003728866577
1761818114611093200,6.29209326171875,-2.852137804031372,1.086478590965271,1.3080576658248901
1761818114621022200,6.302022216796875,-2.7649431228637695,0.8872427344322205,1.375767707824707
1761818114630950100,6.3119501953125,-2.6547276973724365,0.7616150379180908,1.3880709409713745
1761818114640879400,6.32187939453125,-2.5286715030670166,0.7220519185066223,1.331924557685852
1761818114650807300,6.331807373046875,-2.4247071743011475,0.7745748162269592,1.2173197269439697
1761818114660735500,6.341735595703125,-2.3100197315216064,0.8688432574272156,1.0832914113998413
1761818114670664200,6.351664306640625,-2.129939079284668,0.9373434782028198,0.927994966506958
1761818114680592400,6.36159228515625,-1.8651474714279175,0.9291659593582153,0.7343434691429138
1761818114690520300,6.371520263671875,-1.5161263942718506,0.8451980948448181,0.4993394911289215
1761818114700449300,6.38144921875,-1.1060209274291992,0.7028380632400513,0.24043098092079163
1761818114710377200,6.391377197265625,-0.653701901435852,0.48215252161026,-0.004178766161203384
1761818114720305400,6.401305419921875,-0.18344919383525848,0.22379234433174133,-0.21084804832935333
1761818114730234400,6.411234375,0.28791168332099915,-0.11005992442369461,-0.3663433790206909
1761818114740162300,6.421162353515625,0.7635295987129211,-0.49347177147865295,-0.41210898756980896
1761818114750090200,6.43109033203125,1.2066547870635986,-0.8930942416191101,-0.36720943450927734
1761818114760019200,6.441019287109375,1.602092981338501,-1.2664977312088013,-0.2978154420852661
1761818114769947400,6.450947509765625,1.92544686794281,-1.518709421157837,-0.2749340832233429
1761818114779875300,6.460875244140625,2.186260461807251,-1.5723742246627808,-0.34308865666389465
1761818114789804300,6.47080419921875,2.4229063987731934,-1.413349986076355,-0.510320782661438
1761818114799732200,6.480732177734375,2.6646924018859863,-1.0594611167907715,-0.7661948800086975
1761818114809660400,6.490660400390625,2.920569896697998,-0.5896558165550232,-1.0724248886108398
1761818114819589400,6.50058935546875,3.2317328453063965,-0.12973083555698395,-1.3821771144866943
1761818114829517300,6.510517333984375,3.5446109771728516,0.16483715176582336,-1.6510761976242065
1761818114839446300,6.5204462890625,3.735241174697876,0.23947304487228394,-1.825279712677002
1761818114849374200,6.530374267578125,3.703482151031494,0.14043593406677246,-1.873777985572815
1761818114859302400,6.540302490234375,3.36252760887146,-0.15075382590293884,-1.754509687423706
1761818114869231000,6.550231201171875,2.6707351207733154,-0.5271077752113342,-1.4193370342254639
1761818114879159300,6.5601591796875,1.7614989280700684,-0.9360947012901306,-0.9275808930397034
1761818114889087500,6.57008740234375,0.9057011604309082,-1.2925852537155151,-0.3592436611652374
1761818114899016400,6.580016357421875,0.2700834274291992,-1.4017257690429688,0.1655048131942749
1761818114908944400,6.5899443359375,-0.16033267974853516,-1.2146730422973633,0.5228933095932007
1761818114918872300,6.599872314453125,-0.4962473213672638,-0.7092503905296326,0.6708577275276184
1761818114928801300,6.60980126953125,-0.8887839317321777,-0.0035870117135345936,0.6241940855979919
1761818114938729200,6.619729248046875,-1.4296858310699463,0.7001240253448486,0.5247271656990051
1761818114948657200,6.6296572265625,-2.01218843460083,1.1657414436340332,0.5288816690444946
1761818114958586000,6.639586181640625,-2.4691858291625977,1.3107551336288452,0.6488767862319946
1761818114968514600,6.6495146484375,-2.755016803741455,1.1874840259552002,0.8455398082733154
1761818114978442500,6.6594423828125,-2.894831418991089,0.9303955435752869,1.0815664529800415
1761818114988371500,6.669371337890625,-2.944413423538208,0.6268652677536011,1.2889240980148315
1761818114998299400,6.67929931640625,-2.9435486793518066,0.40971001982688904,1.4336309432983398
1761818115008227300,6.689227294921875,-2.9040069580078125,0.275519460439682,1.4936761856079102
1761818115018156300,6.69915625,-2.8423681259155273,0.19399769604206085,1.490087628364563
1761818115028084000,6.709083984375,-2.759209156036377,0.19335800409317017,1.4390792846679688
1761818115038012000,6.719011962890625,-2.640901803970337,0.24362118542194366,1.345283031463623
1761818115047940900,6.72894091796875,-2.4907522201538086,0.33864861726760864,1.252471923828125
1761818115057869000,6.738869140625,-2.3420116901397705,0.4686300754547119,1.1888502836227417
1761818115067798000,6.748798095703125,-2.1991686820983887,0.5753424167633057,1.143261432647705
1761818115077726000,6.758725830078125,-2.0636563301086426,0.6613379716873169,1.0856170654296875
1761818115087654000,6.76865380859375,-1.9224398136138916,0.7099060416221619,1.004645586013794
1761818115097583000,6.7785830078125,-1.708469271659851,0.6896407604217529,0.8646456003189087
1761818115107511000,6.788510986328125,-1.3912984132766724,0.5847662687301636,0.6164810657501221
1761818115117439000,6.79843896484375,-0.9732213020324707,0.40338554978370667,0.2777858078479767
1761818115127368000,6.808367919921875,-0.49524036049842834,0.16511759161949158,-0.1011175662279129
1761818115137296000,6.8182958984375,0.017255952581763268,-0.14096058905124664,-0.4474574029445648
1761818115147224000,6.82822412109375,0.5240845084190369,-0.5134350657463074,-0.6959623098373413
1761818115157152800,6.83815283203125,1.004489541053772,-0.8742361664772034,-0.8030810356140137
1761818115167081000,6.8480810546875,1.4474208354949951,-1.2203270196914673,-0.8167949914932251
1761818115177009000,6.8580087890625,1.8453000783920288,-1.5053874254226685,-0.770941436290741
1761818115186938000,6.867938232421875,2.21806001663208,-1.6186943054199219,-0.7036811709403992
1761818115196866000,6.877865966796875,2.5648999214172363,-1.4643499851226807,-0.6813181042671204
1761818115206794000,6.8877939453125,2.872384786605835,-1.0458688735961914,-0.7609780430793762
1761818115216723000,6.897722900390625,3.1227142810821533,-0.45015570521354675,-0.9553746581077576
1761818115226651000,6.90765087890625,3.3241493701934814,0.22146634757518768,-1.2644068002700806
1761818115236579800,6.917579833984375,3.5314064025878906,0.7711070775985718,-1.641021728515625
1761818115246507800,6.9275078125,3.7258529663085938,0.9856348633766174,-1.9459925889968872
1761818115256436000,6.93743603515625,3.798112154006958,0.7295551300048828,-2.0989325046539307
1761818115266365000,6.947364990234375,3.6215147972106934,-0.08138993382453918,-2.037639856338501
1761818115276293000,6.957293212890625,3.127756357192993,-1.154090166091919,-1.6151273250579834
1761818115286221000,6.967220947265625,2.3974645137786865,-2.0175952911376953,-0.8716984391212463
1761818115296150000,6.97714990234375,1.597838044166565,-2.3758087158203125,-0.09522371739149094
1761818115306078000,6.987077880859375,0.912142276763916,-2.1211252212524414,0.4189450740814209
1761818115316006000,6.997005859375,0.4377610981464386,-1.388013482093811,0.5964956283569336
1761818115325934800,7.006934814453125,0.12707273662090302,-0.51039719581604,0.5238525867462158
1761818115335862800,7.01686279296875,-0.22587920725345612,0.19276465475559235,0.36458009481430054
1761818115345791000,7.026791015625,-0.7757068872451782,0.5294582843780518,0.29410672187805176
1761818115355720000,7.036719970703125,-1.5074224472045898,0.5267328023910522,0.376241534948349
1761818115365648100,7.046648193359375,-2.191352605819702,0.304696261882782,0.6132647395133972
1761818115375576000,7.056576171875,-2.673161506652832,0.04309367388486862,0.9331710934638977
1761818115385505000,7.066505126953125,-2.921602487564087,-0.1639431267976761,1.2357165813446045
1761818115395433000,7.076432861328125,-2.988586664199829,-0.2246328443288803,1.451086401939392
1761818115405361000,7.08636083984375,-2.952618360519409,-0.13447073101997375,1.5480939149856567
1761818115415289900,7.096289794921875,-2.8694980144500732,0.08333190530538559,1.5361275672912598
1761818115425217800,7.1062177734375,-2.7773072719573975,0.40268221497535706,1.4528752565383911
1761818115435147000,7.11614697265625,-2.704279661178589,0.7298065423965454,1.3595099449157715
1761818115445075000,7.126074951171875,-2.6535580158233643,0.99284827709198,1.3155666589736938
1761818115455003100,7.136003173828125,-2.6118812561035156,1.1519865989685059,1.3077723979949951
1761818115464931800,7.145931884765625,-2.5709474086761475,1.1880319118499756,1.2726829051971436
1761818115474860000,7.155860107421875,-2.483304977416992,1.0705395936965942,1.1900033950805664
1761818115484788000,7.1657880859375,-2.2990074157714844,0.8410675525665283,1.0342047214508057
1761818115494717000,7.175717041015625,-2.0031018257141113,0.5020511150360107,0.7887939810752869
1761818115504644900,7.185644775390625,-1.592618465423584,0.155465230345726,0.49845266342163086
1761818115514572800,7.19557275390625,-1.1149179935455322,-0.10919679701328278,0.2057262659072876
1761818115524502000,7.205501953125,-0.623816728591919,-0.31642720103263855,-0.06450602412223816
1761818115534430000,7.215429931640625,-0.14372681081295013,-0.4701693654060364,-0.2853640913963318
1761818115544358000,7.22535791015625,0.3344877064228058,-0.5620076656341553,-0.4155937433242798
1761818115554286800,7.235286865234375,0.8232421875,-0.6142040491104126,-0.45744290947914124
1761818115564215000,7.245215087890625,1.312629222869873,-0.6742916107177734,-0.4256724715232849
1761818115574143000,7.25514306640625,1.7905614376068115,-0.7515576481819153,-0.38555648922920227
1761818115584072000,7.265072021484375,2.2225475311279297,-0.7823810577392578,-0.408739298582077
1761818115594000000,7.274999755859375,2.5824644565582275,-0.7097340226173401,-0.5187872648239136
1761818115603929000,7.28492919921875,2.8582098484039307,-0.5583727359771729,-0.7150600552558899
1761818115613857000,7.29485693359375,3.027289390563965,-0.45619016885757446,-0.9831128120422363
1761818115623785000,7.304784912109375,3.131924867630005,-0.4363855719566345,-1.2516380548477173
1761818115633714000,7.3147138671875,3.2274200916290283,-0.42501574754714966,-1.4500861167907715
1761818115643641900,7.324641845703125,3.310910224914551,-0.5764337778091431,-1.5633211135864258
1761818115653570000,7.334570068359375,3.3210623264312744,-0.8845122456550598,-1.525494933128357
1761818115663498800,7.344498779296875,3.233978748321533,-1.138922095298767,-1.3227473497390747
1761818115673427000,7.354427001953125,3.0379838943481445,-1.2295173406600952,-1.0187411308288574
1761818115683355000,7.36435498046875,2.7046496868133545,-1.0661587715148926,-0.7034503221511841
1761818115693284000,7.3742841796875,2.214639902114868,-0.737916111946106,-0.4581707715988159
1761818115703212000,7.3842119140625,1.6070257425308228,-0.39127853512763977,-0.28135576844215393
1761818115713140000,7.394139892578125,0.9877981543540955,-0.11131294071674347,-0.09371157735586166
1761818115723069000,7.40406884765625,0.4036310911178589,0.02742816135287285,0.1241467148065567
1761818115732996900,7.413996826171875,-0.15447506308555603,0.04584978148341179,0.33056381344795227
1761818115742925000,7.423925048828125,-0.7372194528579712,0.07430139183998108,0.4797687232494354
1761818115752853800,7.433853759765625,-1.3540682792663574,0.15324494242668152,0.55231112241745
1761818115762782000,7.443781982421875,-1.9048677682876587,0.2543499767780304,0.6038438081741333
1761818115772710000,7.4537099609375,-2.29866361618042,0.37599092721939087,0.6984004378318787
1761818115782639000,7.46363916015625,-2.512554883956909,0.4795439541339874,0.8103389143943787
1761818115792567000,7.473567138671875,-2.5885579586029053,0.5615789294242859,0.9094516634941101
1761818115802496000,7.48349609375,-2.6038856506347656,0.6285318732261658,0.9662742018699646
1761818115812424000,7.493423828125,-2.5859215259552,0.6561123132705688,0.9967066645622253
1761818115822352000,7.503351806640625,-2.545624017715454,0.6575073003768921,1.01129949092865
1761818115832280800,7.51328076171875,-2.4994890689849854,0.6403898596763611,1.0191738605499268
1761818115842208800,7.523208740234375,-2.4501378536224365,0.5886752605438232,1.0316401720046997
1761818115852137000,7.533136962890625,-2.3857433795928955,0.5128422379493713,1.0260390043258667
1761818115862066000,7.54306591796875,-2.2945473194122314,0.41873282194137573,0.9909915328025818
1761818115871994000,7.552994140625,-2.172532558441162,0.33424028754234314,0.925752580165863
1761818115881922000,7.562922119140625,-2.0127828121185303,0.29799601435661316,0.8055111765861511
1761818115891851000,7.57285107421875,-1.8060064315795898,0.2966982424259186,0.6189807057380676
1761818115901779000,7.582779052734375,-1.5084607601165771,0.3382478356361389,0.368136465549469
1761818115911707000,7.592706787109375,-1.146398663520813,0.43823540210723877,0.06863924860954285
1761818115921635800,7.6026357421875,-0.7624664902687073,0.5685628056526184,-0.2389982044696808
1761818115931563800,7.612563720703125,-0.3785225450992584,0.6637806296348572,-0.518017053604126
1761818115941492000,7.622491943359375,0.01011095754802227,0.6344214081764221,-0.7134408950805664
1761818115951421000,7.6324208984375,0.41248583793640137,0.48625272512435913,-0.7926475405693054
1761818115961349000,7.64234912109375,0.8051226139068604,0.21194341778755188,-0.7752357721328735
1761818115971278000,7.652278076171875,1.185782551765442,-0.12580879032611847,-0.7010518312454224
1761818115981206000,7.6622060546875,1.5699299573898315,-0.48353710770606995,-0.5845974087715149
1761818115991134000,7.672134033203125,1.9388082027435303,-0.7611937522888184,-0.5022769570350647
1761818116001063000,7.68206298828125,2.2935731410980225,-0.838176965713501,-0.544323205947876
1761818116010990800,7.691990966796875,2.6027300357818604,-0.7175732851028442,-0.7301719188690186
1761818116020918800,7.701918701171875,2.837479829788208,-0.486339271068573,-0.9991335868835449
1761818116030848500,7.7118486328125,3.001749038696289,-0.14658863842487335,-1.2968696355819702
1761818116040776400,7.7217763671875,3.1155145168304443,0.2060575634241104,-1.6037518978118896
1761818116050704400,7.731704345703125,3.146346092224121,0.3129778802394867,-1.8449671268463135
1761818116060633300,7.74163330078125,3.006267786026001,0.1347745954990387,-1.8832082748413086
1761818116070561500,7.7515615234375,2.6705245971679688,-0.22248153388500214,-1.6784029006958008
1761818116080489500,7.761489501953125,2.2072396278381348,-0.6654126048088074,-1.2855379581451416
1761818116090418700,7.771418701171875,1.685558557510376,-0.9917635917663574,-0.8087269067764282
1761818116100346600,7.7813466796875,1.1366685628890991,-1.0721383094787598,-0.3392278552055359
1761818116110274600,7.791274658203125,0.6025425791740417,-0.8993801474571228,0.05064959451556206
1761818116120203500,7.80120361328125,0.12400796264410019,-0.5279098749160767,0.3284173011779785
1761818116130131500,7.81113134765625,-0.3362102508544922,-0.03651486709713936,0.4689174294471741
1761818116140060400,7.821060302734375,-0.8301565647125244,0.4422466456890106,0.4995059669017792
1761818116149988400,7.83098828125,-1.3524988889694214,0.7759500741958618,0.4868263900279999
1761818116159916300,7.840916259765625,-1.8434499502182007,0.9402438998222351,0.5098832249641418
1761818116169845500,7.850845458984375,-2.2125911712646484,0.9667817950248718,0.6018350124359131
1761818116179773700,7.860773681640625,-2.4388179779052734,0.8856880068778992,0.7586698532104492
1761818116189701600,7.87070166015625,-2.5587570667266846,0.7655836939811707,0.9450379014015198
1761818116199630600,7.880630615234375,-2.622504949569702,0.6605288982391357,1.121817708015442
1761818116209558500,7.89055859375,-2.668654203414917,0.549320638179779,1.2589797973632812
1761818116219486500,7.900486572265625,-2.6898415088653564,0.4583052396774292,1.3362042903900146
1761818116229415400,7.91041552734375,-2.69667649269104,0.37795981764793396,1.3527604341506958
1761818116239343400,7.92034326171875,-2.681643486022949,0.3182096779346466,1.3332756757736206
1761818116249271300,7.930271240234375,-2.6404709815979004,0.28637343645095825,1.2905797958374023
1761818116259200500,7.940200439453125,-2.5752341747283936,0.2616201639175415,1.2474395036697388
1761818116269128400,7.95012841796875,-2.488701343536377,0.24936401844024658,1.193365454673767
1761818116279056600,7.960056640625,-2.3959403038024902,0.26718083024024963,1.1058768033981323
1761818116288985600,7.969985595703125,-2.2681186199188232,0.2968127727508545,0.9611479043960571
1761818116298913500,7.97991357421875,-2.043818712234497,0.3347255289554596,0.7195845246315002
1761818116308842500,7.989842529296875,-1.7003620862960815,0.4092026948928833,0.3735906183719635
1761818116318770400,7.9997705078125,-1.2624504566192627,0.478827565908432,-0.060390371829271317
1761818116328698400,8.009698486328125,-0.7624819278717041,0.4911747872829437,-0.5240480303764343
1761818116338627600,8.019627685546874,-0.21794724464416504,0.35429710149765015,-0.9228758811950684
1761818116348555500,8.029555419921875,0.3350602984428406,0.08088473230600357,-1.1411492824554443
1761818116358483500,8.0394833984375,0.8578183054924011,-0.27837276458740234,-1.1773749589920044
1761818116368412400,8.049412353515624,1.338497519493103,-0.6798149943351746,-1.1345851421356201
1761818116378340600,8.059340576171875,1.810327172279358,-1.0965709686279297,-1.0221081972122192
1761818116388268500,8.0692685546875,2.277865409851074,-1.474320411682129,-0.8313805460929871
1761818116398197500,8.079197509765624,2.7061336040496826,-1.6450321674346924,-0.6082907319068909
1761818116408125400,8.08912548828125,3.115412473678589,-1.5954606533050537,-0.4690484404563904
1761818116418053400,8.099053466796875,3.500966787338257,-1.2941421270370483,-0.512705385684967
1761818116427982600,8.108982666015624,3.7648370265960693,-0.6796384453773499,-0.765101432800293
1761818116437910500,8.11891064453125,3.8841421604156494,0.15034689009189606,-1.2187485694885254
1761818116447838500,8.12883837890625,3.9421448707580566,0.9473173022270203,-1.7607617378234863
1761818116457767400,8.138767333984376,3.9561407566070557,1.397598385810852,-2.205294370651245
1761818116467695400,8.1486953125,3.871018171310425,1.372687816619873,-2.4253385066986084
1761818116477623600,8.15862353515625,3.596853017807007,0.8292420506477356,-2.3805272579193115
1761818116487552500,8.168552490234376,3.0646345615386963,-0.19498386979103088,-2.0533359050750732
1761818116497480400,8.17848046875,2.343689441680908,-1.3099466562271118,-1.4205495119094849
1761818116507409700,8.18840966796875,1.5999025106430054,-2.0458152294158936,-0.6334999799728394
1761818116517337600,8.198337646484376,0.9514797925949097,-2.1810662746429443,0.04032185673713684
1761818116527265500,8.208265625,0.41808459162712097,-1.6832480430603027,0.4665360152721405
1761818116537194500,8.218194580078125,-0.05313725396990776,-0.7349709272384644,0.6229512095451355
1761818116547122400,8.228122314453126,-0.5068280696868896,0.3095506727695465,0.5680482387542725
1761818116557050400,8.23805029296875,-1.0121245384216309,1.105881929397583,0.4350012540817261
1761818116566979300,8.247979248046875,-1.580203890800476,1.5819118022918701,0.38763561844825745
1761818116576907500,8.257907470703126,-2.0984771251678467,1.7517993450164795,0.4685206115245819
1761818116586835500,8.26783544921875,-2.477689504623413,1.6457659006118774,0.6719943881034851
1761818116596764700,8.2777646484375,-2.712132692337036,1.331455945968628,0.9467436671257019
1761818116606692600,8.287692626953126,-2.821013927459717,0.9635905027389526,1.2131640911102295
1761818116616620500,8.29762060546875,-2.855273723602295,0.615369975566864,1.433016300201416
1761818116626549500,8.307549560546875,-2.8552119731903076,0.3826850652694702,1.5867211818695068
1761818116636477400,8.3174775390625,-2.8272898197174072,0.2940947413444519,1.6546193361282349
1761818116646406400,8.327406494140625,-2.775697708129883,0.3658309876918793,1.64617919921875
1761818116656334300,8.337334228515624,-2.700101137161255,0.536400318145752,1.5762816667556763
1761818116666262300,8.34726220703125,-2.6086061000823975,0.737379252910614,1.4713599681854248
1761818116676191500,8.35719140625,-2.4798998832702637,0.9409456849098206,1.3405452966690063
1761818116686119700,8.36711962890625,-2.296218156814575,1.0848770141601562,1.159759283065796
1761818116696047600,8.377047607421876,-2.0467021465301514,1.1765283346176147,0.9366233348846436
1761818116705976600,8.3869765625,-1.7332595586776733,1.2108306884765625,0.6898590922355652
1761818116715904500,8.396904541015624,-1.3929283618927002,1.1862879991531372,0.43604788184165955
1761818116725832400,8.40683251953125,-1.0328526496887207,1.1244430541992188,0.1758602410554886
1761818116735761400,8.416761474609375,-0.687483549118042,0.971852719783783,-0.08889099210500717
1761818116745689300,8.426689453125,-0.3561227023601532,0.7554112076759338,-0.3401530385017395
1761818116755617300,8.4366171875,-0.02847292087972164,0.46090129017829895,-0.5620987415313721
1761818116765546500,8.44654638671875,0.32343265414237976,0.10207363963127136,-0.7063579559326172
1761818116775474400,8.456474365234374,0.6996331810951233,-0.2944156527519226,-0.7574549317359924
1761818116785402600,8.466402587890625,1.0973718166351318,-0.6756231784820557,-0.7467628717422485
1761818116795331600,8.47633154296875,1.4974933862686157,-1.0150833129882812,-0.7035309672355652
1761818116805259500,8.486259521484374,1.889519453048706,-1.2422144412994385,-0.6171577572822571
1761818116815188500,8.4961884765625,2.3121182918548584,-1.322497010231018,-0.5681912899017334
1761818116825116400,8.506116455078125,2.7309377193450928,-1.3002982139587402,-0.6395613551139832
1761818116835044400,8.51604443359375,3.078599452972412,-1.1111054420471191,-0.83003830909729
1761818116844973600,8.5259736328125,3.360142469406128,-0.7891220450401306,-1.1241987943649292
1761818116854901500,8.535901611328125,3.558711528778076,-0.45994681119918823,-1.4896210432052612
1761818116864829400,8.545829345703124,3.6393182277679443,-0.14540965855121613,-1.8445216417312622
1761818116874758400,8.55575830078125,3.546048164367676,0.0030921963043510914,-2.1157772541046143
1761818116884686600,8.5656865234375,3.271131992340088,-0.14023274183273315,-2.232067823410034
1761818116894614500,8.575614501953124,2.808321714401245,-0.4367499053478241,-2.1228020191192627
1761818116904543500,8.58554345703125,2.2322468757629395,-0.7888869047164917,-1.7380425930023193
1761818116914471400,8.595471435546875,1.628261685371399,-1.0172502994537354,-1.1241583824157715
1761818116924399400,8.6053994140625,1.0397465229034424,-1.0108590126037598,-0.40772461891174316
1761818116934328600,8.61532861328125,0.47446396946907043,-0.8050466775894165,0.2414991706609726
1761818116944256500,8.625256591796875,-0.07135620713233948,-0.471506804227829,0.7138933539390564
1761818116954184400,8.635184326171874,-0.6118357181549072,-0.0944543331861496,0.9852369427680969
1761818116964113400,8.645113525390625,-1.1614311933517456,0.2641727924346924,1.074741005897522
1761818116974041300,8.655041259765625,-1.7102195024490356,0.5747940540313721,1.0624412298202515
1761818116983970300,8.66497021484375,-2.183253526687622,0.7592677474021912,1.0504878759384155
1761818116993898500,8.6748984375,-2.4904656410217285,0.8068925142288208,1.092657208442688
1761818117003826400,8.684826416015625,-2.6415348052978516,0.727893054485321,1.1938170194625854
1761818117013755600,8.694755615234374,-2.7111904621124268,0.5924715995788574,1.3186348676681519
1761818117023683600,8.70468359375,-2.7455570697784424,0.4738975167274475,1.440006136894226
1761818117033611800,8.71461181640625,-2.754214286804199,0.44261735677719116,1.526989221572876
1761818117043540700,8.724540771484374,-2.728327512741089,0.4812438488006592,1.5668686628341675
1761818117053469000,8.734468994140625,-2.6832692623138428,0.5678038001060486,1.5659652948379517
1761818117063396900,8.74439697265625,-2.616682291030884,0.6917560696601868,1.545898675918579
1761818117073325800,8.754325927734374,-2.538364887237549,0.8661769032478333,1.5118842124938965
1761818117083253800,8.764253662109375,-2.4318084716796875,1.0219507217407227,1.4479223489761353
1761818117093182000,8.774181884765625,-2.293241500854492,1.1515213251113892,1.3536328077316284
1761818117103111000,8.78411083984375,-2.0982282161712646,1.2252905368804932,1.2219115495681763
1761818117113038800,8.794038818359375,-1.832143783569336,1.2146475315093994,1.0116454362869263
1761818117122966800,8.803966796875,-1.4906927347183228,1.1412209272384644,0.7162598371505737
1761818117132895700,8.813895751953124,-1.0903120040893555,1.0216056108474731,0.37538373470306396
1761818117142824000,8.823823974609375,-0.6528907418251038,0.8842568397521973,0.002472478663548827
1761818117152753000,8.8337529296875,-0.21703724563121796,0.7050460577011108,-0.3861141502857208
1761818117162680800,8.843680908203124,0.20032350718975067,0.4852979779243469,-0.7361736297607422
1761818117172608800,8.85360888671875,0.606696605682373,0.23709005117416382,-0.975732147693634
1761818117182537700,8.863537841796875,1.0119889974594116,-0.050822701305150986,-1.106263279914856
1761818117192465700,8.873465576171874,1.4226475954055786,-0.3854696750640869,-1.1353510618209839
1761818117202393900,8.883393798828125,1.808444857597351,-0.696882963180542,-1.0969570875167847
1761818117212322800,8.89332275390625,2.142198085784912,-0.9630959630012512,-1.044316053390503
1761818117222251000,8.9032509765625,2.421396493911743,-1.1358616352081299,-1.0333755016326904
1761818117232179000,8.913178955078125,2.654085636138916,-1.1748998165130615,-1.1007270812988281
1761818117242108000,8.92310791015625,2.857642889022827,-1.0960856676101685,-1.2892067432403564
1761818117252035800,8.933035888671874,3.0564067363739014,-0.9076787829399109,-1.5523369312286377
1761818117261963800,8.9429638671875,3.247422456741333,-0.6545559763908386,-1.8319363594055176
1761818117271892700,8.952892822265625,3.4227609634399414,-0.4193519949913025,-2.0934348106384277
1761818117281820700,8.962820556640626,3.565868854522705,-0.27093616127967834,-2.3160502910614014
1761818117291748900,8.972748779296875,3.5736560821533203,-0.31098026037216187,-2.448939085006714
1761818117301677800,8.982677734375,3.384006977081299,-0.525262713432312,-2.4214494228363037
1761818117311606000,8.99260595703125,2.9538896083831787,-0.857595682144165,-2.1846420764923096
1761818117321534000,9.002533935546875,2.2553300857543945,-1.1668970584869385,-1.7071962356567383
1761818117331463000,9.012462890625,1.3773921728134155,-1.2810372114181519,-1.042671799659729
1761818117341390800,9.022390869140626,0.4647197425365448,-1.1116633415222168,-0.3269464373588562
1761818117351319800,9.03231982421875,-0.32761967182159424,-0.7379885911941528,0.25392335653305054
1761818117361247700,9.042247802734375,-0.906467080116272,-0.3127182126045227,0.611569344997406
1761818117371175700,9.05217578125,-1.3618491888046265,0.12394591420888901,0.7770896553993225
1761818117381104600,9.062104736328125,-1.8454188108444214,0.546407163143158,0.882340669631958
1761818117391032800,9.07203271484375,-2.3769428730010986,0.8643462061882019,0.9943060874938965
1761818117400961000,9.0819609375,-2.8269410133361816,1.0275119543075562,1.1160967350006104
1761818117410890000,9.091889892578125,-3.1175637245178223,1.0120235681533813,1.2543230056762695
1761818117420818000,9.10181787109375,-3.264667510986328,0.8853330016136169,1.4281880855560303
1761818117430745900,9.111745849609376,-3.310641288757324,0.7876735329627991,1.613458514213562
1761818117440674800,9.1216748046875,-3.279151439666748,0.7309341430664062,1.7650395631790161
1761818117450602800,9.131602783203125,-3.2103471755981445,0.7032271027565002,1.8453682661056519
1761818117460530700,9.14153076171875,-3.1179027557373047,0.7401848435401917,1.85151207447052
1761818117470460000,9.1514599609375,-3.012044906616211,0.8097344040870667,1.7959260940551758
1761818117480387800,9.161387939453125,-2.8647377490997314,0.848932683467865,1.6793286800384521
1761818117490316000,9.17131591796875,-2.70401930809021,0.8907690644264221,1.5445770025253296
1761818117500244700,9.18124462890625,-2.539849281311035,0.8880411982536316,1.4045695066452026
1761818117510173000,9.1911728515625,-2.3460865020751953,0.8370411396026611,1.2424235343933105
1761818117520102000,9.201101806640626,-2.122965097427368,0.7048905491828918,1.0397076606750488
1761818117530029800,9.21102978515625,-1.8647704124450684,0.5164255499839783,0.8063721656799316
1761818117539957800,9.220957763671874,-1.5538444519042969,0.35980263352394104,0.5871854424476624
1761818117549887000,9.230886962890626,-1.188016653060913,0.2306997925043106,0.365448534488678
1761818117559815000,9.24081494140625,-0.771538257598877,0.10198228806257248,0.1401163637638092
1761818117569742800,9.250742919921874,-0.3305824398994446,-0.0376773364841938,-0.040888309478759766
1761818117579671800,9.260671875,0.15697257220745087,-0.22523339092731476,-0.15982428193092346
1761818117589599700,9.270599853515625,0.7058340907096863,-0.4861283600330353,-0.2515065371990204
1761818117599528000,9.28052783203125,1.2822763919830322,-0.7625327706336975,-0.29969537258148193
1761818117609457000,9.290456787109376,1.8180575370788574,-0.9984153509140015,-0.33908191323280334
1761818117619384800,9.300384765625,2.2453243732452393,-1.1786013841629028,-0.4290722608566284
1761818117629312800,9.310312744140624,2.5552399158477783,-1.2468297481536865,-0.5848354697227478
1761818117639242000,9.320241943359376,2.7783427238464355,-1.185758113861084,-0.8198330998420715
1761818117649170000,9.330169921875,2.9569220542907715,-1.011660099029541,-1.1352227926254272
1761818117659097900,9.340097900390624,3.1088902950286865,-0.738810658454895,-1.4851597547531128
1761818117669026800,9.35002685546875,3.289926767349243,-0.44385918974876404,-1.7944837808609009
1761818117678954800,9.359954833984375,3.5614984035491943,-0.2589641809463501,-2.0140578746795654
1761818117688883000,9.369883056640624,3.8790013790130615,-0.35352158546447754,-2.1115880012512207
1761818117698811600,9.379811767578126,4.104127407073975,-0.6759310364723206,-2.0190954208374023
1761818117708739800,9.38973974609375,4.055464267730713,-1.0507307052612305,-1.761766791343689
1761818117718669000,9.3996689453125,3.682000160217285,-1.3176155090332031,-1.4266444444656372
1761818117728597000,9.409596923828126,2.998562812805176,-1.3775334358215332,-1.0970470905303955
1761818117738525000,9.41952490234375,2.0714430809020996,-1.206845760345459,-0.8109669089317322
1761818117748454000,9.429453857421874,1.1562944650650024,-0.8236225247383118,-0.5598880648612976
1761818117758381800,9.4393818359375,0.5058543682098389,-0.3810863792896271,-0.36264529824256897
1761818117768309800,9.449309814453125,0.10271652787923813,-0.01961764320731163,-0.17271877825260162
1761818117778238700,9.45923876953125,-0.28847387433052063,0.3428438901901245,0.07688652724027634
1761818117788166700,9.469166748046876,-0.8702773451805115,0.727517306804657,0.3247743546962738
1761818117798094800,9.4790947265625,-1.6026897430419922,1.0437407493591309,0.5212101936340332
1761818117808023800,9.48902392578125,-2.32808256149292,1.2900184392929077,0.706601083278656
1761818117817952000,9.498951904296876,-2.8513553142547607,1.4285075664520264,0.9002594947814941
1761818117827880000,9.5088798828125,-3.0952460765838623,1.4431233406066895,1.0901985168457031
1761818117837809000,9.518808837890624,-3.132530450820923,1.386700987815857,1.257269263267517
1761818117847736800,9.52873681640625,-3.03909969329834,1.3126659393310547,1.4113818407058716
1761818117857664800,9.538664794921875,-2.909878730773926,1.224109411239624,1.5217914581298828
1761818117867593700,9.54859375,-2.7877631187438965,1.1653207540512085,1.5871236324310303
1761818117877521700,9.558521728515625,-2.674361228942871,1.1133216619491577,1.6003408432006836
1761818117887451000,9.568450927734375,-2.5624046325683594,0.9925566911697388,1.5463495254516602
1761818117897378800,9.57837890625,-2.451246976852417,0.8020581007003784,1.4478399753570557
1761818117907307000,9.58830712890625,-2.357619524002075,0.6470884680747986,1.359029769897461
1761818117917236000,9.598236083984375,-2.2644553184509277,0.5609458684921265,1.2777165174484253
1761818117927164000,9.608163818359374,-2.1470491886138916,0.5432600975036621,1.184125542640686
1761818117937091800,9.618091796875,-1.9659096002578735,0.5890872478485107,1.05986750125885
1761818117947020800,9.628020751953125,-1.6982272863388062,0.6631902456283569,0.8819974064826965
1761818117956948700,9.63794873046875,-1.3567026853561401,0.7318997979164124,0.649887204170227
1761818117966876700,9.647876708984375,-0.9267212152481079,0.7716650366783142,0.34792256355285645
1761818117976806000,9.657805908203125,-0.43585026264190674,0.6863219141960144,-0.004416320007294416
1761818117986733800,9.66773388671875,0.06297284364700317,0.45475366711616516,-0.335519403219223
1761818117996662000,9.677662109375,0.5565375685691833,0.1487220972776413,-0.5993731617927551
1761818118006590700,9.6875908203125,0.9992505311965942,-0.17317630350589752,-0.7867052555084229
1761818118016519000,9.697518798828124,1.3733786344528198,-0.46104538440704346,-0.9138813018798828
1761818118026446800,9.70744677734375,1.6788077354431152,-0.6908937692642212,-1.0089972019195557
1761818118036375800,9.717375732421875,1.939902663230896,-0.8621360659599304,-1.093498945236206
1761818118046303700,9.7273037109375,2.1625518798828125,-0.9678579568862915,-1.171342134475708
1761818118056231700,9.737231689453125,2.3298065662384033,-0.9460139274597168,-1.2594605684280396
1761818118066160600,9.74716064453125,2.4661715030670166,-0.8347984552383423,-1.3900693655014038
1761818118076088600,9.757088623046876,2.649184226989746,-0.753678023815155,-1.5354838371276855
1761818118086016800,9.767016845703125,2.9383034706115723,-0.7509821057319641,-1.6501177549362183
1761818118095945500,9.776945556640625,3.2809605598449707,-0.8581096529960632,-1.7458828687667847
1761818118105873700,9.786873779296876,3.5589699745178223,-1.0921213626861572,-1.8022079467773438
1761818118115803000,9.796802978515625,3.6676857471466064,-1.4019596576690674,-1.7786400318145752
1761818118125730800,9.806730712890625,3.519714593887329,-1.7271734476089478,-1.671494483947754
1761818118135658800,9.81665869140625,3.031360149383545,-1.9027316570281982,-1.4318780899047852
1761818118145587700,9.826587646484375,2.2102954387664795,-1.78932785987854,-1.0322039127349854
1761818118155515600,9.836515625,1.2449476718902588,-1.3414560556411743,-0.5376560091972351
1761818118165443600,9.846443603515626,0.37829458713531494,-0.6889253854751587,-0.08513087034225464
1761818118175372500,9.85637255859375,-0.22903744876384735,0.0004825647920370102,0.2192700356245041
1761818118185300500,9.866300537109375,-0.636660635471344,0.5246086716651917,0.3718436062335968
1761818118195229000,9.87622900390625,-1.0589103698730469,0.8504732847213745,0.43555307388305664
1761818118205157600,9.88615771484375,-1.6193451881408691,1.0356985330581665,0.5698581337928772
1761818118215085800,9.8960859375,-2.2129297256469727,1.0555284023284912,0.8208879828453064
1761818118225013800,9.906013671875,-2.630850076675415,0.9385570883750916,1.1471561193466187
1761818118234942700,9.915942626953125,-2.834912061691284,0.7599918842315674,1.4563616514205933
1761818118244870700,9.92587060546875,-2.8928565979003906,0.6045615077018738,1.712382197380066
1761818118254798600,9.935798583984376,-2.8846638202667236,0.5244120955467224,1.8781895637512207
1761818118264727600,9.9457275390625,-2.838564395904541,0.5039286613464355,1.9511159658432007
1761818118274655700,9.95565576171875,-2.7727599143981934,0.5186343789100647,1.950632095336914
1761818118284583700,9.965583740234376,-2.696282386779785,0.5823297500610352,1.9306697845458984
1761818118294512600,9.9755126953125,-2.601016044616699,0.6308823227882385,1.9039100408554077
1761818118304440800,9.98544091796875,-2.478846788406372,0.6370300054550171,1.8485525846481323
1761818118314369800,9.995369873046876,-2.3229103088378906,0.5903016328811646,1.7739536762237549
1761818118324297700,10.005297607421875,-2.164191722869873,0.5320926308631897,1.6517540216445923
1761818118334225700,10.0152255859375,-2.0036568641662598,0.47576892375946045,1.4547730684280396
1761818118344154600,10.025154541015626,-1.808470368385315,0.46725934743881226,1.1829206943511963
1761818118354082600,10.03508251953125,-1.5603407621383667,0.5016018748283386,0.8611310124397278
1761818118364010800,10.0450107421875,-1.2108708620071411,0.546930193901062,0.5037555694580078
1761818118373939700,10.054939697265626,-0.779456615447998,0.540052592754364,0.06876521557569504
1761818118383867600,10.06486767578125,-0.31790420413017273,0.45784932374954224,-0.3816986382007599
1761818118393795800,10.0747958984375,0.18430939316749573,0.2738930583000183,-0.7646704912185669
1761818118403724500,10.084724609375,0.6997586488723755,-0.010820955969393253,-1.0196386575698853
1761818118413652700,10.09465283203125,1.2175620794296265,-0.3891586661338806,-1.1190823316574097
1761818118423580700,10.10458056640625,1.7045011520385742,-0.8374555110931396,-1.1130181550979614
1761818118433509600,10.114509521484376,2.12591814994812,-1.296796441078186,-1.0547255277633667
1761818118443437800,10.124437744140625,2.4741313457489014,-1.6727190017700195,-0.9978454113006592
1761818118453365800,10.13436572265625,2.7512035369873047,-1.8371484279632568,-0.9914647936820984
1761818118463294700,10.144294677734376,2.9543869495391846,-1.7170685529708862,-1.0617008209228516
1761818118473222700,10.15422265625,3.1393561363220215,-1.3243482112884521,-1.2464100122451782
1761818118483150800,10.16415087890625,3.3202669620513916,-0.734322726726532,-1.5697033405303955
1761818118493079600,10.17407958984375,3.5412437915802,-0.06877000629901886,-1.9496551752090454
1761818118503007700,10.1840078125,3.8019325733184814,0.4544926583766937,-2.2631490230560303
1761818118512936700,10.193936767578125,4.051270961761475,0.6526337265968323,-2.4460763931274414
1761818118522865000,10.203864990234376,4.136659145355225,0.47750744223594666,-2.479400634765625
1761818118532792800,10.213792724609375,3.86975359916687,-0.013805827125906944,-2.310270071029663
1761818118542721800,10.2237216796875,3.1733808517456055,-0.7015488147735596,-1.884986162185669
1761818118552649700,10.233649658203126,2.145211696624756,-1.2916722297668457,-1.1512285470962524
1761818118562577700,10.24357763671875,1.0512192249298096,-1.5100075006484985,-0.26026859879493713
1761818118572506600,10.253506591796874,0.14789146184921265,-1.3490774631500244,0.4672289788722992
1761818118582434600,10.2634345703125,-0.4427337646484375,-0.90296870470047,0.8613046407699585
1761818118592362800,10.27336279296875,-0.7968875765800476,-0.29220521450042725,0.9163742661476135
1761818118602291700,10.283291748046874,-1.1694062948226929,0.3828704059123993,0.7601649761199951
1761818118612220000,10.293219970703126,-1.6402288675308228,0.9668781757354736,0.631588876247406
1761818118622147800,10.30314794921875,-2.0808870792388916,1.3080967664718628,0.6392377614974976
1761818118632076800,10.313076904296874,-2.36367130279541,1.3410606384277344,0.7669307589530945
1761818118642004700,10.323004638671875,-2.4695310592651367,1.1804863214492798,0.9303539991378784
1761818118651932700,10.3329326171875,-2.4398465156555176,0.9772059321403503,1.1266071796417236
1761818118661861600,10.342861572265624,-2.3503801822662354,0.8148516416549683,1.323533296585083
1761818118671789600,10.35278955078125,-2.2364728450775146,0.6573278307914734,1.481555700302124
1761818118681717800,10.3627177734375,-2.1107730865478516,0.5336564779281616,1.6010985374450684
1761818118691646700,10.372646728515624,-2.008065700531006,0.45078420639038086,1.6703956127166748
1761818118701575000,10.382574951171875,-1.925613522529602,0.38540759682655334,1.6823481321334839
1761818118711502800,10.3925029296875,-1.8274043798446655,0.3455459475517273,1.6120065450668335
1761818118721431800,10.402431884765624,-1.7073323726654053,0.31491801142692566,1.4641388654708862
1761818118731359700,10.41235986328125,-1.5700790882110596,0.2909652590751648,1.2540074586868286
1761818118741288700,10.422288818359375,-1.3956260681152344,0.3103086054325104,1.0078279972076416
1761818118751216600,10.432216552734374,-1.1842494010925293,0.39159253239631653,0.7195003628730774
1761818118761144600,10.44214453125,-0.9382327198982239,0.4327775239944458,0.4107057750225067
1761818118771073800,10.45207373046875,-0.6521580815315247,0.4715041518211365,0.1256822943687439
1761818118781001700,10.462001708984374,-0.35215166211128235,0.4652358591556549,-0.1358284056186676
1761818118790930000,10.471929931640625,-0.039625708013772964,0.3703538179397583,-0.37640106678009033
1761818118800858600,10.481858642578125,0.27776050567626953,0.19748671352863312,-0.5906062722206116
1761818118810786800,10.491786865234374,0.6130913496017456,-0.032346755266189575,-0.7527837753295898
1761818118820714800,10.50171484375,0.9693906307220459,-0.3174290955066681,-0.8689210414886475
1761818118830643700,10.511643798828125,1.3268464803695679,-0.6567136645317078,-0.9301870465278625
1761818118840571600,10.521571533203126,1.6575000286102295,-1.0205411911010742,-0.9364910125732422
1761818118850499600,10.53149951171875,1.9669636487960815,-1.3030215501785278,-0.9170334339141846
1761818118860428800,10.5414287109375,2.2667744159698486,-1.4650315046310425,-0.940385103225708
1761818118870356700,10.551356689453126,2.571528911590576,-1.480812668800354,-1.0203126668930054
1761818118880284700,10.56128466796875,2.8749172687530518,-1.259138822555542,-1.192785382270813
1761818118890213600,10.571213623046875,3.17138671875,-0.7822667956352234,-1.501238226890564
1761818118900141800,10.581141845703126,3.4547557830810547,-0.11427491158246994,-1.9220592975616455
1761818118910069800,10.59106982421875,3.673659563064575,0.665801465511322,-2.391188859939575
1761818118919998700,10.600998779296875,3.7574760913848877,1.2366721630096436,-2.780540943145752
1761818118929926700,10.6109267578125,3.658780336380005,1.340070128440857,-2.914038896560669
1761818118939856000,10.62085595703125,3.3256664276123047,1.0578547716140747,-2.7876439094543457
1761818118949783800,10.63078369140625,2.765836000442505,0.45026037096977234,-2.424945116043091
1761818118959711700,10.640711669921876,2.048476219177246,-0.2506311535835266,-1.8452177047729492
1761818118969640700,10.650640625,1.356429100036621,-0.793414831161499,-1.0897172689437866
1761818118979568600,10.660568603515625,0.7127753496170044,-0.6710563898086548,-0.4618895947933197
1761818118989496800,10.670496826171876,0.11531274020671844,0.3027324378490448,-0.21245181560516357
1761818118999425500,10.680425537109375,-0.38245710730552673,1.0317935943603516,0.1462181955575943
1761818119009353700,10.690353759765625,-0.9157295227050781,1.294470191001892,0.6319446563720703
1761818119019281700,10.70028173828125,-1.5278757810592651,1.4938831329345703,0.9684968590736389
1761818119029210600,10.710210693359375,-2.0385682582855225,1.7271424531936646,1.1636213064193726
1761818119039138600,10.720138671875,-2.3466649055480957,1.8653805255889893,1.3433003425598145
1761818119049066500,10.73006640625,-2.463334798812866,1.8868563175201416,1.4472136497497559
1761818119058995500,10.739995361328125,-2.428654193878174,1.7970494031906128,1.4995801448822021
1761818119068923400,10.74992333984375,-2.303685426712036,1.626216173171997,1.5775588750839233
1761818119078851600,10.7598515625,-2.153350830078125,1.4283983707427979,1.6971584558486938
1761818119088780300,10.7697802734375,-2.024798631668091,1.2137117385864258,1.8044180870056152
1761818119098708500,10.77970849609375,-1.9329241514205933,0.9638464450836182,1.8744096755981445
1761818119108636400,10.789636474609376,-1.87517511844635,0.7499610781669617,1.8934659957885742
1761818119118565600,10.799565673828125,-1.8396259546279907,0.6277803182601929,1.8839659690856934
1761818119128493600,10.80949365234375,-1.7975215911865234,0.6308136582374573,1.8544352054595947
1761818119138421500,10.81942138671875,-1.7314845323562622,0.716608464717865,1.7887859344482422
1761818119148350500,10.8293505859375,-1.617182970046997,0.8006485104560852,1.6412239074707031
1761818119158278400,10.8392783203125,-1.394397258758545,0.8512322902679443,1.4080207347869873
1761818119168206300,10.849206298828125,-1.0840847492218018,0.8923131823539734,1.0830706357955933
1761818119178135300,10.85913525390625,-0.717585563659668,0.8963212370872498,0.6940810084342957
1761818119188063500,10.8690634765625,-0.32927563786506653,0.8599781394004822,0.3016993999481201
1761818119197992400,10.878992431640626,0.056782856583595276,0.7281596064567566,-0.0706573948264122
1761818119207920600,10.888920654296875,0.44660332798957825,0.5021954774856567,-0.4302019774913788
1761818119217848600,10.8988486328125,0.8069679141044617,0.21373039484024048,-0.7738631963729858
1761818119227777500,10.908777587890626,1.1310408115386963,-0.058343999087810516,-1.0674597024917603
1761818119237705500,10.91870556640625,1.429054617881775,-0.21037907898426056,-1.3027528524398804
1761818119247633400,10.92863330078125,1.6406142711639404,-0.12166784703731537,-1.510393738746643
1761818119257562400,10.938562255859376,1.7770600318908691,0.30688217282295227,-1.7518020868301392
1761818119267490300,10.948490234375,1.8913154602050781,0.946749210357666,-2.0566189289093018
1761818119277418500,10.95841845703125,2.0292859077453613,1.690616488456726,-2.397831678390503
1761818119287347500,10.968347412109376,2.1702730655670166,2.5072739124298096,-2.761232614517212
1761818119297275600,10.978275634765625,2.320376396179199,3.3074989318847656,-3.1549947261810303
1761818119307203600,10.98820361328125,2.3915820121765137,3.858146905899048,-3.5758540630340576
1761818119317132500,10.998132568359376,2.328483819961548,3.8456990718841553,-3.92181658744812
1761818119327060500,11.008060546875,2.0701589584350586,3.1874704360961914,-3.992431402206421
1761818119336988400,11.017988525390624,1.575264811515808,2.164350748062134,-3.5639564990997314
1761818119346917400,11.02791748046875,0.9663309454917908,1.1190139055252075,-2.5737452507019043
1761818119356845300,11.03784521484375,0.4469572603702545,0.2532048225402832,-1.2543402910232544
1761818119366773500,11.0477734375,0.1538689285516739,-0.20893962681293488,-0.03249296173453331
1761818119376702500,11.057702392578125,0.04134823754429817,-0.01576990820467472,0.7756925225257874
1761818119386630700,11.067630615234375,0.012177570722997189,0.8346946239471436,1.0987502336502075
1761818119396559400,11.077559326171874,-0.05711521580815315,2.0519907474517822,1.101178526878357
1761818119406487600,11.087487548828125,-0.21112528443336487,3.386838436126709,1.0232397317886353
1761818119416415500,11.09741552734375,-0.3659372329711914,4.540243148803711,1.0058075189590454
1761818119426344400,11.107344482421874,-0.4422980546951294,5.137351989746094,1.0942494869232178
1761818119436272400,11.1172724609375,-0.41622090339660645,5.2502570152282715,1.276992917060852
1761818119446200600,11.12720068359375,-0.3424241840839386,4.867191791534424,1.4541295766830444
1761818119456129500,11.137129638671874,-0.280860960483551,4.188387393951416,1.6192493438720703
1761818119466057500,11.147057373046875,-0.15279434621334076,3.4671154022216797,1.8200538158416748
1761818119475985400,11.1569853515625,-0.006058957893401384,2.672189950942993,2.059211492538452
1761818119485914400,11.166914306640624,0.11932719498872757,1.9185566902160645,2.2649953365325928
1761818119495842600,11.176842529296875,0.21247658133506775,1.2995061874389648,2.334996223449707
1761818119505770500,11.1867705078125,0.2951895594596863,0.8549889326095581,2.2130043506622314
1761818119515699500,11.196699462890624,0.38543424010276794,0.6995897889137268,1.8937029838562012
1761818119525627400,11.20662744140625,0.4771263301372528,0.826814591884613,1.4180448055267334
1761818119535555600,11.2165556640625,0.5697351098060608,1.147432565689087,0.8623896241188049
1761818119545484500,11.226484619140624,0.6491135358810425,1.499354362487793,0.34782853722572327
1761818119555412500,11.23641259765625,0.7082445025444031,1.8573311567306519,-0.03160453215241432
1761818119565340400,11.24634033203125,0.7112858295440674,2.066624164581299,-0.3138740360736847
1761818119575269400,11.256269287109374,0.6473920941352844,2.007524251937866,-0.5099729895591736
1761818119585197600,11.266197509765625,0.5765120387077332,1.780146837234497,-0.6145710349082947
1761818119595125500,11.27612548828125,0.5202908515930176,1.442044734954834,-0.6651439070701599
1761818119605054500,11.286054443359374,0.47879427671432495,1.076289415359497,-0.7200971841812134
1761818119614982700,11.295982666015625,0.44460248947143555,0.7459921836853027,-0.8250467777252197
1761818119624910600,11.30591064453125,0.3698939085006714,0.44444456696510315,-0.9559299349784851
1761818119634839600,11.315839599609374,0.2575162351131439,0.24568486213684082,-0.9802632331848145
1761818119644767500,11.325767578125,0.10009463876485825,0.29003262519836426,-0.8339523673057556
1761818119654696400,11.335696533203125,-0.07037802785634995,0.4964137673377991,-0.6018515229225159
1761818119664624400,11.345624267578126,-0.3144170641899109,1.4596059322357178,-0.3928426206111908
1761818119674552300,11.35555224609375,-0.4113755524158478,1.5866029262542725,-0.6753358244895935
1761818119684481300,11.365481201171875,-0.10386008769273758,0.19633916020393372,-1.7153143882751465
1761818119694409700,11.37540966796875,0.38653385639190674,-0.5036926865577698,-2.0378236770629883
1761818119704337700,11.385337646484375,0.7927538156509399,-0.3270564079284668,-1.8218743801116943
1761818119714266600,11.3952666015625,1.0398485660552979,0.12857767939567566,-1.503251075744629
1761818119724194600,11.405194580078126,1.202565312385559,0.42541414499282837,-1.2428743839263916
1761818119734122500,11.41512255859375,1.2615727186203003,0.520332396030426,-1.044756531715393
1761818119744051500,11.425051513671875,1.2105611562728882,0.6427608728408813,-0.841017484664917
1761818119753979400,11.4349794921875,1.1087541580200195,0.7073230743408203,-0.6052965521812439
1761818119763907300,11.4449072265625,1.0353307723999023,0.6262702941894531,-0.35226696729660034
1761818119773836300,11.454836181640625,1.018031358718872,0.45299383997917175,-0.09116186946630478
1761818119783764500,11.464764404296876,0.9898895025253296,0.22413323819637299,0.12186731398105621
1761818119793692700,11.474692626953125,0.9342893958091736,-0.00708693778142333,0.18596826493740082
1761818119803621600,11.48462158203125,0.8402590155601501,-0.21176578104496002,0.05501531437039375
1761818119813549600,11.494549560546876,0.7362782955169678,-0.18038521707057953,-0.1741797924041748
1761818119823478500,11.504478515625,0.6712385416030884,-0.028737105429172516,-0.33270153403282166
1761818119833406500,11.514406494140625,0.6806309819221497,0.23043186962604523,-0.4621764123439789
1761818119843334400,11.52433447265625,0.7336753010749817,0.5214136242866516,-0.5286747813224792
1761818119853262300,11.534262451171875,0.7439873218536377,0.731850266456604,-0.5376906394958496
1761818119863191600,11.544191650390625,0.6733477711677551,0.8759272694587708,-0.4588213860988617
1761818119873119500,11.554119384765626,0.5507978796958923,0.9448890089988708,-0.3167515695095062
1761818119883048400,11.56404833984375,0.4027828574180603,0.8442342877388,-0.15437732636928558
1761818119892976600,11.5739765625,0.26210591197013855,0.6005004644393921,0.012749883346259594
1761818119902904600,11.583904541015626,0.16974295675754547,0.3275411128997803,0.12521757185459137
1761818119912833500,11.59383349609375,0.12909406423568726,0.08660866320133209,0.1588144153356552
1761818119922761500,11.603761474609374,0.14872929453849792,-0.049256227910518646,0.15224333107471466
1761818119932689400,11.613689453125,0.1935015618801117,-0.12112056463956833,0.12826795876026154
1761818119942618600,11.62361865234375,0.1901419758796692,-0.2010875642299652,0.11984171718358994
1761818119952546600,11.633546630859374,0.1268271803855896,-0.3054930567741394,0.16387975215911865
1761818119962474500,11.643474609375,0.07095087319612503,-0.41836315393447876,0.26453232765197754
1761818119972403500,11.653403564453125,0.05982844531536102,-0.5308145880699158,0.3716241419315338
1761818119982331400,11.663331298828124,0.07523563504219055,-0.5797374248504639,0.4394247829914093
1761818119992259600,11.673259521484376,0.0977444052696228,-0.5333337187767029,0.4379640221595764
1761818120002188500,11.6831884765625,0.12247664481401443,-0.40879496932029724,0.3825737535953522
1761818120012116500,11.693116455078124,0.13712270557880402,-0.2450539618730545,0.2983219623565674
1761818120022044400,11.70304443359375,0.14397874474525452,-0.08202829211950302,0.193926602602005
1761818120031973600,11.7129736328125,0.13416099548339844,0.05915972590446472,0.08464085310697556
1761818120041901600,11.722901611328124,0.11057311296463013,0.15054236352443695,-0.004874117206782103
1761818120051829500,11.73282958984375,0.07857736945152283,0.16028927266597748,-0.04968872666358948
1761818120061758500,11.742758544921875,0.05591945722699165,0.13603906333446503,-0.04417518526315689
1761818120071686400,11.752686279296874,0.04089736565947533,0.10922875255346298,-0.0031611721497029066
1761818120081615600,11.76261572265625,0.020921260118484497,0.07131705433130264,0.04916222020983696
1761818120091543600,11.77254345703125,0.011670238338410854,0.037932466715574265,0.09354459494352341
1761818120101471700,11.7824716796875,0.01058979332447052,0.025780463591217995,0.1024257093667984
1761818120111400700,11.792400634765626,0.026705913245677948,0.050457846373319626,0.0754643976688385
1761818120121328600,11.80232861328125,0.03582244738936424,0.10636478662490845,0.0418262779712677
1761818120131256600,11.812256591796874,0.011519502848386765,0.21027307212352753,0.0232336837798357
1761818120141185500,11.822185546875,-0.01883307658135891,0.33411407470703125,0.013512346893548965
1761818120151113500,11.832113525390625,-0.050344131886959076,0.4989831745624542,-0.004846686962991953
1761818120161041400,11.84204150390625,-0.09040047228336334,0.6808435320854187,-0.04934171587228775
1761818120170970600,11.851970703125,-0.15813903510570526,0.8542616367340088,-0.05201233550906181
1761818120180898600,11.861898681640625,-0.21991531550884247,0.7826260924339294,-0.07902264595031738
1761818120190826800,11.87182666015625,-0.17492760717868805,0.6094255447387695,-0.07248938083648682
1761818120200755700,11.881755615234376,-0.07201187312602997,0.3754918575286865,-0.0841553583741188
1761818120210683600,11.89168359375,-0.005428321193903685,0.11296995729207993,-0.10217244178056717
1761818120220611600,11.901611572265624,0.007290669716894627,-0.1373589187860489,-0.11976820975542068
1761818120230540500,11.91154052734375,0.012607404962182045,-0.33906248211860657,-0.13991715013980865
1761818120240468500,11.921468505859375,0.00839454960078001,-0.4206430912017822,-0.16153830289840698
1761818120250396700,11.931396728515624,-0.05624809116125107,-0.3863847255706787,-0.16680283844470978
