time,seconds_elapsed,z,y,x
1761838715947609900,0.08560986328125,-0.5674585266828537,-0.003698562256991863,-0.02589344293028116
1761838715957679000,0.09567919921875,-0.39820845995843407,-0.07839256871342659,-0.00669613663777709
1761838715967748900,0.105748779296875,-0.2254559380710125,-0.1392424664735794,0.0034942718565464017
1761838715977819000,0.11581884765625,-0.09738836108446121,-0.15993950980454683,0.015376871221512555
1761838715987889200,0.12588916015625,0.0442851319283247,-0.16717676758170127,0.004436228881776333
1761838715997958000,0.1359580078125,0.17225684732496738,-0.15329261913597583,-0.036869010452926156
1761838716008028000,0.14602783203125,0.2626356219083071,-0.1344715988099575,-0.07008680492192507
1761838716018098000,0.156097900390625,0.34350539439022537,-0.08076601984649896,-0.09972308764234185
1761838716028167000,0.1661669921875,0.4100912054538727,-0.005372340688109397,-0.09822364286482334
1761838716038237000,0.17623681640625,0.4181400718748569,0.022680033841729164,-0.0734881377980113
1761838716048307000,0.186306884765625,0.3503542373716831,0.028424422712624072,-0.024983634608983993
1761838716058377000,0.196376953125,0.32860183976888657,0.05810849009752273,0.02242430551499128
1761838716068446000,0.206446044921875,0.34263153416514397,0.10349573804885148,0.03860197172537446
1761838716078515200,0.21651513671875,0.3269593332588672,0.09954641590118407,0.032303309972584245
1761838716088585500,0.22658544921875,0.3065484133929014,0.07625088050961494,0.039250644892454147
1761838716098654200,0.236654296875,0.24155367091298102,0.06528700342476368,0.017998305766284466
1761838716108724500,0.246724365234375,0.20688041693866252,0.02655278362184763,0.009702332716435193
1761838716118794200,0.256794189453125,0.20666589740514754,0.0008656769186258316,-0.033004443979263304
1761838716128863200,0.26686328125,0.19753274287879466,-0.013755553629994392,-0.06339475993737578
1761838716138933500,0.27693359375,0.22394202637672422,-0.03650193070620298,-0.06057298051491379
1761838716149003300,0.287003173828125,0.22002456067204473,-0.08347498654425144,-0.03864303438812494
1761838716159073300,0.2970732421875,0.22621698557138442,-0.13881693453788757,0.013932225371152162
1761838716169142300,0.307142333984375,0.20768881071209908,-0.17997808922678232,0.039921968282759186
1761838716179212300,0.31721240234375,0.15708149002492428,-0.1991384245097637,0.060399085252732035
1761838716189282300,0.3272822265625,0.12776771725714206,-0.1926101917847991,0.0561241844125092
1761838716199351300,0.337351318359375,0.09280395590364933,-0.18109364925324917,0.026156039389222858
1761838716209421300,0.34742138671875,0.0759171185106039,-0.17630203106254339,0.007419774737209082
1761838716219491300,0.3574912109375,0.11645137347280979,-0.1796653700158,-0.02251446801647544
1761838716229561300,0.367561279296875,0.15354396354854105,-0.14491174428164957,-0.04144464780539274
1761838716239630300,0.37763037109375,0.16218553516566753,-0.11992197219282388,-0.013159487432986497
1761838716249700400,0.387700439453125,0.11696399917006492,-0.10082155040353535,0.026459406249970195
1761838716259770400,0.397770263671875,0.02044716022312641,-0.07702128036022186,0.051985915564000604
1761838716269839400,0.40783935546875,-0.03931143516898155,-0.07126052487641572,0.07126315522491931
1761838716279909400,0.417909423828125,-0.08546177644729613,-0.07321019763946533,0.07731397969648242
1761838716289979100,0.427979248046875,-0.056059156352281564,-0.04692980121821165,0.03985504052639007
1761838716300049400,0.43804931640625,-0.009610124388337134,-0.024790157863497732,-0.005169073200970888
1761838716310118100,0.4481181640625,0.03138064216971397,-0.02106236951202154,-0.025104776770621538
1761838716320188200,0.458188232421875,0.094809450507164,-0.03221533942818641,-0.01818228403106332
1761838716330258400,0.468258544921875,0.10738719252943991,-0.06461421872973441,0.03638429567590356
1761838716340327200,0.4783271484375,0.13791209465265272,-0.11395400369912385,0.13242036536857485
1761838716350397400,0.4883974609375,0.23279636396169662,-0.14037293180823326,0.1942838240854442
1761838716360467200,0.49846728515625,0.2703413739800453,-0.1811047551691532,0.23114523575380444
1761838716370537200,0.508537109375,0.2743500250995159,-0.24971651910245418,0.2545880706615746
1761838716380606500,0.5186064453125,0.2893763293176889,-0.29748306340575215,0.26602935599982735
1761838716390676200,0.52867626953125,0.2696148132711649,-0.3067544573590159,0.2636431184504181
1761838716400746200,0.538746337890625,0.2925461915254593,-0.3057774290204048,0.25482743237540123
1761838716410815200,0.548815185546875,0.3121662532746792,-0.3020052170053124,0.25419205708131193
1761838716420885200,0.55888525390625,0.31399639131128787,-0.295982011193037,0.2640144359808415
1761838716430955500,0.56895556640625,0.3722030810862779,-0.285601486954093,0.265733953249827
1761838716441025300,0.579025390625,0.40384792715013024,-0.25029314994663,0.2267955161117017
1761838716451094300,0.58909423828125,0.4058715419322252,-0.24910657051056623,0.2660614316385239
1761838716461164300,0.599164306640625,0.39766134746968745,-0.24929449429810047,0.26640191563926635
1761838716471234300,0.609234375,0.38008477424681186,-0.20734920349419117,0.2366247631434351
1761838716481303300,0.61930322265625,0.3728752812594175,-0.11872048744857311,0.20915106528438626
1761838716491373300,0.629373291015625,0.3447504260152578,-0.05970189676880836,0.16752097790949044
1761838716501443300,0.639443359375,0.3919032223343849,-0.02120616189688444,0.11778240288086235
1761838716511513300,0.649513427734375,0.36347967640459533,-0.04045008381009101,0.049439372886344785
1761838716521582300,0.659582275390625,0.2707376798212528,-0.07994155172109603,0.06912957726232707
1761838716531652000,0.669652099609375,0.2146329307615757,-0.06155629246383905,0.10151472029946744
1761838716541722400,0.679722412109375,0.13499123876988886,-0.05667495016306638,0.09678506142906844
1761838716551791000,0.689791015625,0.0461713840663433,-0.09912000718265772,0.0830791921596974
1761838716561861400,0.699861328125,0.08052958074212074,-0.14497721073329448,0.027291619290411472
1761838716571931400,0.709931396484375,0.1903857937335968,-0.1545832434684038,-0.04960106625407934
1761838716582001200,0.720001220703125,0.22027707412838934,-0.16042583201676605,-0.06233575240373611
1761838716592070400,0.7300703125,0.17753391094505785,-0.1639466996192932,0.002022007346898317
1761838716602140400,0.740140380859375,0.13365969790518284,-0.18675912766903638,0.08454210431911051
1761838716612210200,0.750210205078125,0.14303075284063815,-0.16635697563141583,0.15395838956832886
1761838716622279400,0.760279541015625,0.16744038695394992,-0.16429536692649124,0.21114808432050047
1761838716632349200,0.77034912109375,0.13124620702266693,-0.20582477040588854,0.2702679434176534
1761838716642419500,0.78041943359375,0.12827215964794159,-0.23453619336634873,0.3361320891432464
1761838716652488200,0.79048828125,0.1308779582321644,-0.25726883417814966,0.36730069599747656
1761838716662558200,0.80055810546875,0.09721826521456241,-0.24830489873886108,0.3896462371878326
1761838716672628500,0.81062841796875,0.07568681688606739,-0.25481121189296246,0.3745256788149476
1761838716682698200,0.8206982421875,0.07423135738074779,-0.2701253931418061,0.3253784938082099
1761838716692767500,0.830767578125,0.07796352964639663,-0.2760135743975639,0.327883900757879
1761838716702837200,0.840837158203125,0.10160217938721179,-0.3222118464708328,0.34307971632406115
1761838716712907300,0.8509072265625,0.0683101506382227,-0.34364071120768785,0.34707514263577754
1761838716722977300,0.860977294921875,-0.007366144853830337,-0.37951311183869835,0.34607867894433436
1761838716733046300,0.87104638671875,-0.02700140417218208,-0.3803425484001636,0.29977490066997703
1761838716743116300,0.8811162109375,0.05267886626422405,-0.27937136039286853,0.18802863614819942
1761838716753186300,0.891186279296875,0.13847732731997967,-0.21109072811007498,0.04087298539727926
1761838716763255300,0.90125537109375,0.1683569172769785,-0.20217706155329943,-0.04142444526758045
1761838716773325300,0.9113251953125,0.22957564834952354,-0.22562340359240768,-0.05657941736672073
1761838716783395300,0.921395263671875,0.26803718869090076,-0.279083191101253,-0.021522790098004042
1761838716793465300,0.93146533203125,0.21786416776776313,-0.3749138013496995,0.017711195920594034
1761838716803534300,0.941534423828125,0.2360515663653612,-0.47695963285118337,0.04167115003764629
1761838716813604400,0.951604248046875,0.2801706940770149,-0.5300047020792961,0.047940969288442284
1761838716823674000,0.961674072265625,0.32419220663309095,-0.6034504620403051,0.07043930815402417
1761838716833743400,0.971743408203125,0.36592706955671306,-0.6699243371620773,0.14235323717156426
1761838716843813400,0.9818134765625,0.3241501210570335,-0.7059110118225217,0.23361948038022964
1761838716853883400,0.99188330078125,0.25189269409775733,-0.7301467506736516,0.2277695122430101
1761838716863953400,1.001953369140625,0.26004326732754707,-0.701812928853929,0.10923890307703986
1761838716874022100,1.012022216796875,0.3327069370001554,-0.6523617924645543,-0.002748526956583373
1761838716884092400,1.022092529296875,0.3502314877748489,-0.5895291964545846,-0.13073711585621348
1761838716894162400,1.032162353515625,0.3354460065752268,-0.5105217107132077,-0.21648853203300386
1761838716904232200,1.042232177734375,0.2642792974621057,-0.4117687832772732,-0.1811993381174281
1761838716914301400,1.052301513671875,0.36872517584264275,-0.23657588250041006,-0.19066541439257562
1761838716924371200,1.06237109375,0.6638368339419365,0.010965046128630638,-0.23964856794402
1761838716934441200,1.072441162109375,1.044979592809081,0.2526554951637983,-0.2567614326452836
1761838716944510200,1.08251025390625,1.443546364685893,0.46822512225359675,-0.29400004359558224
1761838716954580200,1.092580322265625,1.932327075973153,0.7152943417176604,-0.35359416914097963
1761838716964650500,1.102650390625,2.51188345220685,0.9798281984627246,-0.3853469325587153
1761838716974720300,1.11272021484375,3.123601391854882,1.134673307737708,-0.3656448916144669
1761838716984789200,1.122789306640625,3.59453781889379,1.1128440455064177,-0.2590712074249983
1761838716994859300,1.132859375,3.967220207929611,1.0860665132179856,-0.19114158053696154
1761838717004929300,1.14292919921875,4.415619224467873,1.1480597357943654,-0.1230295828193426
1761838717014998300,1.152998291015625,4.845780573526024,1.3025117540985345,0.07965667036511004
1761838717025068300,1.163068359375,5.011623462155461,1.4099243733301758,0.2435848844796419
1761838717035138300,1.17313818359375,4.81302104421854,1.38237001145035,0.31191571257971223
1761838717045208300,1.183208251953125,4.51655855603218,1.4418557812504469,0.4955518859226256
1761838717055277300,1.19327734375,4.34477341787219,1.5107215199448167,0.9097752958104014
1761838717065347000,1.20334716796875,4.246140025162696,1.488275879380852,1.1393217180654407
1761838717075421400,1.21342138671875,4.08328112078011,1.929203098733723,0.8191346554204821
1761838717085490400,1.223490478515625,4.345530958241224,2.673465760782361,0.32936478696539995
1761838717095560400,1.233560546875,4.81533341281414,3.574961596286297,0.1117785593561828
1761838717105630500,1.24363037109375,4.7097371953547,3.782178113311529,-0.36602877636551856
1761838717115700500,1.253700439453125,4.6695828796207905,3.4280256527006623,-0.6312734847936778
1761838717125769500,1.26376953125,4.728149634879827,3.227041892585158,-0.5135749608039856
1761838717135839500,1.273839599609375,3.9337744499236345,3.1087551203787327,-0.1058161438204348
1761838717145909500,1.283909423828125,2.686632700869441,2.683656023146212,0.3855766861939803
1761838717155979500,1.2939794921875,1.9978654238104818,1.8594316433712839,0.8656644975356758
1761838717166048500,1.304048583984375,1.6561445747494696,1.0014964249134064,0.8159002766091376
1761838717176118300,1.3141181640625,1.0187339754402638,0.11667933700978755,0.2279748255567625
1761838717186188500,1.3241884765625,0.5803747068792581,-0.7412365922257304,-0.5295076027447357
1761838717196257300,1.33425732421875,-0.054093409237265584,-1.3817951341718435,-0.9094676911659538
1761838717206327600,1.34432763671875,-2.1657050392150876,-1.441457283452153,-1.2267752528518439
1761838717216397600,1.3543974609375,-3.7562498913288116,-1.9498329220473765,-1.0082685493968426
1761838717226467300,1.36446728515625,-3.7840479988366362,-2.0411410864353177,-1.146101806659624
1761838717236536600,1.37453662109375,-3.8685453141659494,-1.4629282337650655,-2.1680369892939924
1761838717246606300,1.3846064453125,-2.829301634660363,-1.233930677564442,-2.7929905503511425
1761838717256676400,1.39467626953125,-1.520468276324868,-1.2050707860440015,-2.791518431971967
1761838717266746600,1.40474658203125,-0.5938140341669321,-1.4001378694616258,-1.9013778109580277
1761838717276815400,1.4148154296875,-0.20827742425501344,-1.6260006347678602,-0.1117690608754754
1761838717286885400,1.424885498046875,-1.760686899241805,-2.100364990428835,2.1148298613719643
1761838717296955400,1.434955322265625,-4.493697320404649,-3.1539313559278845,4.311817489209771
1761838717307024400,1.4450244140625,-6.599363778242468,-4.605382502388954,5.355823853072524
1761838717317094400,1.455094482421875,-6.5906134855538605,-5.410620442143082,5.195571916317939
1761838717327164400,1.465164306640625,-5.842137881985306,-4.720986611382663,3.999454252058267
1761838717337234400,1.475234375,-6.1661962331056595,-2.2551769280865788,0.9503381923452019
1761838717347303400,1.485303466796875,-6.195089150112867,-1.60646021412611,-0.7462825505036861
1761838717357373400,1.49537353515625,-6.343088339015841,-1.0905338678903878,-1.4957687193542717
1761838717367443200,1.505443115234375,-7.1428954858928915,-0.9582514496877789,-1.3403367501020431
1761838717377513500,1.515513427734375,-7.632490436172485,-1.4879212207242845,-0.44436460992302745
1761838717387582500,1.52558251953125,-8.483438572221994,-1.803449351647496,0.14591248228941112
1761838717397652500,1.535652587890625,-8.771028602644801,-1.7615476077243684,1.4760036961764096
1761838717407722500,1.545722412109375,-8.980254121404887,-1.4905454317480324,1.5151308608196674
1761838717417791500,1.55579150390625,-9.459507125890255,-1.7920125963538884,0.905891147853434
1761838717427861500,1.565861572265625,-10.079390251815319,-1.865013535156846,-0.01404046238544397
1761838717437931500,1.575931640625,-10.668029513692856,-1.6584145655080675,-0.5716667554950341
1761838717448001300,1.586001220703125,-11.07078613847494,-1.2543483194321394,-0.9254428936067968
1761838717458070500,1.596070556640625,-10.76007768279314,-1.2004139001488685,-1.2713432933747768
1761838717468140300,1.606140380859375,-9.902478856682777,-1.463203251314163,-1.6558784711591898
1761838717478210600,1.61621044921875,-9.358912077718973,-1.7944582359403372,-1.5757302909500897
1761838717488280600,1.626280517578125,-9.510963756883143,-2.1355594917982814,-0.9986391357861458
1761838717498349300,1.636349365234375,-10.265240155684948,-2.2661036880314347,-0.6926327203154563
1761838717508419600,1.646419677734375,-11.578756703400611,-2.7146350987777113,-1.1959048982918261
1761838717518489300,1.6564892578125,-12.913621159571408,-3.2525445826321837,-2.450647331608087
1761838717528558600,1.66655859375,-13.353939160984753,-3.248554928474128,-4.20525213445723
1761838717538628400,1.67662841796875,-13.463902926003932,-2.366549390859902,-5.1372319555521
1761838717548698400,1.686698486328125,-12.537494183039664,-0.9668436292052268,-5.49281591027081
1761838717558768400,1.696768310546875,-10.274033702993393,-0.10374006819874047,-5.139025853231549
1761838717568837400,1.70683740234375,-7.144755434545874,0.30358430289030075,-5.056432325696945
1761838717578907400,1.716907470703125,-3.8424581022292372,0.4367492030158639,-5.41972612414062
1761838717588977400,1.726977294921875,-1.6547908220529555,0.7586205654859542,-4.776464168454706
1761838717599047400,1.73704736328125,-1.2590519670784472,1.4856906851932405,-2.2021797896534205
1761838717609116400,1.747116455078125,-0.599260024613142,2.4975629581704735,0.44690709748007357
1761838717619186400,1.7571865234375,-0.7066828729778528,2.5887048260807988,2.7490064471960065
1761838717629256400,1.76725634765625,-0.5954337443232536,1.8827166573688388,4.773358895915746
1761838717639325400,1.777325439453125,1.9340087454497814,1.1381649492457508,5.01201684538722
1761838717649395500,1.7873955078125,6.90923110692501,1.5474068443939089,5.273198176833987
1761838717659465500,1.797465576171875,11.028093828696012,2.5699513180330396,4.334066438157857
1761838717669535500,1.807535400390625,9.169899910426139,1.7049632584542036,1.8228540170803664
1761838717679604500,1.8176044921875,8.147101169764994,1.449838742828369,0.3860691093534231
1761838717689674500,1.827674560546875,10.264749157297612,2.834613769593835,0.25777239978611466
1761838717699744500,1.83774462890625,10.337356128346919,4.7068689464420075,-0.04997019182741642
1761838717709814500,1.847814453125,9.89943349763751,7.285100893825292,0.7703828994721174
1761838717719883500,1.857883544921875,8.967641892591118,7.924227649402618,3.6147520471438765
1761838717729953500,1.86795361328125,6.99336309607327,5.716418329429626,7.008124027353524
1761838717740023300,1.878023193359375,6.2520408713907,4.029043334636092,9.988661933141946
1761838717750093600,1.888093505859375,6.441666202145814,1.680644517494738,12.206641933995485
1761838717760162300,1.898162353515625,6.932324397742748,-0.1704471675544977,13.004281673705577
1761838717770232300,1.908232421875,7.338346746322512,-1.190174976337701,12.55622810960412
1761838717780302600,1.918302490234375,7.908532652142643,-1.9611384521767496,10.964625272870062
1761838717790371300,1.928371337890625,8.846392178925871,-1.7295104013420641,8.52190011256337
1761838717800441600,1.938441650390625,9.767424489548802,-1.095146183991432,6.028018765515089
1761838717810511400,1.948511474609375,10.52374379235506,-0.39053178785070775,4.0525703406959765
1761838717820581400,1.958581298828125,11.328410654222965,0.2926984594777226,3.123770903202891
1761838717830650400,1.968650390625,11.402462563383578,0.4280447952955961,3.180439423625171
1761838717840720400,1.978720458984375,10.604788921403884,-0.09356149627268313,3.643911798393726
1761838717850790400,1.988790283203125,9.288336904758214,-0.6079371059350669,3.905982772156596
1761838717860860400,1.9988603515625,8.208306456834077,-1.0011045029863714,3.5502208305224774
1761838717870929400,2.008929443359375,7.280014968863129,-1.0041501542925835,2.5826614542633295
1761838717880999400,2.01899951171875,6.244156840142607,-0.5174415731042623,0.7982517341285944
1761838717891069400,2.0290693359375,5.337804212257265,0.538934077661857,-1.5419117541089653
1761838717901139500,2.039139404296875,4.795958850258589,1.2788935626238584,-3.093450291480124
1761838717911208400,2.04920849609375,4.072060638585686,1.3509680342316626,-3.57911462431252
1761838717921278500,2.059278564453125,2.761508201372623,1.2728364545419812,-3.35234818816483
1761838717931348200,2.06934814453125,2.06073776730895,0.344571306588687,-2.6216806284874674
1761838717941418500,2.07941845703125,2.2510423124998806,-0.8208664476491511,-2.078633635614067
1761838717951487500,2.089487548828125,2.5251456693619487,-1.7359798896171152,-1.8303655617542565
1761838717961557500,2.0995576171875,3.1148890930891033,-2.628635854452848,-1.5928009604774414
1761838717971627500,2.10962744140625,3.653926996451616,-3.1734169776424763,-1.2951912019520997
1761838717981696300,2.1196962890625,4.2371009786605836,-3.262451351879537,-1.1501331810675561
1761838717991766500,2.1297666015625,4.37347694978714,-2.673543794454634,-1.171953967731446
1761838718001836500,2.13983642578125,4.463047915118932,-2.0403639645829794,-1.2419956183373928
1761838718011906300,2.14990625,4.545557856023311,-1.4794666961118579,-0.6707420832857489
1761838718021975600,2.1599755859375,4.091295500409603,-1.0932168964292854,0.34983839680403467
1761838718032045300,2.17004541015625,3.9698651694804425,-0.9876431099973618,1.4530682262688874
1761838718042115300,2.180115234375,3.8234979656934738,-0.9117160546146332,2.5705884468927978
1761838718052185600,2.190185546875,3.8152696510523554,-0.9893078283391893,3.720316992682218
1761838718062254300,2.20025439453125,4.103370553606748,-1.9276490011595189,5.2475651384055615
1761838718072320300,2.2103203125,4.317297381925583,-3.7150419748887415,7.136946806621551
1761838718082390300,2.220390380859375,3.861076877981424,-6.141461020299792,9.159131263652444
1761838718092460300,2.230460205078125,2.0374884091466665,-8.274429911082983,10.490195743018388
1761838718102529300,2.240529296875,-1.4914029253602028,-7.5111764250993724,8.98235372403264
1761838718112599300,2.250599365234375,-4.058814788043499,-4.534391442103684,5.4331069992393255
1761838718122669300,2.26066943359375,-5.631019096824526,-2.4036203536257146,0.9638973466202616
1761838718132738300,2.27073828125,-5.435592970836162,1.526766791947186,-5.303835891681909
1761838718142808300,2.280808349609375,-3.5311329759538173,6.290168065211176,-9.91248820952177
1761838718152878300,2.29087841796875,-7.5747279830336565,9.592114099872111,-8.25267049921751
1761838718162948400,2.3009482421875,-11.452184333407878,11.98113221991062,-4.359620273870229
1761838718173017300,2.311017333984375,-11.888422372031211,11.419140141940117,-1.2146472273584454
1761838718183087400,2.32108740234375,-11.944847439086436,6.616600159725547,2.9417919955477116
1761838718193157000,2.3311572265625,-11.592060421609878,1.4957568827860057,5.498379389616847
1761838718203227400,2.341227294921875,-11.869292139625548,-1.0728834987789393,4.3211005736008286
1761838718213296400,2.35129638671875,-12.79242872905135,-2.415316928899288,1.1261343197122216
1761838718223366100,2.3613662109375,-13.163650397884846,-3.285398512224853,-2.210667632013559
1761838718233436400,2.3714365234375,-12.733884185624122,-2.8194197075933216,-4.869997023154795
1761838718243506200,2.381506103515625,-11.111785672861338,-2.8261513539358973,-5.653941122728586
1761838718253575400,2.391575439453125,-8.757235055091977,-3.4186499215900894,-4.837215574276447
1761838718263645400,2.4016455078125,-7.384392458182573,-3.82219915805459,-3.319793241518736
1761838718273715200,2.411715087890625,-7.2375821868032215,-3.8009672771945593,-1.861147507378459
1761838718283785200,2.42178515625,-7.589508788058161,-3.286188493558764,-0.9083872755181044
1761838718293854200,2.431854248046875,-8.041455852466822,-2.493876670873165,-0.37492304410208016
1761838718303924200,2.44192431640625,-8.13909205083251,-1.537131387964636,-0.341501032297872
1761838718313994500,2.451994384765625,-8.01389389180243,-0.6736082133065909,-0.685464801447466
1761838718324064300,2.462064208984375,-7.1269713560521595,-0.10032556531382725,-1.1382168986286967
1761838718334133500,2.472133544921875,-5.37502189001739,0.10427810233188793,-1.44054952095747
1761838718344203300,2.482203369140625,-3.303049027466774,0.0007520239436998963,-1.3269519294805825
1761838718354273300,2.492273193359375,-1.32219611325562,-0.1595782022114843,-1.0138837589301168
1761838718364342300,2.50234228515625,0.3134545395195484,-0.22866364807114004,-0.8124857189252972
1761838718374412300,2.512412353515625,1.67361885664165,-0.16482216727957127,-0.7349748284172266
1761838718384482300,2.522482421875,2.7075995010524987,-0.19497114876247942,-0.7254711600780487
1761838718394552300,2.53255224609375,3.351314753463864,-0.2428429800711572,-0.752332644322887
1761838718404621300,2.542621337890625,3.6177474295675753,-0.13464125628843904,-0.8205734560519456
1761838718414691300,2.55269140625,3.8966052874803543,0.061650985009968275,-0.8816589891988783
1761838718424761300,2.56276123046875,4.08794268285036,0.24028496615141628,-0.8049681098368019
1761838718434831400,2.572831298828125,4.164349630704522,0.34624387944340707,-0.5964742298195138
1761838718444900400,2.582900390625,4.200975187790394,0.4933627783805132,-0.27311745109725744
1761838718454970400,2.592970458984375,4.3860728119879955,0.5579042241349816,0.10379671202311291
1761838718465040100,2.6030400390625,4.495460238423943,0.4997416657626629,0.37298761906009165
1761838718475110400,2.6131103515625,4.544152665400505,0.505494822461903,0.5166755571678281
1761838718485179400,2.623179443359375,4.4989147627919905,0.5091159355685114,0.6152456023175269
1761838718495249200,2.633249267578125,4.02550463911593,0.4199114654615521,0.7649976262371987
1761838718505319400,2.6433193359375,3.4495202761501074,0.31350013222694395,0.9608534488797187
1761838718515389200,2.65338916015625,2.918262359139323,0.16609218721538782,1.1546668789744376
1761838718525458400,2.66345849609375,2.201163890609145,0.29645883492454883,1.2225912451654672
1761838718535528400,2.673528564453125,0.9553677109450102,0.5559953217737377,1.1492197194844485
1761838718545598200,2.68359814453125,0.3748965579539537,0.8533509594075381,1.1710573842179028
1761838718555668500,2.69366845703125,-0.26527181563079355,1.0047088110886513,0.8556205117747188
1761838718565737200,2.7037373046875,-0.624312632805109,1.1552515469945968,0.8133245809022337
1761838718575807200,2.71380712890625,0.9988274979650974,1.9767986703842877,0.9007371260911226
1761838718585877500,2.72387744140625,-0.2667997558504343,1.7018281752988695,0.5591837425515055
1761838718595946200,2.7339462890625,-2.2219553342252967,1.7313938770011066,0.2893956916052848
1761838718606016500,2.7440166015625,-2.0245061779767273,1.9311662155002354,0.21665932202264665
1761838718616086300,2.754086181640625,-1.7489865245759486,1.7837077093452214,-0.03531615498773753
1761838718626156300,2.76415625,-1.0315373429119585,2.1875421924918887,-0.24135862326491622
1761838718636225300,2.774225341796875,-0.1253133098423481,2.0070362799987196,-0.6423868533518164
1761838718646295300,2.78429541015625,0.2904682162076235,1.4990744829013942,-0.8769054379962384
1761838718656365300,2.794365234375,0.1833615941852331,1.134792842464149,-0.8662528188176453
1761838718666435300,2.804435302734375,0.02626023041605949,0.9454995201423764,-0.8357811812516301
1761838718676504300,2.81450439453125,0.008146481576561927,0.9861772752285003,-0.9105918728902935
1761838718686574300,2.82457421875,0.22396190012097358,0.8981512012511491,-1.0854484543848781
1761838718696644400,2.834644287109375,0.4020072677195072,1.148528522349894,-0.8692676365941763
1761838718706714400,2.84471435546875,0.3410913189858198,1.4233680845320225,-0.6623327860545367
1761838718716783400,2.854783447265625,0.21846096461713313,1.2109870243504643,-0.8173650153994559
1761838718726853400,2.864853271484375,0.5959107141852379,1.0378545632347465,-0.8573265850402414
1761838718736923100,2.874923095703125,1.1613514713048934,0.9723840199366212,-0.8047237796869129
1761838718746993400,2.884993408203125,1.533698929297924,0.7260004446491599,-0.7325059540856629
1761838718757062100,2.895062255859375,1.2378724009275435,0.44955753892362116,-0.7873772158276289
1761838718767132200,2.905132080078125,0.7255804656714201,0.29789310551136733,-0.9981602662280201
1761838718777202400,2.915202392578125,0.5583575208604336,0.3780947694733739,-1.2260329100519418
1761838718787272200,2.925272216796875,0.6128817227303981,0.4090869968473911,-1.5188935743540524
1761838718797341400,2.935341552734375,0.8938578879714012,0.35036826589703557,-1.6535656641721725
1761838718807411200,2.9454111328125,1.1676081936120986,0.1864291650623083,-1.7305388676069675
1761838718817481200,2.955481201171875,1.4204513203024864,-0.059495268280804155,-1.801122077743709
1761838718827551500,2.965551513671875,1.4636924961358309,-0.19055851995199918,-1.7545634479254484
1761838718837620200,2.9756201171875,1.5032780720710754,-0.2217775418192148,-1.6156177724413572
1761838718847690200,2.985690185546875,1.6403730051219463,-0.2420221652075648,-1.457339912238717
1761838718857760300,2.99576025390625,1.782528144171834,-0.26166151617914435,-1.2586344723187386
1761838718867829200,3.005829345703125,1.7169699225902557,-0.22004911059141158,-1.009199546636641
1761838718877899500,3.0158994140625,1.5594406887978314,-0.07234042906761169,-0.86816267102696
1761838718887969300,3.02596923828125,1.6760539748340844,-0.07449380770921707,-0.7765293663378805
1761838718898039300,3.036039306640625,2.281724451011419,0.014675883345305918,-0.06637821446126327
1761838718908108300,3.0461083984375,2.278259989771247,0.2688587342068553,0.8198352049052715
1761838718918178300,3.05617822265625,1.7679443230241536,0.552390429149568,1.5540250934898852
1761838718928248300,3.066248291015625,1.9152368249624967,1.3230638360008597,1.7291912523902953
1761838718938318300,3.076318359375,2.7347113798618317,1.972860746413469,1.4491938690535724
1761838718948387300,3.08638720703125,0.1063204400807619,0.12069529465287923,1.798727291561663
1761838718958457300,3.096457275390625,-0.5314414568841457,0.24426702152490615,1.757111378842592
1761838718968527400,3.10652734375,0.8589940798610448,0.7293351420298219,1.0497880890693514
1761838718978597400,3.116597412109375,1.3945885647714138,0.3231505886256695,0.36742132670246064
1761838718988666400,3.126666259765625,1.7400006695657968,0.06503215188086033,-0.22623159861862657
1761838718998736400,3.136736328125,2.1608698741436005,0.11069733999073504,-0.5226267206571996
1761838719008806100,3.14680615234375,2.492936759674549,0.13689794917404652,-0.5970910100109875
1761838719018876400,3.15687646484375,2.838230791047215,-0.22869243577420711,-0.516267268627882
1761838719028945200,3.166945068359375,3.410491749575734,-0.31057547695189713,-0.11483999275341629
1761838719039015200,3.17701513671875,3.9565404084831473,0.3067807608440518,0.47387438018694517
1761838719049085400,3.18708544921875,4.7850621931910515,0.43309521055296063,0.502004496128112
1761838719059155200,3.1971552734375,5.368311578723788,0.47379415455758567,0.34746757601946593
1761838719069224400,3.207224365234375,5.407796616894006,0.5015897778473795,0.3783427528850734
1761838719079295000,3.217294921875,5.121240021172166,0.5107048121951521,0.5381538140043616
1761838719089364700,3.22736474609375,4.663468780654669,0.6787171538181602,0.6300672508090734
1761838719099434800,3.237434814453125,4.256303691780567,0.5773924761980772,0.42124066823869943
1761838719109503700,3.247503662109375,4.311416507193446,0.5131007674209773,0.2749808703489601
1761838719119573800,3.25757373046875,4.221370910087227,0.640582799604535,0.3131095985393971
1761838719129644000,3.26764404296875,4.157310233587026,0.5501404582656919,0.10017273110598325
1761838719139713800,3.2777138671875,3.9517274552434682,0.24517200754061338,0.042041663850471374
1761838719149782800,3.28778271484375,4.110811517262459,-0.12333090385347605,0.025096958790346978
1761838719159852800,3.297852783203125,3.785684660127759,-0.8389894027084112,0.2087625043582171
1761838719169922800,3.3079228515625,3.0824791078716514,-2.0120701825127005,1.259290013618022
1761838719179992800,3.317992919921875,1.271437985920906,-2.9407775578081607,2.142713601336628
1761838719190061800,3.328061767578125,-2.2141098814219236,-3.8261066868871447,2.482272742319107
1761838719200131800,3.3381318359375,-6.236494342690706,-4.737845976246893,3.2762460684761403
1761838719210201900,3.348201904296875,-9.182360163548589,-6.099485918879509,3.546279399420321
1761838719220271900,3.35827197265625,-12.382158659899234,-6.390633349522948,3.1689193739622827
1761838719230340900,3.3683408203125,-15.996645626366137,-5.522057786846161,2.52398714697659
1761838719240411000,3.378410888671875,-18.50637920706272,-5.8863750831186765,3.17819398278594
1761838719250481000,3.38848095703125,-20.812088929295538,-6.660637454372644,5.257821744003891
1761838719260550700,3.398550537109375,-24.334459922122953,-6.0716252675294875,7.035670790448784
1761838719270620000,3.408619873046875,-27.646917413926122,-4.87094774800837,7.815427082943916
1761838719280690000,3.41868994140625,-29.33141363841295,-3.836609376201033,6.56802814425826
1761838719290759700,3.428759765625,-28.848872113776206,-3.4216882663726804,3.9206647929817438
1761838719300829000,3.438828857421875,-26.212762562441824,-2.683950622178614,1.3779365590475499
1761838719310898700,3.448898681640625,-22.562890978860853,-2.551111885267496,-0.6542252482488751
1761838719320969000,3.458968994140625,-19.39619454164505,-2.855115290352702,-1.4864267443828283
1761838719331039000,3.4690390625,-15.39521585649848,-1.9613839513704179,-2.4665216309577227
1761838719341108000,3.47910791015625,-11.151658249044418,-0.9989660296529531,-3.2346497372403737
1761838719351178000,3.489177978515625,-8.401035598823428,-0.511442332689464,-3.263323750799894
1761838719361247700,3.499247802734375,-6.002075345963239,-0.47309857350885864,-3.824257844150066
1761838719371317800,3.50931787109375,-3.2295851473271844,-0.2885539070188999,-4.663360351844132
1761838719381386800,3.51938671875,-0.236387666451931,1.373194479086995,-5.782664533275366
1761838719391456800,3.529456787109375,3.683299221408367,2.9435458534777164,-6.408126920637488
1761838719401527000,3.539527099609375,6.876323693579435,3.902258198675513,-6.218642459657788
1761838719411596800,3.5495966796875,7.805949645024538,5.253986695885658,-6.165776546388864
1761838719421665800,3.559665771484375,5.889157407313585,6.950153484421968,-7.5588266495466225
1761838719431735800,3.56973583984375,4.942838679742813,7.974818018954992,-8.97028510057628
1761838719441805800,3.579805908203125,3.452575572067499,9.020479748809336,-8.89676569085717
1761838719451875800,3.589875732421875,3.691268592852354,10.116692100727558,-7.523554845157265
1761838719461944800,3.59994482421875,4.145307661104202,10.558017817878723,-5.366027267178893
1761838719472014800,3.610014892578125,6.062639412519335,10.995458802551031,-2.813664212806523
1761838719482084900,3.6200849609375,8.437056175753474,10.772259118974208,-0.5031828922577202
1761838719492155000,3.63015478515625,11.170297483062743,10.300193395644426,0.965365227215737
1761838719502224000,3.640223876953125,13.41437287915945,8.977403992670775,2.0345231296002866
1761838719512294000,3.6502939453125,14.976274989634751,7.665698293769359,2.632834182925522
1761838719522364000,3.660364013671875,15.761754335951805,6.666912296858429,2.5617642121851443
1761838719532433700,3.67043359375,15.502591358590125,6.099683487278223,2.09696614177078
1761838719542503000,3.6805029296875,14.179578668254614,5.727729997038841,1.4210615611553192
1761838719552573000,3.690572998046875,13.418809400302171,5.4787248410761356,0.6618956367462873
1761838719562642700,3.700642578125,12.529419597655535,5.162787252569198,-0.0031140403673052784
1761838719572713000,3.710712890625,12.062759532761573,4.594586090825498,-0.05370236409306526
1761838719582781700,3.72078173828125,11.452786390954255,3.9732226632148024,0.5889350299537182
1761838719592852000,3.73085205078125,10.984760882925986,3.366059025870263,1.4237966852076351
1761838719602922000,3.740921875,10.52460187048912,3.047829527033865,1.9758884236715732
1761838719612991700,3.75099169921875,10.29774191083908,2.57677561109513,2.3817241636380553
1761838719623061000,3.76106103515625,10.077309353888035,2.098945040628314,2.4917902199879287
1761838719633130800,3.771130859375,9.937402870547771,1.81285109398216,2.5371868202894925
1761838719643200800,3.78120068359375,10.470324336856603,1.2015218613907694,2.6902383241459726
1761838719653271000,3.79127099609375,10.764783084005117,0.66768152667135,2.886098457637429
1761838719663339800,3.80133984375,10.016624291300774,0.4144000085636973,3.186122145436704
1761838719673410000,3.81141015625,8.8884496979326,0.25179975511729713,3.234711404299736
1761838719683479800,3.821479736328125,7.5956842618227,-0.10348784700334071,2.8916046538382765
1761838719693549800,3.8315498046875,6.342947469240427,-0.7296428928047418,2.321642766032368
1761838719703618800,3.841618896484375,5.435471390283108,-1.2667805155038834,1.3903595488995313
1761838719713688800,3.851688720703125,4.382040779992938,-1.4222434644162654,0.3082606241382658
1761838719723758800,3.8617587890625,3.1302900758385657,-1.3652911586165428,-0.6791497000165283
1761838719733828900,3.871828857421875,2.6586492999225855,-1.2163961899176239,-1.4599490718238055
1761838719743897900,3.88189794921875,2.6571342191845178,-0.802409438329935,-1.8123875681236385
1761838719753967900,3.8919677734375,3.0478087765067814,-0.5429717356801033,-1.7785227079227566
1761838719764038000,3.902037841796875,3.666176237171888,-0.26560937702208753,-1.7672621859788893
1761838719774108000,3.91210791015625,4.111321804872155,0.19815058251619339,-1.763333029836416
1761838719784177000,3.922177001953125,3.1004315286695956,0.7915431764006614,-1.73049678203091
1761838719794247000,3.932246826171875,1.8771674988090992,1.388423904661834,-1.5160289787031709
1761838719804316700,3.942316650390625,0.4030266738951206,1.5586828561678527,-0.7944939890302717
1761838719814387000,3.952386962890625,-1.3398001590073108,1.2308271585911512,0.4726082327086478
1761838719824455700,3.96245556640625,-2.290686340624094,-0.1840507454931736,1.7427533292748032
1761838719834525700,3.972525634765625,-2.5785844140827656,-2.961008444932103,3.264523189717531
1761838719844596000,3.982595947265625,-3.390149803292751,-4.933869191345572,3.437154131051898
1761838719854665700,3.992665771484375,-4.70218341897428,-4.101576655927301,1.2901301191702483
1761838719864735000,4.00273486328125,-5.522952105337381,-4.612206795451045,0.0478003004424274
1761838719874804700,4.0128046875,-7.405493698400258,-3.03380480107367,-1.861349605821818
1761838719884874000,4.0228740234375,-8.632157307571172,-1.5280559549748898,-3.8892379735827443
1761838719894944000,4.032944091796875,-8.223685227751732,-1.173879528966546,-5.048752877110243
1761838719905013800,4.043013671875,-7.6644585228413336,-0.9726739427939057,-5.188044443422555
1761838719915083000,4.0530830078125,-7.134201307305693,-1.6271724550262092,-3.957268430496752
1761838719925152800,4.06315283203125,-6.860185628727078,-2.2381030436888336,-2.2971140355840323
1761838719935222800,4.073222900390625,-6.755266287615895,-2.225015306317806,-0.9989836383748799
1761838719945293000,4.08329296875,-8.299445109874009,-2.0130042484924195,0.0641887598592788
1761838719955361800,4.09336181640625,-10.359310770523548,-1.5633163611873984,0.7909818161908536
1761838719965431800,4.103431884765625,-11.823047105801106,-1.3762126578643916,1.4324630990050733
1761838719975501800,4.113501708984375,-12.317117740190028,-1.7550792884930968,1.9676827592536805
1761838719985571800,4.12357177734375,-11.956420972502231,-2.797057361398637,2.1622060911834238
1761838719995640800,4.133640869140625,-11.492069769072533,-3.1934044113993645,1.8301701853126287
1761838720005710800,4.1437109375,-9.594315409308672,-1.6201358343876897,0.8628796160575002
1761838720015780900,4.15378076171875,-8.48271902577579,-1.106911586717516,0.5280903928905725
1761838720025851000,4.163850830078125,-8.971603197437524,-0.803948557530716,0.6538156445346772
1761838720035920000,4.173919921875,-8.918463727924227,-0.7111570957824588,0.7243552347254008
1761838720045989600,4.18398974609375,-7.064422837680578,0.5060669963266701,0.572135286322236
1761838720056060000,4.194059814453125,-5.437585605958104,0.9240366070054471,0.3364099562365562
1761838720066130000,4.2041298828125,-3.695990945199132,1.017592184993997,-0.5638245540946721
1761838720076202800,4.21420263671875,-1.6843962712436913,0.7902278560183942,-1.4549622233219444
1761838720086272800,4.224272705078125,-0.8268751865446567,0.28465806862413884,-1.8072811848953365
1761838720096342500,4.234342529296875,-1.5768898362487553,0.07439874983690678,-1.8618886811345814
1761838720106412500,4.24441259765625,-1.5166449186444282,0.19796718877330421,-1.691101614101231
1761838720116481500,4.2544814453125,-0.5297200399190187,0.5658759336665272,-1.3293728730171919
1761838720126551600,4.264551513671875,0.307261530098319,0.49607510607913136,-1.1430075669713318
1761838720136621800,4.274621826171875,0.77173957477808,0.32435470371842384,-1.285701489073038
1761838720146691600,4.284691650390625,1.1943652676343917,0.08293956449329852,-1.4886279076889157
1761838720156760600,4.294760498046875,1.7882278171181678,-0.04896496030762791,-1.5663649351030586
1761838720166830600,4.30483056640625,2.246689377987385,0.13513283919766544,-1.324131026840955
1761838720176900600,4.314900634765625,2.6368302668243646,0.30668519151508805,-1.0222839230068028
1761838720186970600,4.324970703125,2.9781279220372436,0.3931954541020095,-0.9720146021023393
1761838720197039600,4.33503955078125,3.3700849203854797,0.43357013458833094,-0.9161655813694
1761838720207109600,4.345109619140625,3.6451772882848976,0.5399617402091622,-0.7281251817181706
1761838720217179600,4.3551796875,3.986511183854937,0.6793124893628061,-0.43456323727890844
1761838720227249700,4.365249755859375,4.424492266753315,0.836792769446969,-0.06449413601402193
1761838720237318400,4.375318359375,4.941989953958988,0.7954448600143194,0.14386724019739777
1761838720247388700,4.385388671875,4.994309923782945,0.5963833001330494,0.13827201400622724
1761838720257458700,4.395458740234375,4.4482489899158475,0.6283227452293038,0.19537713574748486
1761838720267528400,4.405528564453125,3.5868303132563826,0.7172735328361391,0.28443806919790804
1761838720277597700,4.41559765625,3.0495933218359945,0.7458604526340961,0.39317894135862586
1761838720287667500,4.42566748046875,2.537709967380762,0.6838388807460666,0.3829415884500369
1761838720297737500,4.435737548828125,1.9046663311094045,0.5828817212641239,0.26132201855909076
1761838720307807700,4.445807861328125,1.3967021959245205,0.554803920032084,0.12196293996851891
1761838720317876500,4.45587646484375,0.9067705610364675,0.46154988227337596,-0.16356939073950053
1761838720327946800,4.46594677734375,0.5674152720630169,0.4829442602187395,-0.5429989159479737
1761838720338016500,4.4760166015625,0.33956454780995843,0.5254781645655632,-0.7794492723725736
1761838720348086500,4.48608642578125,0.08564940797388552,0.5841688384652137,-0.7895908732891083
1761838720358155500,4.496155517578125,0.1167208380639553,0.5652753374248742,-0.6695400870848447
1761838720368225500,4.5062255859375,0.026939444851875303,0.324272286131978,-0.5537252214172854
1761838720378295600,4.516295654296875,-0.008051204508543014,0.32236528346687554,-0.4592958928015083
1761838720388365600,4.526365478515625,0.18233926540017126,0.2152966553673148,-0.3762420177461579
1761838720398434600,4.5364345703125,0.18533435556292532,0.18591040188521146,-0.3154474669024348
1761838720408504600,4.546504638671875,-0.09623334583044052,0.2225105322688818,-0.2760270184010267
1761838720418574600,4.55657470703125,-0.22270400901436804,0.2831801050260663,-0.24362455890290438
1761838720428644600,4.56664453125,-0.20513211196660994,0.31564415851831434,-0.21386698789037764
1761838720438713600,4.576713623046875,-0.045448915010690684,0.3747320150420069,-0.18641822354318574
1761838720448783600,4.58678369140625,-0.09214987590909003,0.315488091173768,-0.058013235862390135
1761838720458853400,4.596853271484375,0.042622167152166365,0.26263620643019675,0.2364674171572551
1761838720468923600,4.606923583984375,-0.10298398913443088,0.07314473118782043,0.18368284376254304
1761838720478992600,4.61699267578125,-0.26385493457019327,-0.06717851625978946,0.4100444437026977
1761838720489062700,4.627062744140625,-0.33392624966204165,-0.036949966734647746,0.4761181039931252
1761838720499132700,4.637132568359375,-0.2388788987457752,-0.18524170884341,0.33728425485305485
1761838720509203700,4.64720361328125,-0.2944610852360725,-0.27895401176363227,0.07962496005259453
1761838720519273500,4.6572734375,-0.24890754080712793,-0.1158148291349411,0.0994837989937514
1761838720529343500,4.667343505859375,-0.03946984060108662,-0.05445815089643001,0.049939002104708925
1761838720539412500,4.67741259765625,-0.014067688319087028,-0.09706921213269233,-0.1620833899654448
1761838720549482500,4.687482421875,-0.023708207845687865,-0.12884966727495192,-0.3781631585344672
1761838720559552800,4.697552734375,-0.005818330889940261,0.005847556984424591,-0.620897198338434
1761838720569622500,4.70762255859375,0.19633388848304748,0.09126403298527001,-0.7637289945408702
1761838720579691800,4.71769189453125,0.4130418719530105,0.11007745452672242,-0.7155033813584596
1761838720589761500,4.727761474609375,0.206747145947814,0.06457943967729807,-0.6248305922646075
1761838720599831600,4.73783154296875,-0.14663959098756313,0.06348141530752181,-0.4648702588677406
1761838720609901600,4.747901611328125,-0.09873685308396815,0.18053104693442582,-0.40307840408235784
1761838720619970600,4.757970458984375,-0.07633154453039169,0.21890257090479134,-0.44593295521829274
1761838720630040600,4.76804052734375,-0.13664718928337097,0.1990580527499318,-0.5144201429238543
1761838720640110600,4.778110595703125,-0.2562812844455242,0.19124708673804997,-0.6102895873453468
1761838720650180600,4.7881806640625,-0.3354647112756967,0.14151713340729474,-0.7021035092983394
1761838720660249600,4.79824951171875,-0.3127922762185335,0.10176672229915856,-0.7460581671632825
1761838720670319600,4.808319580078125,-0.3290104205697775,0.05948094749450683,-0.749741312655434
1761838720680389600,4.8183896484375,-0.28951310743987557,-0.021106793175637722,-0.7334871471427381
1761838720690459400,4.82845947265625,-0.1422743815153837,-0.10033639723509549,-0.7150622134622187
1761838720700528600,4.838528564453125,-0.06107552320957183,-0.20578151578605175,-0.670296093083918
1761838720710598700,4.8485986328125,0.001449029764533043,-0.3105073801517486,-0.5894075063036754
1761838720720668700,4.858668701171875,0.10138707533180713,-0.42593876292705535,-0.4395692654052749
1761838720730738700,4.86873876953125,0.15107260499894618,-0.47905017538964745,-0.34461222312096507
1761838720740807400,4.878807373046875,0.16300678842067717,-0.545836769722402,-0.22658855883013457
1761838720750877700,4.888877685546875,0.3035562458395958,-0.5792246600612998,-0.13849289021529257
1761838720760947700,4.89894775390625,0.5488853436380624,-0.5723802009940147,-0.09390618152450769
1761838720771017500,4.909017578125,0.676806790152192,-0.5575722157016396,-0.040259858467616136
1761838720781086700,4.919086669921875,0.7328127550125122,-0.45686406254470346,-0.01851107759401202
1761838720791156500,4.929156494140625,0.8013859405010938,-0.3587333586603403,-0.08619655699525028
1761838720801226500,4.9392265625,0.92675887157619,-0.2867263993307948,-0.11756496073789893
1761838720811296800,4.949296875,0.943545755726099,-0.24798691883087157,-0.15458627567570657
1761838720821365500,4.959365478515625,1.003278047633171,-0.22306582806408404,-0.1368438808992505
1761838720831435800,4.969435791015625,1.2155015791654586,-0.08797346700727939,-0.10985690711122005
1761838720841505500,4.979505615234375,1.381392983111739,-0.04317687842547893,-0.06890603417214006
1761838720851575600,4.989575439453125,1.560875690037012,-0.07968290078490972,-0.014362944938614964
1761838720861645800,4.999645751953125,1.8449755402565002,-0.06832447142452001,0.03546235852539539
1761838720871714600,5.009714599609375,2.1362901441603896,-0.06298895561546086,0.08775302918963133
1761838720881784600,5.01978466796875,2.2657477142006157,-0.06361556308120489,0.13765559914093464
1761838720891854600,5.0298544921875,2.4351485875725745,-0.030778000101447104,0.16331600050032138
1761838720901924600,5.039924560546875,2.651178525650501,0.021381518463790414,0.19809892539419233
1761838720911993600,5.04999365234375,2.8202801238149404,0.06555062279701232,0.2052540578458458
1761838720922063600,5.060063720703125,2.9881524724453685,0.08624971195459365,0.2387891746357083
1761838720932133600,5.070133544921875,3.1095909866809843,0.11536650084555149,0.2601581989441067
1761838720942203600,5.08020361328125,3.2983827892214057,0.14915654224455355,0.32107341702543196
1761838720952272600,5.090272705078125,3.4726311026245353,0.14953531242907048,0.396154303907603
1761838720962342400,5.10034228515625,3.5570220349699255,0.17901479715257881,0.44151378706917166
1761838720972412700,5.11041259765625,3.407300844579935,0.30396102724820373,0.43584443619586527
1761838720982482700,5.120482666015625,3.3652550160109995,0.39183278744667766,0.353780412428081
1761838720992551700,5.1305517578125,3.487139520448446,0.48680473503917454,0.20280651856325566
1761838721002621700,5.14062158203125,3.770486506474018,0.6706108581215143,-0.06187208041474223
1761838721012691500,5.15069140625,3.910415786167979,0.721617407259345,-0.2318032612711191
1761838721022761500,5.160761474609375,4.040056896081566,0.6026305239595472,-0.20429303079396485
1761838721032830700,5.170830810546875,4.165723841667175,0.44555107976123687,-0.06708579647503793
1761838721042900500,5.180900390625,4.261655574202537,0.4324285633377731,0.019968217599764464
1761838721052970800,5.190970703125,4.298398035666346,0.4768373216457665,0.07509031229764222
1761838721063040500,5.20104052734375,4.2748301130741835,0.447966031948477,0.18856712693907318
1761838721073109500,5.211109619140625,4.061494820907711,0.46476519105806946,0.36031127550154923
1761838721083176000,5.221176025390625,3.403365258696675,0.4441948428466916,0.7619519018657505
1761838721093246000,5.231245849609375,2.2843705816060305,0.3853166104856878,1.2076371294006705
1761838721103315700,5.241315673828125,1.4224147293299436,0.7735170327793807,1.2828884774789213
1761838721113385000,5.251385009765625,0.662403586268425,0.7514228360015899,1.2775574917145072
1761838721123455000,5.261455078125,-0.3330962285786867,0.40679998188875616,1.2344777900531887
1761838721133525000,5.27152490234375,-1.7064473595321177,0.30931510162726045,1.0544421254202723
1761838721143595000,5.281594970703125,-3.647835693839192,0.3347507177874446,1.209472382003814
1761838721153664000,5.2916640625,-5.943770456510782,0.4373589324120432,1.7020668063603341
1761838721163734000,5.301734130859375,-8.039512317183613,0.5838730703890324,2.238705539626628
1761838721173804000,5.311803955078125,-9.76485376227796,0.5513100865669548,2.596728265799582
1761838721183873800,5.321873779296875,-10.772509294342994,0.058567485911399125,2.102964359272271
1761838721193943000,5.331943115234375,-11.594067669779061,-0.2254945165157318,1.2516145105540752
1761838721204012800,5.3420126953125,-12.14139409353733,-0.6471097171552479,0.7882933808244764
1761838721214083000,5.3520830078125,-12.968908747029303,-1.155046818202734,1.090315256703645
1761838721224153000,5.362153076171875,-13.83426184052825,-2.0164858069978653,1.8556671762712298
1761838721234221800,5.372221923828125,-14.514794957727194,-2.790824312227964,2.455463645848632
1761838721244292000,5.3822919921875,-15.469053830647468,-3.031186727529764,2.464107555553317
1761838721254361900,5.39236181640625,-16.641850240552426,-3.092297614313662,2.3911994096003473
1761838721264431900,5.402431884765625,-17.884409337991475,-2.999524638070166,2.0432544253274796
1761838721274500900,5.4125009765625,-19.29722095719576,-3.4841657653346654,2.0751805725507437
1761838721284571000,5.42257080078125,-19.71956607954502,-3.937553968462348,2.1710095753639935
1761838721294641000,5.432640869140625,-18.452301579916476,-2.799648254674673,1.2068913525346665
1761838721304711000,5.4427109375,-15.877101547574997,-2.618341839453578,0.4961558431651443
1761838721314781000,5.452781005859375,-13.01695995349288,-1.8617866820648312,0.01970072576999664
1761838721324850000,5.462849853515625,-10.019103833156823,-1.2637906860381365,0.5683220847096294
1761838721334920000,5.472919921875,-7.433613877469301,-2.037657043711841,1.1537147658813744
1761838721344990000,5.482989990234375,-3.7218162913292643,-2.614322666940093,1.0079135254140943
1761838721355060000,5.49306005859375,-0.10829612406790255,-2.603623286010325,0.71253481387645
1761838721365129000,5.50312890625,2.5000375315904617,-1.788384176723659,0.015524828324839472
1761838721375198700,5.51319873046875,4.171369738599658,-1.0031060520671307,-0.9159924898248165
1761838721385269000,5.52326904296875,4.247951458498835,-0.3305310542657971,-1.3824369392067193
1761838721395339000,5.533339111328125,4.306487234097719,0.9901758433453738,-1.6697599892564117
1761838721405408000,5.543407958984375,5.495457949212193,2.205922629443556,-2.4290701444417238
1761838721415478000,5.55347802734375,6.82459818251729,4.251427610176801,-2.8449779272198676
1761838721425547800,5.5635478515625,7.93259800286293,5.899058039081097,-3.16757292778939
1761838721435618000,5.5736181640625,8.109515827736258,6.437073029136657,-3.276400966776907
1761838721445686800,5.583686767578125,9.522526184383034,7.197987258517742,-2.5452567294985053
1761838721455756800,5.5937568359375,11.058037716060877,7.054733802837133,-1.692196423600614
1761838721465827000,5.6038271484375,11.232212379705905,6.513371840441226,-0.5634424229092896
1761838721475896800,5.613896728515625,11.440489219439028,5.540008454078436,0.19051117367893455
1761838721485966000,5.623966064453125,11.122163274490832,4.161607346259057,0.4147466300442815
1761838721496035800,5.634035888671875,10.234079293745756,3.1324855400562286,-0.006890928557515144
1761838721506105900,5.64410595703125,10.247332743072509,2.557861359527707,-0.8545879538565874
1761838721516176000,5.65417578125,11.115880833220482,2.0354032734356817,-1.507840557681024
1761838721526244900,5.664244873046875,11.06948148561716,1.5882140710785984,-1.7300417317397891
1761838721536315000,5.67431494140625,10.896664081799983,1.2052402973920107,-1.8634741967603563
1761838721546385200,5.68438525390625,10.753297228872775,1.022919590561837,-1.8892812765814362
1761838721556455000,5.694454833984375,10.076000024855137,1.0470276113800703,-1.593264194075018
1761838721566524000,5.70452392578125,9.59935398799777,0.7459438931338489,-1.1284889200143515
1761838721576594000,5.714593994140625,9.677174894303082,0.3504663194440305,-0.6706582043945789
1761838721586664000,5.724663818359375,9.919002121460437,0.03803060157820582,-0.4812207974269986
1761838721596734000,5.73473388671875,10.144190348505973,-0.0003977671459317207,-0.46099283291250465
1761838721606803000,5.744802978515625,10.114120204412936,0.16292480922564864,-0.33884923914745446
1761838721616873000,5.754873046875,9.89448961149454,0.48748877178058025,-0.3171116007223725
1761838721626943000,5.76494287109375,10.147241552770137,0.5761136884339153,-0.3224946089349687
1761838721637013000,5.775012939453125,10.217934799152612,0.36741964620202777,-0.3266773745123297
1761838721647081700,5.785081787109375,10.118603487306833,-0.1159498536914587,-0.18348690106533466
1761838721657152000,5.795152099609375,10.4303056302011,-0.7923658909603953,0.14724650737214834
1761838721667222000,5.805221923828125,10.954199740445613,-1.2955775709211825,0.3110451402902603
1761838721677291800,5.815291748046875,10.94217495613098,-1.4851944261088967,0.4679574112281203
1761838721687362000,5.825362060546875,10.4459369145751,-1.3296823773577808,0.6652840370755643
1761838721697430800,5.8354306640625,9.316382265025377,-1.0138371433094144,0.5357242487698793
1761838721707501000,5.8455009765625,8.182484617835282,-0.7359225575961172,0.17464187929797917
1761838721717571000,5.855571044921875,7.133658870992064,-0.5447977820634842,0.12562343523744493
1761838721727640800,5.865640869140625,5.69317247839868,-0.28739713819921014,-0.1803121800193563
1761838721737710000,5.8757099609375,4.577896529570221,-0.3382863445676863,-0.5276670894445851
1761838721747779800,5.88577978515625,3.871797009438276,-0.3726734750770032,-0.8867182453498244
1761838721757849900,5.895849853515625,2.6441134095698593,-0.2759497153811157,-1.0501929435431956
1761838721767920000,5.905920166015625,1.2516618568271398,-0.04873831194490194,-0.9964291315864771
1761838721777988900,5.91598876953125,0.15177578483223914,0.13271467214003205,-0.8057421629492193
1761838721788059000,5.926058837890625,-1.3047966501653194,-0.37939372324272985,-0.5163415029078722
1761838721798129000,5.93612890625,-2.3843682484060524,-2.0546593241780995,0.12419047982487827
1761838721808199000,5.946198974609375,-2.898258266508579,-5.67487752777338,1.5272297332838176
1761838721818268000,5.956267822265625,-4.115775277149677,-7.108560670092701,0.7230621261749416
1761838721828338000,5.966337890625,-4.748047344526649,-5.431750323933363,-1.2405974419772625
1761838721838408000,5.976407958984375,-6.693571755725145,-4.292941523826122,-1.6981716986179352
1761838721848478000,5.98647802734375,-9.97710944251418,-1.788334930754453,-1.8256778423294424
1761838721858547000,5.996546875,-11.768576679944992,1.9979301596097647,-3.0821202114313837
1761838721868616700,6.00661669921875,-10.794302608478068,3.239614373910427,-3.8795515690878033
1761838721878687000,6.01668701171875,-8.975719985106586,2.9685359178274866,-4.016002943538129
1761838721888757000,6.026757080078125,-7.295608843836188,1.8959701066955923,-3.731449212071299
1761838721898826000,6.036825927734375,-6.656404346847534,1.4343953822419047,-2.849928827625513
1761838721908896000,6.04689599609375,-6.780600050836801,1.563813204793632,-1.541635129124671
1761838721918965800,6.0569658203125,-8.98407104934454,2.8380890444889664,-0.13108071426264942
1761838721929035800,6.067035888671875,-11.797772379291057,3.8502757902428506,1.2409253587573765
1761838721939105000,6.07710498046875,-13.671847757303714,3.7824127988502383,2.3631679317280647
1761838721949174800,6.0871748046875,-14.108873731434345,2.989360094669461,3.1575434089452026
1761838721959245000,6.0972451171875,-13.058749761474132,2.782884166878462,2.97434840349853
1761838721969315000,6.107315185546875,-11.673418854391574,1.7560094089500604,2.430730771130323
1761838721979384800,6.117384765625,-10.104033694684505,0.720174953366071,1.8917793770074842
1761838721989454000,6.1274541015625,-7.853620912259816,3.0496821691632268,0.44015228945761914
1761838721999523800,6.13752392578125,-8.737855816361307,3.1068527938887476,0.5079636237282306
1761838722009593900,6.14759375,-10.35048682807684,2.272734212087095,0.9266530000489205
1761838722019664100,6.1576640625,-9.679173374643922,2.1650155956462025,0.8906747278906404
1761838722029732900,6.16773291015625,-8.519500650206208,2.1642601011037823,0.8097261910840868
1761838722039803100,6.17780322265625,-7.463465410375595,1.9999553818270563,0.9837211873132735
1761838722049873000,6.187872802734375,-6.045419982171058,1.9095798221141098,0.7707253562342375
1761838722059943000,6.19794287109375,-4.699824873149395,1.5014289370730518,0.14182787985689937
1761838722070012000,6.208011962890625,-3.2975223729997873,1.049948321132362,-0.2243090330582112
1761838722080081400,6.218081298828125,-2.3513164581537245,0.7549602894127369,-0.4481983793996274
1761838722090151400,6.2281513671875,-1.645964541518688,0.6472793746337294,-0.701333620904386
1761838722100221700,6.2382216796875,-1.0749509527027605,0.3489984388485551,-1.0217368835832923
1761838722110290400,6.24829052734375,-0.4943155490607023,-0.17861615322381258,-1.2938267817310989
1761838722120360700,6.258360595703125,0.34215281073749065,-0.4218517858743667,-1.3606047543659805
1761838722130430500,6.268430419921875,1.3580465943157671,-0.9420479183837771,-1.2816614199019967
1761838722140500500,6.27850048828125,2.0680682563275097,-1.3167995149090885,-1.485465936526656
1761838722150569500,6.288569580078125,2.7310446740478276,-1.4646794613465666,-1.7111771645329892
1761838722160639500,6.298639404296875,3.3938317066758867,-1.672731990804523,-1.9606601671405135
1761838722170709500,6.30870947265625,4.1909623278200625,-1.836301527674496,-2.156292921616882
1761838722180779500,6.318779541015625,5.064570623967051,-1.7793642733134327,-2.261316599885374
1761838722190848500,6.3288486328125,5.438552989685535,-1.6440749283798037,-2.193788247274607
1761838722200918800,6.338918701171875,5.650298382312059,-1.5566906594373284,-1.7084217283450065
1761838722210988500,6.348988525390625,6.134946523839235,-1.1855702590212225,-1.0645582265693694
1761838722221058600,6.35905859375,6.477344833770394,-0.5171842373423278,-0.3175697928186506
1761838722231127600,6.36912744140625,6.084287765225768,0.043391032632812854,-0.006864880800805985
1761838722241197600,6.379197509765625,5.593596251881122,0.3378327921139076,0.11894235003832727
1761838722251267600,6.389267578125,5.253541874727606,0.6128505238745361,0.1462228268802166
1761838722261337600,6.399337646484375,4.872461075180769,0.5236080963773653,-0.13628237455897033
1761838722271406600,6.409406494140625,4.733803715118766,0.09792864197362214,-0.45288756012916564
1761838722281476600,6.4194765625,4.370954737833142,-0.3654842942252755,-0.4307928518947214
1761838722291546600,6.429546630859375,3.8090614440619945,0.005915653784573077,-0.09443173976857215
1761838722301616600,6.43961669921875,2.7120757696837186,0.3282438931766897,0.3665603990241885
1761838722311686400,6.449686279296875,1.7125106050938368,0.5116333982821554,0.6557409865740687
1761838722321755600,6.459755615234375,1.1485229693919419,0.7042380371090025,0.570452301671356
1761838722331825400,6.469825439453125,0.6777659905731678,0.5432272448111325,0.2930222115393728
1761838722341895700,6.479895751953125,0.1946031191676855,0.6416726406678557,0.018589403527230024
1761838722351964400,6.48996435546875,-0.352180283755064,0.8757898049045354,-0.09111143623944372
1761838722362034400,6.500034423828125,-0.907469064694643,1.0803733430776745,-0.10026059205252677
1761838722372104700,6.510104736328125,-1.305573479756713,1.1473072369266302,-0.06476889783479273
1761838722382174500,6.520174560546875,-1.4327145895481108,1.2521364886015653,0.020378186640143393
1761838722392244500,6.530244384765625,-1.6833540687143802,1.3012203991137443,0.1145564265716821
1761838722402313500,6.5403134765625,-1.8202017490059137,1.1706852629698812,0.13922518654521554
1761838722412383500,6.550383544921875,-1.8773744195580482,1.0138120088681577,0.10963358321674167
1761838722422453800,6.560453857421875,-2.1878099035173655,0.795691455186531,0.2061774563010782
1761838722432523500,6.5705234375,-2.279733569455147,0.7511104821167885,0.2953931053891778
1761838722442592500,6.580592529296875,-2.0082266588270663,0.6451064875740558,0.3801430072400719
1761838722452662500,6.59066259765625,-1.7428420304715633,0.4373538178455084,0.31152466743551194
1761838722462732500,6.600732666015625,-1.3746610445082186,0.20225443763844667,0.1864251464743167
1761838722472802600,6.610802490234375,-0.8819418247282504,-0.0036358174853958185,0.031226328390836715
1761838722482871600,6.62087158203125,-0.4555845441281795,-0.22641665459563953,-0.04710742280744016
1761838722492941600,6.630941650390625,-0.2503910573631525,-0.38393286450970915,-0.18243439633771777
1761838722503011600,6.641011474609375,-0.12887421719431877,-0.5187331107521429,-0.28650055468566715
1761838722513081600,6.65108154296875,0.1346849492996931,-0.6643652417302132,-0.4077223574306816
1761838722523150300,6.661150390625,0.31188685181140896,-0.8452762278929352,-0.48993477669320995
1761838722533220600,6.671220703125,0.37014205690324303,-0.9833638252429664,-0.6298449132952839
1761838722543290600,6.68129052734375,0.4914017074406147,-1.0698537756942212,-0.7774919277597219
1761838722553360400,6.6913603515625,0.6098609136044979,-1.3058917519256472,-1.0040958668220787
1761838722563429600,6.7014296875,0.8011684983581304,-1.5113699008509516,-1.359255677844584
1761838722573499400,6.71149951171875,0.9028805678606033,-1.6506190893262624,-1.624501043859869
1761838722583569400,6.7215693359375,0.7778489975690841,-1.6997446470230817,-1.787060673034936
1761838722593639700,6.7316396484375,0.6734966426908969,-1.4869699113488197,-1.7798552717007696
1761838722603708400,6.74170849609375,0.7109685874730348,-1.0388717043880373,-1.643320895142108
1761838722613778700,6.75177880859375,0.647058133098483,-0.905262129234895,-1.2759526868663726
1761838722623848400,6.761848388671875,0.9311673356682062,0.460919475415349,-1.5329304291434585
1761838722633918500,6.77191845703125,1.6059984418332576,1.0099199698656798,-1.5670738140247762
1761838722643987700,6.78198779296875,-0.10238134706616402,-1.328763362816721,-0.016264467711001634
1761838722654057500,6.792057373046875,-1.5165625010579824,-1.0705359127394853,0.634186814957112
1761838722664127500,6.80212744140625,-1.139442421835661,-0.20011150732561944,0.9098217653006315
1761838722674197800,6.81219775390625,-0.4433347188860178,0.15327435282692312,0.9472657991625368
1761838722684266500,6.8222666015625,-0.2931038254082203,0.7212009354129433,0.9291314459264278
1761838722694336800,6.832336669921875,-0.5218880311191082,0.8897888849668204,0.9026011663973331
1761838722704406500,6.842406494140625,-0.46780046710073947,0.81543667768538,0.9909880365110934
1761838722714476500,6.8524765625,-0.2819248442679643,0.8706440395139158,0.9012493133969605
1761838722724545500,6.862545654296875,-0.11895838785767554,0.9345091934420168,0.63860353542082
1761838722734615600,6.872615478515625,0.11687632088661193,0.9691969143331051,0.5034896201193333
1761838722744685600,6.882685546875,0.2592804662615061,1.0476675167188048,0.3137831138867885
1761838722754755600,6.892755615234375,0.591121141821146,0.903487301582098,0.07314458505734801
1761838722764824600,6.902824462890625,0.974741688978672,0.8159396587714552,-0.02066927854120731
1761838722774894600,6.91289453125,1.2765186501860617,0.6620061113834381,-0.07788776099644601
1761838722784964600,6.922964599609375,1.5173708948314188,0.420547717538476,-0.071156991436705
1761838722795034600,6.93303466796875,1.8837357712835072,0.25773966656029224,-0.03802322198934853
1761838722805103600,6.943103515625,2.22623871063292,0.051800622124969956,0.028943332020193335
1761838722815173600,6.953173583984375,2.3776240348428486,-0.2190359880261123,0.09473470477052032
1761838722825243400,6.963243408203125,2.4978987659960983,-0.4570803356438875,0.15431421726867556
1761838722835313700,6.973313720703125,2.6492227154076096,-0.6207774444162846,0.21336612569615243
1761838722845382400,6.98338232421875,2.6819781530618667,-0.7433315186783671,0.2616839472066611
1761838722855452400,6.993452392578125,2.6535540226101872,-0.7674246341884136,0.17641747413575648
1761838722865522700,7.003522705078125,2.5861843676924705,-0.6745132723875343,-0.0885102042324841
1761838722875592400,7.013592529296875,2.5885125183790922,-0.4910346276938915,-0.4051336561117321
1761838722885661700,7.02366162109375,2.705291808632016,-0.2415015023343265,-0.74344966516532
1761838722895731500,7.0337314453125,2.902790064719319,0.06347001713067293,-1.0165405570492148
1761838722905801500,7.043801513671875,2.990121142169833,0.38623087578639387,-1.2424921696826814
1761838722915871700,7.053871826171875,3.0600188542604445,0.6973430899634957,-1.5288000513404607
1761838722925940500,7.0639404296875,3.623549393844604,0.9728488609693944,-1.718949990491569
1761838722936010500,7.074010498046875,4.101944320195913,1.1738538100033997,-1.705977111671865
1761838722946080500,7.08408056640625,4.620937214395403,0.9796294610202312,-1.853341363672167
1761838722956150500,7.094150634765625,5.0930350864291185,0.9223885475374758,-1.3078783956982194
1761838722966219800,7.1042197265625,5.189148605272173,0.6643792702555656,-0.1167071474653203
1761838722976289500,7.11428955078125,6.3521875912725925,1.9571191335327922,0.9392912400867789
1761838722986359600,7.124359619140625,6.37468291619718,3.684970369490981,1.4118632324382663
1761838722996429600,7.1344296875,5.591835087427497,5.358681580591202,1.9703511016800999
1761838723006498600,7.14449853515625,5.648725433906913,3.6029102181807158,1.5606605859816074
1761838723016568600,7.154568603515625,5.143099386280775,1.237318712567538,0.0005840977688232669
1761838723026638600,7.164638671875,6.715819827890396,0.504905624397099,-0.6132108816195279
1761838723036708600,7.17470849609375,6.846470407107472,-0.8451599080368876,0.7497003961231559
1761838723046777600,7.184777587890625,5.577135530945658,-1.3356886320352555,1.7111897317536173
1761838723056847600,7.19484765625,4.731879469057917,-1.560231400784105,1.889016049773991
1761838723066917600,7.204917724609375,3.2890450520336625,-1.8298565893188117,1.7607633254788815
1761838723076990700,7.21499072265625,1.3750585193932057,-1.7537122379235923,1.258283174663037
1761838723087059700,7.225059814453125,-0.1209212123632431,-1.0806307519048453,0.6857299551896751
1761838723097129700,7.235129638671875,-1.430381178164482,-0.3345310836873948,0.031578265367355196
1761838723107200000,7.245199951171875,-2.243096906453371,-0.4882755382440984,-0.9292217545583844
1761838723117269800,7.255269775390625,-2.765194196408987,-0.784224816211313,-1.0036271533317864
1761838723127339000,7.265339111328125,-3.0109131703078744,-0.9522184531338512,-0.46279129716921596
1761838723137408800,7.27540869140625,-2.9745494790285822,-1.0811364364046603,0.17228857590379193
1761838723147478800,7.285478759765625,-3.1465310165435074,-1.1688180808585136,0.9124051328573375
1761838723157548800,7.295548828125,-3.5736125197649,-1.0647533107500522,1.5624585753142832
1761838723167617800,7.30561767578125,-4.841474400764703,-0.8540656104829162,2.2353324099317193
1761838723177687800,7.315687744140625,-6.679249800384044,-0.8315061342809349,3.0080136494740843
1761838723187757800,7.3257578125,-9.18356895481646,-0.8513806822478771,3.561561431965232
1761838723197827800,7.335827880859375,-12.561083148419856,-0.6939583428960293,3.8303731121599673
1761838723207896800,7.345896728515625,-16.725128243219853,-0.5745725599391386,3.3499230068445205
1761838723217966800,7.355966796875,-20.06587425639629,-0.4447271230924874,2.298515426814556
1761838723228036900,7.366036865234375,-21.60077963887453,-0.5426092590432614,0.504829709616676
1761838723238107000,7.37610693359375,-22.026760487377643,-1.3596383935518561,-1.6045919360361993
1761838723248175900,7.38617578125,-21.222131034910678,-2.955883357003331,-4.593095267745852
1761838723258246000,7.396245849609375,-20.072715500593183,-5.529284230968356,-7.894417617550491
1761838723268316000,7.40631591796875,-19.218746555417773,-6.094090781837702,-9.257446676453947
1761838723278386000,7.416385986328125,-19.161306758362052,-4.989042212513089,-7.341547003668547
1761838723288454700,7.42645458984375,-20.509351014101505,-3.529009115667641,-4.369450178489089
1761838723298525000,7.43652490234375,-21.278752501320838,-2.925518906138837,-2.6078584393620488
1761838723308595000,7.446594970703125,-19.765191520166397,-2.535078742094338,-1.9256134036786854
1761838723318664700,7.456664794921875,-15.881919176989793,-1.8028980013750493,-1.4002872148044407
1761838723328734000,7.46673388671875,-12.51993631451726,-1.3347453598357737,-1.8484629439808427
1761838723338803700,7.4768037109375,-10.081531940019131,-0.6995780094087124,-2.2527672365963456
1761838723348873700,7.486873779296875,-8.524386084160207,1.2880392843708395,-2.5215695644408465
1761838723358944000,7.496944091796875,-7.227696168082952,3.9961137094587085,-1.6873973527558146
1761838723369012700,7.5070126953125,-6.228011761027574,5.87614887265861,0.16310761844664812
1761838723379083000,7.5170830078125,-5.00315724710524,4.738245204697549,1.5998215067639947
1761838723389152800,7.52715283203125,-1.7566180423676967,3.3338334573090074,1.8819640854358672
1761838723399222800,7.537222900390625,1.729423745971918,3.636390170717239,2.571794607812166
1761838723409291800,7.547291748046875,5.5550125464648,4.1822234333083035,2.4716873431578277
1761838723419361800,7.55736181640625,9.241288153335452,4.280251261340082,2.1249571415022013
1761838723429431800,7.567431884765625,11.735029799652098,4.2228979735240335,1.5733444187268615
1761838723439501800,7.577501708984375,13.576446770644187,4.402552237623929,1.4160203521177173
1761838723449570800,7.58757080078125,14.471698158800601,4.858950728483498,1.5513482754960655
1761838723459640800,7.597640869140625,13.281557815384865,6.028123394933343,1.6527670611403882
1761838723469710800,7.6077109375,11.254124936306477,7.512045024627446,1.7802463168449698
1761838723479780900,7.61778076171875,10.717973402035236,7.298591659039259,2.2563963868789374
1761838723489849900,7.627849853515625,10.188162761223316,6.414536787679791,3.1726427783995863
1761838723499920000,7.637919921875,10.555701942151785,5.673254310485721,3.7996050489306445
1761838723509989600,7.64798974609375,11.603002671384811,4.518494200269878,4.163552635107934
1761838723520060000,7.658059814453125,12.72890873529911,3.3642534377530215,4.408721281647682
1761838723530129000,7.66812890625,13.769642945623398,2.057479496165365,3.9671836753115057
1761838723540199000,7.678198974609375,14.598759189093112,1.086914069958031,2.7351296052739023
1761838723550269000,7.68826904296875,14.606847803002594,0.34329861977174875,1.5429026648424564
1761838723560338700,7.698338623046875,14.037833279049396,-0.34070290419012306,0.681163524056971
1761838723570408000,7.708407958984375,13.279956225407123,-0.9192536105126142,0.3836106833506375
1761838723580478000,7.71847802734375,12.203951964259147,-1.2425259258218109,0.3848086609635502
1761838723590547700,7.728547607421875,11.077711553823947,-1.4551295427128672,0.15466449201107024
1761838723600618000,7.738617919921875,10.265276396042108,-1.268245035098493,-0.3272093990297988
1761838723610686700,7.748686767578125,9.606873277586699,-0.8225671140871942,-1.0082762212466447
1761838723620757000,7.758757080078125,9.127819010543822,-0.39634281221702694,-1.679506745636463
1761838723630827000,7.768826904296875,8.738896849846839,0.03499386423081159,-2.17597742690444
1761838723640895700,7.778895751953125,8.500300859695672,0.11696955212801695,-2.2477672363519665
1761838723650966000,7.788966064453125,8.203362570691109,-0.15207213743031023,-1.9295009126365184
1761838723661035800,7.799035888671875,7.872615535587072,-0.4664803244128823,-1.3062509406268596
1761838723671105800,7.809105712890625,7.849571929129958,-0.7258869012720882,-0.4884685765981674
1761838723681174800,7.8191748046875,7.569633290243148,-0.7128447566084564,0.27083120332360267
1761838723691244800,7.829244873046875,6.5506789500504725,-0.3807583626594394,0.8314655830748379
1761838723701314800,7.839314697265625,5.809072647729516,0.2511168874196708,1.222521540930122
1761838723711384800,7.849384765625,5.286907553234696,0.5425502953976392,1.4761207466848194
1761838723721453800,7.859453857421875,4.802157704898715,0.5098912307899445,1.603516415759176
1761838723731523800,7.86952392578125,4.755353868147731,0.32113457262814044,1.5274192645065485
1761838723741593900,7.87959375,4.961671390506625,0.32904015812091525,1.4241151035070418
1761838723751663900,7.889663818359375,4.704721413019299,0.5296539889454841,1.1042753929950295
1761838723761732900,7.89973291015625,4.212259967392683,0.6540452155068517,0.8115383550725876
1761838723771803000,7.909802978515625,3.5627141091316936,0.8813730118643492,0.7534134983621538
1761838723781872600,7.91987255859375,2.8204472970753907,0.9175305861122905,0.9897356983624398
1761838723791943000,7.92994287109375,1.5079139151781797,0.6158821466553956,1.6011201682724057
1761838723802012000,7.940011962890625,-0.04625029452145099,0.3470452589541673,2.558493519951403
1761838723812082000,7.95008203125,-1.8612357701838016,-0.7429242530517279,3.4105104542762037
1761838723822152000,7.96015185546875,-3.899871595799923,-2.9090555548548696,4.303850455853342
1761838723832221700,7.9702216796875,-5.466495474100112,-5.814336267346143,5.628191764444113
1761838723842291000,7.980291015625,-6.265315948027372,-4.4497076642915605,2.56649971627444
1761838723852361000,7.99036083984375,-6.808748286956548,-2.6221844863563772,-1.1291253182217478
1761838723862430700,8.0004306640625,-7.550348159536719,-0.1762050004288554,-3.4540251863539218
1761838723872500000,8.0105,-7.830026101660728,0.6043808747582137,-5.037912334144115
1761838723882569000,8.02056884765625,-7.134401213791966,0.06931026759147643,-5.76256925522983
1761838723892639000,8.030638916015626,-6.747175920140743,-0.9467952590413391,-5.28731028881669
1761838723902707700,8.040707763671875,-7.386539991605281,-0.7444191677846014,-3.436948963868618
1761838723912778000,8.050778076171875,-7.260983520656824,0.1479199861869216,-1.2152636787563562
1761838723922847700,8.06084765625,-7.164397123605013,0.4616320075988769,-0.24222850143462418
1761838723932917000,8.0709169921875,-8.06821994075179,0.585737183760479,-0.5616983557209372
1761838723942987000,8.080987060546875,-9.41973567199409,1.2810479641787706,-0.9096852794393897
1761838723953056800,8.091056884765624,-11.109745691466332,2.1371949840456246,-0.6355423212192952
1761838723963126800,8.101126708984374,-12.198511234509944,2.5732263941809532,-0.06695069885328411
1761838723973195800,8.11119580078125,-12.358323026281594,2.424910686674714,0.26290143323764203
1761838723983265800,8.121265869140625,-12.0161591096282,2.295180437172949,0.19920871326699852
1761838723993336000,8.131336181640625,-11.272885750877856,2.000387781894952,-0.23765403312593697
1761838724003405800,8.14140576171875,-9.590635844013095,1.3736340395480393,-0.785791334875673
1761838724013474800,8.151474853515625,-7.192374094811082,0.3908629560338333,-1.1868782728798686
1761838724023544800,8.161544921875,-4.451972394353151,-0.6012392157316208,-1.236609687515348
1761838724033614800,8.17161474609375,-2.0321546469032765,-1.2623223670512438,-1.0750472526840864
1761838724043684900,8.181684814453124,-0.46124797671735285,-1.8313336761340497,-1.0486486367106438
1761838724053753900,8.19175390625,-1.1441758800983428,-1.5027159081436692,-1.5071090285360813
1761838724063824000,8.201823974609376,-2.4151035784095525,-0.17529785898867994,-2.2779187751181422
1761838724073894000,8.211893798828125,-0.8524906893163919,0.5845065459869802,-2.3702213573709128
1761838724083960300,8.221960205078124,-0.11180091731846332,0.702251320271194,-2.1420725269541143
1761838724094029300,8.232029296875,-0.20741233185827732,0.13148285618959926,-1.923623252774775
1761838724104099300,8.242099365234376,0.442685315066576,-0.35236342176962643,-1.391470140489936
1761838724114169300,8.25216943359375,1.212940204244852,-0.6763225137665867,-0.856420868372172
1761838724124238300,8.26223828125,1.8499065669178962,-0.7416184311501681,-0.526025350119546
1761838724134308400,8.272308349609375,2.4695044461607933,-0.8702396964967251,-0.45827904390916224
1761838724144378400,8.28237841796875,2.772185078209638,-1.1043404941204935,-0.40492468953616917
1761838724154448400,8.292448486328125,2.752981196045875,-1.1360308598265052,-0.4587465152904391
1761838724164517400,8.302517333984374,2.4955133321642875,-1.0389361479263752,-0.5681790595097467
1761838724174587100,8.312587158203126,2.52650526727736,-0.753853716410324,-0.6622014878250658
1761838724184657400,8.322657470703126,2.5204618954598903,-0.47125806020870803,-0.7365963652044534
1761838724194727400,8.3327275390625,2.3772201302170752,-0.30082272922247644,-0.7544906260743737
1761838724204796400,8.34279638671875,2.0887959870576855,-0.2547851276036352,-0.8010689835064113
1761838724214866400,8.352866455078125,1.357597681504488,0.0000415010541677475,-0.9070669866997748
1761838724224936200,8.362936279296875,1.1245154863387345,0.31111813246123493,-0.8434754620812833
1761838724235006200,8.373006103515625,1.2065204003304242,0.4343856156896799,-0.7714556432701647
1761838724245075200,8.3830751953125,1.0129209052473307,0.42556627635285255,-0.7082029221519828
1761838724255145200,8.393145263671874,0.9101403297305106,0.44788595244958995,-0.6915808001097291
1761838724265215500,8.403215576171876,0.9312953459620475,0.4413755476422608,-0.6915982627011835
1761838724275284200,8.4132841796875,0.8936012828618287,0.46310997119694947,-0.7736154516525566
1761838724285354500,8.4233544921875,0.806145117726922,0.5129464536421001,-0.7678316075541078
1761838724295424300,8.43342431640625,0.7317606156110763,0.6297653452530503,-0.7942168525893241
1761838724305494300,8.443494384765625,0.4008370548963546,0.7172836158387362,-0.8595287712596357
1761838724315563300,8.453563232421875,0.10619067622125149,0.8057200241826474,-0.8465136607334017
1761838724325633300,8.46363330078125,-0.022649054181575774,0.8649472891770302,-0.8842499555401504
1761838724335703300,8.473703369140624,-0.002625087806582451,0.9599291736416519,-0.9117691730413585
1761838724345773300,8.483773193359376,0.2187193232923746,1.0170210340425372,-0.9185171859968453
1761838724355842300,8.49384228515625,0.47376492846310136,0.8649564953967929,-0.981577453282848
1761838724365912300,8.503912353515625,0.5538648856163024,0.5974708031088113,-1.0816136254623532
1761838724375982300,8.513982421875,0.9369318905442953,1.0699486143708228,-1.3777645634815097
1761838724386051300,8.52405126953125,-0.16651216619312761,-0.9454746779620646,-0.18050766605883836
1761838724396121300,8.534121337890625,-0.9945727631300687,-1.452412684969604,0.1565666723705828
1761838724406191400,8.54419140625,-0.484524807408452,-0.7493700681902468,0.035065248966589566
1761838724416261000,8.55426123046875,-0.11805471701622008,-0.7795959873668848,-0.017068842896446584
1761838724426330400,8.564330322265626,-0.13036357896924017,-0.9883289003044367,0.12726751265004277
1761838724436400400,8.574400390625,-0.06857493905425072,-1.0460670957848428,0.08854849041625856
1761838724446470100,8.58447021484375,-0.00601882189810276,-0.9597463644206523,-0.024914661026000977
1761838724456540400,8.59454052734375,-0.08943886338472366,-0.794459063847363,0.06290536898523569
1761838724466609200,8.604609130859375,-0.17706804699897766,-0.6038211950488388,0.1511638634789735
1761838724476680200,8.61468017578125,-0.12595628392100333,-0.40536330014914274,0.2485278207745403
1761838724486750500,8.62475048828125,-0.2858119148343801,-0.29370252195373175,0.3650234717804938
1761838724496820200,8.6348203125,-0.5323761073857546,-0.23901903786882756,0.41871736030615864
1761838724506890200,8.64489013671875,-0.5587982503652572,-0.14229264782443643,0.3525093695789575
1761838724516959200,8.654959228515626,-0.6066863752216101,-0.03986307770237326,0.27399529337771233
1761838724527029200,8.665029296875,-0.5463765756875276,0.07704846062809229,0.2176249521844089
1761838724537099300,8.675099365234376,-0.35199031414091586,0.28799729604944585,0.22056794683374464
1761838724547169300,8.685169189453125,-0.16024901414513587,0.4223727410085499,0.31385508314445615
1761838724557238300,8.69523828125,0.09960194548070431,0.41410906279310583,0.39760055719316
1761838724567308500,8.70530859375,0.23547464326024053,0.3355801543489098,0.46714251464866097
1761838724577378300,8.71537841796875,0.08793781117200851,0.14711013110876084,0.6017181583549827
1761838724587447300,8.725447265625,-0.0232709854722023,0.006058423256129026,0.6888304054230451
1761838724597517300,8.735517333984374,0.13955401664078235,0.041009325128048654,0.5654607769943774
1761838724607587300,8.74558740234375,0.2584925307542085,0.11608297855183482,0.42965866023302074
1761838724617657300,8.7556572265625,0.34683950724899765,0.10048705775216221,0.34150077656954525
1761838724627726300,8.765726318359375,0.3927601314246654,0.055011985386908054,0.31509142000637946
1761838724637796400,8.77579638671875,0.3308756299197674,0.006973638404905795,0.3235633341450244
1761838724647866400,8.785866455078125,0.34415713629722594,0.006639291884005069,0.2991684592094272
1761838724657936400,8.795936279296875,0.39877953784465786,0.029449089585244653,0.296833878782019
1761838724668005000,8.806005126953124,0.4379273068845272,0.013298457512259483,0.25474464946277436
1761838724678075400,8.816075439453124,0.6185965932458639,0.02917641012370586,0.1425376355614513
1761838724688145400,8.8261455078125,0.8510510119020939,-0.009020049540698528,0.013929521957412361
1761838724698214400,8.83621435546875,0.9157172530800104,-0.1019721817433834,-0.10923925013691187
1761838724708284400,8.846284423828125,0.8748843074321746,-0.1857674862831831,-0.16072978339940308
1761838724718354200,8.856354248046875,0.9003151012867688,-0.22600714221298693,-0.19512816595509647
1761838724728424200,8.866424072265625,0.81413085578382,-0.22878449797183273,-0.19259192547574638
1761838724738493200,8.8764931640625,0.6832926450401544,-0.18447861551642417,-0.17530352154448628
1761838724748563200,8.886563232421874,0.6448468867897987,-0.11121288829743861,-0.1965176475521177
1761838724758633500,8.896633544921874,0.5919587616890668,-0.08852525567114353,-0.24026100075393914
1761838724768703200,8.906703125,0.4710977550804615,-0.10921440795660019,-0.28790749887414274
1761838724778772500,8.9167724609375,0.37615503358244895,-0.08829232369810343,-0.3538092731963843
1761838724788842200,8.92684228515625,0.3601788812935352,-0.05929565405547618,-0.3974713778555393
1761838724798912300,8.936912353515625,0.22770926995575427,-0.044698681165277955,-0.4041303242880851
1761838724808981500,8.9469814453125,0.16253975543081758,-0.062064534246921536,-0.36674912652932107
1761838724819051300,8.95705126953125,0.1654799005359411,-0.09328384837508201,-0.3442041172441095
1761838724829121300,8.967121337890624,0.15703063662052152,-0.12608984717279673,-0.335825580477342
1761838724839191300,8.97719140625,0.23954583822190761,-0.14848463433235884,-0.35061654156968
1761838724849260300,8.98726025390625,0.30781799493730067,-0.1359244279667735,-0.35043702028430995
1761838724859330300,8.997330322265626,0.3308551716536283,-0.16422668560445308,-0.3153812697984278
1761838724869400300,9.007400390625,0.3848299229472875,-0.23988924483209847,-0.27832323957942423
1761838724879469300,9.01746923828125,0.4350713329315185,-0.2968134935811162,-0.20868848927393555
1761838724889539300,9.027539306640625,0.36118893511891365,-0.317742884363234,-0.08152984382584691
1761838724899609300,9.037609375,0.3408352983981371,-0.2867731610819697,-0.02082183875441551
1761838724909679400,9.047679443359375,0.3572480885386467,-0.23606939428299664,0.005035290753468871
1761838724919748400,9.057748291015624,0.4081891712248325,-0.2092977072134614,-0.029582214445620772
1761838724929818400,9.067818359375,0.4865858315914869,-0.1692494822025299,-0.04596110231652856
1761838724939888000,9.07788818359375,0.580332036781311,-0.14634820682555436,-0.02850150653682649
1761838724949957400,9.087957275390625,0.6600970628917217,-0.11134820511490105,0.00818944393545389
1761838724960027100,9.098027099609375,0.7657388730585575,-0.05823796169608831,0.054522448304295534
1761838724970097400,9.108097412109375,0.8790081093639135,-0.027757190975546835,0.11090374928303062
1761838724980167400,9.11816748046875,0.994454689708352,0.004133738803863525,0.1290566610891372
1761838724990236200,9.128236083984374,1.1435773296833038,0.04287848000079393,0.12124043438024819
1761838725000306400,9.138306396484374,1.2735516170740127,0.06973229239583015,0.09888488325253128
1761838725010376200,9.148376220703126,1.412318867251277,0.038383506669104096,0.013108414832875132
1761838725020446200,9.1584462890625,1.6412883664011955,0.17532704855054615,-0.039711248141527176
1761838725030515200,9.16851513671875,1.830100627207756,0.13117840248346327,-0.16000607223473487
1761838725040585200,9.178585205078125,2.0120272201538083,0.05843114618062973,-0.24872984615266322
1761838725050655500,9.188655517578125,2.241642031469941,0.03830956465005875,-0.34298034760281443
1761838725060724200,9.19872412109375,2.3589894769996405,0.10027063852250576,-0.4409039846077561
1761838725070794200,9.208794189453124,2.414583938449621,0.24886662427484987,-0.5362208731804042
1761838725080864300,9.2188642578125,2.5911364371418952,0.35804946804940696,-0.5946808070641011
1761838725090934300,9.228934326171874,2.7544004151940342,0.36343846761137244,-0.5841005955345928
1761838725101003300,9.239003173828126,2.6011715089440344,0.32607992007583375,-0.47834378068596123
1761838725111073300,9.2490732421875,2.223234852641821,0.39315263787358995,-0.3299928557358682
1761838725121143300,9.259143310546875,1.8672855717420578,0.44269379063397646,-0.14233546405285596
1761838725131212300,9.26921240234375,1.3110147940278052,0.4374924225986004,0.07517967108152807
1761838725141282300,9.2792822265625,1.0175199234753847,0.44682460682839154,0.26152239996939897
1761838725151352000,9.28935205078125,0.7002391036659479,0.4086035972446203,0.37999439254961903
1761838725161422300,9.29942236328125,0.08339899869859219,0.3301096139833331,0.5282158459011465
1761838725171491000,9.309490966796876,-0.5668465322643518,0.18918810838162897,0.6466628501705824
1761838725181561300,9.319561279296876,-1.10214408005476,0.06508768146038055,0.5224505969053134
1761838725191631400,9.32963134765625,-1.5191840817332267,0.05773819548040628,0.3183225839473307
1761838725201700000,9.3397001953125,-2.105911957031488,0.07040580774322151,0.22624887854699044
1761838725211770400,9.349770263671875,-2.4068524674147365,0.14899857520386575,-0.0798632805868052
1761838725221840100,9.359840087890625,-2.4910481694489714,0.35731706212162967,-0.4277417206957936
1761838725231910100,9.36991015625,-2.677370367005467,0.4059166962482035,-0.5946702856700867
1761838725241979100,9.379979248046874,-2.7762615338683125,0.16603914185389876,-0.7129537699408829
1761838725252049200,9.390049072265626,-2.845654219046235,-0.11699366365596651,-0.7800441695258021
1761838725262119200,9.400119140625,-3.029004707315564,-0.30996728192567824,-0.5352346751546487
1761838725272188200,9.410188232421875,-3.239040373414755,-0.7555778367891908,-0.2682155774651095
1761838725282258200,9.420258056640625,-3.139973849985003,-0.9301886998943983,-0.09288169731497764
1761838725292328200,9.430328125,-3.0999300088882444,-0.8581234345063566,0.04117153908559121
1761838725302398200,9.440398193359375,-3.09542509868443,-0.7803384762972593,0.20105695321587844
1761838725312467500,9.450467529296875,-2.810282461413741,-0.46919864346086976,0.3183006278438493
1761838725322537200,9.460537109375,-2.4839596724927424,-0.205339032715559,0.4146773276677355
1761838725332607200,9.470607177734376,-2.16004978993237,-0.11339885403439402,0.5765970880366862
1761838725342676200,9.48067626953125,-1.8920032488912344,-0.11333192627802491,0.7770575549304485
1761838725352746200,9.490746337890625,-1.723089866775274,-0.1301186642974615,0.946978214392811
1761838725362816300,9.500816162109375,-1.4281371986299751,-0.08847527904957532,1.0030277261339127
1761838725372886300,9.51088623046875,-1.098555700173974,-0.016264467711001634,0.9444942886225879
1761838725382955300,9.520955322265625,-0.8678267901360988,0.03545885139405727,0.8049065158426761
1761838725393025300,9.531025390625,-0.7060223632425069,0.06481821686923503,0.6248774270810187
1761838725403095300,9.54109521484375,-0.5306529368549585,0.12973346437215805,0.3976245956558734
1761838725413164000,9.5511640625,-0.27135318137109277,0.2323961125977337,0.21471914774030446
1761838725423234300,9.561234375,-0.08445990592837334,0.2814667252369225,0.07112129906881601
1761838725433304300,9.57130419921875,0.09998656088411807,0.27507527063414455,-0.021840587342903017
1761838725443374000,9.5813740234375,0.2257686572819948,0.30855683060586453,-0.0744798157164827
1761838725453443300,9.591443359375,0.14854630139172076,0.3590986848413944,-0.042352994821965695
1761838725463513000,9.60151318359375,0.10813128889501095,0.42541853844523425,-0.04905950672328472
1761838725473583000,9.6115830078125,0.24918285061717033,0.5274614473372697,-0.11596548965200781
1761838725483652000,9.621652099609374,0.4608920028865337,0.609698416519165,-0.21766301917247474
1761838725493722000,9.63172216796875,0.612798136100173,0.6072283731438219,-0.29950441316552456
1761838725503792400,9.64179248046875,0.6590864245444535,0.6226940916925668,-0.275903757347539
1761838725513862100,9.651862060546875,0.5789876364350318,0.6290872998610139,-0.1732203585948795
1761838725523931400,9.661931396484375,0.6028145022243261,0.5535539199709892,-0.09065306148007511
1761838725534001200,9.672001220703125,0.7175941430926323,0.49240211665481326,-0.07303769061677158
1761838725544071200,9.6820712890625,0.784861506679654,0.40027269901186224,-0.048353477345779536
1761838725554140400,9.692140380859374,0.6609481267631053,0.2694274740055203,0.0842253665201366
1761838725564210200,9.702210205078124,0.550954551127553,0.15475918455719948,0.2170169032886624
1761838725574280200,9.7122802734375,0.6181359899967909,0.007298340314626693,0.22787096332348883
1761838725584350200,9.72235009765625,0.519014521509409,-0.14587708218246698,0.1977551534578204
1761838725594419200,9.732419189453125,0.23968378538787363,-0.10752689326107501,0.2908203906461596
1761838725604489200,9.7424892578125,0.029594927796721456,-0.03970043448656797,0.34102877514362334
1761838725614559200,9.752559326171875,-0.01332476099729538,-0.028651217205822466,0.2944054825913161
1761838725624628200,9.762628173828125,-0.1634948641985655,0.006733107647299766,0.238548205486685
1761838725634698200,9.7726982421875,-0.20832886218130586,0.028777766194939613,0.2062213685080409
1761838725644768300,9.782768310546874,-0.15143150143921374,0.06344254460185766,0.13593290353417395
1761838725654838300,9.79283837890625,-0.15634908409714698,0.08888707472085952,0.008848419300839305
1761838725664907300,9.8029072265625,-0.18135434601604938,0.12047376085668801,-0.08764291987866163
1761838725674977300,9.812977294921875,-0.21830723536014557,0.1848933337971568,-0.09663608141243457
1761838725685047000,9.823047119140625,-0.18517127395570276,0.2609229727715254,-0.08283639637976885
1761838725695116300,9.8331162109375,-0.09734569098651409,0.3356412368863821,0.003414046227186918
1761838725705186000,9.84318603515625,-0.01535772812962532,0.33966713140159843,0.13175342589244246
1761838725715256300,9.85325634765625,0.02815700394809246,0.2840375986382365,0.21957564786076544
1761838725725325000,9.863324951171874,0.0902910962998867,0.2266211824581027,0.23810543015524743
1761838725735395000,9.87339501953125,0.2686778246819973,0.24892858359515666,0.2414300445333123
1761838725745465300,9.88346533203125,0.3738029174983501,0.23196692740023134,0.20980565673559903
1761838725755535000,9.89353515625,0.16915011348128317,0.22734745090603828,0.1634409420542419
1761838725765604400,9.903604248046875,0.06611527094244957,0.18216946179121732,0.07078063240498304
1761838725775674400,9.91367431640625,0.11682722104787825,0.1871764762982726,0.001346153911948204
1761838725785744100,9.923744140625,0.04597264662384987,0.1857365066230297,-0.00791954095289111
1761838725795813400,9.9338134765625,0.2255997304558754,0.12325608505159616,-0.03420797455012798
1761838725805883100,9.943883056640624,0.3167623488932848,0.07032236724346876,-0.036236703898757695
1761838725815953200,9.953953125,0.39283787283599375,0.062199266542494296,-0.02762012059241533
1761838725826023400,9.9640234375,0.3956657897382974,0.11611351982057094,-0.007795622312277555
