time,seconds_elapsed,z,y,x
1761838757339041300,0.074041259765625,0.1623252358973026,0.014244798451662063,-0.11575155464038252
1761838757349111000,0.084111083984375,0.20002514421641826,-0.06710603554546833,-0.08112754663527011
1761838757359181000,0.09418115234375,0.25055764610171316,-0.08514642688781023,-0.04795914426594972
1761838757369250000,0.10425,0.25434534794688224,-0.12014905894696712,-0.04691453058384359
1761838757379320000,0.114320068359375,0.2671785260349512,-0.10084989971518515,-0.06254194250032305
1761838757389390300,0.124390380859375,0.20280162319242953,-0.06175473764538764,-0.08147745605148375
1761838757399459000,0.134458984375,0.1437076291888952,-0.05105944836884737,-0.08041552590839564
1761838757409529000,0.144529052734375,0.1294564009964466,-0.031872809600830075,-0.09267506882697343
1761838757419599000,0.15459912109375,0.12736790428459643,-0.01702040064483881,-0.0655774377387017
1761838757429668000,0.164668212890625,0.11642974616289138,-0.044719139431416983,-0.04398644124269485
1761838757439738000,0.174738037109375,0.12413140658140182,-0.0396162633344531,-0.06964658687375486
1761838757449808100,0.18480810546875,0.08325579083561897,-0.021545769114792345,-0.12855952522195874
1761838757459877400,0.19487744140625,0.051179567617177964,-0.011433832684159278,-0.1852140171188861
1761838757469947100,0.204947021484375,0.09521686226427555,-0.02278992395699024,-0.2076538124639541
1761838757480017200,0.21501708984375,0.10592705684900283,-0.0656193041190505,-0.17354462211318314
1761838757490086100,0.225086181640625,0.1268161156207323,-0.11258066951930522,-0.1226832535997033
1761838757500156200,0.23515625,0.11920622513890265,-0.12220569921582937,-0.12235190275348722
1761838757510226200,0.24522607421875,0.07202361820340156,-0.12688655050843953,-0.15242577317357062
1761838757520295200,0.255295166015625,0.04624678739011288,-0.11859101585000753,-0.18619462565407155
1761838757530365200,0.265365234375,-0.03991115462779998,-0.09691080670058727,-0.17546017341092227
1761838757540435200,0.275435302734375,-0.000012274959683418274,-0.05384323386847972,-0.1350900960344821
1761838757550504200,0.285504150390625,0.046215807729959486,-0.025249592068791387,-0.062212052958831185
1761838757560574000,0.295573974609375,-0.15866495982408524,-0.020046178206801414,-0.15662980073466895
1761838757570644200,0.305644287109375,-0.33590368721485137,-0.07265548636615275,-0.23349618279412387
1761838757580713000,0.315712890625,-0.22791385261714456,0.03496580718010664,-0.15699622289426624
1761838757590783200,0.325783203125,-0.04234744186401367,0.14751052860319613,-0.22142558657638728
1761838757600853200,0.335853271484375,-0.007915595430135727,0.006586392652988433,-0.21123620099537074
1761838757610922000,0.345921875,-0.3610498189091682,-0.23897446807473896,-0.07525850847139955
1761838757620992300,0.3559921875,-0.454727635037899,-0.2551566643297672,0.07787979688569903
1761838757631062300,0.366062255859375,-0.30888474738597865,-0.04878770404458046,0.042382001720741386
1761838757641131300,0.37613134765625,-0.12909341290295123,0.07481324892193078,0.041680173594318325
1761838757651201300,0.386201171875,-0.2225491107136011,-0.023752339248359202,0.12498418748583644
1761838757661271000,0.39627099609375,-0.39512802959978577,-0.1469973183840513,0.2735353477157652
1761838757671340300,0.40634033203125,-0.41146775450408457,-0.19804127692282197,0.4044728906480595
1761838757681410000,0.41641015625,-0.28029461271762846,-0.17066607100218534,0.4285215459618717
1761838757691480000,0.42647998046875,-0.3029688013404608,-0.13825228639245032,0.38789446161706
1761838757701549000,0.436549072265625,-0.10905834061205387,-0.058146776281297205,0.3223231248255819
1761838757711619000,0.446619140625,0.05158522580862045,-0.05046674317270517,0.2390541639811359
1761838757721689300,0.456689453125,0.16341069304645062,-0.09041092328727245,0.18270108444988725
1761838757731759000,0.466759033203125,0.18724691118597983,-0.09860095174461603,0.18201129382112993
1761838757741828000,0.476828125,0.19463994404673576,-0.07386369311213493,0.19146947905076667
1761838757751898000,0.486898193359375,0.2303489708095789,-0.00542494765818119,0.06532128015370108
1761838757761968000,0.496968017578125,0.2982587239533663,0.1166553716123104,-0.05391244491348043
1761838757772037400,0.507037353515625,0.3284551247745752,0.19307722477465866,-0.10325600187568924
1761838757782107100,0.517107177734375,0.36440789716541766,0.20535656837224958,-0.1100179063592106
1761838757792177200,0.52717724609375,0.4830296004146337,0.20068886882215736,-0.057871548669645556
1761838757802246100,0.53724609375,0.5639157395094633,0.19253566524386403,0.05306035812878981
1761838757812316200,0.547316162109375,0.5861807628095149,0.16942162389904258,0.22241934685409068
1761838757822386200,0.55738623046875,0.5068184722810983,0.1317091483592987,0.30098544550351797
1761838757832455200,0.567455078125,0.5594225197434425,0.13406710966229438,0.28506590050635855
1761838757842525200,0.577525146484375,0.6225643278330564,0.1354375212326646,0.22221628029635174
1761838757852595200,0.58759521484375,0.6594061580181122,0.10063158078938722,0.11929587618373334
1761838757862664200,0.597664306640625,0.6185866563737392,-0.024166180746257305,0.03026563469909597
1761838757872734000,0.60773388671875,0.674096946671605,-0.13399287538230417,0.009041126578056719
1761838757882804200,0.61780419921875,0.7289250999242067,-0.20116466964036225,-0.03476620893779909
1761838757892873000,0.627873046875,0.7608592843234538,-0.2291144605785608,-0.11733391019469126
1761838757902943200,0.637943115234375,0.6972066041022539,-0.3169821291238069,-0.18083624042607843
1761838757913013200,0.64801318359375,0.6854992151737213,-0.4262596654444933,-0.1463336668435484
1761838757923082200,0.658082275390625,0.7342571086019277,-0.43412791460156436,-0.0831710351616144
1761838757933152300,0.66815234375,0.6809574800908565,-0.4369041013166308,-0.005451328775030561
1761838757943222000,0.678221923828125,0.554371081572771,-0.44466538296788927,0.10537511292151175
1761838757953291300,0.688291259765625,0.33176585675776005,-0.49506812099367375,0.23409005703404545
1761838757963361300,0.698361328125,0.07718143935799598,-0.5609045749947429,0.35129356404840945
1761838757973431000,0.70843115234375,-0.02528875503540039,-0.5559539668500423,0.39267307419572023
1761838757983500300,0.718500244140625,-0.06117839906215668,-0.5133379371777177,0.38813057192787526
1761838757993570000,0.728570068359375,-0.06048340253531932,-0.44590807650536296,0.3407354182202369
1761838758003640000,0.73864013671875,0.04817804771363735,-0.3949558879032731,0.2018876684189774
1761838758013709000,0.748708984375,-0.036003041273355484,-0.4044102372080087,0.025839210258703678
1761838758023779000,0.758779052734375,-0.27954116400182244,-0.4586304876953363,-0.09070965050552039
1761838758033849300,0.768849365234375,-0.30892566391825677,-0.4022732251793146,-0.29522213273644443
1761838758043918000,0.77891796875,-0.24612404756844042,-0.30206542275995013,-0.5001207282081246
1761838758053988000,0.788988037109375,-0.08954875349998474,-0.30936376307457686,-0.584199416266568
1761838758064058000,0.79905810546875,0.022522212931513786,-0.4026680697157979,-0.5915857271255925
1761838758074127000,0.809127197265625,0.15381985788047312,-0.5140986924171448,-0.5617234170969575
1761838758084197000,0.819197021484375,0.33476445405185223,-0.6196461022987961,-0.47822428249213844
1761838758094267100,0.82926708984375,0.5839367832750082,-0.6787517867401242,-0.40827845694348214
1761838758104336400,0.83933642578125,0.7755541646301746,-0.7261240710288286,-0.3434393434166908
1761838758114406000,0.849406005859375,1.0137608632028103,-0.7782318594068288,-0.2884331667160615
1761838758124476000,0.859475830078125,1.2142296595335007,-0.8042533126309513,-0.25278986213319005
1761838758134545200,0.869545166015625,1.4145499873042107,-0.7730559180736541,-0.255818891098164
1761838758144615000,0.879614990234375,1.66136610879004,-0.7304442723155021,-0.2793715795885771
1761838758154685000,0.889684814453125,1.8566595483094452,-0.6672925273537635,-0.28923323105257004
1761838758164754000,0.89975390625,2.032293763113022,-0.6267410289958119,-0.34929530290327965
1761838758174824000,0.909823974609375,2.083430076110363,-0.808942639490962,-0.3742537300057709
1761838758184894200,0.919894287109375,1.8757284059166908,-0.6460208990052342,-0.08307254322320222
1761838758194963000,0.929962890625,1.7251304326921701,-0.20104250456541775,0.04908537181690335
1761838758205033000,0.940032958984375,1.8385721029549835,0.12901713279634713,0.01507993410155177
1761838758215103000,0.95010302734375,1.9182067806839942,0.30695524062812324,-0.05631685744039714
1761838758225172000,0.960171875,1.9536147786736486,0.30544892771840093,-0.14574140003882347
1761838758235242000,0.970241943359375,2.050757056042552,0.22795623045414684,-0.29012524798884987
1761838758245312000,0.98031201171875,2.179279975581169,0.35768998708724975,-0.3854513427812606
1761838758255381000,0.990381103515625,2.137809316551685,0.6884151026204228,-0.28749161154963077
1761838758265451000,1.000450927734375,2.065133956441283,0.9974217228204011,-0.1436083335328847
1761838758275521000,1.01052099609375,2.005103558370471,1.1659189253509044,0.07481653685756028
1761838758285590000,1.020590087890625,1.895791535258293,1.1065779708489776,0.24955745608322322
1761838758295660000,1.030659912109375,1.7561971866071222,0.8735118500351905,0.3421091542588547
1761838758305729800,1.040729736328125,1.5898124461859464,0.6967778572961688,0.44111422982495274
1761838758315799000,1.050799072265625,1.487284384125471,0.624763883703947,0.5556439145201817
1761838758325869000,1.060869140625,1.56388188611567,0.6447723602488636,0.6260741625849158
1761838758335938800,1.070938720703125,1.57951083240211,0.6705524059325456,0.6075173096204176
1761838758346008000,1.081008056640625,1.6386270382374524,0.5854645773641765,0.4529202202897519
1761838758356077800,1.091077880859375,1.6316835027098655,0.42784518107026814,0.3238673585928976
1761838758366148000,1.101148193359375,1.4213415471404791,0.3289849938675761,0.36738501328006384
1761838758376216800,1.111216796875,1.2901368411719798,0.3695322544418275,0.46925943373739715
1761838758386286800,1.121286865234375,1.2650368867069481,0.5898872161120176,0.5566284685781225
1761838758396357000,1.131357177734375,1.1690759280771017,0.8056590877756475,0.670389324325323
1761838758406425900,1.14142578125,1.0489601868778466,0.7613114120051264,0.7300172790750861
1761838758416496000,1.15149609375,1.0205413171231745,0.6286196823492646,0.6799480107873678
1761838758426566000,1.16156591796875,0.9861509717434644,0.6875571706168353,0.530905084985122
1761838758436635100,1.17163525390625,0.8194283776700496,0.8685663564570247,0.4534205710273236
1761838758446705200,1.181705078125,0.6485580162674188,0.9408721526026725,0.3997864498648792
1761838758456775000,1.19177490234375,0.6901029095768928,0.9056696140572428,0.29281010315865275
1761838758466844200,1.20184423828125,0.8154512907326221,0.7985723443850874,0.169563516587764
1761838758476914000,1.211913818359375,0.8771353012293577,0.6941154331538826,0.0560391364775598
1761838758486984000,1.22198388671875,0.9319967722296715,0.7155694323319941,-0.04406447491496801
1761838758497053000,1.232052978515625,0.8796680345773696,0.7252795830287039,-0.041636005659028884
1761838758507123000,1.242123046875,0.7427040344297885,0.7448905116233975,0.012975436102971433
1761838758517193000,1.25219287109375,0.6436737513571977,0.8233277231961488,-0.028646541030704974
1761838758527263000,1.262262939453125,0.5200426955133676,0.8793181982263922,-0.15367708840891717
1761838758537332000,1.27233203125,0.32117373559474943,0.9691204880960285,-0.23224209107980132
1761838758547402000,1.282402099609375,0.02497837391197681,1.003115185221657,-0.3475086021495983
1761838758557472000,1.292471923828125,-0.19977847597897053,0.8327259583994746,-0.4475658536497503
1761838758567541000,1.302541015625,-0.16281331167519092,0.7466617590796202,-0.3746765585277229
1761838758577611000,1.312611083984375,0.07186696633696556,0.9595807255301624,-0.10220650195591151
1761838758587681000,1.322680908203125,0.295032747644186,1.3472455065771936,0.23507214514026417
1761838758597750000,1.33275,0.41981589613258835,1.7078567879386246,0.5319228106603026
1761838758607820000,1.342820068359375,0.31378888604044913,1.9354966459199785,0.7721858572408556
1761838758617889800,1.352889892578125,-0.0929231983691454,1.5444741519428788,0.7778465133510529
1761838758627959000,1.362958984375,-0.3277168736279011,1.0776143997583538,0.5896466853544116
1761838758638029000,1.373029052734375,-0.5835089132517576,1.2247084565151483,0.4169412174791097
1761838758648099000,1.38309912109375,-0.7062514958232641,1.5843047886803745,0.19001250344179568
1761838758658168000,1.39316796875,-0.8257435521662235,1.7477677964359521,0.1580869407404214
1761838758668237800,1.40323779296875,-1.2114812376081943,1.748730942379683,0.4339874832175672
1761838758678308000,1.41330810546875,-1.5141110162526368,1.8238998728714881,0.716167909681797
1761838758688376800,1.423376953125,-1.7409446724176405,1.9423773453444242,0.9970520127251744
1761838758698447000,1.433447021484375,-2.129642376708984,2.165428268100321,1.2468521184578538
1761838758708517000,1.44351708984375,-3.0095705235272643,2.3044784268721936,1.619461149996519
1761838758718585900,1.4535859375,-4.251116644531488,2.0625673208236694,2.0811723603114483
1761838758728656100,1.46365625,-5.410293109884858,1.552254722816497,2.600860835559666
1761838758738726000,1.473725830078125,-6.699999742946028,0.9622764674201607,2.998498509892821
1761838758748795100,1.483795166015625,-8.771734120565652,0.20376973757222294,3.519706449793279
1761838758758865000,1.493864990234375,-10.898819798529148,-0.9848734991535544,4.167731674358248
1761838758768935000,1.503934814453125,-12.863379165065288,-2.545572663579881,4.539805283845961
1761838758779004200,1.514004150390625,-14.679637144881486,-3.9251574282258748,4.409083685219287
1761838758789074000,1.524073974609375,-15.953685605561732,-4.406453336715698,3.5623487829506395
1761838758799144000,1.53414404296875,-16.789722588205336,-3.845567466421425,2.2846499830693006
1761838758809213000,1.544212890625,-17.73802050689459,-2.958222029083967,1.3461246858537197
1761838758819283000,1.554282958984375,-18.459334547293185,-2.2120189004920423,1.0167305997285991
1761838758829353200,1.564353271484375,-19.11922001326084,-1.482873581945896,1.00051756994389
1761838758839422000,1.574421875,-18.971621221852303,-0.29923366993274536,0.7383222391489893
1761838758849492000,1.584491943359375,-17.717659271389245,1.1522852445349097,0.02800349388681352
1761838758859562000,1.59456201171875,-16.044803215813637,2.478632047729194,-0.029373540131002664
1761838758869631000,1.604630859375,-14.276716853970289,3.7231124686196444,0.019385960732400415
1761838758879701000,1.614700927734375,-12.749619514894485,4.049631949156523,-0.37322993991598485
1761838758889771000,1.62477099609375,-12.139020934665202,2.6170971000894903,-1.2292732071474193
1761838758899840000,1.634840087890625,-10.256921240150929,1.8085170103006063,-2.2546901674829423
1761838758909910000,1.644909912109375,-8.289157524615526,1.7639062996797263,-2.524083885349333
1761838758919980000,1.65497998046875,-7.089194290843605,0.4804094445114955,-2.1284651496231555
1761838758930049000,1.665049072265625,-5.622808317840099,-1.040641928930953,-1.8153312203601002
1761838758940119000,1.675119140625,-3.6550545391768217,-1.4615357564933598,-1.5642441435568033
1761838758950188800,1.685188720703125,-1.865511547806859,-2.000935625036061,-1.8536166734822093
1761838758960258000,1.695258056640625,0.17628946384191513,-2.4493431171417237,-2.842302570530772
1761838758970328000,1.705328125,2.4517133534044024,-2.409907763332128,-3.7948017403021455
1761838758980397800,1.715397705078125,4.575510511216521,-1.8763539904691278,-4.013589744916558
1761838758990467000,1.725467041015625,6.234518658703565,-0.49336617591399695,-3.515881630808115
1761838759000536800,1.735536865234375,7.186691372999548,1.1412993017487227,-2.608313197392225
1761838759010607000,1.745607177734375,7.394024794402718,2.4583549833759664,-1.5200054811187087
1761838759020677000,1.755677001953125,7.69132197984755,3.5455271197482943,-0.7431941560342907
1761838759030745900,1.765745849609375,8.651737037310003,5.210785852062702,-0.23361542525961992
1761838759040816000,1.775816162109375,9.721460026231407,6.340588923415542,0.1052261420380324
1761838759050886000,1.785885986328125,10.63840477527976,6.651371028855443,0.27591720135100184
1761838759060955100,1.795955078125,11.583776577389239,6.437624817800521,0.21867424204163252
1761838759071025000,1.80602490234375,12.399074723386764,5.7352831888973705,0.27866408890634775
1761838759081095000,1.816094970703125,13.555048593306541,5.111203780326247,0.40768100250698625
1761838759091164000,1.826163818359375,14.83142228206396,4.807328385534882,0.42485542466975745
1761838759101234000,1.83623388671875,15.50987450133562,4.408452401578426,0.42522995707057415
1761838759111303000,1.846302978515625,16.094232724893093,4.197302344496548,0.44395369103457777
1761838759121371600,1.85637158203125,16.31818994883895,3.2359973524570464,0.6999266767159104
1761838759131442000,1.86644189453125,15.97827059624195,2.815791580224037,0.9228975199729204
1761838759141512000,1.876511962890625,14.753437709629535,3.320525647446513,0.43514564027674496
1761838759151581000,1.886580810546875,14.209717785930632,3.149105543206632,-0.30728542243055995
1761838759161651000,1.89665087890625,13.208561552757024,3.272654473724961,-0.9092189771018921
1761838759171720700,1.906720703125,12.27548809120655,2.858533574363589,-1.2709560476228594
1761838759181790000,1.9167900390625,10.879279231756925,1.7107216758504509,-1.0743659924216569
1761838759191860000,1.92685986328125,9.460921668863296,0.5911804707929492,-1.1455874273966997
1761838759201929700,1.9369296875,8.36209065887928,0.9768787010073661,-1.3198419513449071
1761838759211999000,1.9469990234375,8.055621155941486,0.4764312250629067,-1.1035074042972177
1761838759222068700,1.95706884765625,8.049711055114864,0.1793292699292302,-0.5520986065961421
1761838759232138800,1.967138671875,8.19158913078904,0.01752484303563833,0.22589980938099324
1761838759242207700,1.977207763671875,8.283708611559867,-0.1589706647723913,0.9625921092405915
1761838759252277800,1.98727783203125,8.278901503539085,0.1256131695717573,1.5605764148294925
1761838759262348000,1.99734814453125,8.067521437093616,0.5804585857704282,1.9020545411758123
1761838759272416800,2.007416748046875,7.6981737454384565,0.7552516735747457,2.1081588591754437
1761838759282487000,2.017487060546875,7.116088142988085,0.6769792241096496,2.262777466218173
1761838759292556800,2.027556884765625,6.224535024827718,0.49243777249008414,2.2653286120057103
1761838759302625800,2.037625732421875,5.147293330839276,0.40977234876304863,1.9860094201914964
1761838759312695800,2.04769580078125,4.452214970937371,0.5292614824965596,1.4200349945865571
1761838759322765800,2.057765869140625,4.066773638093471,0.8043298849985003,0.7263111180335283
1761838759332835000,2.0678349609375,3.827169347682595,0.8171797219604253,0.27104482780797406
1761838759342904800,2.07790478515625,3.6606080816507336,0.5517199825420975,0.02522948086252436
1761838759352974800,2.087974853515625,3.369018167936802,0.6662798431798815,-0.3514861640110612
1761838759363044900,2.098044921875,3.1649796964257955,0.7333543145433068,-0.6377258027382194
1761838759373113900,2.10811376953125,2.482214290130138,0.6213596282184124,-0.6257780291825532
1761838759383184000,2.118183837890625,1.6892261756181717,0.5443547144711017,-0.42793391879964615
1761838759393252900,2.1282529296875,1.2566139262765645,0.25480244406461716,0.15661239294214174
1761838759403323000,2.138322998046875,0.5751262848317623,-0.6607365298390389,1.391895087903738
1761838759413393000,2.148392822265625,-0.3220172006815672,-2.584831491778791,3.0719167973250148
1761838759423463000,2.158462890625,-1.8244822028040886,-4.02025358671993,3.2668034096091985
1761838759433531600,2.16853173828125,-2.72596693239212,-4.135745467510819,1.3877946668475865
1761838759443602000,2.178601806640625,-3.812081668666005,-4.1492169435024255,-0.9593507161665707
1761838759453672000,2.188671875,-5.723840003862977,-4.163293984171748,-3.5572327551111576
1761838759463741000,2.198740966796875,-6.8838400605589145,-3.1178058573186394,-6.410383759653568
1761838759473811000,2.20881103515625,-5.968815465918183,-2.544567578190565,-7.745809356838464
1761838759483880700,2.218880615234375,-6.528320987769961,-2.372769288288057,-7.126511921846866
1761838759493950000,2.228949951171875,-6.877910085988044,-2.1884619376853105,-4.951864866763353
1761838759504020000,2.23902001953125,-6.106322486901283,-2.0515537593781947,-3.343584451472759
1761838759514089700,2.24908984375,-5.202199810025095,-1.5886498321473597,-1.652009813032299
1761838759524159000,2.259158935546875,-5.621274532401562,-1.4784642410710453,0.29219547839164733
1761838759534228700,2.269228759765625,-7.1680761043787,-1.555606809723377,1.8471946776106953
1761838759544299000,2.279299072265625,-9.155694274941085,-1.6002406089588999,2.9321184505343436
1761838759554367700,2.28936767578125,-11.408766047441958,-1.8091998779982328,3.472283019839227
1761838759564437800,2.299437744140625,-13.128836274135113,-1.6717076161928475,3.179538967654109
1761838759574508000,2.309508056640625,-13.731930762344598,-1.0222291240796446,2.0021055455982686
1761838759584576800,2.31957666015625,-13.89832310155034,-0.6205519650973379,0.38169688561856746
1761838759594647000,2.32964697265625,-13.35840490822196,-0.9105799632567911,-1.5643074180513619
1761838759604716800,2.339716796875,-11.731440835249423,-1.7959022972688077,-4.314559481394291
1761838759614785800,2.349785888671875,-9.775472186926006,-3.617728724867105,-7.905781307607889
1761838759624855800,2.359855712890625,-9.28763781657815,-4.186054097512364,-9.721274148270487
1761838759634925800,2.36992578125,-9.551915944996475,-2.347136980511993,-8.555431795287133
1761838759644995000,2.3799951171875,-9.352915467652679,0.06992681945408694,-6.327764513155818
1761838759655064800,2.39006494140625,-8.771203374689817,1.360196611956507,-4.549717898312211
1761838759665134800,2.400134765625,-7.824998628887534,1.6815977265663444,-2.9609651903122662
1761838759675203800,2.410203857421875,-6.502512592774629,1.743198588824272,-1.5927796254284678
1761838759685273900,2.42027392578125,-4.840322892642021,1.7774802131325005,-0.5338586010284722
1761838759695343900,2.43034375,-3.3183068023532627,1.8039933953963219,0.2541930799946189
1761838759705412900,2.440412841796875,-1.9431191036224364,1.7614388866528867,0.8470641342230141
1761838759715483000,2.45048291015625,-0.5141606517374515,1.5999864880673587,1.246463411401212
1761838759725553000,2.460552978515625,0.9243079712927341,1.2313010597132146,1.5141604083523152
1761838759735622000,2.470621826171875,2.131774128040671,0.9342385598070919,1.680442126790434
1761838759745692000,2.48069189453125,3.1882378224164247,0.7582472751941531,1.7441230101928114
1761838759755762000,2.490761962890625,3.849849966046214,0.6278014247689396,1.7549189833648502
1761838759765830700,2.50083056640625,4.271133012121916,0.6937861281342804,1.6890364982649684
1761838759775901000,2.51090087890625,4.575758348497748,0.8063086377255618,1.5207909324079751
1761838759785971000,2.520970947265625,4.795175006404519,0.7190919804349541,1.3224163318775592
1761838759796040700,2.531040771484375,4.99754466792047,0.548948983458802,1.0971014097124336
1761838759806110000,2.54110986328125,5.189585243123769,0.46221397220529614,0.8799208402946591
1761838759816179700,2.5511796875,5.429122313517332,0.5759997797306626,0.8047937031179666
1761838759826249700,2.561249755859375,5.768254899650811,0.8923862079836428,0.8329552371107042
1761838759836319000,2.571319091796875,6.173218094566464,1.2409456708930433,0.8180335623107851
1761838759846388700,2.581388671875,6.428311046010255,1.2843518280297517,0.8118484439350664
1761838759856459000,2.591458984375,6.429444433954358,1.2603139498382807,0.9353289853923022
1761838759866527700,2.60152783203125,6.2839142655134195,1.3680952562518418,1.126049564038217
1761838759876597800,2.61159765625,6.355450976982713,1.487923412681371,1.3054196043692528
1761838759886668000,2.62166796875,6.473129261901974,1.5336125661887228,1.3857318890988826
1761838759896736800,2.63173681640625,6.255217163339257,1.4512490480177103,1.5073267629399896
1761838759906807000,2.64180712890625,5.686555106085539,1.2462117747277022,1.5917996744804084
1761838759916876800,2.651876708984375,5.180727982929349,1.1932080604232846,1.4365233341813086
1761838759926946000,2.661946044921875,4.711738013783097,1.3344944538146257,1.0417754630055278
1761838759937015800,2.672015869140625,4.256775985467434,1.475040404102206,0.6333748409871012
1761838759947085800,2.6820859375,3.6573973029106854,1.4318215862311423,0.32280816839616744
1761838759957154800,2.69215478515625,2.8363819483101365,1.2453288544133305,0.007165306785795837
1761838759967224800,2.702224853515625,1.9475766675531863,1.1416090983502567,-0.25967350243339316
1761838759977294800,2.712294921875,0.7752098812371492,1.1403984073862432,-0.558373302951455
1761838759987363800,2.72236376953125,-0.3566635666489601,1.181096474608034,-0.9875877265483141
1761838759997433900,2.732433837890625,-0.7058762327700853,1.4535399354338645,-1.7590772720880805
1761838760007504000,2.74250390625,-0.2444353638291359,1.7738329426713286,-2.633778770299256
1761838760017572900,2.75257275390625,-0.14313596678078175,1.71706914518103,-3.351179144385457
1761838760027643000,2.762642822265625,-0.3849900819450617,1.0964480603702367,-3.763056064212322
1761838760037713000,2.772712890625,-1.204021569252014,0.3218083802364766,-4.017953785344958
1761838760047782000,2.782781982421875,-1.9115794714987278,-0.09287322174757719,-3.8738998269364235
1761838760057852000,2.792851806640625,-2.5408570332348344,-0.03436038863286376,-3.3879356343746183
1761838760067922000,2.802921875,-3.2679905735671517,0.3523188154429197,-2.736229090948403
1761838760077990700,2.81299072265625,-4.298412064191699,0.29131621133908625,-1.7837899808011948
1761838760088061000,2.82306103515625,-5.147520125332474,-0.37407092078477144,-0.8126450011402369
1761838760098131000,2.833130859375,-5.663180075716972,-0.9035697191685438,-0.12781855239523573
1761838760108200000,2.843199951171875,-5.865627478644251,-1.301850367580354,0.24258018268281592
1761838760118269400,2.85326953125,-6.0015551214814185,-1.9072014025449753,0.2868042320736684
1761838760128339500,2.86333935546875,-6.116687813571095,-3.244161369690299,-0.4361369894016534
1761838760138409500,2.873409423828125,-5.893058506405353,-4.5400960834860795,-1.665747538744658
1761838760148478500,2.883478515625,-5.181773108068108,-4.213151947796344,-2.4579718292772768
1761838760158548500,2.893548583984375,-4.3687312165647745,-3.607374504113197,-2.5179481590732933
1761838760168618500,2.903618408203125,-3.628212124958634,-3.1035347553819417,-1.85775567298308
1761838760178687500,2.9136875,-2.834805492773652,-2.508736970874667,-1.049830905297771
1761838760188757500,2.923757568359375,-1.9844301881760358,-2.0161548214778304,-0.3414007137285545
1761838760198827500,2.93382763671875,-1.3356412857621907,-1.4395390287406742,0.3725781614763662
1761838760208896500,2.943896484375,-0.9887211144924163,-0.7343003632217645,1.015964656857401
1761838760218966500,2.953966552734375,-0.37205636609196663,-0.05825242861285805,1.38197896630615
1761838760229036500,2.96403662109375,0.4246323565036058,0.4874941786080599,1.5741326464951038
1761838760239105500,2.97410546875,1.1623504192143679,0.9144267748780548,1.6546784477196632
1761838760249175600,2.984175537109375,1.7985317689895628,1.1529536453157663,1.6915186704695224
1761838760259245300,2.994245361328125,2.47999135338366,1.3923108290977775,1.612480205067992
1761838760269314600,3.004314453125,3.215971632516384,1.6348466429159045,1.4258946804001926
1761838760279384300,3.01438427734375,3.8464381117761133,1.8122770934864878,1.1940383737675846
1761838760289454300,3.024454345703125,4.416718710142374,1.858730509364605,0.9300199922639876
1761838760299523600,3.034523681640625,4.8028100313276045,1.887522304084897,0.6582666325941682
1761838760309593300,3.04459326171875,5.081360430726408,1.9140955459728837,0.38300161154158413
1761838760319663600,3.05466357421875,5.312986581864953,1.9491446475222705,0.06485613772682845
1761838760329732400,3.064732421875,5.554459004235268,1.9894053462401031,-0.232429832204245
1761838760339802600,3.074802734375,5.770960066956281,2.0001307383939624,-0.3855435511093587
1761838760349872600,3.08487255859375,5.669461347943544,1.9713401127174495,-0.4839070773689076
1761838760359941400,3.09494140625,5.471174571827054,1.835979163852334,-0.5825348075225949
1761838760370011600,3.10501171875,5.304173745334148,1.670021124410629,-0.6370167776860296
1761838760380081400,3.115081298828125,5.068500364631414,1.607558530756831,-0.7013087056588381
1761838760390150700,3.125150634765625,4.8137639715403315,1.5566411212071776,-0.7382366797573864
1761838760400220400,3.135220458984375,4.64091792615056,1.4106985725730656,-0.8082502733126282
1761838760410290400,3.14529052734375,4.439468302088976,1.301164431142807,-0.8652714065648615
1761838760420359400,3.155359375,4.241794689434767,1.2079422498270869,-0.8573349875424057
1761838760430429400,3.165429443359375,4.113161879780888,1.1497031190872191,-0.7618991487652063
1761838760440499500,3.17549951171875,3.8890655396252867,1.2551850625172256,-0.6342312386207282
1761838760450568400,3.185568359375,3.801724525302648,1.4691286958403884,-0.45533590312935407
1761838760460638500,3.195638427734375,3.8708132590979334,1.6798764557316899,-0.19031736813988537
1761838760470708500,3.20570849609375,3.9122909323900936,1.785797375100851,0.10375533883310854
1761838760480777500,3.215777587890625,3.9936774222224947,1.8937441012091933,0.35042949456498024
1761838760490847500,3.225847412109375,4.256505351832509,2.042449100293964,0.6372301281757652
1761838760500917500,3.23591748046875,4.661919797646999,2.2022033166594803,0.907718947802484
1761838760510986500,3.245986572265625,5.086920987462997,2.4092450616396963,1.0208011371031402
1761838760521056500,3.256056396484375,5.677375189808011,2.712578750769794,1.2509580924719572
1761838760531126500,3.26612646484375,5.957339547657966,2.9811376252472397,1.5976429936811327
1761838760541195500,3.276195556640625,5.953889114943147,2.77783272870779,1.7446324210196733
1761838760551265500,3.286265625,5.84593727426827,2.2453889629133044,1.8843653013586996
1761838760561335600,3.29633544921875,5.997699615097045,1.8035853991173207,1.3881727063797413
1761838760571404500,3.306404541015625,6.562668663051724,1.2873786285050213,0.3283330327648669
1761838760581474600,3.316474609375,6.572256575608253,0.19735767857283354,-0.14356482318472116
1761838760591544300,3.32654443359375,5.316998155593872,-1.7380619565881787,0.17825981406681238
1761838760601613600,3.336613525390625,3.3346447736918923,-4.085078233329951,0.5609476834841072
1761838760611683300,3.346683349609375,0.6058037471681833,-5.174451971399784,0.8119296924777328
1761838760621753300,3.35675341796875,-2.8867870244234797,-5.506655635052919,1.81749512039572
1761838760631823600,3.36682373046875,-7.686390953186154,-6.51176089811325,2.6557801742270586
1761838760641892400,3.376892333984375,-13.368725226706266,-5.627493845307827,1.3205296413481236
1761838760651962600,3.386962646484375,-17.553089471435545,-2.1854408362984654,-2.3947737609557804
1761838760662032400,3.397032470703125,-19.13035515525937,-0.14537256672643123,-5.760664298391342
1761838760672101400,3.407101318359375,-19.882313340246675,-1.6253344259440898,-7.464736745485663
1761838760682171600,3.417171630859375,-19.810849694013594,-4.063902466571331,-7.283136900275945
1761838760692241400,3.427241455078125,-21.022540190458297,-4.6347179024666545,-3.5725706094965335
1761838760702310700,3.437310546875,-23.67738483740091,-4.451072522903979,1.0884217711072415
1761838760712380400,3.44738037109375,-26.558495569753646,-5.191418888291716,4.041537197767198
1761838760722450400,3.457450439453125,-29.762468136918542,-7.040376776182651,4.863690324226021
1761838760732519400,3.46751953125,-31.34799311504364,-6.628419776856899,3.7938969004169105
1761838760742589400,3.47758935546875,-31.25179250243902,-4.549667044907808,2.4497613425537943
1761838760752659500,3.487659423828125,-29.199398200583456,-2.2358163940563798,0.9805250216204673
1761838760762728400,3.497728515625,-25.233833358645438,0.34445502326525745,-0.6745012896887957
1761838760772798500,3.507798583984375,-21.309283248662947,2.4715707310408352,-1.949030081231892
1761838760782868500,3.517868408203125,-18.421282172274587,3.714642454177141,-1.3839723320804536
1761838760792937500,3.5279375,-14.761568409115075,4.97042811293602,0.1688619807222858
1761838760803007500,3.538007568359375,-10.202675270700453,6.102791974687576,1.3678876048505306
1761838760813077500,3.548077392578125,-5.55993714338541,6.673886812046169,2.3689956149682403
1761838760823146500,3.558146484375,-1.7703291723340748,7.420368611449002,3.226433697558939
1761838760833216500,3.568216552734375,1.4421218848407267,8.178777580010891,3.749702953903377
1761838760843286500,3.57828662109375,4.089496926555038,9.038008975759148,4.197997925545275
1761838760853355500,3.58835546875,6.291863178691267,9.25020445024073,4.478755479599535
1761838760863425500,3.598425537109375,7.952575207486748,8.641437177091836,4.677791612778604
1761838760873495600,3.60849560546875,9.416129756456613,7.633733129709959,4.49087875585258
1761838760883564500,3.618564453125,10.611466499471664,6.401860261458158,3.414267760983109
1761838760893634600,3.628634521484375,12.137316468834877,5.884760633659362,1.3985185976967214
1761838760903704300,3.638704345703125,13.863026162719725,5.923033373430371,-0.8797218105912208
1761838760913773600,3.648773681640625,14.65146786597371,5.724575916922092,-2.9528683930963275
1761838760923843300,3.65884326171875,13.595567650699614,4.627328084476292,-4.029985291661322
1761838760933913300,3.668913330078125,12.129582075190543,3.6948645715177055,-3.3222482334554195
1761838760943982600,3.678982666015625,11.550434279757738,4.2151121419534086,-1.4962556260883808
1761838760954052400,3.68905224609375,11.95985328503847,4.994809689998626,0.002606821497529745
1761838760964122600,3.69912255859375,12.433489034163951,4.727570665948092,0.7848213207997381
1761838760974191400,3.70919140625,12.829427795624731,3.7419507323414085,0.9002333412874489
1761838760984261600,3.71926171875,13.499273514592646,2.8657822303175924,0.36687180306091904
1761838760994331600,3.72933154296875,14.014422008323669,2.1364850822106,-0.4727787669699639
1761838761004400400,3.739400390625,14.17161864916086,1.6585770625934004,-1.2194134188469499
1761838761014470700,3.749470703125,14.045737184041737,1.5959963955178855,-1.4872047430180013
1761838761024540400,3.75954052734375,13.747616991776226,1.7080790523871778,-1.2781971047922969
1761838761034609700,3.769609619140625,13.34311030845642,1.8876517756834625,-0.8488456838775426
1761838761044679400,3.779679443359375,12.82654142653346,1.8787591519147158,-0.30310156087465584
1761838761054749400,3.78974951171875,12.392993357646464,1.902498339420557,0.11502159639801829
1761838761064818400,3.799818359375,11.980960370475053,2.2718372632473707,0.1820539821853861
1761838761074888400,3.809888427734375,11.40201131248474,2.5583377448678015,-0.03779569684378802
1761838761084958500,3.81995849609375,10.48748940666914,2.5204887834668157,-0.40467758290730416
1761838761095027500,3.83002734375,9.501799622696637,2.4532591215416786,-0.9365332466155291
1761838761105097500,3.840097412109375,8.371799567466974,2.218236605963111,-1.4883113890856503
1761838761115167700,3.850167724609375,7.235061143893003,1.8996908807843922,-1.9397934663310645
1761838761125236700,3.86023681640625,6.592688538262248,1.6327245361953973,-2.326967906577885
1761838761135306800,3.870306640625,6.251673207122087,1.4473852121964097,-2.374512624824047
1761838761145376800,3.880376708984375,5.787291024032235,1.2227806302577255,-1.9722087122455239
1761838761155445800,3.89044580078125,5.131902284961939,0.9550403786867856,-1.3816520724393426
1761838761165515800,3.900515869140625,5.053874457907677,1.038942650732398,-1.002961602095142
1761838761175585800,3.910585693359375,5.408233839267492,1.4587588391259312,-0.7671166642177849
1761838761185654800,3.92065478515625,5.7785693729162215,1.727562628275156,-0.5801509080607443
1761838761195724800,3.930724853515625,6.252344238251447,1.9048285359337924,-0.3747857179906219
1761838761205794800,3.940794921875,6.821492617717385,2.1227765825927256,-0.031225597738474605
1761838761215863800,3.95086376953125,7.390874805939197,1.9219795772209762,0.4215910525789484
1761838761225933800,3.960933837890625,7.849518153116106,0.9974971261441707,0.8892356349982321
1761838761236003800,3.97100390625,7.826095776474475,-0.015175065039098263,1.2412372011855244
1761838761246072800,3.98107275390625,7.370282684287428,-1.0613196099743247,1.1240270452346652
1761838761256142800,3.991142822265625,5.9968918058454985,-1.680450456227362,1.0348833654042333
1761838761266212600,4.001212646484375,2.9258950459748503,-1.7820178565621374,1.489969969947636
1761838761276281900,4.01128173828125,0.43704701691865916,-2.356921438553929,2.1793846049994228
1761838761286349800,4.021349853515625,0.4405202459871769,-2.3714956150904296,2.1603604633167386
1761838761296418600,4.03141845703125,-1.1226619674265383,-3.3452935934782024,2.874092962545156
1761838761306488800,4.04148876953125,-2.895903227815032,-4.766861058329045,3.4240172938421365
1761838761316558800,4.051558837890625,-5.783397523725032,-7.042400390964746,3.250731687991321
1761838761326628600,4.061628662109375,-10.020685549390315,-7.591522465968132,1.1804414447654037
1761838761336697900,4.07169775390625,-13.695359565794467,-5.372240150344371,-2.103976605054736
1761838761346767600,4.081767578125,-15.50886912368536,-0.8953294218286871,-5.812144310259819
1761838761356837600,4.091837646484375,-14.356117138421535,1.1647329304367302,-6.937614320844411
1761838761366907000,4.101906982421875,-12.227875276160239,1.7519821992605924,-5.907223809880018
1761838761376976600,4.1119765625,-9.895809461921452,2.2649597786933184,-3.7582232372283935
1761838761387046000,4.1220458984375,-7.542228565967083,1.2896090179055928,-0.8998068595036863
1761838761397115600,4.13211572265625,-5.0614668127328155,-0.6468532581761479,2.104792305351794
1761838761407186000,4.14218603515625,-4.7167964662164445,-1.9862232090726493,4.400141377089917
1761838761417254700,4.152254638671875,-6.073175419580936,-2.502844990226626,5.864556050020456
1761838761427324700,4.16232470703125,-8.587057352128625,-2.852282697275281,6.275020764961838
1761838761437395000,4.17239501953125,-10.444715263825655,-2.317836797878146,5.584459005701541
1761838761447463700,4.182463623046875,-11.20900101546645,-1.5505048104092478,4.320955904433131
1761838761457534000,4.192533935546875,-12.27481355294585,-1.3127442481689153,2.721879370817542
1761838761467603700,4.202603759765625,-12.822457956612109,-1.6465842808522284,0.6178061735205352
1761838761477672700,4.212672607421875,-12.53560033211708,-3.188585612940788,-3.2881805441588163
1761838761487742700,4.22274267578125,-11.357900952601431,-5.738429085707664,-7.845569123229384
1761838761497812700,4.232812744140625,-10.749956101751327,-3.806025437366962,-9.143295981138944
1761838761507882000,4.242882080078125,-12.142312961947917,-1.3354593533240258,-6.4246238819301125
1761838761517951700,4.25295166015625,-12.791175514119862,-0.5952106030918658,-4.099386160145699
1761838761528021800,4.263021728515625,-10.839357555735111,0.5333326774582267,-3.0990754378855225
1761838761538090800,4.2730908203125,-8.310847378376126,0.6884877294652163,-2.070963977769017
1761838761548160800,4.283160888671875,-5.90395633251667,0.6628562984719872,-1.141798483442515
1761838761558230800,4.293230712890625,-3.769268362855911,0.7503552798353135,-0.4427153448786586
1761838761568299800,4.3032998046875,-1.8299995049208402,0.9629014674507081,-0.01401895380653441
1761838761578369800,4.313369873046875,0.259728210029006,1.0681553012132643,0.1342130209390074
1761838761588439800,4.323439697265625,2.2043425206452607,1.0412490279786288,0.20490524440817534
1761838761598508800,4.3335087890625,3.6752041777580975,0.9906299437884241,0.31719438363499936
1761838761608578600,4.34357861328125,4.802103928884864,0.884226282403618,0.3696928518310189
1761838761618648800,4.35364892578125,5.662199832507968,0.8188233244489878,0.4349407653544098
1761838761628717600,4.363717529296875,6.314287191945314,0.9345831354610621,0.4349805859081447
1761838761638787800,4.373787841796875,6.891712985891103,1.1846567974381148,0.34388401844426986
1761838761648857900,4.38385791015625,7.320438749188185,1.3185605332322419,0.2819835887178779
1761838761658926800,4.3939267578125,7.685951977246999,1.3030027524858712,0.2956044100522995
1761838761668996900,4.403996826171875,8.007844090244173,1.3207799628473817,0.30370135339871046
1761838761679066600,4.414066650390625,8.322658227679133,1.5324544821947812,0.4364836839474737
1761838761689135900,4.424135986328125,8.36536924215853,1.7967659283608197,0.7104610763423145
1761838761699206000,4.434205810546875,8.266090537282825,1.856407911635935,0.9012899376682937
1761838761709275600,4.444275634765625,7.996808316966891,1.8067443015396594,1.1778338195502758
1761838761719345000,4.454344970703125,7.567415029671788,1.9639386042892932,1.4309149927802383
1761838761729414700,4.46441455078125,7.002417340144515,2.184788656000048,1.5353630631178616
1761838761739484700,4.474484619140625,6.21867636192739,2.245516680946201,1.7070122999384998
1761838761749553700,4.4845537109375,5.1593333127230405,2.3076560339950025,1.6746975917890667
1761838761759623700,4.494623779296875,3.970069752141833,2.302251398472488,1.3675173102334142
1761838761769694000,4.50469384765625,2.9420658440530296,2.4689766228944063,0.7857447923202067
1761838761779762700,4.5147626953125,1.8497785566240548,2.6213176403939724,-0.2136413259083405
1761838761789832700,4.524832763671875,1.0299795920759438,2.7068559892088175,-1.4066824687995017
1761838761799902700,4.53490283203125,0.7779121259331703,2.7883210972353814,-2.4427608161419627
1761838761809971700,4.5449716796875,0.3931804026633501,2.385458089469373,-3.011281126837432
1761838761820042000,4.5550419921875,-0.41954993867278095,1.2838693052098153,-3.0307153106257316
1761838761830111700,4.56511181640625,-1.096970476809144,0.23557919961325824,-2.8039313388213514
1761838761840181000,4.575180908203125,-1.7381494887411593,-0.6343799994416535,-2.5895751791745423
1761838761850250800,4.585250732421875,-2.3483956022709607,-1.4484098790690303,-2.3762480703145266
1761838761860320800,4.59532080078125,-2.877599509361386,-2.0050798852339384,-2.1326107249952853
1761838761870389800,4.6053896484375,-3.1559809819340705,-2.209194636851549,-1.8671027625210581
1761838761880459800,4.615459716796875,-3.3934102663934227,-2.1068159201338887,-1.6173209230974315
1761838761890528800,4.62552880859375,-3.505674125048518,-1.9885973908580838,-1.3996671832099556
1761838761900598800,4.635598876953125,-3.2987849402815104,-1.9595988215193152,-1.2269547010719775
1761838761910669800,4.645669921875,-2.8712615385115146,-2.0068210298128424,-0.6363762147601694
1761838761920738800,4.65573876953125,-2.902168717950582,-2.1638997433587908,-0.3944070949140936
1761838761930808800,4.665808837890625,-2.8764918403804303,-2.2524624084308744,-0.34268604083135723
1761838761940877600,4.675877685546875,-2.9696213749766347,-2.0262685114741323,-0.3329368732985109
1761838761950947800,4.68594775390625,-3.093153646621108,-1.6308271781414747,-0.23234503999762235
1761838761961017900,4.696017822265625,-3.038759208610654,-1.1011029735039919,-0.1893251787647605
1761838761971086800,4.7060869140625,-2.967028435873985,-0.5212455684971063,-0.11780545496288686
1761838761981156900,4.716156982421875,-2.7566350423783064,-0.11027217338122426,-0.09313782750051468
1761838761991226600,4.7262265625,-2.5163866088449955,0.23391535805426536,-0.15861849033385514
1761838762001296000,4.7362958984375,-2.214842287349701,0.501421581673622,-0.20455303343702105
1761838762011366000,4.746365966796875,-1.9336562787503002,0.6976670612208545,-0.1490682429065928
1761838762021435600,4.756435546875,-1.7579332166194914,0.8060003024287521,0.022720932107698173
1761838762031505000,4.7665048828125,-1.4350480009317397,0.8261014987584203,0.19597606975501403
1761838762041574700,4.77657470703125,-1.1342413460612297,0.8617747966207563,0.2973060080721043
1761838762051645000,4.78664501953125,-0.8124480172634124,0.8068752586323767,0.3459455540839583
1761838762061713700,4.796713623046875,-0.3518301551431417,0.724767395722866,0.2939059538376517
1761838762071783700,4.80678369140625,0.05985094985067844,0.602071757565625,0.22418608253197744
1761838762081854000,4.81685400390625,0.3745709792613983,0.44397805829085407,0.16697088801236823
1761838762091922700,4.826922607421875,0.6495593022644519,0.34853418233767147,0.09354898385098204
1761838762101993000,4.836992919921875,0.8215554528266191,0.20174648811630905,0.11031217659804969
1761838762112062700,4.847062744140625,0.8308072652965783,-0.013216295654140411,0.23050001491913572
1761838762122132200,4.85713232421875,0.9631278235524893,-0.04239266924522817,0.23007789878323673
1761838762132202200,4.8672021484375,1.1359516571104527,0.017156813440844416,0.14610408673821948
1761838762142272300,4.877272216796875,1.3938865539819,0.06333557709604501,0.05484296722924337
1761838762152341200,4.88734130859375,1.6709060905516147,-0.00544094894491136,0.024764525665319524
1761838762162411300,4.897411376953125,1.9323375973671673,-0.15593312370739876,0.01122013056797441
1761838762172481300,4.907481201171875,2.261726203599572,-0.2472945526525378,-0.07323960183046292
1761838762182550300,4.91755029296875,2.55367852088511,-0.2796143753685057,-0.1665174268901348
1761838762192620300,4.927620361328125,2.8031384348779915,-0.36359380430355664,-0.2087490238221362
1761838762202689300,4.937689208984375,2.979849339002371,-0.4250291738014668,-0.27264820788400246
1761838762212759300,4.94775927734375,3.077619392880797,-0.39958347463868554,-0.36678880095258354
1761838762222829300,4.957829345703125,3.2000287979751825,-0.32409115741141137,-0.4425458335306495
1761838762232898300,4.967898193359375,3.367251742786169,-0.22986381764113903,-0.5199660500805825
1761838762242968300,4.97796826171875,3.5428730981081724,-0.19208865212872622,-0.5627017240772023
1761838762253038000,4.9880380859375,3.752278065088391,-0.13240429101660847,-0.5548169987093657
1761838762263107300,4.998107421875,4.011321799984574,-0.020267565872520207,-0.5519154320489615
1761838762273177000,5.008177001953125,4.348084734377265,0.08226254201456903,-0.5399093524347991
1761838762283247400,5.018247314453125,4.715575399988889,0.1737637812891975,-0.5210417530206963
1761838762293316000,5.028316162109375,5.114534970575571,0.3270293297551572,-0.5058526229236274
1761838762303386000,5.03838623046875,5.494107119125127,0.4490194499915465,-0.5048625524403527
1761838762313456400,5.048456298828125,5.800789972552657,0.4895453755168244,-0.41379743956066667
1761838762323525000,5.058525146484375,6.076628774905204,0.4304127665359527,-0.2940707707442343
1761838762333595400,5.068595458984375,6.368930051758885,0.33429563096370546,-0.22326814570315182
1761838762343665200,5.0786650390625,6.6773121103197335,0.23447710185656323,-0.30301267701480533
1761838762353734100,5.088734130859375,7.055331768730283,0.06943953826064243,-0.5911911017848178
1761838762363804400,5.098804443359375,7.469294847181439,-0.1796384454762563,-0.9796925163190812
1761838762373874200,5.108874267578125,7.845944386282563,-0.30945765190310776,-1.357293437860906
1761838762383943400,5.118943359375,7.93968474625349,-0.4485493482617661,-1.5596435178935526
1761838762394013200,5.12901318359375,7.700874821090697,-0.7462990632470696,-1.5846727452099323
1761838762404083200,5.139083251953125,7.072803712534904,-1.075698629264906,-1.307203419046104
1761838762414152200,5.149152099609375,5.965397181907296,-1.3333829854413866,-0.8160843279391526
1761838762424222200,5.15922216796875,4.8822705215334885,-1.456989929757267,-0.2581156602658331
1761838762434292200,5.169292236328125,3.5019577348738906,-1.3208647185213862,0.6776778738982975
1761838762444361200,5.179361328125,1.3441554316073656,-1.4805352021262048,1.934663263835758
1761838762454431200,5.18943115234375,-0.44335751523971556,-1.8792127409011123,3.303287512397766
1761838762464500200,5.199500244140625,-2.781893402275443,-1.4015283009067177,4.261131258067488
1761838762474570200,5.2095703125,-6.554375466480851,-0.6044485331669449,5.327366989395022
1761838762484640000,5.219639892578125,-11.05916818139553,-0.3425603686250746,6.289371946397424
1761838762494709200,5.229709228515625,-15.58850321689248,0.1593134868606925,6.744519852674007
1761838762504779300,5.239779296875,-19.509777666205167,1.1982676819004117,6.59837184459567
1761838762514849300,5.249849365234375,-21.653187871503828,2.362344194255024,5.443930591070652
1761838762524918300,5.259918212890625,-22.21878761857748,3.4643291382253167,4.056519370582699
1761838762534988300,5.26998828125,-22.624565052485465,2.6153181077182293,3.695121176627278
1761838762545058300,5.280058349609375,-22.799393211603164,0.6261335646219551,3.919243528006971
1761838762555127000,5.290126953125,-22.905416130042074,0.19527057010047136,3.4685955634981394
1761838762565197300,5.300197265625,-23.329164104926583,0.7186043430484831,2.6753596117049456
1761838762575267300,5.310267333984375,-24.111490540170667,1.4530965755805372,2.217333519643545
1761838762585336300,5.32033642578125,-24.384682042884826,2.4119760940387844,1.6131624882437288
1761838762595406300,5.33040625,-23.459421300911902,3.753745799553394,0.4539195335254073
1761838762605476000,5.34047607421875,-21.072993781888485,5.50876049837768,-1.3406453776597975
1761838762615545300,5.35054541015625,-17.83846241033077,6.920285000380873,-3.5663019044905897
1761838762625615000,5.360614990234375,-15.70674264282584,7.192983751142025,-4.869255264876783
1761838762635685000,5.37068505859375,-13.757805208313464,6.448882124873996,-5.103083017712831
1761838762645754400,5.38075439453125,-11.38013382719755,5.414145109137892,-5.117883111959696
1761838762655824100,5.39082421875,-8.828616868260502,4.412079652164876,-5.057222599291801
1761838762665893400,5.400893310546875,-6.496172283837199,4.095300352136791,-4.808493922182917
1761838762675963100,5.410963134765625,-4.144057953304052,4.279074618776142,-4.545842810444533
1761838762686033200,5.421033203125,-1.818423633417487,4.498298676720261,-4.036600325886905
1761838762696102100,5.43110205078125,-0.06725391958355903,4.219532588744164,-2.99658916914016
1761838762706172200,5.441172119140625,1.5839052679687737,4.250253597961366,-1.763994562485069
1761838762716242400,5.451242431640625,3.6962785299688576,5.294034628635645,-0.8112439752358943
1761838762726311200,5.461311279296875,5.62884935157001,6.432009900528192,0.13072466736659408
1761838762736381200,5.471381103515625,7.194762451252341,6.932552945801615,1.190909647287801
1761838762746451200,5.481451171875,8.59874019113779,7.365162272533774,2.0990105070799587
1761838762756520200,5.491520263671875,10.334959588599204,7.240323009943961,2.8119956950724125
1761838762766590200,5.501590087890625,12.13179156793356,7.184717442578077,3.0375846118733283
1761838762776660200,5.51166015625,14.279964457589386,7.262367083969711,2.2389665286503733
1761838762786729200,5.521729248046875,16.075132887625692,6.705683049279451,0.840900350896269
1761838762796799200,5.53179931640625,17.30591386898756,3.9787709449917075,-0.5031998799251393
1761838762806869200,5.541869140625,17.71279955639839,2.8374472394540904,-2.228868182353675
1761838762816938200,5.551938232421875,18.161228383553027,3.905288652412593,-4.594526761853695
1761838762827008300,5.56200830078125,18.518829523313045,5.449806205105781,-5.2175364953666925
1761838762837077200,5.5720771484375,18.64625529526472,6.900630451840162,-3.9291774775221944
1761838762847147300,5.582147216796875,18.627782065463066,6.7856678556203835,-1.5361583051487802
1761838762857217300,5.59221728515625,17.93973082771897,6.127875562539696,0.757676051177457
1761838762867286300,5.602286376953125,16.859032855796812,6.082841073548793,2.1710445005469023
1761838762877356300,5.612356201171875,15.764377670192717,6.149292444577813,2.706082374487817
1761838762887426000,5.622426025390625,14.495228671991825,5.7920180525541305,2.46748696885854
1761838762897495300,5.632495361328125,13.634495639508962,5.188031583940982,1.7957794015415012
1761838762907565000,5.64256494140625,13.170907821667194,4.155211800003052,1.1346280803564934
1761838762917635300,5.65263525390625,12.504799535661935,3.870827287623286,0.13143340015783905
1761838762927704300,5.662704345703125,12.147312962192297,4.6680701369702815,-1.1988880788210778
1761838762937774000,5.672774169921875,12.115177117741107,5.47030597229898,-1.9939938430741428
1761838762947844400,5.68284423828125,12.052488314116001,5.21228047453463,-2.1098327837370334
1761838762957913000,5.6929130859375,12.057335169625281,4.163275279471278,-1.6191105829931796
1761838762967983400,5.7029833984375,12.00157411943674,3.3486768061757086,-0.9454147644683718
1761838762978052000,5.713052001953125,11.4670265132308,3.1512025154858825,-0.5413119492417201
1761838762988122000,5.7231220703125,10.874648649346828,3.047546326178312,-0.2764720222221687
1761838762998192400,5.7331923828125,10.405178203207253,2.9776708259195086,0.059531106779165566
1761838763008261000,5.74326123046875,9.74307155405879,3.1670255230396984,0.2943265356035903
1761838763018331400,5.753331298828125,8.186344800394773,2.9316020254448056,0.6582127104498445
1761838763028401200,5.763401123046875,6.847597365310787,2.3712463165044784,0.7469812733575701
1761838763038470100,5.77347021484375,5.78729979186058,3.051338119676709,0.6945891150802374
1761838763048540200,5.7835400390625,4.8086856453627345,3.1378292391717433,1.1508000474784523
1761838763058610200,5.793610107421875,3.5114655679315327,2.019997176119685,1.604192561455071
1761838763068679400,5.803679443359375,1.8283312794476747,0.7454618087053299,2.5353739256486296
1761838763078749200,5.813749267578125,0.10872633217871189,0.47684068264663215,3.1352479905068873
1761838763088819200,5.823819091796875,-1.817800533083081,1.1595295165747403,3.6586633773237462
1761838763098888200,5.83388818359375,-3.8421032974421974,1.3193264030382037,4.80357487822026
1761838763108958200,5.843958251953125,-5.175444489568472,0.44557782163769005,6.055046473172307
1761838763119028000,5.854028076171875,-6.213853471815586,-1.5398811250641942,7.185908698189258
1761838763129097700,5.86409765625,-7.661597288191318,-4.221793227152526,7.260425886774063
1761838763139167700,5.874167724609375,-9.418010163375735,-4.700945693872868,3.513966152575612
1761838763149236700,5.88423681640625,-9.13189137454927,-5.120098449921608,-2.0503145729720593
1761838763159306800,5.894306640625,-10.178892244052886,-3.6160926480978723,-8.876005226901173
1761838763169376800,5.904376708984375,-12.525852845084666,-1.006542748517543,-11.695268282628058
1761838763179445800,5.91444580078125,-13.02775724183917,1.1449597239524125,-10.520971989554166
1761838763189515800,5.924515869140625,-11.736627882498501,2.626575414791703,-8.839916260910034
1761838763199585800,5.934585693359375,-10.627020626956224,1.3864407680206,-5.5567514990866185
1761838763209654800,5.94465478515625,-8.898131718513369,0.3403432770974934,-2.5067700547158718
1761838763219724800,5.954724853515625,-6.963911960661411,0.08082125716507435,-0.39601540689356624
1761838763229794800,5.964794921875,-6.830930892670154,-0.4630843983642757,1.5476000288784504
1761838763239863800,5.97486376953125,-8.51945973367393,-0.7362173758242279,3.4323967073917387
1761838763249933800,5.984933837890625,-11.20079783526659,-0.045897973952442404,4.307679366491735
1761838763260002800,5.9950029296875,-13.605868095439671,0.5758974883999676,4.157036677342653
1761838763270072600,6.005072509765625,-14.310705632811784,1.0053587263647465,2.8053578644931316
1761838763280142800,6.015142822265625,-13.67607034343481,1.6522029975168406,0.2857844423055649
1761838763290211600,6.025211669921875,-12.495399254631996,1.1897932104784994,-2.73068577760756
1761838763300281900,6.03528173828125,-11.290219162994623,-0.2877094190187752,-5.2268274708032605
1761838763310352000,6.045351806640625,-10.57960070413351,-2.2968303963370618,-7.190147650933265
1761838763320420900,6.0554208984375,-11.369682575809955,-1.587274744401872,-7.340130122607946
1761838763330491000,6.065490966796875,-12.305076589262486,0.3736426123701036,-6.09769260572195
1761838763340560600,6.075560546875,-11.44307982045412,0.1768308772422373,-4.697625609539449
1761838763350630000,6.0856298828125,-9.510363452902435,0.7105291731424629,-3.557834228135645
1761838763360700000,6.095699951171875,-7.025638641256093,1.1852499410256743,-2.6416990419045088
1761838763370769000,6.105768798828125,-4.4890889498263595,0.9466435756109655,-1.7967255963504314
1761838763380839000,6.1158388671875,-2.129342516979575,0.8334202242739498,-1.1272981027945876
1761838763390908700,6.12590869140625,0.05548866298794746,0.8636307997509837,-0.6817071294143796
1761838763400978000,6.13597802734375,2.041374310669303,0.8057411400359124,-0.4172479818733409
1761838763411047700,6.146047607421875,3.593345978760719,0.8415454438667744,-0.13928736506123096
1761838763421117700,6.15611767578125,4.81315197712183,0.9185369866758585,0.1142249661276117
1761838763431186700,6.166186767578125,5.835764839822054,0.9976519513797014,0.3247641978347674
1761838763441256700,6.176256591796875,6.615685382968187,1.1040985751233994,0.5797195309061557
1761838763451326700,6.18632666015625,7.071814701497554,1.224689971010387,0.8112656025458127
1761838763461395700,6.196395751953125,7.345019063693284,1.3544465239971875,0.985617449388653
1761838763471465700,6.2064658203125,7.336592011609673,1.4743439462706445,1.1558651488482952
1761838763481534700,6.21653466796875,7.240825698769092,1.4712015565916896,1.2993038979679346
1761838763491604700,6.226604736328125,7.28087129343152,1.4593489139735698,1.3301301211252807
1761838763501675000,6.236675048828125,7.383788647070527,1.4966051701784133,1.1917384262621402
1761838763511743700,6.24674365234375,7.3974717199862,1.4669722484588623,1.0253617230169474
1761838763521813800,6.256813720703125,7.426132581803202,1.3835748571954667,0.9696083446782082
1761838763531883800,6.2668837890625,7.2935174245148895,1.3719883181676267,0.8800073495343327
1761838763541952800,6.276952880859375,7.014750167495012,1.4511075937204063,0.632407530324906
1761838763552022800,6.287022705078125,6.501069408228993,1.62010748507604,0.2537788549042307
1761838763562091800,6.297091796875,5.956724630630016,1.8283610900640486,-0.18000610974486916
1761838763572161800,6.307161865234375,5.539154467597603,2.035620277187228,-0.8115239612210542
1761838763582231800,6.317231689453125,5.101430574330688,2.207463867536187,-1.5891384924471377
1761838763592300800,6.32730078125,4.444788035807013,2.204693233779073,-2.198631449522078
1761838763602370800,6.337370849609375,3.4506361284375187,1.9740762596830725,-2.5400235050201414
1761838763612440800,6.34744091796875,2.113016820600629,1.8864204803228377,-2.6705349680274724
1761838763622509800,6.357509765625,1.0127759438186883,2.046238117313385,-2.6227161090150473
1761838763632579800,6.367579833984375,0.06461304968595505,2.0564691500790415,-2.274084896043688
1761838763642649900,6.37764990234375,-0.93069387293756,1.6487091640517115,-1.654730324037373
1761838763652718800,6.38771875,-1.7562240746140478,0.9799644651282579,-0.9390314931720495
1761838763662788900,6.397788818359375,-2.3987059858381747,0.40389695392362773,-0.3343890814008191
1761838763672857900,6.40785791015625,-2.756681804129481,-0.060153805254772305,0.10213836862314492
1761838763682927900,6.417927978515625,-3.1947686854898927,-0.6213381470389664,0.3188755416549742
1761838763692997600,6.42799755859375,-3.809803786861896,-1.202779094910249,0.22473783466322347
1761838763703067000,6.43806689453125,-4.087971908944845,-1.6830910338640213,-0.31401045636925845
1761838763713136600,6.44813671875,-4.1723002974480385,-2.019259655625373,-0.9853162744849919
1761838763723206700,6.45820654296875,-4.283828827565908,-2.280169768915325,-1.6263441875085234
1761838763733276000,6.46827587890625,-4.269105890208483,-2.370822245873511,-2.153145417371392
1761838763743345700,6.478345703125,-4.094831857842207,-2.31232767906785,-2.4112438342414797
1761838763753416000,6.488416015625,-3.8203468081861733,-2.0994931760303674,-2.3258391948089003
1761838763763484700,6.498484619140625,-3.5878280921220775,-1.731093871141225,-1.9550909887060521
1761838763773554700,6.5085546875,-3.3628409406065938,-1.3325997261092066,-1.4443451138481498
1761838763783623700,6.518623779296875,-3.0350726290524004,-0.8514258365638554,-0.9844728824634105
1761838763793693700,6.528693603515625,-2.753312619957328,-0.3471319143243134,-0.5768524875698611
1761838763803764000,6.538763916015625,-2.390029342907667,-0.045029885881021615,-0.20331826747767626
1761838763813832700,6.548832763671875,-1.9247797293335198,0.1689686924997717,0.1336713335440494
1761838763823902700,6.55890283203125,-1.4744249025523661,0.37159912384375926,0.4589976770399138
1761838763833972700,6.56897265625,-1.020260746616125,0.50981341631338,0.7790010902136564
1761838763844041700,6.579041748046875,-0.642940176385641,0.6053123103894293,1.0946524091251193
1761838763854111700,6.58911181640625,-0.2635007143050432,0.6877632876481861,1.3493880715638398
1761838763864180700,6.5991806640625,0.22313830877840518,0.7978707719869911,1.4949471738383173
1761838763874251000,6.6092509765625,0.6328653570950031,0.8186299207687378,1.580478800651431
1761838763884320800,6.61932080078125,0.9437631978690624,0.7059736287299543,1.660472374820709
1761838763894389800,6.6293896484375,1.253088090237975,0.5658709286978468,1.670926987209171
1761838763904459800,6.639459716796875,1.5978671578258274,0.4314605220232159,1.564921896687895
1761838763914529800,6.64952978515625,1.9503344418287276,0.20463314946852623,1.391951640396565
1761838763924598800,6.659598876953125,2.221552014121413,0.005282283217902295,1.158160054852441
1761838763934668800,6.669668701171875,2.4081401691377162,-0.0842115754568018,0.8974131693001836
1761838763944737800,6.67973779296875,2.5702964782088995,-0.11603491075956263,0.5795237526057287
1761838763954807800,6.689807861328125,2.6728175260066984,-0.11270400363802908,0.24365754785705357
1761838763964877800,6.6998779296875,2.7406524603486058,-0.0450758347814437,-0.14781298214849084
1761838763974946800,6.70994677734375,2.7206770092904566,-0.02262567330598831,-0.49332894917614756
1761838763985016800,6.720016845703125,2.5567227108865973,-0.09479095586924813,-0.714503337470442
1761838763995086600,6.730086669921875,2.5043589019209147,-0.23188443674854933,-0.950017289827764
1761838764005155800,6.74015576171875,2.5444395678967235,-0.27949871309958396,-1.180996448299661
1761838764015225900,6.750225830078125,2.4799177036255595,-0.26250048775393514,-1.354521196668595
1761838764025294800,6.760294921875,2.3459786042571067,-0.28289348837072026,-1.4827496633052826
1761838764035364900,6.77036474609375,2.142832113149762,-0.3200570430571213,-1.5254760214842855
1761838764045434600,6.7804345703125,1.9542326183110474,-0.3050159065959975,-1.5171772719554601
1761838764055504000,6.79050390625,1.7838859885215759,-0.3716925012156367,-1.4646547652967272
1761838764065573600,6.80057373046875,1.7610984026521443,-0.5254879553072154,-1.3366092540115118
1761838764075644000,6.810643798828125,1.8924983389317989,-0.5499526075433939,-1.2286461612902582
1761838764085712600,6.820712646484375,2.1758394797384737,-0.6081227647002786,-1.170972847739607
1761838764095782700,6.83078271484375,2.357449261820316,-0.6710645932383835,-1.0421233996603638
1761838764105852000,6.840851806640625,2.493677348908782,-0.6561092353645712,-0.8003223298575729
1761838764115921700,6.850921630859375,2.7269080126345155,-0.6643189183704554,-0.6146336809642613
1761838764125991700,6.86099169921875,2.9387317311942573,-0.7046051899209618,-0.4718128445472568
1761838764136060700,6.871060791015625,3.21469152957797,-0.6884503200642764,-0.3888575710281729
1761838764146130700,6.881130615234375,3.580416354560852,-0.6597961802490055,-0.3729110101599246
1761838764156200700,6.89120068359375,3.655581193399429,-0.5897901854783296,-0.20921441284418105
1761838764166269400,6.90126953125,3.531364446622133,-0.6007869419194758,-0.07299231710508465
1761838764176339700,6.911339599609375,3.5054829863905903,-0.6758011202409863,-0.11797748706154525
1761838764186408700,6.92140869140625,3.4846073716223236,-0.7351175248235464,-0.12903832171484828
1761838764196478700,6.931478759765625,3.434440195918083,-0.8555719964578747,-0.11779248588345945
1761838764206548700,6.941548828125,3.4569057102262972,-1.0585536523923278,-0.1684798860695213
1761838764216617500,6.951617431640625,3.5442210055857895,-1.3735086596027015,-0.3164762984935194
1761838764226687700,6.961687744140625,3.8297009119868277,-1.430498667064309,-0.36781112973764535
1761838764236757800,6.9717578125,4.454405174458026,-1.5939020535871387,-0.238176668760553
1761838764246826800,6.98182666015625,4.955309454259276,-2.0838319349095222,-0.15383257123157382
1761838764256896800,6.991896728515625,4.820258594256639,-2.2799719082556664,0.4415943780247122
1761838764266965500,7.001965576171875,4.1092052511096,-2.577018479940295,1.5650468382418155
1761838764277035800,7.012035888671875,3.1998306450545786,-3.306554697500169,2.598425425106287
1761838764287105500,7.02210546875,1.6300439188092946,-3.633725335422158,3.1767975599914786
1761838764297174800,7.0321748046875,-0.3869751182824373,-3.03302212626338,3.104266576787829
1761838764307244500,7.04224462890625,-2.7695044608235357,-1.4274607606731355,2.4195865690425036
1761838764317314600,7.052314453125,-6.236232476884126,-0.3499463872231543,1.9761248627759516
1761838764327383800,7.0623837890625,-10.390421363580227,0.17280469046607613,1.6724271626390517
1761838764337453600,7.07245361328125,-14.178637588012217,1.270777037794143,1.1871723604556172
1761838764347522800,7.082522705078125,-17.593933522999286,2.2647087265416976,1.2517571338951587
1761838764357592600,7.092592529296875,-20.629998670220374,2.466594988454878,1.7704978068992494
1761838764367662600,7.10266259765625,-22.563940780174732,3.217979465207457,1.9125147065222263
1761838764377731600,7.112731689453125,-23.56897239347696,4.520598479072749,1.448847247572988
1761838764387801600,7.122801513671875,-24.25551673378944,5.531694799241423,0.8698780235774815
1761838764397870600,7.13287060546875,-24.766356132149696,5.864851818096637,0.5118468949023633
1761838764407940600,7.142940673828125,-24.78844638340473,5.47677604509592,0.4518651582788676
1761838764418010600,7.1530107421875,-24.538233605217933,5.3683291143804786,-0.10227993251830339
1761838764428079600,7.16307958984375,-23.625191708827018,6.148712014341354,-1.2881947671934961
1761838764438149600,7.173149658203125,-22.112727290737627,6.659248045840859,-2.323451861280948
1761838764448219600,7.1832197265625,-20.189442183876036,6.733039258238673,-2.7228163594067096
1761838764458288600,7.19328857421875,-18.094209441769124,6.630368572837114,-2.577626090444624
1761838764468358700,7.203358642578125,-15.899203489267824,6.294481836757064,-2.0214054354824125
1761838764478427600,7.213427734375,-13.49717858814001,6.136195062595606,-1.576010423065722
1761838764488497700,7.22349755859375,-10.881251408612728,6.053016428649425,-1.2405991955429314
1761838764498567700,7.233567626953125,-8.359033024874329,5.8133174456924195,-0.7831966422073543
1761838764508636700,7.24363671875,-6.114427467423677,5.372361730897426,-0.10837824939340353
1761838764518706700,7.253706787109375,-4.037001015642285,4.8827913305371995,0.3713995096184313
1761838764528776700,7.263776611328125,-1.6456652663111686,4.445350930386781,0.3583618949994445
1761838764538845400,7.273845458984375,0.9720043729692697,3.9051615189015862,-0.4351863376133144
1761838764548915700,7.283915771484375,3.682726389956474,3.7584821804255246,-1.8717435740642248
1761838764558984700,7.293984619140625,6.058276541134715,3.517987370915711,-3.5126784508526323
1761838764569054700,7.3040546875,7.682839398184418,2.982183919429779,-5.209382415005565
1761838764579124700,7.314124755859375,9.128331636241079,2.6577783623069524,-6.570682458159327
1761838764589193500,7.324193359375,10.474083981651066,2.9322116817757484,-7.388835409066081
1761838764599263700,7.334263671875,11.323019024312496,4.05470852176845,-7.39021663429141
1761838764609332500,7.34433251953125,11.443351038610935,5.377566313803196,-6.704513420978188
1761838764619402800,7.35440283203125,11.566065564131737,5.925034191858768,-5.742340121671557
1761838764629472800,7.36447265625,12.312825011432171,6.273072553503513,-4.329877754296362
1761838764639541500,7.37454150390625,13.22145493659973,7.311148358273506,-3.010787790362537
1761838764649611800,7.38461181640625,13.830676383256911,7.775772533425688,-1.868375997327268
1761838764659681500,7.394681640625,14.150388814127444,7.2654282251060005,-0.8687748846411705
1761838764669750800,7.404750732421875,14.338176992583273,6.796511321195959,-0.28310747818127274
1761838764679820500,7.414820556640625,14.525218152064085,6.672212741354107,-0.019906623605638742
1761838764689889800,7.424889892578125,14.790361957401036,6.568805558371544,0.1293503102734685
1761838764699959800,7.434959716796875,15.105471862912177,6.45196898497343,0.11108750835210084
1761838764710029600,7.445029541015625,15.272822818017005,6.456296785044669,-0.20021599061340092
1761838764720098800,7.455098876953125,15.322030208778381,6.745955438435077,-0.5928124559089542
1761838764730168600,7.46516845703125,14.933241319072245,7.065969482600688,-0.9429190021298826
1761838764740237800,7.47523779296875,14.13176360863447,7.059508762153983,-1.0774537293039261
1761838764750307600,7.4853076171875,13.049750462460517,6.995156993752717,-0.9891099676795303
1761838764760377600,7.495377685546875,11.94346212220788,7.101946220389008,-1.0042083142206073
1761838764770446600,7.505446533203125,10.979597216552495,7.078492864087224,-1.0575069198183715
1761838764780516600,7.5155166015625,10.312081401836872,6.762603206375241,-1.0502784298695624
1761838764790586600,7.525586669921875,10.02092169623375,6.329992126077413,-1.0342977475360036
1761838764800655600,7.535655517578125,9.82692238817811,5.868254320016503,-0.9596439269594847
1761838764810725600,7.5457255859375,9.668103114575148,5.307028550243377,-0.5993265139780938
1761838764820794600,7.555794677734375,9.458725035601853,4.872832246580719,-0.10738397765904664
1761838764830864600,7.56586474609375,9.102128688970208,4.765866494333744,0.24241934783160685
1761838764840934700,7.5759345703125,8.692599793574214,4.771645077735186,0.39152605958506465
1761838764851003600,7.586003662109375,8.19271141281724,4.793653495925665,0.5631202782828361
1761838764861073700,7.59607373046875,7.747669890013337,4.728543602633476,0.7729900862958282
1761838764871142700,7.606142578125,7.47908383526802,4.824139235082268,0.8518118402067572
1761838764881212700,7.616212646484375,7.356766200110316,5.0643613651305435,0.8123513519559055
1761838764891282400,7.626282470703125,7.221542321628331,5.000256264966726,0.9425782989334315
1761838764901351700,7.6363515625,6.9977440876364705,4.6256244954288,1.2954111283130942
1761838764911421400,7.64642138671875,6.848402251952886,3.951822732311487,1.9145166939944027
1761838764921490700,7.65649072265625,6.513180701783299,3.0351188062816856,2.701584186285734
1761838764931560700,7.666560791015625,5.7300914654731745,2.2546222168132664,3.0527488632574675
1761838764941630700,7.676630615234375,4.728993684488534,1.6227756813719867,3.1729689416140316
1761838764951699700,7.68669970703125,2.916177954080701,0.376224007165432,3.6309079399138686
1761838764961769500,7.69676953125,0.4925146371185779,-1.7525395408824085,4.263366177512705
1761838764971839700,7.70683984375,-2.197614673694968,-4.689936516341567,5.022150701388717
1761838764981908500,7.716908447265625,-3.907510127854347,-7.91385472394824,5.750851929429174
1761838764991978800,7.726978759765625,-6.323296427831053,-8.503900345492362,3.855091958352923
1761838765002047500,7.737047607421875,-9.619611178606748,-7.285853758019209,-0.07620634724814444
1761838765012117500,7.747117431640625,-13.684848693174123,-5.475521661120653,-5.5776955029159785
1761838765022187800,7.757187744140625,-16.51248151783943,-1.1241713490761815,-12.195269476109742
1761838765032256500,7.767256591796875,-15.552403144985437,1.279137746643275,-15.622611238199472
1761838765042326800,7.777326904296875,-16.31363886140585,0.06397913569658994,-12.747358584225177
1761838765052395500,7.7873955078125,-16.691200254654884,-2.1504520866341887,-8.541869718402623
1761838765062465800,7.7974658203125,-14.403127895921468,-2.2638426112316545,-5.56221093353629
1761838765072535800,7.807535888671875,-12.734248927283286,-1.7885598255515098,-3.0642449475228783
1761838765082604500,7.8176044921875,-11.913778931605815,-1.0575579193532467,-1.1066522051289678
1761838765092674800,7.8276748046875,-11.939193943369387,0.022036767502129077,0.13577625166773796
1761838765102743600,7.83774365234375,-12.423075192177295,0.8881339573666452,1.0989107972219585
1761838765112813800,7.847813720703125,-12.767552646470069,1.258763213264942,1.693768495222926
1761838765122883300,7.85788330078125,-12.752546800518035,1.4182237073808908,1.6396689485058187
1761838765132952600,7.86795263671875,-12.69304597927928,1.3945418030202388,1.16778267339617
1761838765143022300,7.878022216796875,-12.278569690608977,1.3673638732373714,0.32674393694251774
1761838765153091300,7.88809130859375,-11.167454368591308,1.4085589301958679,-0.7464053001005202
1761838765163161300,7.898161376953125,-9.631333765104413,1.1396676088936626,-1.800340571977198
1761838765173231400,7.9082314453125,-7.6011781830638645,0.5072799523130059,-2.7628391577154394
1761838765183300400,7.91830029296875,-5.312309120994806,0.013591513041546568,-3.2854607638061046
1761838765193370400,7.928370361328125,-3.231286690548062,-0.4019187491858378,-3.30922011731714
1761838765203439400,7.938439453125,-1.4570897368699312,-0.8393111820086836,-3.148113317298889
1761838765213509400,7.94850927734375,-0.1742600038409233,-0.8876272499535233,-2.996764817968011
1761838765223579400,7.958579345703125,0.69070496712327,-0.43736799250133335,-2.808374289704859
1761838765233648400,7.9686484375,1.2695166624695062,0.2597784423789009,-2.613222596743703
1761838765243718400,7.978718505859375,1.829070699638128,0.7202727146521211,-2.3093029244191943
1761838765253788400,7.988788330078125,2.337875961822271,0.9509342585422098,-1.855420800294727
1761838765263857400,7.998857421875,2.755126391381025,1.0920960757058114,-1.3095963055320083
1761838765273927400,8.008927490234376,3.161048786717653,1.0932042561434208,-0.7559268694225698
1761838765283996400,8.018996337890625,3.1604981670975683,1.176333644120395,-0.8244212905865163
1761838765294065400,8.0290654296875,3.6033114924579857,1.0806308249700813,-0.2996902180612087
1761838765304135400,8.039135498046875,3.926040056279301,0.9570759761676192,0.17056421806290745
1761838765314204400,8.049204345703124,3.8559003521263597,0.8917805702406912,0.6276338861823082
1761838765324274200,8.059274169921874,3.9578462303847073,0.8945655978493392,0.8098067089743912
1761838765334344400,8.069344482421876,4.278009912154078,0.8671114084083587,0.9380625750746577
1761838765344413200,8.0794130859375,4.365031193003058,0.7513904681019484,1.0486015096332877
1761838765354483500,8.0894833984375,4.352802410548925,0.6023533144533634,1.0295232266105712
1761838765364552200,8.09955224609375,4.090503473249077,0.5295268554344773,1.0190531243920327
1761838765374622500,8.10962255859375,3.540717965900898,0.38290976853966713,0.9489082326073199
1761838765384692500,8.1196923828125,3.1378678176164625,0.28688436637148257,0.7964693807564676
1761838765394761200,8.12976123046875,2.639036252436042,0.2866061339519918,0.701080595991388
1761838765404831500,8.13983154296875,2.1517536707520484,0.1619296607084572,0.6115233303913846
1761838765414901200,8.1499013671875,1.837562633651495,0.05813903136625886,0.36544418141059576
1761838765424970500,8.159970458984375,1.6707178745031357,0.17569851221144198,-0.10194670024225487
1761838765435040500,8.17004052734375,1.4881845478355884,0.37955285932719707,-0.5876701245844363
1761838765445109200,8.180109130859375,1.0301087714135646,0.5489437958270311,-0.9833508196309209
1761838765455179500,8.190179443359375,0.6543781007230282,0.7350856683805584,-1.3172434592843054
1761838765465249300,8.200249267578124,0.4878454762637615,0.8482100893877447,-1.4957511836975812
1761838765475318500,8.210318603515624,0.3961170406371355,0.842378460624814,-1.5530496725864706
1761838765485388300,8.22038818359375,0.613249386999011,0.7437341081298887,-1.4723916431590913
1761838765495457500,8.23045751953125,0.8715829277992247,0.6178583420991898,-1.2109826404362916
1761838765505527300,8.24052734375,0.6796452284485102,0.4325700176350772,-0.7812079526081681
1761838765515597300,8.250597412109375,0.42711891262233254,0.12914952700436114,-0.3293670885203406
1761838765525666600,8.26066650390625,0.19596856230199336,-0.016785130584239957,0.12029352718526497
1761838765535736300,8.270736328125,-0.16889117028415201,-0.11663418269380926,0.6112520026367158
1761838765545805600,8.2808056640625,-0.5110013109236955,-0.3064844082459807,0.9536769813790917
1761838765555875300,8.290875244140626,-0.8386158932209015,-0.36306846525520087,1.081256628718227
1761838765565945300,8.3009453125,-1.122474335899949,-0.22924451669901608,1.1032727918237446
1761838765576014300,8.311014404296875,-1.3786913229376077,-0.06684519265219568,1.036692387587577
1761838765586084400,8.32108447265625,-1.4209569317370652,0.11541720811948179,0.8402122955668717
1761838765596153300,8.3311533203125,-1.3428314895272253,0.3401056689493358,0.5763944050714374
1761838765606223400,8.341223388671875,-1.3406921394109725,0.419130251955986,0.4148280612500384
1761838765616293400,8.35129345703125,-1.2491057426035403,0.3562625846326351,0.2556342369799502
1761838765626362400,8.3613623046875,-0.9250526521801948,0.30157018658891316,0.0666056482752785
1761838765636432400,8.371432373046876,-0.588610620304942,0.19138927168771624,-0.2043263850742951
1761838765646501400,8.38150146484375,-0.32709786494672294,0.04032894164845347,-0.5484223292361945
1761838765656571400,8.3915712890625,-0.08054419378936291,-0.07726400307491421,-0.8768614527240395
1761838765666641400,8.401641357421875,0.20917817248702048,-0.16942381585612892,-1.1844691659115254
1761838765676710400,8.41171044921875,0.32450609488785265,-0.3475907640077173,-1.3341875798225402
1761838765686780400,8.421780517578124,0.4222703035473823,-0.49729237291440365,-1.4337309269838034
1761838765696849400,8.431849365234376,0.5941770222604275,-0.5737276700802147,-1.4424438102714716
1761838765706919400,8.44191943359375,0.7474006678134203,-0.6514760956712067,-1.3326977796562016
1761838765716989200,8.4519892578125,0.9079425274252891,-0.7222812779955565,-1.1538280169975013
1761838765727058400,8.462058349609375,0.9813953016489744,-0.6966483856976032,-0.9464442536465824
1761838765737128200,8.472128173828125,1.0144313098102808,-0.6423161992684007,-0.6854566912062465
1761838765747197400,8.482197509765625,0.9898381358236074,-0.6296639307051897,-0.3801796859886497
1761838765757267500,8.492267333984374,0.9867121127575635,-0.587469341315329,-0.12088612278355285
1761838765767337200,8.502337158203124,1.0090016859769821,-0.5200266211614012,0.09544701775833964
1761838765777406500,8.512406494140626,1.0259177494645118,-0.47714375724643465,0.28558727576564996
1761838765787476200,8.522476318359375,1.0139490792512893,-0.4199234481602907,0.42732966929618266
1761838765797545500,8.53254541015625,0.958398456943035,-0.32567133927494285,0.5065758226316422
1761838765807615200,8.542615234375,0.8825129026144742,-0.22834990594685076,0.5778694095274434
1761838765817685200,8.552685302734375,0.8061117999792099,-0.12985299909859896,0.6056838836481795
1761838765827754200,8.562754150390624,0.7645774280637502,-0.03536825050115585,0.6200117207407951
1761838765837824300,8.57282421875,0.7023480586439371,-0.013977964209020137,0.6458074023850262
1761838765847893500,8.5828935546875,0.6760112558603286,-0.03391191421300173,0.6690138712536543
1761838765857963300,8.59296337890625,0.6296966639310121,-0.04347673815488815,0.7093954198721796
1761838765868033500,8.603033447265625,0.5283727169632911,-0.061713821113109586,0.7877966833487152
1761838765878104600,8.6131044921875,0.26593583249747754,0.03958236106485128,0.9173545719582586
1761838765888174300,8.62317431640625,0.10029752652943134,0.11519348236620426,0.9360743238668888
1761838765898243300,8.633243408203125,-0.0978852046906948,0.1729725943788886,0.9538821485623716
1761838765908313300,8.643313232421875,-0.2552659699231386,0.1874079469665885,0.9444108481228352
1761838765918383400,8.65338330078125,-0.3663531860142946,0.20101532429754732,0.9333560048189014
1761838765928452400,8.663452392578124,-0.5081827463716269,0.2164119231328368,0.9079042412415146
1761838765938522400,8.6735224609375,-0.6193079563856124,0.21445874323844907,0.8337576395347714
1761838765948591400,8.68359130859375,-0.6567968523025512,0.19999811007902024,0.7371588213928043
1761838765958661400,8.693661376953125,-0.6628554216891527,0.1636272584065795,0.6083077293457463
1761838765968731400,8.7037314453125,-0.6575117225736379,0.08710559813156724,0.44411469028256834
1761838765978800400,8.71380029296875,-0.5643558844923973,0.019658494063466786,0.2694872413687408
1761838765988870400,8.723870361328125,-0.46391398105621334,-0.07304141694381833,0.11045896465759723
1761838765998939400,8.733939453125,-0.3729454238861799,-0.19904256291985511,-0.042738267812505365
1761838766009009400,8.744009521484376,-0.24519173515439033,-0.32118411085829135,-0.1496793605422601
1761838766019079400,8.754079345703126,-0.21500585572719572,-0.36416283636316654,-0.28324922473952174
1761838766029148400,8.7641484375,-0.26354279988110063,-0.3223128226272762,-0.4131447843382135
1761838766039218400,8.774218505859375,-0.2658066531598568,-0.22298969408795236,-0.653049628598243
1761838766049287400,8.784287353515625,-0.2528174077272415,-0.1292201080225408,-0.8486752226814627
1761838766059357400,8.794357421875,-0.41683600353896616,-0.1449111597597599,-0.8341009000144899
1761838766069427200,8.80442724609375,-0.657407093155384,-0.2717252295538783,-0.7331761084321886
1761838766079496400,8.814496337890626,-0.853219588112831,-0.3370058032378554,-0.6463631365716457
1761838766089566500,8.82456640625,-0.8421317923873662,-0.3089841161072254,-0.6151598967954516
1761838766099635500,8.834635498046875,-0.877654941189289,-0.04324906687885523,-0.7909430185504257
1761838766109705500,8.84470556640625,-0.6320867739379405,0.21141513775885104,-0.7938088563103228
1761838766119774500,8.8547744140625,-0.27999709107577797,0.029058482832461593,-0.7780936930451542
1761838766129843700,8.86484375,-0.15772212601602076,-0.26673691974729297,-0.5861887999854981
1761838766139913500,8.87491357421875,-0.1893400840729475,0.04181552694439888,-0.3178413763016462
1761838766149982700,8.884982666015626,-0.003416530445218086,0.4654502507127821,-0.23812488377438856
1761838766160052500,8.895052490234375,0.1660860497355461,0.3678619831420481,-0.1612705392125994
1761838766170122500,8.90512255859375,0.1638414856791496,0.06699775286540388,0.001817689546989277
1761838766180191700,8.915191650390625,0.032985739278793336,-0.06743585202172399,0.16973026972310618
1761838766190261500,8.925261474609375,-0.11584347070753574,-0.09687383569106459,0.24315717885317278
1761838766200330800,8.935330810546875,-0.037926118290424346,-0.037624504995346066,0.17130429584048687
1761838766210400500,8.945400390625,0.33772388837933537,0.17451880090758204,-0.021230061078991273
1761838766220470800,8.955470703125,0.5394540829479694,0.3489385253548622,-0.16765256839990614
1761838766230539500,8.96553955078125,0.5799409916371107,0.40921486101076004,-0.09491910316040739
1761838766240609500,8.975609619140625,0.4449719646990299,0.43553632009476423,0.08605541322520002
1761838766250678500,8.985678466796875,0.19771511370837688,0.4025309993326664,0.2966844786402769
1761838766260748500,8.99574853515625,0.12092705758213997,0.3947865226857364,0.4155200621021911
1761838766270818800,9.00581884765625,0.13340776897072792,0.38600145094469185,0.48186658451724795
1761838766280887600,9.015887451171874,0.05614274298250675,0.2779489263743162,0.45042014710232614
1761838766290957600,9.02595751953125,-0.1625783338755369,0.17736162311807274,0.26523829695368184
1761838766301026600,9.036026611328126,-0.23835867426395416,0.4413644417263567,0.2357996739635244
1761838766311096600,9.0460966796875,-0.19029460831880568,0.5322498506575822,0.3942648734318092
1761838766321166800,9.056166748046875,-0.3306850757837295,0.7177703764423727,0.4544887117154896
1761838766331235600,9.066235595703125,-0.4832061260253191,0.41767786119058725,0.46797465462386606
1761838766341305900,9.076305908203125,-0.5455325260788202,0.19239464933797715,0.32772819873951375
1761838766351374600,9.08637451171875,-0.4112795384556055,0.19421251241490245,0.20182510631047187
1761838766361444600,9.096444580078124,-0.5208019894480705,0.19794716889858244,0.1392840588592924
1761838766371514600,9.1065146484375,-0.5161182155460119,0.12636398793905973,0.11078129194714129
1761838766381583600,9.11658349609375,-0.3751449797570705,0.11524389737918972,0.023242343899607658
1761838766391653600,9.126653564453125,-0.2850152114987373,0.06329451443329454,0.01926056252075359
1761838766401722600,9.13672265625,-0.19939269153177738,0.014128478595614433,0.033644696377869696
1761838766411792600,9.146792724609375,-0.1460702666670084,-0.029381723437458276,-0.0444400850280188
1761838766421861600,9.156861572265624,-0.1609703141570091,-0.05583849933892488,-0.12349409505855291
1761838766431931600,9.166931640625,-0.12519289833307265,-0.05678951645344495,-0.2585832412449643
1761838766442001700,9.177001708984376,-0.11472878746390341,-0.024969167692214248,-0.4178624239772558
1761838766452070700,9.187070556640625,-0.17402210343182087,0.034683775368332864,-0.41592758345715697
1761838766462140700,9.197140625,-0.20665771409869194,0.06614698125496506,-0.32286278466023505
1761838766472210700,9.207210693359375,-0.20123685809373854,-0.05100888722538948,-0.3123941802790388
1761838766482279400,9.217279541015625,-0.2508142512112856,-0.16232465137541294,-0.30886154917348174
1761838766492349700,9.227349609375,-0.20790742189884184,-0.1740501604825258,-0.2738168315382674
1761838766502418700,9.237418701171874,-0.17711714683771132,-0.1566995049700141,-0.2478743618344888
1761838766512488700,9.24748876953125,-0.2014735894590616,-0.1392106100305915,-0.22215580054707823
1761838766522557700,9.2575576171875,-0.07341945647597313,-0.056011225557327265,-0.25178284051511435
1761838766532627500,9.26762744140625,0.1329500883311033,-0.013274784375727176,-0.32118732572868464
1761838766542697700,9.27769775390625,0.3250374252855778,0.0013657353952527046,-0.4022665762428194
1761838766552766500,9.287766357421875,0.4886942020475864,-0.010104629907011985,-0.45263468134664
1761838766562836700,9.297836669921875,0.4661299035400152,-0.0127639122441411,-0.3893794760104269
1761838766572905500,9.307905517578124,0.35698446916639803,-0.019657763411104676,-0.2321429415542632
1761838766582975700,9.317975830078124,0.3526958320617676,0.0460343136832118,-0.1885159082084894
1761838766593045800,9.328045654296876,0.1103852053016424,0.13503770826011896,-0.17337459930852053
1761838766603114500,9.338114501953125,0.14629296950697898,0.11221037490218877,0.011412351504713297
1761838766613184800,9.348184814453125,0.14277940842807293,0.1845598640590906,0.018975334104895592
1761838766623253500,9.35825341796875,0.170543613666296,0.13449556420743464,0.05942483339309692
1761838766633323800,9.36832373046875,0.3156599406093359,0.062035015891492365,0.0702139384329319
1761838766643393800,9.378393798828125,0.3705062140405178,0.07526800695210695,-0.028102205020934343
1761838766653462500,9.388462646484374,0.3110357879400253,0.09364449838101864,-0.13000029861479998
1761838766663532800,9.39853271484375,0.20226912375092504,0.16064648903012274,-0.1977146753169596
1761838766673601500,9.4086015625,0.08351356498897075,0.2549222710520029,-0.20316709550395606
1761838766683671800,9.418671875,0.001370119309425354,0.321185718293488,-0.1588503993935883
1761838766693741600,9.428741455078125,-0.04800210662484169,0.2698410232424736,-0.13577099097073078
1761838766703810800,9.438810791015625,-0.015798457634449006,0.12627426382899284,-0.1200746785365045
1761838766713880600,9.448880615234375,0.11788988184332846,0.046916357214748856,-0.13756167377978562
1761838766723949600,9.458949462890626,0.12088672557175159,-0.010008183795213699,-0.1294881113089621
1761838766734019800,9.469019775390626,0.01061725560426712,-0.06626227819770575,-0.06806728179305792
1761838766744089600,9.479089599609376,-0.016937690797448158,-0.04447539380341768,-0.13000950483456253
1761838766754158800,9.489158935546875,0.027706922093033787,0.08575418352261185,-0.2849494527861476
1761838766764228600,9.499228515625,-0.04187514817714691,0.23905893148779866,-0.37178207919523115
1761838766774297600,9.509297607421875,-0.1575368325769901,0.3274006472855806,-0.3646722471900284
1761838766784367600,9.51936767578125,-0.16216390785574913,0.35522067436426874,-0.3233871738605201
1761838766794437600,9.529437744140624,-0.15341887586414812,0.3484956038929522,-0.2986335486151278
1761838766804506600,9.539506591796876,-0.1033662664502859,0.2906540941685438,-0.24322598803937434
1761838766814576600,9.54957666015625,-0.09978139370083808,0.24806597541645167,-0.1859314446732402
1761838766824645600,9.559645751953125,-0.09014905748069285,0.2220589891090989,-0.12748188605308533
1761838766834715600,9.569715576171875,-0.08111877880692482,0.1845240620933473,-0.07233926002383231
1761838766844785700,9.57978564453125,-0.19024784656763075,0.16052286265045404,0.021388678856939077
1761838766854854700,9.589854736328125,-0.19884440999925135,0.13325228614807128,0.08254764256626367
1761838766864924700,9.599924560546874,-0.13617781820595265,0.11490969698876141,0.0901918737091124
1761838766874993700,9.60999365234375,-0.039105098941922184,0.12388707643151282,0.0011861410446465015
1761838766885063700,9.620063720703126,0.09718202485740184,0.08357610883116721,-0.11023016087040305
1761838766895132400,9.63013232421875,0.12454758616685867,0.0389931630000472,-0.14681129429265855
1761838766905202700,9.64020263671875,0.054956748068332666,0.032790801228582855,-0.11813348134085536
1761838766915272700,9.650272705078125,-0.0528986464947462,0.02292231816500425,-0.05127601372897625
1761838766925341700,9.660341796875,-0.09232347891032695,0.06652911244034766,-0.004350888685882091
1761838766935411700,9.67041162109375,-0.0506985061019659,0.11099515389353036,-0.0057607554838061325
1761838766945480700,9.680480712890626,-0.10940437757074832,0.09124737411141395,-0.010773907470703125
1761838766955550700,9.69055078125,-0.13068915766179562,0.08219049969166517,-0.0336767902828753
1761838766965620700,9.700620849609376,-0.12035597969591617,0.08398147476166486,-0.06435936718583106
1761838766975689700,9.710689697265625,-0.09229600638151168,0.10597235729545354,-0.044547728387266394
1761838766985759700,9.720759765625,-0.013751461976766586,0.1603153573796153,-0.11885112809091805
1761838766995828700,9.730828857421875,-0.015209844091534613,0.19032938737124203,-0.17354688713550567
1761838767005898800,9.740898681640624,-0.0489250666886568,0.21433190198838709,-0.1884314447954297
1761838767015968500,9.750968505859374,-0.06888882730901241,0.2734910701826215,-0.2151696679867804
1761838767026037800,9.761037841796876,-0.09139525814950465,0.2782575539320707,-0.22038199580758808
1761838767036107500,9.771107421875,-0.035461774003505704,0.23170623063743112,-0.18360168655142187
1761838767046176800,9.7811767578125,0.029289222848415373,0.17972732933610677,-0.15786913327127694
1761838767056246800,9.791246826171875,0.049508419534564016,0.16740210077017545,-0.134095751234889
1761838767066316500,9.801316650390625,0.07185936755239963,0.12389438295513391,-0.11439634063914418
1761838767076385800,9.8113857421875,0.11679448782205581,0.0760386990636587,-0.13375555949509144
1761838767086455600,9.82145556640625,0.1484481017142534,0.008363923719525337,-0.1652056136392057
1761838767096524800,9.83152490234375,0.1962070472329855,-0.06933131037950516,-0.2210011506192386
1761838767106594600,9.841594482421876,0.2397287935733795,-0.062413493815064426,-0.2782997856386006
1761838767116663800,9.851663818359375,0.14929332036674023,-0.013147943125665187,-0.2787111429184675
1761838767126738200,9.86173828125,0.17029811447262763,-0.030225919176638125,-0.21641221539378164
1761838767136808200,9.87180810546875,0.15774842950105666,-0.02814560577124357,-0.1561811801843345
1761838767146877000,9.881876953125,0.13457915083765984,-0.04319499860405922,-0.08557254334539174
1761838767156947200,9.891947265625,0.17495850749909878,-0.04026011419594288,-0.06573591623604297
1761838767167017200,9.902017333984375,0.22105331919789312,0.00417056368291378,-0.10653101409152149
1761838767177086200,9.912086181640625,0.24302432798743245,0.02455284197628498,-0.10985972012281417
1761838767187156200,9.92215625,0.2642752058088779,0.04661211357116699,-0.10693974102288484
1761838767197225200,9.93222509765625,0.18097382226586342,0.05500292529761791,-0.0861291543148458
1761838767207295200,9.942295166015626,0.10461948138177395,0.06905132439434528,-0.03363572762012482
1761838767217365000,9.952364990234376,0.10696633676886558,0.0840323281660676,-0.00042509354427456853
1761838767227434200,9.962434326171875,0.1594330215871334,0.06361117916703224,-0.0069952657148241995
1761838767237504000,9.97250390625,0.16568272963166236,0.08047638925015926,-0.040978345467895264
1761838767247573200,9.9825732421875,0.11963994038105011,0.06639291884005069,-0.050770986816287035
1761838767257643300,9.992643310546875,0.11773965971767901,0.023524083450436592,-0.05218523752838373
1761838767267712000,10.0027119140625,0.16455810951590538,0.006185410636663437,-0.07863426851481199
1761838767277782300,10.0127822265625,0.1676373708307743,0.005077157133817673,-0.07748772882819176
1761838767287852000,10.02285205078125,0.2079886704415083,-0.02804974418133497,-0.03439341411963105
1761838767297921300,10.03292138671875,0.16852759766876696,-0.05918576394021511,-0.009561024549603461
1761838767307991000,10.042990966796875,0.16213117462992668,-0.08852817828059197,0.04851385553926229
1761838767318060000,10.05306005859375,0.10429857886433601,-0.02002308959215879,0.08827449578046798
1761838767328130000,10.063130126953125,-0.1098673189073801,0.01762771888822317,0.03433627710491419
1761838767338200000,10.073199951171874,-0.18527356528639793,0.0722094961643219,-0.03369038041681051
1761838767348269300,10.083269287109376,-0.058495443588495254,0.010075988334417342,-0.03568666880056262
1761838767358339000,10.093339111328126,0.03306698782145977,-0.10852145725637674,0.0008538403503596783
1761838767368408300,10.103408203125,0.08805646911561489,-0.23258593608140943,0.057926996050775045
1761838767378478000,10.11347802734375,0.10243570760190486,-0.34568975269198415,0.07938026457652449
1761838767388548000,10.123548095703125,0.10167407557964324,-0.3936667248755693,0.025981121213734148
1761838767398617000,10.1336171875,0.12040391049087047,-0.44126229652613397,-0.09316256008297204
1761838767408687000,10.14368701171875,0.20223580600321292,-0.4230497634872794,-0.20221169447526335
1761838767418756000,10.153756103515626,0.327431626945734,-0.3299067848876118,-0.3179984665594995
