time,seconds_elapsed,z,y,x
1761838757328972000,0.063971923828125,-0.0029430591966956854,-0.26748257875442505,0.2605096101760864
1761838757339041300,0.074041259765625,-0.0031827439088374376,-0.23000496625900269,0.23464259505271912
1761838757349111000,0.084111083984375,0.007151918951421976,-0.19899165630340576,0.20031818747520447
1761838757359181000,0.09418115234375,0.02593812346458435,-0.1853799819946289,0.15454217791557312
1761838757369250000,0.10425,0.03760649636387825,-0.1661681979894638,0.11537212878465652
1761838757379320000,0.114320068359375,0.04036340117454529,-0.14152543246746063,0.08704595267772675
1761838757389390300,0.124390380859375,0.03416462987661362,-0.1340789794921875,0.06914684921503067
1761838757399459000,0.134458984375,0.027599669992923737,-0.12969806790351868,0.06060449033975601
1761838757409529000,0.144529052734375,0.015866314992308617,-0.12361781299114227,0.050277285277843475
1761838757419599000,0.15459912109375,0.0021792647894471884,-0.12632252275943756,0.037528201937675476
1761838757429668000,0.164668212890625,-0.011818576604127884,-0.11957752704620361,0.027175961062312126
1761838757439738000,0.174738037109375,-0.020479442551732063,-0.11251962184906006,0.016567524522542953
1761838757449808100,0.18480810546875,-0.03164208307862282,-0.1091453954577446,0.005799565929919481
1761838757459877400,0.19487744140625,-0.038474686443805695,-0.08890031278133392,0.006607835181057453
1761838757469947100,0.204947021484375,-0.049973685294389725,-0.06576623022556305,0.00046578687033616006
1761838757480017200,0.21501708984375,-0.07157698273658752,-0.05868301913142204,-0.010455836541950703
1761838757490086100,0.225086181640625,-0.09036824852228165,-0.05294816941022873,-0.029254291206598282
1761838757500156200,0.23515625,-0.10113034397363663,-0.04785753786563873,-0.040533311665058136
1761838757510226200,0.24522607421875,-0.09518031030893326,-0.021389178931713104,-0.047268178313970566
1761838757520295200,0.255295166015625,-0.07965567708015442,0.0035289546940475702,-0.04525589570403099
1761838757530365200,0.265365234375,-0.05350290611386299,0.0333331897854805,-0.041437190026044846
1761838757540435200,0.275435302734375,-0.0073564499616622925,0.10860184580087662,-0.04764608293771744
1761838757550504200,0.285504150390625,0.022715698927640915,0.18507318198680878,-0.03247538581490517
1761838757560574000,0.295573974609375,0.06624773144721985,0.12034878134727478,-0.0034996599424630404
1761838757570644200,0.305644287109375,0.0732494443655014,0.05609069764614105,0.03154461085796356
1761838757580713000,0.315712890625,0.03458833694458008,0.008728777058422565,0.06362877786159515
1761838757590783200,0.325783203125,-0.002177400514483452,0.01919819600880146,0.12090644985437393
1761838757600853200,0.335853271484375,0.0027869981713593006,-0.028175178915262222,0.17920464277267456
1761838757610922000,0.345921875,0.02869476191699505,-0.15948820114135742,0.22559930384159088
1761838757620992300,0.3559921875,0.012465192005038261,-0.27799221873283386,0.26374855637550354
1761838757631062300,0.366062255859375,-0.03699050843715668,-0.3485798239707947,0.31897690892219543
1761838757641131300,0.37613134765625,-0.08618388324975967,-0.3750750720500946,0.3788067102432251
1761838757651201300,0.386201171875,-0.0871354341506958,-0.42819634079933167,0.42915189266204834
1761838757661271000,0.39627099609375,-0.03929334506392479,-0.49203604459762573,0.47666215896606445
1761838757671340300,0.40634033203125,0.03545253351330757,-0.5078922510147095,0.51472407579422
1761838757681410000,0.41641015625,0.113412044942379,-0.5194905996322632,0.52802973985672
1761838757691480000,0.42647998046875,0.18200922012329102,-0.5087780356407166,0.5250941514968872
1761838757701549000,0.436549072265625,0.2166939526796341,-0.45028620958328247,0.48239195346832275
1761838757711619000,0.446619140625,0.23553289473056793,-0.3797079026699066,0.42615875601768494
1761838757721689300,0.456689453125,0.24663321673870087,-0.31294938921928406,0.3546736538410187
1761838757731759000,0.466759033203125,0.251200795173645,-0.30102747678756714,0.2688639461994171
1761838757741828000,0.476828125,0.251126229763031,-0.30646511912345886,0.19365735352039337
1761838757751898000,0.486898193359375,0.2281082719564438,-0.2886243462562561,0.14272120594978333
1761838757761968000,0.496968017578125,0.1838665008544922,-0.23657871782779694,0.1240476444363594
1761838757772037400,0.507037353515625,0.11224717646837234,-0.17526289820671082,0.1351487636566162
1761838757782107100,0.517107177734375,0.04691504314541817,-0.10508993268013,0.16905373334884644
1761838757792177200,0.52717724609375,-0.0027092336677014828,-0.04501940682530403,0.2011597454547882
1761838757802246100,0.53724609375,-0.03281094506382942,-0.015616510063409805,0.22955623269081116
1761838757812316200,0.547316162109375,-0.0401839055120945,-0.03251613304018974,0.24323928356170654
1761838757822386200,0.55738623046875,-0.034087661653757095,-0.08137794584035873,0.26084277033805847
1761838757832455200,0.567455078125,-0.04247795045375824,-0.1311822533607483,0.2664535343647003
1761838757842525200,0.577525146484375,-0.05793600529432297,-0.17084364593029022,0.26435789465904236
1761838757852595200,0.58759521484375,-0.07315410673618317,-0.21379724144935608,0.25869548320770264
1761838757862664200,0.597664306640625,-0.0893075093626976,-0.25742408633232117,0.2384764850139618
1761838757872734000,0.60773388671875,-0.10834511369466782,-0.2742733657360077,0.20767702162265778
1761838757882804200,0.61780419921875,-0.13162806630134583,-0.2558658719062805,0.16693945229053497
1761838757892873000,0.627873046875,-0.15280765295028687,-0.2077433466911316,0.13231143355369568
1761838757902943200,0.637943115234375,-0.1618829071521759,-0.16405977308750153,0.09387482702732086
1761838757913013200,0.64801318359375,-0.16044719517230988,-0.0941440761089325,0.05998823419213295
1761838757923082200,0.658082275390625,-0.1550268679857254,-0.03151611611247063,0.026672624051570892
1761838757933152300,0.66815234375,-0.14910265803337097,-0.01678137667477131,-0.004156661685556173
1761838757943222000,0.678221923828125,-0.1479034423828125,-0.06573879718780518,-0.044809550046920776
1761838757953291300,0.688291259765625,-0.1491529941558838,-0.19475057721138,-0.09981288015842438
1761838757963361300,0.698361328125,-0.1419592648744583,-0.3474423885345459,-0.15194664895534515
1761838757973431000,0.70843115234375,-0.13203313946723938,-0.4701685607433319,-0.1999962031841278
1761838757983500300,0.718500244140625,-0.12990793585777283,-0.5817539691925049,-0.25258857011795044
1761838757993570000,0.728570068359375,-0.13634824752807617,-0.6630405783653259,-0.30098381638526917
1761838758003640000,0.73864013671875,-0.14247219264507294,-0.6652605533599854,-0.33404427766799927
1761838758013709000,0.748708984375,-0.14309537410736084,-0.657061755657196,-0.33063358068466187
1761838758023779000,0.758779052734375,-0.14701901376247406,-0.624259352684021,-0.27640920877456665
1761838758033849300,0.768849365234375,-0.16757328808307648,-0.5434340238571167,-0.19866569340229034
1761838758043918000,0.77891796875,-0.19571571052074432,-0.41368213295936584,-0.11300564557313919
1761838758053988000,0.788988037109375,-0.2276398241519928,-0.2776542603969574,-0.026630811393260956
1761838758064058000,0.79905810546875,-0.24871021509170532,-0.16941165924072266,0.03729331120848656
1761838758074127000,0.809127197265625,-0.2699446678161621,-0.10280627012252808,0.07737255096435547
1761838758084197000,0.819197021484375,-0.2905825674533844,-0.05992964655160904,0.10603296011686325
1761838758094267100,0.82926708984375,-0.3097544014453888,-0.04836193844676018,0.12149474024772644
1761838758104336400,0.83933642578125,-0.32043901085853577,-0.06651590764522552,0.1321609616279602
1761838758114406000,0.849406005859375,-0.33011719584465027,-0.10361773520708084,0.13827984035015106
1761838758124476000,0.859475830078125,-0.35218706727027893,-0.16223257780075073,0.14082902669906616
1761838758134545200,0.869545166015625,-0.38677647709846497,-0.23289050161838531,0.1360931247472763
1761838758144615000,0.879614990234375,-0.42997294664382935,-0.2898978590965271,0.11434894800186157
1761838758154685000,0.889684814453125,-0.470232754945755,-0.36712154746055603,0.08226504176855087
1761838758164754000,0.89975390625,-0.42737478017807007,-0.4380471110343933,0.039090678095817566
1761838758174824000,0.909823974609375,-0.2774696946144104,-0.4952278435230255,-0.014021276496350765
1761838758184894200,0.919894287109375,-0.19542062282562256,-0.5977278351783752,-0.11449355632066727
1761838758194963000,0.929962890625,-0.17868825793266296,-0.7032199501991272,-0.2439841628074646
1761838758205033000,0.940032958984375,-0.18754087388515472,-0.7382979989051819,-0.4081169068813324
1761838758215103000,0.95010302734375,-0.1706220656633377,-0.6807575225830078,-0.610974133014679
1761838758225172000,0.960171875,-0.11430074274539948,-0.5159765481948853,-0.810395359992981
1761838758235242000,0.970241943359375,-0.0297232735902071,-0.2554786503314972,-0.9692484140396118
1761838758245312000,0.98031201171875,0.04424336180090904,0.03705735504627228,-1.0927530527114868
1761838758255381000,0.990381103515625,0.08650320023298264,0.2967973053455353,-1.172837734222412
1761838758265451000,1.000450927734375,0.09533850103616714,0.47760623693466187,-1.2225397825241089
1761838758275521000,1.01052099609375,0.09631561487913132,0.6061711311340332,-1.2492470741271973
1761838758285590000,1.020590087890625,0.10920877754688263,0.668423593044281,-1.251225233078003
1761838758295660000,1.030659912109375,0.14015497267246246,0.6701000332832336,-1.219618558883667
1761838758305729800,1.040729736328125,0.1811990886926651,0.5911384224891663,-1.165234923362732
1761838758315799000,1.050799072265625,0.2103809416294098,0.45963338017463684,-1.0990314483642578
1761838758325869000,1.060869140625,0.22486107051372528,0.30481821298599243,-1.0237457752227783
1761838758335938800,1.070938720703125,0.22990483045578003,0.15009336173534393,-0.9477026462554932
1761838758346008000,1.081008056640625,0.2620587646961212,0.029677467420697212,-0.8669044971466064
1761838758356077800,1.091077880859375,0.3055647015571594,-0.05760257691144943,-0.7804915308952332
1761838758366148000,1.101148193359375,0.31989091634750366,-0.1523437350988388,-0.7111918330192566
1761838758376216800,1.111216796875,0.2675880193710327,-0.2298041731119156,-0.6604849696159363
1761838758386286800,1.121286865234375,0.14732101559638977,-0.3016219139099121,-0.6628519892692566
1761838758396357000,1.131357177734375,0.005803560372442007,-0.37814250588417053,-0.7334848642349243
1761838758406425900,1.14142578125,-0.09386257827281952,-0.45407986640930176,-0.8620727062225342
1761838758416496000,1.15149609375,-0.138525128364563,-0.47406476736068726,-1.0022106170654297
1761838758426566000,1.16156591796875,-0.16821031272411346,-0.4476744532585144,-1.1190946102142334
1761838758436635100,1.17163525390625,-0.20977267622947693,-0.40640929341316223,-1.225598931312561
1761838758446705200,1.181705078125,-0.242231547832489,-0.32200467586517334,-1.310615062713623
1761838758456775000,1.19177490234375,-0.2447519600391388,-0.1561232954263687,-1.370249629020691
1761838758466844200,1.20184423828125,-0.2018851786851883,0.039142344146966934,-1.41154146194458
1761838758476914000,1.211913818359375,-0.11753968149423599,0.24377191066741943,-1.4247307777404785
1761838758486984000,1.22198388671875,-0.016639430075883865,0.425174742937088,-1.415366530418396
1761838758497053000,1.232052978515625,0.0659976601600647,0.545588493347168,-1.3889708518981934
1761838758507123000,1.242123046875,0.10611871629953384,0.6015883684158325,-1.35970938205719
1761838758517193000,1.25219287109375,0.11039362102746964,0.6077666282653809,-1.3538302183151245
1761838758527263000,1.262262939453125,0.08353777229785919,0.6046699285507202,-1.3901253938674927
1761838758537332000,1.27233203125,0.026497654616832733,0.6131787300109863,-1.459678053855896
1761838758547402000,1.282402099609375,-0.005373992491513491,0.6696702241897583,-1.5160683393478394
1761838758557472000,1.292471923828125,0.035661857575178146,0.8118159174919128,-1.5196082592010498
1761838758567541000,1.302541015625,0.1346861720085144,1.0747319459915161,-1.4359418153762817
1761838758577611000,1.312611083984375,0.249759241938591,1.3904398679733276,-1.2691459655761719
1761838758587681000,1.322680908203125,0.3633960485458374,1.6421232223510742,-1.0490015745162964
1761838758597750000,1.33275,0.4622853398323059,1.7527104616165161,-0.8189694285392761
1761838758607820000,1.342820068359375,0.5590465068817139,1.6626540422439575,-0.5812668800354004
1761838758617889800,1.352889892578125,0.7148084044456482,1.4418766498565674,-0.32879599928855896
1761838758627959000,1.362958984375,0.8630785942077637,1.1905254125595093,-0.07392482459545135
1761838758638029000,1.373029052734375,0.9143673181533813,0.9427278637886047,0.18284757435321808
1761838758648099000,1.38309912109375,0.8623725771903992,0.721253514289856,0.45184895396232605
1761838758658168000,1.39316796875,0.7516042590141296,0.4916653335094452,0.7321879267692566
1761838758668237800,1.40323779296875,0.6171958446502686,0.2430850863456726,0.997776210308075
1761838758678308000,1.41330810546875,0.5206048488616943,0.0686831921339035,1.2234015464782715
1761838758688376800,1.423376953125,0.483982652425766,0.030532609671354294,1.4199596643447876
1761838758698447000,1.433447021484375,0.4988372325897217,-0.030489997938275337,1.5487312078475952
1761838758708517000,1.44351708984375,0.5779008865356445,-0.20545648038387299,1.5518537759780884
1761838758718585900,1.4535859375,0.7251343131065369,-0.4365251362323761,1.4402897357940674
1761838758728656100,1.46365625,0.9764450788497925,-0.5032263994216919,1.270957112312317
1761838758738726000,1.473725830078125,1.3498386144638062,-0.41481131315231323,1.0697557926177979
1761838758748795100,1.483795166015625,1.73073410987854,-0.28484079241752625,0.8381436467170715
1761838758758865000,1.493864990234375,2.0553982257843018,-0.13282622396945953,0.5874482989311218
1761838758768935000,1.503934814453125,2.390366554260254,-0.05054093897342682,0.35539084672927856
1761838758779004200,1.514004150390625,2.720991373062134,0.038061629980802536,0.14687120914459229
1761838758789074000,1.524073974609375,2.9392800331115723,0.2641027569770813,-0.09303539991378784
1761838758799144000,1.53414404296875,2.9717776775360107,0.5861297845840454,-0.39071130752563477
1761838758809213000,1.544212890625,2.8887767791748047,0.8388581871986389,-0.8138417601585388
1761838758819283000,1.554282958984375,2.8719241619110107,1.0635309219360352,-1.284164547920227
1761838758829353200,1.564353271484375,3.070884943008423,1.2297942638397217,-1.7185673713684082
1761838758839422000,1.574421875,3.4605624675750732,1.451676607131958,-1.9486594200134277
1761838758849492000,1.584491943359375,3.9530019760131836,1.6488947868347168,-1.9305264949798584
1761838758859562000,1.59456201171875,4.323033809661865,1.6964836120605469,-1.7313404083251953
1761838758869631000,1.604630859375,4.3864426612854,1.5650742053985596,-1.4312160015106201
1761838758879701000,1.614700927734375,4.136823654174805,1.2250500917434692,-1.129064679145813
1761838758889771000,1.62477099609375,3.617499828338623,0.8666195273399353,-0.8695894479751587
1761838758899840000,1.634840087890625,2.7516794204711914,0.6644078493118286,-0.6048648357391357
1761838758909910000,1.644909912109375,1.8145115375518799,0.37264201045036316,-0.32246699929237366
1761838758919980000,1.65497998046875,1.2383919954299927,-0.05122537165880203,-0.00264824740588665
1761838758930049000,1.665049072265625,0.9614861011505127,-0.4847587049007416,0.3725607991218567
1761838758940119000,1.675119140625,0.7127681374549866,-0.9164403080940247,0.7095489501953125
1761838758950188800,1.685188720703125,0.3960466682910919,-1.2315261363983154,0.9149148464202881
1761838758960258000,1.695258056640625,-0.08326266705989838,-1.2605996131896973,0.9698058366775513
1761838758970328000,1.705328125,-0.7170257568359375,-0.931951105594635,0.9585592746734619
1761838758980397800,1.715397705078125,-1.4133152961730957,-0.4700780212879181,0.9341782927513123
1761838758990467000,1.725467041015625,-2.0148561000823975,-0.2002641260623932,0.9721246361732483
1761838759000536800,1.735536865234375,-2.3868956565856934,-0.26911163330078125,1.0986663103103638
1761838759010607000,1.745607177734375,-2.468308448791504,-0.557243287563324,1.308579921722412
1761838759020677000,1.755677001953125,-2.2634599208831787,-0.7870423793792725,1.5635490417480469
1761838759030745900,1.765745849609375,-1.9175270795822144,-0.8330585956573486,1.8098427057266235
1761838759040816000,1.775816162109375,-1.4821975231170654,-0.779076099395752,2.0786874294281006
1761838759050886000,1.785885986328125,-1.0228825807571411,-0.8209444284439087,2.3771650791168213
1761838759060955100,1.795955078125,-0.6879594922065735,-1.076529860496521,2.6892752647399902
1761838759071025000,1.80602490234375,-0.5533950328826904,-1.4965577125549316,2.8962113857269287
1761838759081095000,1.816094970703125,-0.5726059675216675,-1.7438451051712036,2.866142511367798
1761838759091164000,1.826163818359375,-0.6403589248657227,-1.7276804447174072,2.5846338272094727
1761838759101234000,1.83623388671875,-0.6594064235687256,-1.4952789545059204,2.1786797046661377
1761838759111303000,1.846302978515625,-0.531244695186615,-1.0796476602554321,1.7422418594360352
1761838759121371600,1.85637158203125,-0.21867774426937103,-0.5327730774879456,1.3867233991622925
1761838759131442000,1.86644189453125,0.059241753071546555,-0.5546978116035461,0.752846360206604
1761838759141512000,1.876511962890625,0.24443477392196655,-0.6516933441162109,0.16298945248126984
1761838759151581000,1.886580810546875,0.36363866925239563,-0.7445343732833862,-0.3885549306869507
1761838759161651000,1.89665087890625,0.41705289483070374,-0.7430176734924316,-0.8208520412445068
1761838759171720700,1.906720703125,0.4272972643375397,-0.5532093644142151,-1.072782039642334
1761838759181790000,1.9167900390625,0.45468708872795105,-0.1874937266111374,-0.9706705212593079
1761838759191860000,1.92685986328125,0.48525723814964294,0.045107290148735046,-0.6232752799987793
1761838759201929700,1.9369296875,0.3931179940700531,0.2648433744907379,-0.10693976283073425
1761838759211999000,1.9469990234375,0.30995893478393555,0.5451530814170837,0.4103563725948334
1761838759222068700,1.95706884765625,0.2626444101333618,0.8200014233589172,0.7367717623710632
1761838759232138800,1.967138671875,0.28981584310531616,0.9484155774116516,0.8367947936058044
1761838759242207700,1.977207763671875,0.32340842485427856,0.9282495975494385,0.7202564477920532
1761838759252277800,1.98727783203125,0.3182850182056427,0.761675238609314,0.42537179589271545
1761838759262348000,1.99734814453125,0.30726006627082825,0.5047649145126343,0.0410238653421402
1761838759272416800,2.007416748046875,0.3490581214427948,0.23058101534843445,-0.3708811402320862
1761838759282487000,2.017487060546875,0.45543569326400757,0.037282925099134445,-0.7416331171989441
1761838759292556800,2.027556884765625,0.5964692234992981,-0.08072733879089355,-0.9611846208572388
1761838759302625800,2.037625732421875,0.7530292868614197,-0.08979886025190353,-0.9731054902076721
1761838759312695800,2.04769580078125,0.9021186232566833,0.07500527054071426,-0.8119373321533203
1761838759322765800,2.057765869140625,1.024383544921875,0.3130386173725128,-0.5404121279716492
1761838759332835000,2.0678349609375,1.1228771209716797,0.5269998908042908,-0.2068844735622406
1761838759342904800,2.07790478515625,1.1568950414657593,0.5484859943389893,0.11048176884651184
1761838759352974800,2.087974853515625,1.0588270425796509,0.38594502210617065,0.3261205852031708
1761838759363044900,2.098044921875,0.8092997670173645,0.12109926342964172,0.4875451624393463
1761838759373113900,2.10811376953125,0.5049062967300415,-0.25165432691574097,0.7046431303024292
1761838759383184000,2.118183837890625,0.31447646021842957,-0.5903642177581787,1.125475287437439
1761838759393252900,2.1282529296875,0.30573540925979614,-0.8712688684463501,1.6816586256027222
1761838759403323000,2.138322998046875,0.4897947311401367,-1.1743565797805786,2.250840902328491
1761838759413393000,2.148392822265625,0.8849409818649292,-1.748761773109436,2.612919569015503
1761838759423463000,2.158462890625,1.328555941581726,-2.8334004878997803,2.4178097248077393
1761838759433531600,2.16853173828125,1.4132578372955322,-3.930262565612793,1.660518765449524
1761838759443602000,2.178601806640625,1.0587263107299805,-4.708127021789551,0.7469689846038818
1761838759453672000,2.188671875,0.48867887258529663,-4.849271297454834,0.21782714128494263
1761838759463741000,2.198740966796875,-0.18532085418701172,-4.0638227462768555,0.09272647649049759
1761838759473811000,2.20881103515625,-0.9864460229873657,-2.61006760597229,0.1839274913072586
1761838759483880700,2.218880615234375,-1.7955572605133057,-1.3069039583206177,-0.15758828818798065
1761838759493950000,2.228949951171875,-2.1499452590942383,-0.12307639420032501,-0.9409547448158264
1761838759504020000,2.23902001953125,-1.9185495376586914,0.9915822148323059,-1.9073532819747925
1761838759514089700,2.24908984375,-1.3237005472183228,1.9069335460662842,-2.879635810852051
1761838759524159000,2.259158935546875,-0.60356205701828,2.32537841796875,-3.7303853034973145
1761838759534228700,2.269228759765625,0.0128145981580019,2.167571544647217,-4.345310211181641
1761838759544299000,2.279299072265625,0.4826260507106781,1.581543207168579,-4.625872611999512
1761838759554367700,2.28936767578125,0.833625078201294,0.7138648629188538,-4.4852294921875
1761838759564437800,2.299437744140625,1.0155631303787231,-0.15387505292892456,-3.9201133251190186
1761838759574508000,2.309508056640625,1.0348221063613892,-0.8028154969215393,-3.0817408561706543
1761838759584576800,2.31957666015625,1.0018023252487183,-1.2611141204833984,-2.198843002319336
1761838759594647000,2.32964697265625,0.9999051094055176,-1.3207664489746094,-1.5537794828414917
1761838759604716800,2.339716796875,0.9646283388137817,-0.6801849007606506,-1.6572742462158203
1761838759614785800,2.349785888671875,0.8665076494216919,0.3995838761329651,-2.3201241493225098
1761838759624855800,2.359855712890625,0.7380338311195374,1.1239221096038818,-2.6777184009552
1761838759634925800,2.36992578125,0.44881269335746765,1.345810890197754,-2.3265485763549805
1761838759644995000,2.3799951171875,-0.041789524257183075,1.214313268661499,-1.5792100429534912
1761838759655064800,2.39006494140625,-0.5805683135986328,0.8646732568740845,-0.7959141731262207
1761838759665134800,2.400134765625,-1.0048761367797852,0.424625039100647,-0.141421839594841
1761838759675203800,2.410203857421875,-1.2472275495529175,0.05577404797077179,0.3615504801273346
1761838759685273900,2.42027392578125,-1.3173869848251343,-0.21527183055877686,0.7797940969467163
1761838759695343900,2.43034375,-1.2566919326782227,-0.4160856306552887,1.1404087543487549
1761838759705412900,2.440412841796875,-1.1129767894744873,-0.5343630313873291,1.397826075553894
1761838759715483000,2.45048291015625,-0.9077224731445312,-0.46855229139328003,1.5229957103729248
1761838759725553000,2.460552978515625,-0.6645239591598511,-0.20123431086540222,1.4896076917648315
1761838759735622000,2.470621826171875,-0.41480544209480286,0.2264469861984253,1.3519774675369263
1761838759745692000,2.48069189453125,-0.18693313002586365,0.734247624874115,1.1453717947006226
1761838759755762000,2.490761962890625,-0.008807872422039509,1.199139952659607,0.9296794533729553
1761838759765830700,2.50083056640625,0.11197633296251297,1.5590581893920898,0.7368381023406982
1761838759775901000,2.51090087890625,0.20403195917606354,1.7885065078735352,0.6075006127357483
1761838759785971000,2.520970947265625,0.28725069761276245,1.8792990446090698,0.5575348734855652
1761838759796040700,2.531040771484375,0.3723874092102051,1.8364676237106323,0.5951547026634216
1761838759806110000,2.54110986328125,0.4348129630088806,1.6881695985794067,0.6939284205436707
1761838759816179700,2.5511796875,0.44368794560432434,1.4893581867218018,0.82256019115448
1761838759826249700,2.561249755859375,0.36309191584587097,1.3088350296020508,0.9268040060997009
1761838759836319000,2.571319091796875,0.2708751857280731,1.0853300094604492,1.001134991645813
1761838759846388700,2.581388671875,0.2036695033311844,0.8268311023712158,1.0575947761535645
1761838759856459000,2.591458984375,0.15371686220169067,0.505617082118988,1.0581474304199219
1761838759866527700,2.60152783203125,0.11632900685071945,0.207697793841362,1.0198980569839478
1761838759876597800,2.61159765625,0.12754997611045837,0.01441302802413702,0.951232373714447
1761838759886668000,2.62166796875,0.18836884200572968,-0.07646707445383072,0.8627153038978577
1761838759896736800,2.63173681640625,0.3016780912876129,-0.14238590002059937,0.7299362421035767
1761838759906807000,2.64180712890625,0.4487572908401489,-0.20924162864685059,0.5664591789245605
1761838759916876800,2.651876708984375,0.5914657115936279,-0.2532804608345032,0.38327789306640625
1761838759926946000,2.661946044921875,0.6977601647377014,-0.2757208049297333,0.15763969719409943
1761838759937015800,2.672015869140625,0.7676982283592224,-0.2721034288406372,-0.10484199225902557
1761838759947085800,2.6820859375,0.8289054036140442,-0.3056938648223877,-0.3894084692001343
1761838759957154800,2.69215478515625,0.9216116666793823,-0.3986280858516693,-0.6324594616889954
1761838759967224800,2.702224853515625,1.032158374786377,-0.5619379281997681,-0.7806451916694641
1761838759977294800,2.712294921875,1.16462242603302,-0.7981144785881042,-0.7718192338943481
1761838759987363800,2.72236376953125,1.2749782800674438,-0.9624493718147278,-0.5870123505592346
1761838759997433900,2.732433837890625,1.3054580688476562,-0.8193106055259705,-0.2082887589931488
1761838760007504000,2.74250390625,1.215658187866211,-0.41275426745414734,0.24600285291671753
1761838760017572900,2.75257275390625,0.9852279424667358,0.13054576516151428,0.5798516869544983
1761838760027643000,2.762642822265625,0.6292833685874939,0.641823410987854,0.6295015215873718
1761838760037713000,2.772712890625,0.23193523287773132,1.0732309818267822,0.4338949918746948
1761838760047782000,2.782781982421875,-0.1324741542339325,1.3785400390625,0.17086096107959747
1761838760057852000,2.792851806640625,-0.4520699977874756,1.50960111618042,-0.05128289386630058
1761838760067922000,2.802921875,-0.7561177611351013,1.3384523391723633,-0.2550341486930847
1761838760077990700,2.81299072265625,-0.9538159370422363,0.8970120549201965,-0.47414547204971313
1761838760088061000,2.82306103515625,-1.0236749649047852,0.351102352142334,-0.6346102356910706
1761838760098131000,2.833130859375,-1.0033822059631348,-0.15134504437446594,-0.7168588042259216
1761838760108200000,2.843199951171875,-0.9062572121620178,-0.5487334132194519,-0.7314177751541138
1761838760118269400,2.85326953125,-0.741198718547821,-0.833324134349823,-0.6994233131408691
1761838760128339500,2.86333935546875,-0.614105224609375,-0.8651800751686096,-0.7835121154785156
1761838760138409500,2.873409423828125,-0.625163197517395,-0.6491537690162659,-0.8744745254516602
1761838760148478500,2.883478515625,-0.7375081181526184,-0.2521350383758545,-0.8212413787841797
1761838760158548500,2.893548583984375,-0.81709885597229,0.1779569536447525,-0.551938533782959
1761838760168618500,2.903618408203125,-0.8127637505531311,0.44627174735069275,-0.13234871625900269
1761838760178687500,2.9136875,-0.7696841955184937,0.5255327820777893,0.2932366728782654
1761838760188757500,2.923757568359375,-0.7093984484672546,0.4268357455730438,0.6325918436050415
1761838760198827500,2.93382763671875,-0.6547163128852844,0.18574883043766022,0.9089930653572083
1761838760208896500,2.943896484375,-0.5879223942756653,-0.10799624025821686,1.1837433576583862
1761838760218966500,2.953966552734375,-0.488203227519989,-0.3582574725151062,1.486370325088501
1761838760229036500,2.96403662109375,-0.35901808738708496,-0.4947527348995209,1.7702369689941406
1761838760239105500,2.97410546875,-0.2172582894563675,-0.5665925741195679,1.9990129470825195
1761838760249175600,2.984175537109375,-0.07904581725597382,-0.5901370644569397,2.139744520187378
1761838760259245300,2.994245361328125,0.02569417841732502,-0.5528818368911743,2.1878678798675537
1761838760269314600,3.004314453125,0.10364995896816254,-0.47859853506088257,2.140413999557495
1761838760279384300,3.01438427734375,0.1825501024723053,-0.39872661232948303,2.030696153640747
1761838760289454300,3.024454345703125,0.25111106038093567,-0.3442753553390503,1.878913402557373
1761838760299523600,3.034523681640625,0.2965027689933777,-0.34227851033210754,1.6788649559020996
1761838760309593300,3.04459326171875,0.2936723530292511,-0.3830485939979553,1.441080927848816
1761838760319663600,3.05466357421875,0.23505085706710815,-0.41364750266075134,1.1705490350723267
1761838760329732400,3.064732421875,0.1440354734659195,-0.40751132369041443,0.8736366629600525
1761838760339802600,3.074802734375,0.036253344267606735,-0.36935779452323914,0.5568238496780396
1761838760349872600,3.08487255859375,-0.04338422417640686,-0.3479664921760559,0.2193390130996704
1761838760359941400,3.09494140625,-0.08424323797225952,-0.32516929507255554,-0.11160242557525635
1761838760370011600,3.10501171875,-0.11487145721912384,-0.2959967851638794,-0.45333153009414673
1761838760380081400,3.115081298828125,-0.15920749306678772,-0.259906142950058,-0.794464647769928
1761838760390150700,3.125150634765625,-0.23457549512386322,-0.21932676434516907,-1.113816499710083
1761838760400220400,3.135220458984375,-0.34805917739868164,-0.15989325940608978,-1.4007049798965454
1761838760410290400,3.14529052734375,-0.5085574984550476,-0.09628765285015106,-1.6623941659927368
1761838760420359400,3.155359375,-0.6639159321784973,-0.010550378821790218,-1.8778300285339355
1761838760430429400,3.165429443359375,-0.7793059349060059,0.09460879862308502,-2.0056567192077637
1761838760440499500,3.17549951171875,-0.858723521232605,0.1801583170890808,-2.034109115600586
1761838760450568400,3.185568359375,-0.9045727252960205,0.26282548904418945,-1.9539604187011719
1761838760460638500,3.195638427734375,-0.911998450756073,0.3347793221473694,-1.803686261177063
1761838760470708500,3.20570849609375,-0.894658625125885,0.36305251717567444,-1.6237988471984863
1761838760480777500,3.215777587890625,-0.8677074313163757,0.357855886220932,-1.4200997352600098
1761838760490847500,3.225847412109375,-0.8228011727333069,0.33783504366874695,-1.2056993246078491
1761838760500917500,3.23591748046875,-0.7258730530738831,0.3354773223400116,-0.9801594018936157
1761838760510986500,3.245986572265625,-0.5195707678794861,0.3846089243888855,-0.768545925617218
1761838760521056500,3.256056396484375,-0.2154872864484787,0.5437064170837402,-0.5739258527755737
1761838760531126500,3.26612646484375,0.20075733959674835,0.7101883292198181,-0.41136303544044495
1761838760541195500,3.276195556640625,0.741345226764679,0.8974772691726685,-0.2748582065105438
1761838760551265500,3.286265625,1.2656859159469604,1.0280609130859375,-0.15547241270542145
1761838760561335600,3.29633544921875,1.585430383682251,1.2895941734313965,-0.011571967042982578
1761838760571404500,3.306404541015625,1.6389274597167969,1.7365517616271973,0.13662895560264587
1761838760581474600,3.316474609375,1.3841004371643066,2.106600046157837,0.24080781638622284
1761838760591544300,3.32654443359375,0.949652373790741,1.9818190336227417,0.35924044251441956
1761838760601613600,3.336613525390625,0.6161284446716309,1.3161110877990723,0.3301909565925598
1761838760611683300,3.346683349609375,0.32100945711135864,0.3115807771682739,-0.12789112329483032
1761838760621753300,3.35675341796875,-0.02497272752225399,-0.8973079323768616,-0.9191429018974304
1761838760631823600,3.36682373046875,-0.19321206212043762,-2.3272182941436768,-1.6245253086090088
1761838760641892400,3.376892333984375,-0.08278835564851761,-3.6859774589538574,-1.7709405422210693
1761838760651962600,3.386962646484375,0.054068028926849365,-4.0502142906188965,-1.2569164037704468
1761838760662032400,3.397032470703125,-0.1909763514995575,-2.9691030979156494,-0.8134897351264954
1761838760672101400,3.407101318359375,-0.8174205422401428,-0.7380878925323486,-1.2240740060806274
1761838760682171600,3.417171630859375,-1.2831661701202393,1.6005736589431763,-2.0701000690460205
1761838760692241400,3.427241455078125,-1.1409327983856201,2.828376054763794,-2.645811080932617
1761838760702310700,3.437310546875,-0.5424174666404724,2.8178772926330566,-2.8639533519744873
1761838760712380400,3.44738037109375,0.17762379348278046,1.9936906099319458,-2.654477596282959
1761838760722450400,3.457450439453125,0.7421897053718567,0.785658597946167,-2.196333408355713
1761838760732519400,3.46751953125,0.9305891990661621,-0.401047021150589,-1.5949938297271729
1761838760742589400,3.47758935546875,0.7799703478813171,-1.413408875465393,-0.8599736094474792
1761838760752659500,3.487659423828125,0.4714548885822296,-1.7885297536849976,-0.036806218326091766
1761838760762728400,3.497728515625,0.2255268692970276,-1.396675944328308,0.9532031416893005
1761838760772798500,3.507798583984375,0.126307874917984,-0.4440400302410126,1.9897363185882568
1761838760782868500,3.517868408203125,0.04489876329898834,0.33823344111442566,2.694960832595825
1761838760792937500,3.5279375,-0.24321983754634857,0.647436797618866,2.8814926147460938
1761838760803007500,3.538007568359375,-0.6336435079574585,0.6012030243873596,2.5444979667663574
1761838760813077500,3.548077392578125,-0.9642890691757202,0.233492910861969,2.0923657417297363
1761838760823146500,3.558146484375,-1.135692834854126,-0.3851657807826996,1.8475764989852905
1761838760833216500,3.568216552734375,-1.1712473630905151,-0.9586911201477051,1.7825932502746582
1761838760843286500,3.57828662109375,-1.1530579328536987,-1.3392409086227417,1.850958228111267
1761838760853355500,3.58835546875,-0.9291329383850098,-1.4864076375961304,1.9832911491394043
1761838760863425500,3.598425537109375,-0.48284202814102173,-1.5285791158676147,2.058682441711426
1761838760873495600,3.60849560546875,0.08950325101613998,-1.4148008823394775,1.935545802116394
1761838760883564500,3.618564453125,0.5605546832084656,-1.0580328702926636,1.6047742366790771
1761838760893634600,3.628634521484375,0.6598154902458191,-0.2513595223426819,1.074735403060913
1761838760903704300,3.638704345703125,0.29888495802879333,1.025288462638855,0.42353367805480957
1761838760913773600,3.648773681640625,-0.2693004310131073,2.2486250400543213,-0.0586787611246109
1761838760923843300,3.65884326171875,-0.5819723606109619,2.8747992515563965,-0.0979531928896904
1761838760933913300,3.668913330078125,-0.5128899216651917,2.848404884338379,0.32505425810813904
1761838760943982600,3.678982666015625,-0.3702097535133362,2.3140976428985596,0.8381593823432922
1761838760954052400,3.68905224609375,-0.22934876382350922,1.5461580753326416,1.2677572965621948
1761838760964122600,3.69912255859375,-0.03290442004799843,0.6957172751426697,1.606042742729187
1761838760974191400,3.70919140625,0.15386280417442322,-0.047275103628635406,1.7784792184829712
1761838760984261600,3.71926171875,0.24592667818069458,-0.5319275259971619,1.7311800718307495
1761838760994331600,3.72933154296875,0.23492969572544098,-0.7637008428573608,1.5157966613769531
1761838761004400400,3.739400390625,0.1747955083847046,-0.812690258026123,1.2608808279037476
1761838761014470700,3.749470703125,0.12847888469696045,-0.741723895072937,1.0351667404174805
1761838761024540400,3.75954052734375,0.13306084275245667,-0.5697454810142517,0.8487033843994141
1761838761034609700,3.769609619140625,0.2214285284280777,-0.34793081879615784,0.6851085424423218
1761838761044679400,3.779679443359375,0.4091621935367584,-0.11081653088331223,0.5057015419006348
1761838761054749400,3.78974951171875,0.6756037473678589,0.172464981675148,0.2551364302635193
1761838761064818400,3.799818359375,0.9568849802017212,0.49914562702178955,-0.06538699567317963
1761838761074888400,3.809888427734375,1.204601764678955,0.7890509366989136,-0.38819220662117004
1761838761084958500,3.81995849609375,1.3959413766860962,0.948610246181488,-0.6756389141082764
1761838761095027500,3.83002734375,1.478135347366333,0.9942605495452881,-0.8781802654266357
1761838761105097500,3.840097412109375,1.4019436836242676,0.9306911826133728,-0.9614309668540955
1761838761115167700,3.850167724609375,1.1722379922866821,0.8530155420303345,-0.8638753890991211
1761838761125236700,3.86023681640625,0.8182405233383179,0.8210173845291138,-0.599228024482727
1761838761135306800,3.870306640625,0.36536678671836853,0.7867699265480042,-0.25125327706336975
1761838761145376800,3.880376708984375,-0.09695743769407272,0.583984911441803,0.080656498670578
1761838761155445800,3.89044580078125,-0.4867810904979706,0.24277642369270325,0.39939212799072266
1761838761165515800,3.900515869140625,-0.7960763573646545,-0.13283021748065948,0.7222511172294617
1761838761175585800,3.910585693359375,-1.0177507400512695,-0.5123341083526611,0.9781367182731628
1761838761185654800,3.92065478515625,-1.1257472038269043,-0.8487963080406189,1.1197372674942017
1761838761195724800,3.930724853515625,-1.1481667757034302,-1.0652836561203003,1.1479579210281372
1761838761205794800,3.940794921875,-1.1403841972351074,-1.1307766437530518,1.0647491216659546
1761838761215863800,3.95086376953125,-1.0533640384674072,-1.0672639608383179,0.7860945463180542
1761838761225933800,3.960933837890625,-0.8445520401000977,-0.8037111163139343,0.26044172048568726
1761838761236003800,3.97100390625,-0.5967467427253723,-0.37422898411750793,-0.4123913049697876
1761838761246072800,3.98107275390625,-0.3688179850578308,0.19264134764671326,-1.0306545495986938
1761838761256142800,3.991142822265625,-0.17287936806678772,0.5380613207817078,-1.3266328573226929
1761838761266212600,4.001212646484375,0.08896715939044952,0.5399604439735413,-1.1239956617355347
1761838761276281900,4.01128173828125,0.49215057492256165,0.48255839943885803,-0.5371081829071045
1761838761286349800,4.021349853515625,0.9071791768074036,0.3430260717868805,0.11672847718000412
1761838761296418600,4.03141845703125,1.1755778789520264,-0.05953123793005943,0.5610343217849731
1761838761306488800,4.04148876953125,1.1184618473052979,-1.1698020696640015,0.481403648853302
1761838761316558800,4.051558837890625,0.43844500184059143,-2.7054495811462402,-0.08161789923906326
1761838761326628600,4.061628662109375,-0.5002124905586243,-4.191917419433594,-0.4908304512500763
1761838761336697900,4.07169775390625,-1.2361592054367065,-4.605279922485352,-0.2380319982767105
1761838761346767600,4.081767578125,-1.6494700908660889,-3.715345859527588,0.5096981525421143
1761838761356837600,4.091837646484375,-2.0674402713775635,-2.0194826126098633,1.0294557809829712
1761838761366907000,4.101906982421875,-2.3448503017425537,-0.16665662825107574,0.6327963471412659
1761838761376976600,4.1119765625,-2.142817497253418,1.527444839477539,-0.7400205731391907
1761838761387046000,4.1220458984375,-1.4274777173995972,2.707528829574585,-2.4898643493652344
1761838761397115600,4.13211572265625,-0.5980490446090698,3.028428554534912,-4.064148902893066
1761838761407186000,4.14218603515625,0.06447965651750565,2.5605309009552,-5.116509437561035
1761838761417254700,4.152254638671875,0.47524774074554443,1.463709831237793,-5.594452381134033
1761838761427324700,4.16232470703125,0.6050736308097839,0.30100059509277344,-5.541421413421631
1761838761437395000,4.17239501953125,0.5478111505508423,-0.7418379187583923,-5.124022483825684
1761838761447463700,4.182463623046875,0.5326598882675171,-1.4618685245513916,-4.565279960632324
1761838761457534000,4.192533935546875,0.6231772899627686,-1.482318639755249,-4.247807502746582
1761838761467603700,4.202603759765625,0.8162921667098999,-0.5217270851135254,-4.607895374298096
1761838761477672700,4.212672607421875,0.9836627840995789,1.133237361907959,-5.291152477264404
1761838761487742700,4.22274267578125,0.9231347441673279,2.038611650466919,-4.804051876068115
1761838761497812700,4.232812744140625,0.7884339094161987,1.993518590927124,-3.6134443283081055
1761838761507882000,4.242882080078125,0.4809322655200958,1.509285807609558,-2.306011915206909
1761838761517951700,4.25295166015625,0.07531525939702988,1.0895510911941528,-1.0778859853744507
1761838761528021800,4.263021728515625,-0.2801927626132965,0.7494713068008423,-0.06238827481865883
1761838761538090800,4.2730908203125,-0.5492913722991943,0.4723861813545227,0.7350111603736877
1761838761548160800,4.283160888671875,-0.7416898012161255,0.2501392662525177,1.3661994934082031
1761838761558230800,4.293230712890625,-0.8546209335327148,0.1393405795097351,1.8678066730499268
1761838761568299800,4.3032998046875,-0.8652620911598206,0.23042309284210205,2.2292895317077637
1761838761578369800,4.313369873046875,-0.7696434259414673,0.46064138412475586,2.421032667160034
1761838761588439800,4.323439697265625,-0.5936177968978882,0.7253598570823669,2.482910633087158
1761838761598508800,4.3335087890625,-0.34734517335891724,0.9912195205688477,2.467447519302368
1761838761608578600,4.34357861328125,-0.09175229072570801,1.2190675735473633,2.406399965286255
1761838761618648800,4.35364892578125,0.11334333568811417,1.3859753608703613,2.340843915939331
1761838761628717600,4.363717529296875,0.25118961930274963,1.4525642395019531,2.294036865234375
1761838761638787800,4.373787841796875,0.32495731115341187,1.40283203125,2.2654855251312256
1761838761648857900,4.38385791015625,0.3661353886127472,1.2380332946777344,2.2618513107299805
1761838761658926800,4.3939267578125,0.38316524028778076,0.9865094423294067,2.27024245262146
1761838761668996900,4.403996826171875,0.3453209102153778,0.6697831153869629,2.2529027462005615
1761838761679066600,4.414066650390625,0.26608866453170776,0.2622379958629608,2.1614134311676025
1761838761689135900,4.424135986328125,0.2077566534280777,-0.2219766080379486,1.9830530881881714
1761838761699206000,4.434205810546875,0.15850070118904114,-0.7578509449958801,1.7101051807403564
1761838761709275600,4.444275634765625,0.1252918690443039,-1.2722349166870117,1.358891248703003
1761838761719345000,4.454344970703125,0.11662808060646057,-1.6851983070373535,0.9497823119163513
1761838761729414700,4.46441455078125,0.13474608957767487,-1.952888011932373,0.5223761200904846
1761838761739484700,4.474484619140625,0.20705784857273102,-2.059776544570923,0.1104026734828949
1761838761749553700,4.4845537109375,0.33045193552970886,-1.9720499515533447,-0.2158910185098648
1761838761759623700,4.494623779296875,0.5150303244590759,-1.680519938468933,-0.41974854469299316
1761838761769694000,4.50469384765625,0.7752925157546997,-1.2057507038116455,-0.49960261583328247
1761838761779762700,4.5147626953125,1.0223771333694458,-0.5540570616722107,-0.48852333426475525
1761838761789832700,4.524832763671875,1.1220667362213135,0.18684498965740204,-0.5097623467445374
1761838761799902700,4.53490283203125,1.0251777172088623,0.7740623950958252,-0.7229864597320557
1761838761809971700,4.5449716796875,0.7866780757904053,1.1233301162719727,-1.0814529657363892
1761838761820042000,4.5550419921875,0.5031291842460632,1.2358225584030151,-1.478655219078064
1761838761830111700,4.56511181640625,0.24626463651657104,1.156265139579773,-1.83162260055542
1761838761840181000,4.575180908203125,0.057746920734643936,0.9283332228660583,-2.0731394290924072
1761838761850250800,4.585250732421875,-0.0615999810397625,0.6060534119606018,-2.1630825996398926
1761838761860320800,4.59532080078125,-0.1406300812959671,0.2702818214893341,-2.0888612270355225
1761838761870389800,4.6053896484375,-0.22011558711528778,-0.04523006081581116,-1.8881497383117676
1761838761880459800,4.615459716796875,-0.27792829275131226,-0.26051732897758484,-1.5853246450424194
1761838761890528800,4.62552880859375,-0.2905122637748718,-0.3730587959289551,-1.2197115421295166
1761838761900598800,4.635598876953125,-0.2813914716243744,-0.44013717770576477,-0.8919687867164612
1761838761910669800,4.645669921875,-0.27372103929519653,-0.5229071378707886,-0.694864809513092
1761838761920738800,4.65573876953125,-0.26232561469078064,-0.5916558504104614,-0.6745693683624268
1761838761930808800,4.665808837890625,-0.24682550132274628,-0.655261218547821,-0.7436373829841614
1761838761940877600,4.675877685546875,-0.23249982297420502,-0.7179275155067444,-0.7975560426712036
1761838761950947800,4.68594775390625,-0.21846149861812592,-0.7575281858444214,-0.7126626968383789
1761838761961017900,4.696017822265625,-0.2011890411376953,-0.7643780708312988,-0.4830598533153534
1761838761971086800,4.7060869140625,-0.20584984123706818,-0.7560357451438904,-0.1991375982761383
1761838761981156900,4.716156982421875,-0.25270283222198486,-0.6928272247314453,0.06686824560165405
1761838761991226600,4.7262265625,-0.32273703813552856,-0.5841872692108154,0.3042352497577667
1761838762001296000,4.7362958984375,-0.39334356784820557,-0.4327239990234375,0.507858157157898
1761838762011366000,4.746365966796875,-0.44038936495780945,-0.3043375313282013,0.667149007320404
1761838762021435600,4.756435546875,-0.45422449707984924,-0.2140912562608719,0.8054304718971252
1761838762031505000,4.7665048828125,-0.4515669345855713,-0.15255065262317657,0.9325098395347595
1761838762041574700,4.77657470703125,-0.4440746605396271,-0.13440068066120148,1.0346801280975342
1761838762051645000,4.78664501953125,-0.4279545247554779,-0.1106058731675148,1.1236419677734375
1761838762061713700,4.796713623046875,-0.4072425961494446,-0.08846648037433624,1.1990001201629639
1761838762071783700,4.80678369140625,-0.40655604004859924,-0.09838169813156128,1.261305332183838
1761838762081854000,4.81685400390625,-0.4420738220214844,-0.1790991872549057,1.2919193506240845
1761838762091922700,4.826922607421875,-0.5165661573410034,-0.2938973903656006,1.275577425956726
1761838762101993000,4.836992919921875,-0.6298708915710449,-0.4443742632865906,1.213032603263855
1761838762112062700,4.847062744140625,-0.7401276230812073,-0.565615713596344,1.1397684812545776
1761838762122132200,4.85713232421875,-0.8431163430213928,-0.6035096049308777,1.0758390426635742
1761838762132202200,4.8672021484375,-0.9179655313491821,-0.5407753586769104,1.0275628566741943
1761838762142272300,4.877272216796875,-0.9510238766670227,-0.3980879783630371,0.9830939173698425
1761838762152341200,4.88734130859375,-0.9251339435577393,-0.2161663919687271,0.9048065543174744
1761838762162411300,4.897411376953125,-0.8489086627960205,-0.023024892434477806,0.7772781848907471
1761838762172481300,4.907481201171875,-0.7467844486236572,0.1654752492904663,0.6163982152938843
1761838762182550300,4.91755029296875,-0.6453611850738525,0.3171880841255188,0.422864705324173
1761838762192620300,4.927620361328125,-0.5595780611038208,0.4222218096256256,0.21492135524749756
1761838762202689300,4.937689208984375,-0.500235915184021,0.45651668310165405,0.01016981340944767
1761838762212759300,4.94775927734375,-0.48878538608551025,0.4485173225402832,-0.1793987900018692
1761838762222829300,4.957829345703125,-0.5095633864402771,0.42925789952278137,-0.3219703137874603
1761838762232898300,4.967898193359375,-0.5280614495277405,0.4033586382865906,-0.4218982458114624
1761838762242968300,4.97796826171875,-0.5391881465911865,0.37653475999832153,-0.4730317294597626
1761838762253038000,4.9880380859375,-0.5329291820526123,0.344896137714386,-0.49308639764785767
1761838762263107300,4.998107421875,-0.5215374827384949,0.3022021949291229,-0.4973967373371124
1761838762273177000,5.008177001953125,-0.5016053318977356,0.26842132210731506,-0.4947921633720398
1761838762283247400,5.018247314453125,-0.49138784408569336,0.24138838052749634,-0.48723331093788147
1761838762293316000,5.028316162109375,-0.47913622856140137,0.23374643921852112,-0.4948030710220337
1761838762303386000,5.03838623046875,-0.46503186225891113,0.23652571439743042,-0.5176101326942444
1761838762313456400,5.048456298828125,-0.44140350818634033,0.24047093093395233,-0.5725380778312683
1761838762323525000,5.058525146484375,-0.40123051404953003,0.25844913721084595,-0.654305636882782
1761838762333595400,5.068595458984375,-0.35435622930526733,0.28650525212287903,-0.7645389437675476
1761838762343665200,5.0786650390625,-0.318255215883255,0.34506070613861084,-0.9129092693328857
1761838762353734100,5.088734130859375,-0.3081676959991455,0.4595009982585907,-1.0844887495040894
1761838762363804400,5.098804443359375,-0.3545474410057068,0.6648688316345215,-1.234689712524414
1761838762373874200,5.108874267578125,-0.4589449465274811,0.9379890561103821,-1.3657571077346802
1761838762383943400,5.118943359375,-0.5877417922019958,1.20511794090271,-1.4943764209747314
1761838762394013200,5.12901318359375,-0.7052751183509827,1.415532112121582,-1.6302186250686646
1761838762404083200,5.139083251953125,-0.7910965085029602,1.4842464923858643,-1.760266900062561
1761838762414152200,5.149152099609375,-0.8206365704536438,1.3894810676574707,-1.837161660194397
1761838762424222200,5.15922216796875,-0.7657768130302429,1.2085334062576294,-1.8285458087921143
1761838762434292200,5.169292236328125,-0.6218894124031067,0.9052467942237854,-1.7449039220809937
1761838762444361200,5.179361328125,-0.33481207489967346,0.5950010418891907,-1.5231587886810303
1761838762454431200,5.18943115234375,0.0482729896903038,0.44431912899017334,-1.1075538396835327
1761838762464500200,5.199500244140625,0.3632147014141083,0.1460842341184616,-0.765410840511322
1761838762474570200,5.2095703125,0.4539821445941925,-0.5117269158363342,-0.6804299354553223
1761838762484640000,5.219639892578125,0.40582552552223206,-1.4768178462982178,-0.6944078207015991
1761838762494709200,5.229709228515625,0.40404626727104187,-2.3849267959594727,-0.4987533390522003
1761838762504779300,5.239779296875,0.6403568387031555,-2.9547929763793945,0.055082693696022034
1761838762514849300,5.249849365234375,0.9614107608795166,-2.828709363937378,0.894814670085907
1761838762524918300,5.259918212890625,1.078704833984375,-2.201040744781494,1.5811676979064941
1761838762534988300,5.26998828125,1.0400820970535278,-1.3933019638061523,1.7703666687011719
1761838762545058300,5.280058349609375,0.9317306280136108,-0.6985793709754944,1.4804368019104004
1761838762555127000,5.290126953125,0.8046373724937439,-0.35872459411621094,0.8759568333625793
1761838762565197300,5.300197265625,0.7823810577392578,-0.48841121792793274,0.1971554160118103
1761838762575267300,5.310267333984375,0.9316648244857788,-0.9825458526611328,-0.26963865756988525
1761838762585336300,5.32033642578125,1.2027040719985962,-1.56108558177948,-0.39922595024108887
1761838762595406300,5.33040625,1.3140329122543335,-2.0109806060791016,-0.24305099248886108
1761838762605476000,5.34047607421875,1.16438889503479,-1.9885450601577759,0.14054033160209656
1761838762615545300,5.35054541015625,0.8936580419540405,-1.5801626443862915,0.6855631470680237
1761838762625615000,5.360614990234375,0.7322880625724792,-1.272749423980713,1.1111429929733276
1761838762635685000,5.37068505859375,0.7183775901794434,-1.1172235012054443,1.2422250509262085
1761838762645754400,5.38075439453125,0.7777743339538574,-0.9260056018829346,1.1313190460205078
1761838762655824100,5.39082421875,0.7624787092208862,-0.5180740356445312,0.9038835167884827
1761838762665893400,5.400893310546875,0.538038969039917,0.1186523512005806,0.6769827604293823
1761838762675963100,5.410963134765625,0.1350419670343399,0.8772487044334412,0.66221684217453
1761838762686033200,5.421033203125,-0.2078341543674469,1.4736289978027344,0.9069035649299622
1761838762696102100,5.43110205078125,-0.43331095576286316,1.8069106340408325,1.231479287147522
1761838762706172200,5.441172119140625,-0.5979616641998291,1.9511399269104004,1.5838806629180908
1761838762716242400,5.451242431640625,-0.6658656597137451,2.072726011276245,1.9774093627929688
1761838762726311200,5.461311279296875,-0.46138280630111694,2.077988862991333,2.459663152694702
1761838762736381200,5.471381103515625,0.02786358818411827,1.8460289239883423,3.0210680961608887
1761838762746451200,5.481451171875,0.7595519423484802,1.4701757431030273,3.64080548286438
1761838762756520200,5.491520263671875,1.643486499786377,1.0758275985717773,4.249996662139893
1761838762766590200,5.501590087890625,2.464844226837158,0.5686972737312317,4.688075542449951
1761838762776660200,5.51166015625,3.0007622241973877,0.07467823475599289,4.886185646057129
1761838762786729200,5.521729248046875,3.192962169647217,-0.44585445523262024,4.8636322021484375
1761838762796799200,5.53179931640625,2.9855360984802246,-0.2864200472831726,4.960212230682373
1761838762806869200,5.541869140625,2.5346415042877197,-0.293117880821228,5.002901077270508
1761838762816938200,5.551938232421875,1.5231400728225708,-0.3241514563560486,4.958051681518555
1761838762827008300,5.56200830078125,0.3875751495361328,-0.44567760825157166,4.814375400543213
1761838762837077200,5.5720771484375,-0.38516765832901,-0.4482046961784363,4.492669582366943
1761838762847147300,5.582147216796875,-0.6995263695716858,-0.3083125650882721,3.8515257835388184
1761838762857217300,5.59221728515625,-0.6393187046051025,-0.15016792714595795,2.8941826820373535
1761838762867286300,5.602286376953125,-0.2889074385166168,0.10036042332649231,1.8807426691055298
1761838762877356300,5.612356201171875,0.18143610656261444,0.48849350214004517,1.0615490674972534
1761838762887426000,5.622426025390625,0.6306261420249939,1.0047707557678223,0.4848596453666687
1761838762897495300,5.632495361328125,0.9816001653671265,1.521324634552002,0.16073189675807953
1761838762907565000,5.64256494140625,1.1690491437911987,1.7057679891586304,0.02647501602768898
1761838762917635300,5.65263525390625,0.9796251654624939,1.429796576499939,-0.0030597057193517685
1761838762927704300,5.662704345703125,0.481110155582428,0.867694079875946,0.043722447007894516
1761838762937774000,5.672774169921875,-0.13710592687129974,0.1795164942741394,0.020256802439689636
1761838762947844400,5.68284423828125,-0.6730327606201172,-0.48860588669776917,-0.1455012708902359
1761838762957913000,5.6929130859375,-1.024962067604065,-0.9347069263458252,-0.44476521015167236
1761838762967983400,5.7029833984375,-1.1704888343811035,-1.1594029664993286,-0.8023055195808411
1761838762978052000,5.713052001953125,-1.1605006456375122,-1.2225112915039062,-1.2501394748687744
1761838762988122000,5.7231220703125,-1.0414690971374512,-1.111720323562622,-1.8458646535873413
1761838762998192400,5.7331923828125,-0.884584367275238,-0.8054448366165161,-2.5246894359588623
1761838763008261000,5.74326123046875,-0.7729313969612122,-0.2962050437927246,-3.1392009258270264
1761838763018331400,5.753331298828125,-0.6475289463996887,0.31500083208084106,-3.4712188243865967
1761838763028401200,5.763401123046875,-0.47703659534454346,0.8093956112861633,-3.4740750789642334
1761838763038470100,5.77347021484375,-0.3923499286174774,1.1104058027267456,-3.3137638568878174
1761838763048540200,5.7835400390625,-0.3544241189956665,1.1417988538742065,-3.0610098838806152
1761838763058610200,5.793610107421875,-0.37575390934944153,0.7934994697570801,-2.9850165843963623
1761838763068679400,5.803679443359375,-0.46743881702423096,0.20800752937793732,-3.0730412006378174
1761838763078749200,5.813749267578125,-0.517344057559967,-0.5050261616706848,-3.105803966522217
1761838763088819200,5.823819091796875,-0.39672818779945374,-1.1464931964874268,-2.7609734535217285
1761838763098888200,5.83388818359375,0.011056645773351192,-1.570413589477539,-1.8885489702224731
1761838763108958200,5.843958251953125,0.7059779167175293,-1.7829434871673584,-0.6373988389968872
1761838763119028000,5.854028076171875,1.463630199432373,-1.9332053661346436,0.4682351052761078
1761838763129097700,5.86409765625,2.0629429817199707,-2.729933261871338,0.6718851923942566
1761838763139167700,5.874167724609375,2.0718979835510254,-3.503329277038574,-0.2420126348733902
1761838763149236700,5.88423681640625,1.6215758323669434,-3.2853872776031494,-1.6028608083724976
1761838763159306800,5.894306640625,1.068541407585144,-2.5127060413360596,-2.308708667755127
1761838763169376800,5.904376708984375,0.3230701982975006,-1.7626882791519165,-1.696160078048706
1761838763179445800,5.91444580078125,-0.7040846347808838,-0.6787444353103638,-0.49951714277267456
1761838763189515800,5.924515869140625,-1.5302855968475342,0.46163660287857056,0.1750437170267105
1761838763199585800,5.934585693359375,-1.8445415496826172,1.2437154054641724,0.008229433558881283
1761838763209654800,5.94465478515625,-1.7336773872375488,1.7100415229797363,-0.8932708501815796
1761838763219724800,5.954724853515625,-1.2756155729293823,1.880773901939392,-2.257402181625366
1761838763229794800,5.964794921875,-0.6798168420791626,1.6755754947662354,-3.731915235519409
1761838763239863800,5.97486376953125,-0.14949388802051544,1.0093777179718018,-4.927289009094238
1761838763249933800,5.984933837890625,0.3174629211425781,0.06948533654212952,-5.516397953033447
1761838763260002800,5.9950029296875,0.7411582469940186,-0.8103325366973877,-5.3940653800964355
1761838763270072600,6.005072509765625,1.0318838357925415,-1.3558895587921143,-4.691624641418457
1761838763280142800,6.015142822265625,1.0781067609786987,-1.3379398584365845,-3.7654919624328613
1761838763290211600,6.025211669921875,0.9384819865226746,-0.8235154747962952,-3.0786991119384766
1761838763300281900,6.03528173828125,0.6474570631980896,0.12511903047561646,-2.9679417610168457
1761838763310352000,6.045351806640625,0.30318278074264526,1.1507494449615479,-3.2391157150268555
1761838763320420900,6.0554208984375,-0.2058197408914566,1.438246250152588,-2.6161296367645264
1761838763330491000,6.065490966796875,-0.6003230810165405,1.2322624921798706,-1.4478358030319214
1761838763340560600,6.075560546875,-0.8913312554359436,0.8647941946983337,-0.14453640580177307
1761838763350630000,6.0856298828125,-1.1771433353424072,0.4712090790271759,0.9884476661682129
1761838763360700000,6.095699951171875,-1.3504612445831299,0.1791127622127533,1.8185640573501587
1761838763370769000,6.105768798828125,-1.3783626556396484,0.005525792948901653,2.366076707839966
1761838763380839000,6.1158388671875,-1.3164234161376953,-0.018446385860443115,2.690079689025879
1761838763390908700,6.12590869140625,-1.2146837711334229,0.11808456480503082,2.8376457691192627
1761838763400978000,6.13597802734375,-1.0708277225494385,0.39477527141571045,2.8644022941589355
1761838763411047700,6.146047607421875,-0.9146701097488403,0.723116397857666,2.799928665161133
1761838763421117700,6.15611767578125,-0.7523326277732849,1.046181321144104,2.6907999515533447
1761838763431186700,6.166186767578125,-0.581682562828064,1.3286007642745972,2.551445722579956
1761838763441256700,6.176256591796875,-0.4145846664905548,1.531845211982727,2.396512985229492
1761838763451326700,6.18632666015625,-0.2460039108991623,1.6279677152633667,2.24155592918396
1761838763461395700,6.196395751953125,-0.08616790920495987,1.5893367528915405,2.0996127128601074
1761838763471465700,6.2064658203125,0.047568585723638535,1.390396237373352,1.9645966291427612
1761838763481534700,6.21653466796875,0.16054387390613556,1.0580400228500366,1.8317285776138306
1761838763491604700,6.226604736328125,0.2093883752822876,0.702340841293335,1.6819425821304321
1761838763501675000,6.236675048828125,0.27928704023361206,0.28279975056648254,1.54214608669281
1761838763511743700,6.24674365234375,0.393201619386673,-0.14548556506633759,1.4225280284881592
1761838763521813800,6.256813720703125,0.5358373522758484,-0.5656777620315552,1.2956593036651611
1761838763531883800,6.2668837890625,0.6471611857414246,-0.9744412899017334,1.103223204612732
1761838763541952800,6.276952880859375,0.712425708770752,-1.3564696311950684,0.8161142468452454
1761838763552022800,6.287022705078125,0.7405164241790771,-1.6852754354476929,0.4467708468437195
1761838763562091800,6.297091796875,0.7309005856513977,-1.8661901950836182,0.010703776963055134
1761838763572161800,6.307161865234375,0.6855189800262451,-1.8483794927597046,-0.44672396779060364
1761838763582231800,6.317231689453125,0.6211761832237244,-1.6312114000320435,-0.912813663482666
1761838763592300800,6.32730078125,0.5119386315345764,-1.2250738143920898,-1.3759069442749023
1761838763602370800,6.337370849609375,0.31613612174987793,-0.7096453309059143,-1.800173044204712
1761838763612440800,6.34744091796875,0.021028053015470505,-0.16666993498802185,-2.133338212966919
1761838763622509800,6.357509765625,-0.29802823066711426,0.3731919527053833,-2.3420653343200684
1761838763632579800,6.367579833984375,-0.548049807548523,0.809929609298706,-2.4453017711639404
1761838763642649900,6.37764990234375,-0.6398569345474243,1.0860943794250488,-2.486388683319092
1761838763652718800,6.38771875,-0.5688525438308716,1.200036644935608,-2.4576587677001953
1761838763662788900,6.397788818359375,-0.39177417755126953,1.192115306854248,-2.3525142669677734
1761838763672857900,6.40785791015625,-0.18071891367435455,1.0952335596084595,-2.179189682006836
1761838763682927900,6.417927978515625,0.013925403356552124,0.889589250087738,-1.9869080781936646
1761838763692997600,6.42799755859375,0.15918593108654022,0.6336347460746765,-1.7860838174819946
1761838763703067000,6.43806689453125,0.23615820705890656,0.43694669008255005,-1.5684404373168945
1761838763713136600,6.44813671875,0.2131815105676651,0.30791255831718445,-1.3437250852584839
1761838763723206700,6.45820654296875,0.08405681699514389,0.20480400323867798,-1.0838887691497803
1761838763733276000,6.46827587890625,-0.0915597453713417,0.13840660452842712,-0.7977243065834045
1761838763743345700,6.478345703125,-0.28287965059280396,0.0958961695432663,-0.5002199411392212
1761838763753416000,6.488416015625,-0.4751891493797302,0.05155613645911217,-0.2506764233112335
1761838763763484700,6.498484619140625,-0.643242359161377,-0.0029553098138421774,-0.05970514193177223
1761838763773554700,6.5085546875,-0.754791796207428,-0.014872689731419086,0.12278290838003159
1761838763783623700,6.518623779296875,-0.8409210443496704,-0.01792600378394127,0.31839820742607117
1761838763793693700,6.528693603515625,-0.9180672764778137,-0.006238188594579697,0.49330025911331177
1761838763803764000,6.538763916015625,-0.9701211452484131,0.027128024026751518,0.6377373337745667
1761838763813832700,6.548832763671875,-0.9838071465492249,0.07384679466485977,0.7555100321769714
1761838763823902700,6.55890283203125,-0.9630757570266724,0.10688836872577667,0.8629400730133057
1761838763833972700,6.56897265625,-0.9040912389755249,0.11371590942144394,0.9594570398330688
1761838763844041700,6.579041748046875,-0.8262345194816589,0.09479361772537231,1.026541829109192
1761838763854111700,6.58911181640625,-0.7406413555145264,0.07851877808570862,1.082584023475647
1761838763864180700,6.5991806640625,-0.6506038308143616,0.07769212871789932,1.135190486907959
1761838763874251000,6.6092509765625,-0.5514357089996338,0.05639003962278366,1.1769323348999023
1761838763884320800,6.61932080078125,-0.44488799571990967,0.007567904889583588,1.1848243474960327
1761838763894389800,6.6293896484375,-0.3498448133468628,-0.056415338069200516,1.1529362201690674
1761838763904459800,6.639459716796875,-0.26180949807167053,-0.10128294676542282,1.0683009624481201
1761838763914529800,6.64952978515625,-0.17542721331119537,-0.11908164620399475,0.9355645179748535
1761838763924598800,6.659598876953125,-0.07705377042293549,-0.11952506750822067,0.769962728023529
1761838763934668800,6.669668701171875,0.021381188184022903,-0.10832647234201431,0.5794205069541931
1761838763944737800,6.67973779296875,0.10767373442649841,-0.08470716327428818,0.3787899315357208
1761838763954807800,6.689807861328125,0.159352645277977,-0.03267352283000946,0.17309002578258514
1761838763964877800,6.6998779296875,0.18016977608203888,0.04755500331521034,-0.01571664586663246
1761838763974946800,6.70994677734375,0.17581523954868317,0.12624529004096985,-0.18952278792858124
1761838763985016800,6.720016845703125,0.15995770692825317,0.18592485785484314,-0.34994974732398987
1761838763995086600,6.730086669921875,0.13462306559085846,0.2592028081417084,-0.5006588101387024
1761838764005155800,6.74015576171875,0.08524219691753387,0.34694650769233704,-0.6822073459625244
1761838764015225900,6.750225830078125,0.020257867872714996,0.43592485785484314,-0.891089141368866
1761838764025294800,6.760294921875,-0.06011446937918663,0.510913074016571,-1.0951850414276123
1761838764035364900,6.77036474609375,-0.14915166795253754,0.5565567016601562,-1.2317605018615723
1761838764045434600,6.7804345703125,-0.23507536947727203,0.5612207055091858,-1.297379732131958
1761838764055504000,6.79050390625,-0.29315412044525146,0.5524506568908691,-1.2958673238754272
1761838764065573600,6.80057373046875,-0.34471529722213745,0.5417562127113342,-1.2493687868118286
1761838764075644000,6.810643798828125,-0.3927195966243744,0.5406925082206726,-1.1940453052520752
1761838764085712600,6.820712646484375,-0.44147488474845886,0.5495121479034424,-1.1677628755569458
1761838764095782700,6.83078271484375,-0.4948638081550598,0.49963459372520447,-1.1794730424880981
1761838764105852000,6.840851806640625,-0.5490567088127136,0.42544636130332947,-1.2249456644058228
1761838764115921700,6.850921630859375,-0.5869266390800476,0.336266428232193,-1.2894748449325562
1761838764125991700,6.86099169921875,-0.6173897385597229,0.24533918499946594,-1.3790801763534546
1761838764136060700,6.871060791015625,-0.6514883041381836,0.19871816039085388,-1.486810564994812
1761838764146130700,6.881130615234375,-0.6820858716964722,0.1887906938791275,-1.5884448289871216
1761838764156200700,6.89120068359375,-0.706369936466217,0.17415794730186462,-1.6527119874954224
1761838764166269400,6.90126953125,-0.6764500737190247,0.151356503367424,-1.6167837381362915
1761838764176339700,6.911339599609375,-0.57599937915802,0.14060239493846893,-1.4484533071517944
1761838764186408700,6.92140869140625,-0.4434722363948822,0.1360073685646057,-1.1747422218322754
1761838764196478700,6.931478759765625,-0.3168163001537323,0.11641635745763779,-0.836978018283844
1761838764206548700,6.941548828125,-0.2316018044948578,0.07724179327487946,-0.45614516735076904
1761838764216617500,6.951617431640625,-0.22509144246578217,-0.023273363709449768,-0.05507789924740791
1761838764226687700,6.961687744140625,-0.20100900530815125,-0.10134845972061157,0.34095731377601624
1761838764236757800,6.9717578125,-0.09131047129631042,-0.1715957224369049,0.7190806269645691
1761838764246826800,6.98182666015625,0.009549562819302082,-0.2762545049190521,1.0016937255859375
1761838764256896800,6.991896728515625,0.036853354424238205,-0.48419755697250366,1.0792969465255737
1761838764266965500,7.001965576171875,0.056534383445978165,-0.7951639890670776,1.0238161087036133
1761838764277035800,7.012035888671875,0.11866113543510437,-1.1975593566894531,0.8388821482658386
1761838764287105500,7.02210546875,0.2173943668603897,-1.7709437608718872,0.5199151039123535
1761838764297174800,7.0321748046875,0.2251920998096466,-2.282151699066162,0.07732834666967392
1761838764307244500,7.04224462890625,0.05182484909892082,-2.5807955265045166,-0.45759817957878113
1761838764317314600,7.052314453125,-0.29593685269355774,-2.5666239261627197,-0.935084879398346
1761838764327383800,7.0623837890625,-0.6470666527748108,-2.135103702545166,-1.1089732646942139
1761838764337453600,7.07245361328125,-0.7308704853057861,-1.2222870588302612,-0.7255662679672241
1761838764347522800,7.082522705078125,-0.39850956201553345,-0.16624996066093445,0.17716838419437408
1761838764357592600,7.092592529296875,0.25184395909309387,0.6181188821792603,1.245457649230957
1761838764367662600,7.10266259765625,0.8507169485092163,0.7978769540786743,2.005014657974243
1761838764377731600,7.112731689453125,1.1613608598709106,0.3173300325870514,2.2791686058044434
1761838764387801600,7.122801513671875,1.2447689771652222,-0.5864182114601135,2.2189552783966064
1761838764397870600,7.13287060546875,1.3187776803970337,-1.4497804641723633,2.241058588027954
1761838764407940600,7.142940673828125,1.5201743841171265,-2.048666477203369,2.5827817916870117
1761838764418010600,7.1530107421875,1.7341327667236328,-2.3713204860687256,3.126044273376465
1761838764428079600,7.16307958984375,1.8106968402862549,-2.513746976852417,3.582754135131836
1761838764438149600,7.173149658203125,1.7888034582138062,-2.5710365772247314,3.7366623878479004
1761838764448219600,7.1832197265625,1.6996331214904785,-2.438417673110962,3.5619900226593018
1761838764458288600,7.19328857421875,1.5689939260482788,-2.053337335586548,3.177206516265869
1761838764468358700,7.203358642578125,1.4994009733200073,-1.3971621990203857,2.7446322441101074
1761838764478427600,7.213427734375,1.4992026090621948,-0.5463134050369263,2.4297759532928467
1761838764488497700,7.22349755859375,1.5572493076324463,0.35645344853401184,2.292100429534912
1761838764498567700,7.233567626953125,1.6343992948532104,1.2090578079223633,2.309386730194092
1761838764508636700,7.24363671875,1.719383955001831,1.7793498039245605,2.4253108501434326
1761838764518706700,7.253706787109375,1.7811639308929443,1.9927952289581299,2.585000991821289
1761838764528776700,7.263776611328125,1.8602102994918823,1.988525390625,2.7771642208099365
1761838764538845400,7.273845458984375,1.8664255142211914,1.8558599948883057,3.004380702972412
1761838764548915700,7.283915771484375,1.634291172027588,1.614482045173645,3.205434799194336
1761838764558984700,7.293984619140625,1.0686529874801636,1.3050397634506226,3.281397581100464
1761838764569054700,7.3040546875,0.22716976702213287,1.1099271774291992,3.1823909282684326
1761838764579124700,7.314124755859375,-0.7217763066291809,1.2721827030181885,3.0058820247650146
1761838764589193500,7.324193359375,-1.5608710050582886,1.7726106643676758,2.9468443393707275
1761838764599263700,7.334263671875,-2.1521012783050537,2.362262725830078,3.0504486560821533
1761838764609332500,7.34433251953125,-2.4494128227233887,2.7688422203063965,3.25403094291687
1761838764619402800,7.35440283203125,-2.5092806816101074,2.883437156677246,3.472733497619629
1761838764629472800,7.36447265625,-2.4880423545837402,2.749295234680176,3.635410785675049
1761838764639541500,7.37454150390625,-2.464655876159668,2.3388774394989014,3.6543996334075928
1761838764649611800,7.38461181640625,-2.430614948272705,1.6556358337402344,3.5721347332000732
1761838764659681500,7.394681640625,-2.377736806869507,0.8259423971176147,3.428617238998413
1761838764669750800,7.404750732421875,-2.310256004333496,-0.046303048729896545,3.245962381362915
1761838764679820500,7.414820556640625,-2.229604482650757,-0.8760671019554138,2.964646100997925
1761838764689889800,7.424889892578125,-2.1009249687194824,-1.491136908531189,2.521700143814087
1761838764699959800,7.434959716796875,-1.914095401763916,-1.7736694812774658,1.9212560653686523
1761838764710029600,7.445029541015625,-1.7185815572738647,-1.6662431955337524,1.2372372150421143
1761838764720098800,7.455098876953125,-1.5981978178024292,-1.2849842309951782,0.531757116317749
1761838764730168600,7.46516845703125,-1.5482598543167114,-0.8014876246452332,-0.10728996992111206
1761838764740237800,7.47523779296875,-1.514917016029358,-0.4033131003379822,-0.5899879336357117
1761838764750307600,7.4853076171875,-1.4805324077606201,-0.19112016260623932,-0.8994166254997253
1761838764760377600,7.495377685546875,-1.4431581497192383,-0.23130272328853607,-1.0186370611190796
1761838764770446600,7.505446533203125,-1.3814629316329956,-0.49342969059944153,-1.011522889137268
1761838764780516600,7.5155166015625,-1.2573739290237427,-0.8716672658920288,-0.9279755353927612
1761838764790586600,7.525586669921875,-1.0758401155471802,-1.236649751663208,-0.8086256980895996
1761838764800655600,7.535655517578125,-0.8541881442070007,-1.5487070083618164,-0.6869317889213562
1761838764810725600,7.5457255859375,-0.6437177062034607,-1.765730619430542,-0.6466463804244995
1761838764820794600,7.555794677734375,-0.47007882595062256,-1.8983008861541748,-0.6623063087463379
1761838764830864600,7.56586474609375,-0.36379846930503845,-1.9563250541687012,-0.6673048138618469
1761838764840934700,7.5759345703125,-0.2835182547569275,-1.9687652587890625,-0.6373519897460938
1761838764851003600,7.586003662109375,-0.19802892208099365,-1.9717732667922974,-0.6116138696670532
1761838764861073700,7.59607373046875,-0.11366690695285797,-1.936305046081543,-0.6217733025550842
1761838764871142700,7.606142578125,-0.02370160073041916,-1.7982091903686523,-0.6883246302604675
1761838764881212700,7.616212646484375,0.06577581912279129,-1.5074375867843628,-0.8064989447593689
1761838764891282400,7.626282470703125,0.1493130475282669,-1.1384427547454834,-0.9517629146575928
1761838764901351700,7.6363515625,0.2212226688861847,-0.7985174059867859,-1.1568937301635742
1761838764911421400,7.64642138671875,0.302197128534317,-0.5214663743972778,-1.4939435720443726
1761838764921490700,7.65649072265625,0.4068220853805542,-0.36440086364746094,-1.975529432296753
1761838764931560700,7.666560791015625,0.5444521307945251,-0.3927174508571625,-2.520840883255005
1761838764941630700,7.676630615234375,0.704206645488739,-0.5401420593261719,-3.0242319107055664
1761838764951699700,7.68669970703125,0.8335379958152771,-0.7785570025444031,-3.394458532333374
1761838764961769500,7.69676953125,0.9993717074394226,-0.9389493465423584,-3.4394943714141846
1761838764971839700,7.70683984375,1.329143762588501,-0.937336802482605,-3.059920310974121
1761838764981908500,7.716908447265625,1.7822345495224,-0.7096551656723022,-2.4273293018341064
1761838764991978800,7.726978759765625,2.1231045722961426,-1.276483178138733,-2.1976261138916016
1761838765002047500,7.737047607421875,2.089423656463623,-2.010653257369995,-2.323894500732422
1761838765012117500,7.747117431640625,1.6661672592163086,-3.051973342895508,-2.519782543182373
1761838765022187800,7.757187744140625,0.9568237066268921,-3.290865898132324,-2.0519111156463623
1761838765032256500,7.767256591796875,-0.26808151602745056,-2.5884406566619873,-1.0531954765319824
1761838765042326800,7.777326904296875,-1.5960984230041504,-1.7934890985488892,-0.4961423873901367
1761838765052395500,7.7873955078125,-2.322075843811035,-0.981343150138855,-0.5915104150772095
1761838765062465800,7.7974658203125,-2.331003427505493,-0.178069069981575,-1.081673264503479
1761838765072535800,7.807535888671875,-1.8014860153198242,0.4741089940071106,-1.6736034154891968
1761838765082604500,7.8176044921875,-1.065529465675354,0.8641049265861511,-2.193066358566284
1761838765092674800,7.8276748046875,-0.41577431559562683,0.9420276880264282,-2.632059097290039
1761838765102743600,7.83774365234375,0.02912938967347145,0.8616186380386353,-2.9408481121063232
1761838765112813800,7.847813720703125,0.2924981713294983,0.7724147439002991,-2.9914281368255615
1761838765122883300,7.85788330078125,0.4416285455226898,0.6732289791107178,-2.7141377925872803
1761838765132952600,7.86795263671875,0.5282135009765625,0.4915335178375244,-2.2335851192474365
1761838765143022300,7.878022216796875,0.5612905025482178,0.25350576639175415,-1.663437008857727
1761838765153091300,7.88809130859375,0.5497257113456726,0.0489177405834198,-1.0826364755630493
1761838765163161300,7.898161376953125,0.5319030284881592,-0.04641490429639816,-0.5155371427536011
1761838765173231400,7.9082314453125,0.4771338105201721,0.07410059124231339,-0.023013973608613014
1761838765183300400,7.91830029296875,0.34404417872428894,0.3467353284358978,0.27306029200553894
1761838765193370400,7.928370361328125,0.18301749229431152,0.6710129976272583,0.34743812680244446
1761838765203439400,7.938439453125,0.05789073184132576,0.939279317855835,0.27170369029045105
1761838765213509400,7.94850927734375,-0.048113200813531876,1.0810894966125488,0.1026797741651535
1761838765223579400,7.958579345703125,-0.15649187564849854,1.0946580171585083,-0.07310403883457184
1761838765233648400,7.9686484375,-0.24585451185703278,1.0632507801055908,-0.16907291114330292
1761838765243718400,7.978718505859375,-0.27927425503730774,1.0493115186691284,-0.12070751190185547
1761838765253788400,7.988788330078125,-0.2671355605125427,1.0184814929962158,0.07431444525718689
1761838765263857400,7.998857421875,-0.22238540649414062,0.927534818649292,0.3676674962043762
1761838765273927400,8.008927490234376,-0.15980884432792664,0.7709528803825378,0.6888558864593506
1761838765283996400,8.018996337890625,-0.08503206819295883,0.5937014222145081,0.9902836680412292
1761838765294065400,8.0290654296875,-0.030128873884677887,0.3706427812576294,1.2075488567352295
1761838765304135400,8.039135498046875,-0.006588394287973642,0.12518560886383057,1.363887071609497
1761838765314204400,8.049204345703124,0.0133850472047925,-0.045749910175800323,1.4738514423370361
1761838765324274200,8.059274169921874,0.02268773503601551,-0.16997332870960236,1.5318340063095093
1761838765334344400,8.069344482421876,0.01546710729598999,-0.2628529369831085,1.4938464164733887
1761838765344413200,8.0794130859375,-0.01962456852197647,-0.29095619916915894,1.3709598779678345
1761838765354483500,8.0894833984375,-0.08154386281967163,-0.2910781800746918,1.1866159439086914
1761838765364552200,8.09955224609375,-0.12189767509698868,-0.24727503955364227,1.005631685256958
1761838765374622500,8.10962255859375,-0.13215777277946472,-0.17142368853092194,0.8493651747703552
1761838765384692500,8.1196923828125,-0.11615829914808273,-0.11232414096593857,0.7369733452796936
1761838765394761200,8.12976123046875,-0.07951799780130386,-0.04907806217670441,0.6669120192527771
1761838765404831500,8.13983154296875,-0.04283614829182625,0.028204206377267838,0.6161050200462341
1761838765414901200,8.1499013671875,-0.04392484575510025,0.14595480263233185,0.582568347454071
1761838765424970500,8.159970458984375,-0.07999256998300552,0.2608880400657654,0.5797451138496399
1761838765435040500,8.17004052734375,-0.13953818380832672,0.3113509714603424,0.6049298644065857
1761838765445109200,8.180109130859375,-0.1995011270046234,0.3183007538318634,0.6519953608512878
1761838765455179500,8.190179443359375,-0.26254934072494507,0.2795126140117645,0.68038409948349
1761838765465249300,8.200249267578124,-0.3565213680267334,0.24263527989387512,0.6303049921989441
1761838765475318500,8.210318603515624,-0.4887177646160126,0.28640592098236084,0.4724157452583313
1761838765485388300,8.22038818359375,-0.6233828663825989,0.358608216047287,0.21839597821235657
1761838765495457500,8.23045751953125,-0.7069832682609558,0.3964799642562866,-0.0708635225892067
1761838765505527300,8.24052734375,-0.7168603539466858,0.4211118221282959,-0.3141310214996338
1761838765515597300,8.250597412109375,-0.6656683087348938,0.3943006992340088,-0.48062413930892944
1761838765525666600,8.26066650390625,-0.5722600221633911,0.30763956904411316,-0.5800607204437256
1761838765535736300,8.270736328125,-0.4522297978401184,0.19634102284908295,-0.6189076900482178
1761838765545805600,8.2808056640625,-0.34045690298080444,0.079865001142025,-0.6073916554450989
1761838765555875300,8.290875244140626,-0.23492516577243805,-0.02876453660428524,-0.5309025049209595
1761838765565945300,8.3009453125,-0.14281760156154633,-0.10647877305746078,-0.37589454650878906
1761838765576014300,8.311014404296875,-0.05951712280511856,-0.1158970445394516,-0.14030970633029938
1761838765586084400,8.32108447265625,0.019106583669781685,-0.10389044880867004,0.13238227367401123
1761838765596153300,8.3311533203125,0.10282731056213379,-0.13789129257202148,0.3777427673339844
1761838765606223400,8.341223388671875,0.17852632701396942,-0.20852763950824738,0.5507550239562988
1761838765616293400,8.35129345703125,0.2438526153564453,-0.2690466344356537,0.6290575265884399
1761838765626362400,8.3613623046875,0.30191725492477417,-0.30731120705604553,0.6311420202255249
1761838765636432400,8.371432373046876,0.3209175765514374,-0.29435041546821594,0.575320839881897
1761838765646501400,8.38150146484375,0.3045188784599304,-0.20854681730270386,0.5101197361946106
1761838765656571400,8.3915712890625,0.26724928617477417,-0.07078468799591064,0.46209999918937683
1761838765666641400,8.401641357421875,0.21100544929504395,0.04815634340047836,0.43014952540397644
1761838765676710400,8.41171044921875,0.14620408415794373,0.1469193994998932,0.41293057799339294
1761838765686780400,8.421780517578124,0.07240096479654312,0.21049891412258148,0.39846935868263245
1761838765696849400,8.431849365234376,0.0003336940717417747,0.22201494872570038,0.38457244634628296
1761838765706919400,8.44191943359375,-0.07662473618984222,0.18907591700553894,0.3646802306175232
1761838765716989200,8.4519892578125,-0.17071394622325897,0.11269352585077286,0.3509332537651062
1761838765727058400,8.462058349609375,-0.26034608483314514,0.01618828997015953,0.34440743923187256
1761838765737128200,8.472128173828125,-0.3301776349544525,-0.08985691517591476,0.35327205061912537
1761838765747197400,8.482197509765625,-0.3751499056816101,-0.18894489109516144,0.36474546790122986
1761838765757267500,8.492267333984374,-0.4087989628314972,-0.2784862220287323,0.3567187190055847
1761838765767337200,8.502337158203124,-0.4291071593761444,-0.3349713385105133,0.33099815249443054
1761838765777406500,8.512406494140626,-0.4352515935897827,-0.3698076009750366,0.29863330721855164
1761838765787476200,8.522476318359375,-0.43226858973503113,-0.3594585657119751,0.25983530282974243
1761838765797545500,8.53254541015625,-0.42269638180732727,-0.3172610402107239,0.22839055955410004
1761838765807615200,8.542615234375,-0.414303719997406,-0.2516207695007324,0.19823159277439117
1761838765817685200,8.552685302734375,-0.4153708219528198,-0.15304814279079437,0.15668228268623352
1761838765827754200,8.562754150390624,-0.41919779777526855,-0.04344627633690834,0.10468779504299164
1761838765837824300,8.57282421875,-0.4265771508216858,0.06523146480321884,0.03612338379025459
1761838765847893500,8.5828935546875,-0.42731377482414246,0.1546577513217926,-0.05787714943289757
1761838765857963300,8.59296337890625,-0.419460654258728,0.23378320038318634,-0.16863322257995605
1761838765868033500,8.603033447265625,-0.4075866937637329,0.30524832010269165,-0.26005473732948303
1761838765878104600,8.6131044921875,-0.3846752345561981,0.361293226480484,-0.3208206295967102
1761838765888174300,8.62317431640625,-0.35150423645973206,0.3867061734199524,-0.35409337282180786
1761838765898243300,8.633243408203125,-0.30913200974464417,0.3891480267047882,-0.35179105401039124
1761838765908313300,8.643313232421875,-0.25823792815208435,0.37630999088287354,-0.32440924644470215
1761838765918383400,8.65338330078125,-0.1970273107290268,0.3353511095046997,-0.2761234641075134
1761838765928452400,8.663452392578124,-0.1381126046180725,0.27391570806503296,-0.21064378321170807
1761838765938522400,8.6735224609375,-0.08162402361631393,0.20701922476291656,-0.1452013999223709
1761838765948591400,8.68359130859375,-0.03640115261077881,0.13795174658298492,-0.09357655793428421
1761838765958661400,8.693661376953125,-0.0037063213530927896,0.05836770310997963,-0.060326457023620605
1761838765968731400,8.7037314453125,0.013421532697975636,-0.013836720027029514,-0.05830511823296547
1761838765978800400,8.71380029296875,0.005705290008336306,-0.06586530059576035,-0.07247606664896011
1761838765988870400,8.723870361328125,-0.015212775208055973,-0.11388688534498215,-0.10201451182365417
1761838765998939400,8.733939453125,-0.0352511964738369,-0.14272572100162506,-0.1448618471622467
1761838766009009400,8.744009521484376,-0.048416800796985626,-0.161088228225708,-0.19436015188694
1761838766019079400,8.754079345703126,-0.0510711744427681,-0.17609433829784393,-0.24633415043354034
1761838766029148400,8.7641484375,-0.05651307851076126,-0.14807948470115662,-0.2874948978424072
1761838766039218400,8.774218505859375,-0.057309094816446304,-0.07011383771896362,-0.31415578722953796
1761838766049287400,8.784287353515625,-0.0680440291762352,-0.0018903117161244154,-0.3300791084766388
1761838766059357400,8.794357421875,-0.07966074347496033,-0.0011611381778493524,-0.35560309886932373
1761838766069427200,8.80442724609375,-0.10071942210197449,-0.08658495545387268,-0.3710283935070038
1761838766079496400,8.814496337890626,-0.14597664773464203,-0.22531594336032867,-0.3513529598712921
1761838766089566500,8.82456640625,-0.32595759630203247,-0.39737585186958313,-0.2954968810081482
1761838766099635500,8.834635498046875,-0.5619069933891296,-0.5680983066558838,-0.2448049634695053
1761838766109705500,8.84470556640625,-0.7173381447792053,-0.6112434267997742,-0.1767292320728302
1761838766119774500,8.8547744140625,-0.7679547071456909,-0.5753445029258728,-0.12086756527423859
1761838766129843700,8.86484375,-0.8158047795295715,-0.5413674116134644,-0.05115373060107231
1761838766139913500,8.87491357421875,-0.8972994089126587,-0.5047990083694458,-0.00999164767563343
1761838766149982700,8.884982666015626,-0.9667583703994751,-0.42079517245292664,-0.013660418801009655
1761838766160052500,8.895052490234375,-0.9720106720924377,-0.34208357334136963,-0.04884450510144234
1761838766170122500,8.90512255859375,-0.9128309488296509,-0.3383338451385498,-0.10030902922153473
1761838766180191700,8.915191650390625,-0.8295600414276123,-0.3988158404827118,-0.15389448404312134
1761838766190261500,8.925261474609375,-0.752106785774231,-0.5128345489501953,-0.1878972053527832
1761838766200330800,8.935330810546875,-0.7157551646232605,-0.5362266898155212,-0.18551047146320343
1761838766210400500,8.945400390625,-0.7185075283050537,-0.4364257752895355,-0.1627361923456192
1761838766220470800,8.955470703125,-0.7339940667152405,-0.29228833317756653,-0.1541096717119217
1761838766230539500,8.96553955078125,-0.7418815493583679,-0.12431156635284424,-0.16200408339500427
1761838766240609500,8.975609619140625,-0.7309378385543823,-0.02273993380367756,-0.19238010048866272
1761838766250678500,8.985678466796875,-0.6964307427406311,0.0026469158474355936,-0.21778558194637299
1761838766260748500,8.99574853515625,-0.635474681854248,-0.008435562252998352,-0.23369690775871277
1761838766270818800,9.00581884765625,-0.5592566132545471,-0.03459526225924492,-0.21570459008216858
1761838766280887600,9.015887451171874,-0.5007909536361694,-0.10726892948150635,-0.15469449758529663
1761838766290957600,9.02595751953125,-0.4804829955101013,-0.1965218484401703,-0.07892810553312302
1761838766301026600,9.036026611328126,-0.5013653635978699,-0.32374265789985657,0.048170991241931915
1761838766311096600,9.0460966796875,-0.5140273571014404,-0.3448471426963806,0.17059224843978882
1761838766321166800,9.056166748046875,-0.4747750461101532,-0.36593616008758545,0.28493532538414
1761838766331235600,9.066235595703125,-0.39846137166023254,-0.40055033564567566,0.38952672481536865
1761838766341305900,9.076305908203125,-0.3048911988735199,-0.3883264362812042,0.5034540891647339
1761838766351374600,9.08637451171875,-0.21816162765026093,-0.34247052669525146,0.6025031805038452
1761838766361444600,9.096444580078124,-0.13645824790000916,-0.2978476583957672,0.6947374939918518
1761838766371514600,9.1065146484375,-0.04629399627447128,-0.20804214477539062,0.755768358707428
1761838766381583600,9.11658349609375,0.05385977029800415,-0.07825059443712234,0.7480278611183167
1761838766391653600,9.126653564453125,0.1566506028175354,0.06023670732975006,0.6899653673171997
1761838766401722600,9.13672265625,0.25803154706954956,0.21196071803569794,0.5999249815940857
1761838766411792600,9.146792724609375,0.36027348041534424,0.38010871410369873,0.5088597536087036
1761838766421861600,9.156861572265624,0.450095534324646,0.5727737545967102,0.43972066044807434
1761838766431931600,9.166931640625,0.5265524983406067,0.7713305354118347,0.3899613618850708
1761838766442001700,9.177001708984376,0.5530712008476257,0.9085656404495239,0.3369958698749542
1761838766452070700,9.187070556640625,0.5065729022026062,0.961608350276947,0.27814561128616333
1761838766462140700,9.197140625,0.43514612317085266,0.9467596411705017,0.23210780322551727
1761838766472210700,9.207210693359375,0.3669276833534241,0.8867095708847046,0.19939087331295013
1761838766482279400,9.217279541015625,0.3120313882827759,0.804558515548706,0.1812957525253296
1761838766492349700,9.227349609375,0.27544301748275757,0.7465586066246033,0.19325335323810577
1761838766502418700,9.237418701171874,0.260124534368515,0.7035083770751953,0.22658014297485352
1761838766512488700,9.24748876953125,0.2536538541316986,0.6820475459098816,0.2612486481666565
1761838766522557700,9.2575576171875,0.2495669573545456,0.7224010825157166,0.2786313593387604
1761838766532627500,9.26762744140625,0.23998171091079712,0.8192586302757263,0.2630966007709503
1761838766542697700,9.27769775390625,0.2206074744462967,0.930604100227356,0.19383472204208374
1761838766552766500,9.287766357421875,0.1927681267261505,0.9936861395835876,0.08820629119873047
1761838766562836700,9.297836669921875,0.15053997933864594,0.9695040583610535,-0.015382152050733566
1761838766572905500,9.307905517578124,0.10598448663949966,0.9379680156707764,-0.09236615151166916
1761838766582975700,9.317975830078124,0.08073346316814423,0.9258370399475098,-0.14507010579109192
1761838766593045800,9.328045654296876,0.07241640985012054,0.7963530421257019,-0.12577150762081146
1761838766603114500,9.338114501953125,0.0761919692158699,0.6887701749801636,-0.0836152657866478
1761838766613184800,9.348184814453125,0.10158281773328781,0.5514343976974487,-0.054606787860393524
1761838766623253500,9.35825341796875,0.14491698145866394,0.4396122694015503,-0.04134397953748703
1761838766633323800,9.36832373046875,0.20628605782985687,0.3679220974445343,-0.04880189523100853
1761838766643393800,9.378393798828125,0.25842195749282837,0.33372098207473755,-0.07509448379278183
1761838766653462500,9.388462646484374,0.29470938444137573,0.3199039697647095,-0.10977470129728317
1761838766663532800,9.39853271484375,0.31490227580070496,0.3147906959056854,-0.13071513175964355
1761838766673601500,9.4086015625,0.31104761362075806,0.3038957118988037,-0.13424701988697052
1761838766683671800,9.418671875,0.2879204750061035,0.27801936864852905,-0.13952140510082245
1761838766693741600,9.428741455078125,0.2614997923374176,0.22432763874530792,-0.15406067669391632
1761838766703810800,9.438810791015625,0.2510828375816345,0.19174812734127045,-0.19281819462776184
1761838766713880600,9.448880615234375,0.26239433884620667,0.16189569234848022,-0.2411540299654007
1761838766723949600,9.458949462890626,0.2980306148529053,0.106117382645607,-0.2817073166370392
1761838766734019800,9.469019775390626,0.33743396401405334,0.04725006967782974,-0.29637521505355835
1761838766744089600,9.479089599609376,0.3770516812801361,0.023265907540917397,-0.28332623839378357
1761838766754158800,9.489158935546875,0.3981649577617645,0.0600939616560936,-0.24269813299179077
1761838766764228600,9.499228515625,0.3951646387577057,0.09371024370193481,-0.18216128647327423
1761838766774297600,9.509297607421875,0.36095553636550903,0.12174773961305618,-0.11081919074058533
1761838766784367600,9.51936767578125,0.30842360854148865,0.14468207955360413,-0.0492333248257637
1761838766794437600,9.529437744140624,0.25282159447669983,0.15406759083271027,-0.0014024205738678575
1761838766804506600,9.539506591796876,0.20485274493694305,0.14926458895206451,0.03050544485449791
1761838766814576600,9.54957666015625,0.15927886962890625,0.14062689244747162,0.043472643941640854
1761838766824645600,9.559645751953125,0.13043124973773956,0.1245051771402359,0.06307590752840042
1761838766834715600,9.569715576171875,0.12560319900512695,0.10064724832773209,0.0906987413764
1761838766844785700,9.57978564453125,0.13623081147670746,0.04845035821199417,0.13022324442863464
1761838766854854700,9.589854736328125,0.14698810875415802,-0.010544786229729652,0.16452635824680328
1761838766864924700,9.599924560546874,0.14467330276966095,-0.056103482842445374,0.18474242091178894
1761838766874993700,9.60999365234375,0.13088983297348022,-0.06381333619356155,0.1758756935596466
1761838766885063700,9.620063720703126,0.1056864783167839,-0.04256157577037811,0.15871773660182953
1761838766895132400,9.63013232421875,0.0719466283917427,-0.03321414440870285,0.13152900338172913
1761838766905202700,9.64020263671875,0.03681633621454239,-0.037463486194610596,0.11861373484134674
1761838766915272700,9.650272705078125,0.015093465335667133,-0.058709386736154556,0.13382330536842346
1761838766925341700,9.660341796875,-0.0011198592837899923,-0.057365287095308304,0.16875971853733063
1761838766935411700,9.67041162109375,-0.012212990783154964,-0.049961432814598083,0.19586831331253052
1761838766945480700,9.680480712890626,-0.013371732085943222,-0.05409172922372818,0.21083447337150574
1761838766955550700,9.69055078125,-0.013791445642709732,-0.07684950530529022,0.21496263146400452
1761838766965620700,9.700620849609376,-0.006710899528115988,-0.11013582348823547,0.2125450223684311
1761838766975689700,9.710689697265625,-0.005666407756507397,-0.12320449203252792,0.20774893462657928
1761838766985759700,9.720759765625,0.0010335728293284774,-0.09262953698635101,0.22133132815361023
1761838766995828700,9.730828857421875,0.008617723360657692,-0.06602855026721954,0.25178563594818115
1761838767005898800,9.740898681640624,0.0033545177429914474,-0.05800710991024971,0.2890895903110504
1761838767015968500,9.750968505859374,-0.00959883164614439,-0.060508083552122116,0.31246867775917053
1761838767026037800,9.761037841796876,-0.019273029640316963,-0.06246843934059143,0.3314666152000427
1761838767036107500,9.771107421875,-0.0231173038482666,-0.0505388081073761,0.3348933160305023
1761838767046176800,9.7811767578125,-0.014762700535356998,-0.04374188929796219,0.3406260311603546
1761838767056246800,9.791246826171875,-0.0008423578692600131,-0.04429981857538223,0.3424886465072632
1761838767066316500,9.801316650390625,0.0031353395897895098,-0.03590873256325722,0.3438788056373596
1761838767076385800,9.8113857421875,0.001998702296987176,-0.026391394436359406,0.32208776473999023
1761838767086455600,9.82145556640625,-0.0019254654180258512,-0.017645839601755142,0.28446900844573975
1761838767096524800,9.83152490234375,-0.01648949459195137,0.008894159458577633,0.24662841856479645
1761838767106594600,9.841594482421876,-0.034451983869075775,0.025615613907575607,0.2023126184940338
1761838767116663800,9.851663818359375,-0.04376639053225517,0.033430926501750946,0.17084071040153503
1761838767126738200,9.86173828125,-0.04092958942055702,0.03936711326241493,0.152293398976326
1761838767136808200,9.87180810546875,-0.02749314345419407,0.026249181479215622,0.14370444416999817
1761838767146877000,9.881876953125,-0.015560850501060486,-0.011813515797257423,0.12156211584806442
1761838767156947200,9.891947265625,-0.009290703572332859,-0.03682885318994522,0.09765651822090149
1761838767167017200,9.902017333984375,-0.019044531509280205,-0.046118225902318954,0.06735986471176147
1761838767177086200,9.912086181640625,-0.0253937728703022,-0.031808529049158096,0.06572255492210388
1761838767187156200,9.92215625,-0.02900981344282627,-0.0018703379901126027,0.08432819694280624
1761838767197225200,9.93222509765625,-0.03165406733751297,0.010838799178600311,0.10800875723361969
1761838767207295200,9.942295166015626,-0.03768585994839668,0.00046845004544593394,0.13377058506011963
1761838767217365000,9.952364990234376,-0.04290938377380371,0.0009387642494402826,0.15028031170368195
1761838767227434200,9.962434326171875,-0.043647877871990204,0.02135695330798626,0.1674627661705017
1761838767237504000,9.97250390625,-0.04536721482872963,0.03893088921904564,0.17471188306808472
1761838767247573200,9.9825732421875,-0.050760380923748016,0.03982251510024071,0.17383810877799988
1761838767257643300,9.992643310546875,-0.05019286274909973,0.05811789631843567,0.1636190265417099
1761838767267712000,10.0027119140625,-0.048292431980371475,0.07803408056497574,0.15040868520736694
1761838767277782300,10.0127822265625,-0.041734661906957626,0.10597729682922363,0.14675535261631012
1761838767287852000,10.02285205078125,-0.02275031991302967,0.14097362756729126,0.14301654696464539
1761838767297921300,10.03292138671875,-0.009770605713129044,0.1666337251663208,0.1480531096458435
1761838767307991000,10.042990966796875,-0.01691160537302494,0.1953069120645523,0.18591155111789703
1761838767318060000,10.05306005859375,-0.03461923077702522,0.1711997091770172,0.23793266713619232
1761838767328130000,10.063130126953125,-0.044313933700323105,0.09202579408884048,0.29695045948028564
1761838767338200000,10.073199951171874,-0.0471922792494297,0.016530239954590797,0.33133718371391296
1761838767348269300,10.083269287109376,-0.042989011853933334,-0.031321436166763306,0.35384729504585266
1761838767358339000,10.093339111328126,-0.0395338274538517,-0.06686478108167648,0.34505245089530945
1761838767368408300,10.103408203125,-0.0245524812489748,-0.09852177649736404,0.3017558455467224
1761838767378478000,10.11347802734375,-0.00833622645586729,-0.12862402200698853,0.2318558692932129
1761838767388548000,10.123548095703125,-0.0002511360798962414,-0.1355048269033432,0.1360747516155243
1761838767398617000,10.1336171875,-0.006857906002551317,-0.10114286094903946,0.04021213576197624
1761838767408687000,10.14368701171875,-0.03875138983130455,-0.02047145366668701,-0.037943918257951736
1761838767418756000,10.153756103515626,-0.06930796802043915,0.07517890632152557,-0.07270243018865585
