time,seconds_elapsed,z,y,x
1761838938370815700,0.080815673828125,-0.29130583607554433,-1.4219817447401581,-0.31945783505495634
1761838938380885500,0.090885498046875,-0.3132797674745321,-1.4149556454956531,-0.3158344569260254
1761838938390955800,0.100955810546875,-0.38324002340734004,-1.4162841176204382,-0.30350257942359893
1761838938401025500,0.111025634765625,-0.5407797785937786,-1.3607954546324907,-0.24778940523108467
1761838938411096600,0.1210966796875,-0.6828279501378536,-1.2447596762232482,-0.17684908875236285
1761838938421166600,0.13116650390625,-0.8129799321830272,-1.098644839762151,-0.1135801745512057
1761838938431236900,0.14123681640625,-0.9333552011013031,-0.9552806171834468,-0.03850632476459723
1761838938441306600,0.151306640625,-1.0500240167170762,-0.8566958859212696,0.018348449219582834
1761838938451376600,0.161376708984375,-1.2106617379188538,-0.6471449345991015,-0.048864189647161396
1761838938461446700,0.17144677734375,-1.33567986420691,-0.40518998940885065,-0.12582466603112405
1761838938471516700,0.1815166015625,-1.3258715868979691,-0.2470176354072988,-0.16637275772243737
1761838938481586700,0.191586669921875,-1.324827630802989,-0.08917290592491627,-0.16723523803697898
1761838938491656400,0.201656494140625,-1.3495306949049233,0.11436565323993562,-0.17101919528879225
1761838938501726700,0.211726806640625,-1.2623445788830518,0.32767215770334,-0.16274751642998306
1761838938511796700,0.221796630859375,-1.133561547103524,0.4832125557661056,-0.10259654245311393
1761838938521866500,0.231866455078125,-1.0371376471370457,0.571481644719094,0.009254077492281795
1761838938531936800,0.241936767578125,-0.9307371275573968,0.6772437202647328,0.13008589453902095
1761838938542006800,0.2520068359375,-0.8680927475959062,0.7690927135311066,0.2659711047402583
1761838938552076500,0.26207666015625,-0.7735305498480797,0.7696114767082035,0.38615503407120705
1761838938562146600,0.272146484375,-0.6879793415516614,0.7129967322997749,0.48782903658561405
1761838938572217600,0.282217529296875,-0.6360778894007205,0.6281316065713762,0.5951973782841116
1761838938582287600,0.29228759765625,-0.5990349836856127,0.4981041276887059,0.671380819580704
1761838938592357600,0.302357666015625,-0.45892099507451056,0.39786593013107774,0.7074362486284226
1761838938602427600,0.312427734375,-0.24840251389443874,0.3874344063572585,0.659549219750613
1761838938612497700,0.32249755859375,-0.1051794533520937,0.36291458986774083,0.6207687496531754
1761838938622567700,0.332567626953125,0.0883481455385685,0.3473335743762552,0.5762701211046427
1761838938632637700,0.3426376953125,0.31016660389006134,0.40407895942702887,0.48843562417663633
1761838938642707700,0.352707763671875,0.5056055893599987,0.4449930074870586,0.4313231593791395
1761838938652777700,0.36277783203125,0.7026011566221714,0.4651704108580947,0.3877949467653408
1761838938662847700,0.37284765625,0.9126642952501773,0.4982029118880629,0.4106043426077813
1761838938672917500,0.38291748046875,1.092606436380744,0.531371898779273,0.4881769001752138
1761838938682987800,0.39298779296875,1.1562971105247735,0.5392353256307542,0.637716304257512
1761838938693057500,0.4030576171875,1.1844172895938156,0.533793719098717,0.7998062700942158
1761838938703127600,0.41312744140625,1.1885399224817752,0.5346037203073501,0.8970869330205022
1761838938713197800,0.42319775390625,1.141100125914812,0.569400454530865,1.0184487287580966
1761838938723268900,0.433268798828125,1.0628402436703444,0.6479390075862407,1.1461455727361143
1761838938733338600,0.443338623046875,0.9281365896701812,0.6533546028941869,1.2855432297714053
1761838938743408600,0.45340869140625,0.676228698003292,0.6479232254952192,1.4016279618889094
1761838938753478700,0.463478759765625,0.4711141216933727,0.6994612511612475,1.4148451708585024
1761838938763548700,0.473548583984375,0.3808662800133228,0.7250622870162129,1.3563935664117335
1761838938773618700,0.48361865234375,0.20709084481894968,0.7859475483506917,1.2763361332260073
1761838938783688400,0.4936884765625,-0.022448563173413275,0.8062751738473772,1.1519492905788122
1761838938793758700,0.5037587890625,-0.16675415825545786,0.7787911007247865,1.041532228834182
1761838938803828700,0.513828857421875,-0.2519523153305054,0.7938270495541393,0.8906010050673038
1761838938813898500,0.5238984375,-0.24660277099609373,0.8055728707969189,0.7594836120560765
1761838938823968800,0.53396875,-0.20398937167227266,0.7687609973587095,0.6310458865828812
1761838938834038800,0.544038818359375,-0.1237578970938921,0.7047267704740167,0.5425953401157633
1761838938844108500,0.554108642578125,0.01695639549791813,0.6191992353141308,0.5187349008504301
1761838938854178600,0.564178466796875,0.15637246497273444,0.5039537304997443,0.5641239754326641
1761838938864248800,0.574248779296875,0.32124680083096024,0.38095819608047604,0.6563757042810321
1761838938874319600,0.584319580078125,0.4432464560806751,0.19452830036580562,0.7977905463576317
1761838938884389600,0.5943896484375,0.4293891956418752,-0.05875497130751609,0.92675887157619
1761838938894459600,0.604459716796875,0.43644437485039234,-0.2140180137336254,0.9428354154996573
1761838938904529700,0.61452978515625,0.4693704928964376,-0.29085619261190293,0.8745202964253723
1761838938914599700,0.624599609375,0.4293389267593622,-0.384479355943948,0.802439248946309
1761838938924669700,0.634669677734375,0.3478039683669805,-0.4828390462785959,0.7693015339761972
1761838938934739700,0.64473974609375,0.2909504467666149,-0.5329615060582756,0.6974497652083634
1761838938944809700,0.654809814453125,0.23495909495353698,-0.5821447852917015,0.6312093335162848
1761838938954879700,0.664879638671875,0.159049575227499,-0.5883659978941083,0.5786004637483507
1761838938964949500,0.674949462890625,0.0675081866055727,-0.5933740353144705,0.5158910922592506
1761838938975019800,0.685019775390625,-0.005793780970573425,-0.5777947733886539,0.4646300569036975
1761838938985089500,0.695089599609375,-0.08865501953065395,-0.5486169019602238,0.41133397205658256
1761838938995159600,0.70515966796875,-0.17157003410458563,-0.518171348683536,0.36734055308382957
1761838939005229800,0.715229736328125,-0.24220716638565062,-0.5003394855253398,0.32826625113897023
1761838939015299600,0.725299560546875,-0.3036795799583196,-0.49665743601173157,0.32159459135532376
1761838939025370600,0.73537060546875,-0.41177287493050097,-0.5139527080751956,0.3563572406461462
1761838939035440600,0.745440673828125,-0.5964560731083154,-0.45592254391089077,0.3448975063357502
1761838939045510700,0.7555107421875,-0.6834428671658038,-0.3472868126250803,0.29632972865216434
1761838939055580700,0.76558056640625,-0.7034627418875694,-0.29207360557764767,0.3052606934036128
1761838939065650700,0.775650634765625,-0.7670324200004339,-0.3021190526433289,0.3870486949753016
1761838939075720400,0.785720458984375,-0.7385837396293878,-0.24334026206880807,0.36815793388132007
1761838939085790700,0.795790771484375,-0.8078139277219771,-0.23510887868776917,0.409989790906012
1761838939095860700,0.80586083984375,-0.855700299012661,-0.2355351412758231,0.4608465197769925
1761838939105930500,0.815930419921875,-0.8385866671264172,-0.20782368913814425,0.49026342412568624
1761838939116000800,0.826000732421875,-0.8110141850680113,-0.20184300729334353,0.5516489631325007
1761838939126070800,0.83607080078125,-0.7677367688775062,-0.20443112409040332,0.6316287279721349
1761838939136140500,0.846140625,-0.7814286096215247,-0.1513515680707991,0.6613692747846245
1761838939146210600,0.85621044921875,-0.7695259903818369,-0.05258665793612599,0.6582204553648829
1761838939156280800,0.86628076171875,-0.6752373488783836,-0.0830960702292621,0.7097695869468152
1761838939166351600,0.8763515625,-0.6674994481027126,-0.09674144148305058,0.7214269261885434
1761838939176421600,0.886421630859375,-0.7517594475448132,0.03485240993350744,0.6563429710552096
1761838939186491600,0.89649169921875,-0.8498089028865099,0.22778233519196509,0.5506034726675599
1761838939196561700,0.906561767578125,-0.8988847762227058,0.41453751733824606,0.45513058981560167
1761838939206631700,0.916631591796875,-0.9022393473476171,0.5491076080866157,0.3433206489404663
1761838939216701700,0.92670166015625,-0.9250362855672836,0.6930351636365055,0.26543036719337104
1761838939226771700,0.936771728515625,-0.7289280225336551,0.835887198909372,0.16235426106238737
1761838939236841700,0.946841796875,-0.5100497092872858,0.8842251133598387,0.05136380161028355
1761838939246911700,0.956911865234375,-0.3092418902605772,0.8234415588341653,0.09608305977270938
1761838939256981500,0.9669814453125,0.2500654786705971,0.8363818505585193,-0.06812921371390111
1761838939267051800,0.9770517578125,0.5810621046215295,0.7148205867260694,-0.15718931604726238
1761838939277121500,0.98712158203125,0.7885387338876724,0.5784248879857361,-0.29546511117946356
1761838939287188500,0.9971884765625,1.0313649089545012,0.5054765561528504,-0.43372130656205116
1761838939297258500,1.007258544921875,1.32059218519032,0.46278906867951153,-0.6607058424398302
1761838939307329500,1.01732958984375,1.5655600484609602,0.35769349421858787,-0.6967536727029829
1761838939317399600,1.027399658203125,1.4823212087601423,0.3310257059149444,-0.6493878912203014
1761838939327469300,1.03746923828125,1.0756132160037755,0.3273778509318828,-0.5370354409663006
1761838939337539300,1.047539306640625,1.1215215652197599,0.42658495187610385,-0.6608494156289846
1761838939347609600,1.057609619140625,1.2218477333217859,0.5839288922294974,-0.845582517363131
1761838939357679400,1.067679443359375,1.0414408972889184,0.6030455345012247,-0.8701656083472072
1761838939367749400,1.077749267578125,0.7104138761997223,0.5913403375297784,-0.8211831123828888
1761838939377819600,1.087819580078125,0.5697060133486986,0.6291432678319513,-0.872929081711173
1761838939387889400,1.097889404296875,0.32454058167934413,0.6917788799650967,-0.9138277860715984
1761838939397959400,1.10795947265625,0.20656419059634207,0.6911706849388778,-0.9796091488845646
1761838939408029400,1.118029541015625,0.14174597372710704,0.6643715253405272,-1.0754018382754176
1761838939418099500,1.128099365234375,0.0666407561212778,0.6765006468124687,-1.113386189559102
1761838939428169500,1.13816943359375,-0.045828854238986964,0.66750894658342,-1.068119791508466
1761838939438240500,1.148240478515625,-0.047319969579577445,0.6869954450808465,-1.0361788120422513
1761838939448310300,1.158310302734375,0.0305342544734478,0.6918167277574538,-1.0128914599571377
1761838939458380500,1.168380615234375,-0.10105331333279609,0.6030417351089418,-0.9260055689908564
1761838939468450600,1.178450439453125,-0.3464391097545624,0.3437235671855509,-0.8211601698987185
1761838939478520300,1.188520263671875,-0.5470680650830269,0.04873144381269812,-0.8086419760439545
1761838939488590600,1.198590576171875,-0.8497194710373878,-0.27404870406538245,-0.853532161193341
1761838939498660400,1.208660400390625,-1.0675877304583787,-0.6198651518769562,-0.9753819596435874
1761838939508730400,1.21873046875,-1.1580267107963562,-0.8690618848890066,-1.0861261344507336
1761838939518800400,1.22880029296875,-1.084672720772028,-0.8331108660638332,-1.1593773947529493
1761838939528870400,1.238870361328125,-0.7722744123071432,-0.6336771118693053,-1.337515993592888
1761838939538940400,1.2489404296875,-0.6328828927516937,-0.6012370237745345,-1.3292073071919381
1761838939549010400,1.259010498046875,-0.5496253483504057,-0.5719011853054166,-1.166005069264397
1761838939559080400,1.26908056640625,-0.35148937888145443,-0.5133128027364612,-0.9401756217058748
1761838939569151500,1.2791513671875,0.022352701583504674,-0.5085159238487482,-0.721987555745989
1761838939579221500,1.289221435546875,0.31833003660142417,-0.5499161479905247,-0.5013865834254772
1761838939589291300,1.299291259765625,0.6597136165320873,-0.5312611318811774,-0.38256106469985096
1761838939599361500,1.309361572265625,0.9322808498680591,-0.4845427814565599,-0.2744676966624334
1761838939609431600,1.319431640625,1.025451300996542,-0.48182957697510714,-0.14051471489910036
1761838939619501300,1.329501220703125,1.0271586894363165,-0.5370277325838804,-0.0008033157395198941
1761838939629571300,1.3395712890625,1.0294260498464107,-0.5571582280732691,0.0708181879363954
1761838939639641600,1.3496416015625,1.1395862142205238,-0.4935476334281265,-0.017562179371342062
1761838939649711400,1.35971142578125,1.1812900974839926,-0.46263241681307554,-0.10600691715218126
1761838939659781400,1.369781494140625,1.0689999353438615,-0.46708705813437695,-0.1315164935977198
1761838939669851600,1.3798515625,0.9335667980253696,-0.5005959445044398,-0.19264752812050281
1761838939679921400,1.38992138671875,0.8444745561212301,-0.4992058053202927,-0.29712909886892885
1761838939689991400,1.399991455078125,0.7621247742146253,-0.4817852994419634,-0.38470315476246175
1761838939700062500,1.4100625,0.712902185884118,-0.4854664721727371,-0.4867514704819768
1761838939710132500,1.420132568359375,0.6149281338661908,-0.46459202644824976,-0.46143896924480793
1761838939720202500,1.430202392578125,0.5710895766615868,-0.46639498421698805,-0.45826888784132896
1761838939730272500,1.4402724609375,0.49646249796152114,-0.4980934601642191,-0.4389961416924372
1761838939740342300,1.45034228515625,0.4648018698066473,-0.5068320624150335,-0.44848015548307446
1761838939750412500,1.46041259765625,0.3919891470521688,-0.5627038795016706,-0.4501858999550342
1761838939760482600,1.470482666015625,0.31350363935828207,-0.6212960614629089,-0.43877080850396305
1761838939770552300,1.48055224609375,0.20040975961983204,-0.6544220859952271,-0.4182414498900994
1761838939780622600,1.49062255859375,0.07242050856649875,-0.704715810688585,-0.4150244971375912
1761838939790692400,1.5006923828125,-0.04967442375123501,-0.7511924613118172,-0.46768794663697477
1761838939800762400,1.510762451171875,-0.16019231552183627,-0.7822128918670117,-0.5159072396764531
1761838939810832400,1.520832275390625,-0.3614566461443901,-0.8053570360891521,-0.5419406755993142
1761838939820903400,1.5309033203125,-0.6461597229540348,-0.7054527466610073,-0.6239630887150764
1761838939830973400,1.540973388671875,-0.8887252012580633,-0.5564847127258777,-0.7625210069905967
1761838939841043500,1.55104345703125,-1.0084989971518517,-0.4453543881453573,-0.8618417243771255
1761838939851113200,1.56111328125,-1.226664778214693,-0.3668048753045499,-0.8806962085813284
1761838939861183500,1.57118359375,-1.3496405850201845,-0.21361118649840355,-0.8952790798809379
1761838939871253500,1.58125341796875,-1.3449094648450612,-0.010275310298800468,-0.915819690541178
1761838939881323300,1.5913232421875,-1.3092121285200118,0.19046835745051502,-0.8942616464667021
1761838939891393500,1.6013935546875,-1.1655611979544163,0.36274639369398354,-0.8279092057675123
1761838939901463600,1.611463623046875,-1.0002069696247577,0.4824870179705322,-0.6993048915557563
1761838939911533300,1.621533203125,-0.7909481331169604,0.5950136192150414,-0.5519632897786796
1761838939921603300,1.631603271484375,-0.5461936203360557,0.6551708585359156,-0.3640491103230044
1761838939931673600,1.641673583984375,-0.2845639605998993,0.5957615149728953,-0.16462565832678228
1761838939941744400,1.651744384765625,-0.07324059277772903,0.5058418823339045,-0.040161329996585844
1761838939951814400,1.661814453125,0.07869125939905643,0.4408814805150032,0.07014412459973246
1761838939961884400,1.671884521484375,0.2867296142011881,0.3653337798386812,0.13659724919442087
1761838939971954400,1.681954345703125,0.38938685559928415,0.24723536981120703,0.1372732487598434
1761838939982024400,1.6920244140625,0.40057986526489253,0.09374795875549316,0.13638177981283514
1761838939992094500,1.702094482421875,0.33145606015622614,-0.030266835708916185,0.1442644593540579
1761838940002164500,1.71216455078125,0.24480711975097655,-0.13684826481342316,0.10607497741971164
1761838940012234500,1.722234375,0.23936229834854603,-0.20375790100395677,0.02109104761723429
1761838940022304500,1.732304443359375,0.19615970095992089,-0.17596914584636686,-0.1013065574415028
1761838940032374300,1.742374267578125,0.17876666761040685,-0.13411124106496572,-0.18133502026107162
1761838940042444500,1.752444580078125,0.19198972179889678,-0.09280015651136636,-0.22415365983340887
1761838940052514600,1.7625146484375,0.2546165661036968,-0.011086918942630291,-0.1973777715127915
1761838940062585300,1.77258544921875,0.33554829790592194,0.08615180453807116,-0.08978369476702064
1761838940072655400,1.7826552734375,0.42367724773585796,0.2170540204286575,0.09496358162295072
1761838940082725600,1.7927255859375,0.5269733715593815,0.3903790815070271,0.31696240151003
1761838940092795400,1.80279541015625,0.6787824741393327,0.5363023409187794,0.5254737075861543
1761838940102865400,1.812865478515625,0.6374509313195943,0.6337447702780366,0.7706382624726742
1761838940112935400,1.822935302734375,0.6151689568847417,0.7487351312875747,1.0305517659407109
1761838940123005400,1.83300537109375,0.731104782050848,0.9856871536239981,1.1349509556353092
1761838940133075500,1.843075439453125,0.7458534383714198,1.1266022294849156,1.319029173657298
1761838940143145200,1.853145263671875,0.46940907134115695,1.1747457904070615,1.5203465496413409
1761838940153215500,1.863215576171875,0.36521219928562637,1.2433271592020987,1.6284987351939082
1761838940163285500,1.873285400390625,0.36855858710408207,1.4674173618778585,1.6408327315881848
1761838940173355300,1.883355224609375,0.3818868552327156,1.6712974279567598,1.5689944068238137
1761838940183426300,1.89342626953125,0.3427075220108032,1.8094851246803998,1.536954277832061
1761838940193496600,1.90349658203125,0.22313713973462582,1.8271730493232607,1.5279728067360818
1761838940203566600,1.913566650390625,0.1790098287165165,1.7624875189229845,1.5329809902869165
1761838940213636400,1.92363623046875,0.13701719163954257,1.7190034742444753,1.5706844057373701
1761838940223706400,1.933706298828125,0.12206044552624225,1.6255965840116142,1.5529926817022264
1761838940233776400,1.9437763671875,0.20866963844299316,1.5800313491448759,1.499646583700925
1761838940243846400,1.953846435546875,0.2247580189347267,1.5429945809096097,1.4556860075518487
1761838940253916400,1.96391650390625,0.2630541395813227,1.4671579802893102,1.3837417381949721
1761838940263986400,1.973986328125,0.4063946890234947,1.4421679159395395,1.3025941716849803
1761838940274056400,1.984056396484375,0.4773714285224676,1.4282741228826343,1.2703838006928563
1761838940284126500,1.99412646484375,0.40820495331585405,1.2857457666061818,1.3077841415435074
1761838940294196500,2.004196533203125,0.4119803802013397,1.1006972422473131,1.34247332373932
1761838940304266500,2.0142666015625,0.4148731790333986,0.8952398438490927,1.3794642070062457
1761838940314337500,2.024337646484375,0.25849837597310543,0.6024456689119339,1.4256281384184957
1761838940324407300,2.0344072265625,0.11581424461305141,0.2690269303806126,1.4264160739257932
1761838940334477300,2.044477294921875,0.06756839236021041,-0.010118658432364463,1.3237455346547067
1761838940344547600,2.054547607421875,-0.03314765184223652,-0.28350714502334595,1.2149584852647035
1761838940354617300,2.064617431640625,-0.3051327013760805,-0.5664411663338542,1.1558673408053814
1761838940364687400,2.074687255859375,-0.5271224246412516,-0.7633968399770558,1.017284653414786
1761838940374757400,2.08475732421875,-0.71039926315248,-0.8720319867409765,0.8020137170106172
1761838940384827400,2.094827392578125,-0.7960895876586437,-0.9523629761710762,0.6239835469812154
1761838940394897400,2.1048974609375,-0.9303180253624915,-1.0155268499620258,0.4455162641761824
1761838940404967400,2.114967529296875,-1.0420306798756123,-1.0497066213309765,0.2764453899435699
1761838940415037400,2.125037353515625,-1.1951789221048355,-1.0636353395707905,0.1945537636006251
1761838940425108500,2.1351083984375,-1.3162287292838095,-1.0610323174655436,0.10896189450025558
1761838940435178200,2.14517822265625,-1.4281465509802103,-1.0261214553430675,0.048428277881350366
1761838940445248300,2.155248291015625,-1.4384224458009003,-0.9183188138805329,-0.04051752302311361
1761838940455318500,2.165318603515625,-1.6273849287331104,-0.8968794277496636,-0.03153225253485143
1761838940465388300,2.17538818359375,-1.6439298208206892,-0.7899184978082776,-0.0700975637779571
1761838940475458300,2.185458251953125,-1.6771745032966137,-0.7296753337696195,-0.06480070861200801
1761838940485528600,2.195528564453125,-1.531203605350852,-0.5874155653014779,-0.12552351852692664
1761838940495598300,2.205598388671875,-1.4892635752439498,-0.5080386617258191,-0.08741659117634408
1761838940505668400,2.21566845703125,-1.421333948355913,-0.48258814025744795,-0.022279252754803747
1761838940515738400,2.22573828125,-1.264431322029233,-0.40265974027886986,0.009739997845701873
1761838940525808400,2.235808349609375,-1.1657359699994325,-0.33461087092533703,0.04647360928277485
1761838940535878400,2.24587841796875,-1.0679232460230588,-0.27618936935588717,0.07970706711178645
1761838940545948400,2.255948486328125,-0.9589888240516186,-0.16643617834746838,0.0633153517253464
1761838940556019200,2.266019287109375,-0.8626941034227609,-0.011918547461181879,0.01273134798167739
1761838940566089500,2.27608935546875,-0.7987123373776673,0.16235110099092126,-0.02322507082110969
1761838940576159500,2.286159423828125,-0.7148065582007169,0.340628377649188,-0.0907413608180359
1761838940586229200,2.296229248046875,-0.6450082148313522,0.5037877262830734,-0.1028868854355067
1761838940596299500,2.306299560546875,-0.4865425769716501,0.6576664747439325,-0.09083522224710322
1761838940606369500,2.31636962890625,-0.2873205658316612,0.7959092626556754,-0.07132178094382398
1761838940616439300,2.326439208984375,-0.062141106614470476,0.8748533277720213,-0.005328264084365219
1761838940626509300,2.33650927734375,0.15710311733484267,0.8685529124535619,0.0789120808091946
1761838940636579600,2.34657958984375,0.3657511284679174,0.8556884624443948,0.16379956449987365
1761838940646649300,2.3566494140625,0.5259089571982621,0.8080037512056529,0.2516519806770608
1761838940656719400,2.36671923828125,0.639769729655981,0.7146976909987628,0.30301519776545466
1761838940666790400,2.376790283203125,0.7481535320073366,0.6497841970615088,0.3727930098034441
1761838940676860400,2.3868603515625,0.8635779005199671,0.6397634460456669,0.41427035430204123
1761838940686930400,2.396930419921875,0.9509200838863849,0.6332071562699974,0.43484198115505274
1761838940697000400,2.40700048828125,1.0589958432018756,0.6516372775822877,0.43214116123113777
1761838940707070500,2.417070556640625,1.2088105570942163,0.7549696417629719,0.41812187863104044
1761838940717140500,2.427140380859375,1.3139520165234804,0.9133651369959116,0.4183074643310159
1761838940727210200,2.437210205078125,1.3442150528401136,1.0105132595837116,0.4958790720503777
1761838940737280300,2.4472802734375,1.3751608107239006,1.0716717849016189,0.580104000179097
1761838940747350500,2.4573505859375,1.4411124155372381,1.1163508845835923,0.6701476245239376
1761838940757420300,2.467420166015625,1.507903978306055,1.1554191586464644,0.7700217380095273
1761838940767490300,2.477490234375,1.5023235478252173,1.1661518573239444,0.8838590565264225
1761838940777560600,2.487560546875,1.609533630222082,1.1571195328235626,0.939321781355515
1761838940787630300,2.49763037109375,1.6549422132223843,1.1371645400315522,1.0454729292839764
1761838940797701400,2.507701416015625,1.637909829878807,1.057758410361409,1.0959946905795483
1761838940807771400,2.517771484375,1.456299463275075,0.9371385190322995,1.169524840888381
1761838940817841400,2.52784130859375,1.1294646331787108,0.8378077917084097,1.294790658327192
1761838940827911400,2.537911376953125,0.8797714949518441,0.8056665404297411,1.295888244305551
1761838940837981400,2.5479814453125,0.588616465523839,0.6897523425735533,1.2570058482035993
1761838940848051200,2.55805126953125,0.21635902390182016,0.5367610444717109,1.1757049908280373
1761838940858121500,2.56812158203125,-0.1190565875351429,0.2820864645704627,1.0051046054732053
1761838940868191500,2.57819140625,-0.650530777645111,0.014750702147185801,0.7781416238401084
1761838940878261200,2.58826123046875,-1.1028028362244366,-0.23676877472400665,0.4961799546930939
1761838940888331500,2.59833154296875,-1.3603057714194058,-0.31119083237126466,0.20171802920680493
1761838940898401500,2.608401611328125,-1.4031044641822576,-0.27652546944245693,-0.08466887250393629
1761838940908471300,2.61847119140625,-1.5605278995126486,-0.38771483073383567,-0.2576177389473654
1761838940918542300,2.628542236328125,-1.694846353587508,-0.5636746242299676,-0.3275742502868175
1761838940928612400,2.6386123046875,-1.5384054995536802,-0.520262183482945,-0.37925855255573987
1761838940938682400,2.648682373046875,-1.2366162633866071,-0.35234058888331055,-0.42199740489013493
1761838940948752400,2.65875244140625,-0.9701526076227426,-0.28060324027538297,-0.3907313290107995
1761838940958822400,2.668822509765625,-0.930270679089427,-0.4278709000334143,-0.1147084387956187
1761838940968892400,2.678892333984375,-0.8717465939283371,-0.5956573239460587,0.21726751704886554
1761838940978962400,2.68896240234375,-0.5538771605759859,-0.59790700256899,0.4925141987271607
1761838940989032400,2.699032470703125,-0.2680968099236488,-0.4776923310399055,0.7000158893693238
1761838940999102500,2.7091025390625,-0.0029009821385145187,-0.38110768755376334,0.8813548916857689
1761838941009172500,2.71917236328125,0.2541255677163601,-0.3207676390118897,1.03692005886361
1761838941019242200,2.7292421875,0.45600598441064355,-0.24170740016996858,1.1595537742331623
1761838941029312300,2.739312255859375,0.6462666904598474,-0.18307137906700371,1.2959965269856155
1761838941039382500,2.749382568359375,0.7310042442858219,-0.14324746433123944,1.4519235862784088
1761838941049453600,2.75945361328125,0.8702256679713726,-0.09336509691774844,1.610099593541771
1761838941059523300,2.7695234375,0.887047038912773,-0.06171776663586497,1.7001970669656992
1761838941069593300,2.77959326171875,0.9485679678022861,0.04743541265279055,1.773683012806624
1761838941079663600,2.78966357421875,0.9345341817528009,0.13800064971894024,1.8653082803197203
1761838941089733400,2.7997333984375,0.874413767310977,0.22979440566673873,1.9714339284807443
1761838941099803400,2.809803466796875,0.8295973049849271,0.3593599661260843,2.0977270431406794
1761838941109873400,2.819873291015625,0.6608078415095806,0.4913185592018068,2.2330381615146995
1761838941119943400,2.829943359375,0.5742606079131365,0.5964543195426464,2.3792525128275153
1761838941130013400,2.840013427734375,0.38330315177142615,0.6742044986993074,2.5572391359761357
1761838941140083200,2.850083251953125,0.24023265144228934,0.7552072499111294,2.7704315125405787
1761838941150153500,2.860153564453125,0.12972294297814368,0.9731653795726597,2.8474115841075776
1761838941160223500,2.870223388671875,0.0009077624946832656,1.2331225760519504,2.8014900831490754
1761838941170294300,2.880294189453125,-0.1606879900842905,1.4444579265728592,2.6967729866117236
1761838941180364300,2.8903642578125,-0.3688444183081388,1.6430260038487612,2.5410318052798506
1761838941190434600,2.9004345703125,-0.5580231743395329,1.8535415624193845,2.4485752015091475
1761838941200504300,2.91050439453125,-0.4695306518942117,2.1111459121622143,2.276989531444013
1761838941210574300,2.92057421875,-0.34534663834273815,2.3013712546370924,2.070911955320835
1761838941220644400,2.930644287109375,-0.37055882101058957,2.360937103936076,1.9195799687333404
1761838941230714400,2.94071435546875,-0.41209611553549763,2.4046960200332106,1.8068538993939756
1761838941240784400,2.950784423828125,-0.5029682265937329,2.420520927283168,1.736505228665471
1761838941250854400,2.9608544921875,-0.7417962719351053,2.389037409260869,1.7168737687394022
1761838941260924400,2.97092431640625,-1.075475853359699,2.3442142249330877,1.6921753808125852
1761838941270994400,2.980994384765625,-1.2477484827756882,2.4115847566336392,1.5892168183803557
1761838941281064400,2.991064453125,-1.368414259073138,2.4848063524499535,1.5010978054225443
1761838941291135000,3.001135009765625,-1.4293541732043027,2.5747423517018557,1.3373691324681043
1761838941301205200,3.011205322265625,-1.465519711562991,2.669379075990617,1.164526594209671
1761838941311275000,3.02127490234375,-1.6038894868552684,2.6629332608520984,1.0918927351534367
1761838941321345000,3.031344970703125,-1.7723603859007357,2.7238126769676803,0.9441843458905815
1761838941331415300,3.041415283203125,-1.8250030118077993,2.7328368181616067,0.8478545539483427
1761838941341485000,3.051485107421875,-1.7758908981144428,2.7262778980374334,0.7036426284991204
1761838941351555000,3.06155517578125,-1.579919413203001,2.736043505248427,0.5300323207385838
1761838941361624800,3.071624755859375,-1.2862550313025711,2.711274682433903,0.3532483513779938
1761838941371695000,3.081695068359375,-0.9785580323964357,2.642814017409086,0.22897475984692572
1761838941381765000,3.09176513671875,-0.7201344752252101,2.5659867983162403,0.17981442309767007
1761838941391835000,3.1018349609375,-0.576801524567604,2.4823674348652363,0.2314778287090361
1761838941401905200,3.1119052734375,-0.3737783675789833,2.378394288562983,0.31727102906778454
1761838941411975200,3.12197509765625,-0.0795072519570589,2.291042022193968,0.3827681681118905
1761838941422045000,3.132044921875,0.21928280239403247,2.2283060184262693,0.4558011094883084
1761838941432116000,3.142115966796875,0.4210971681147814,2.140198549775779,0.5492318189881742
1761838941442186200,3.152186279296875,0.5992372282594443,2.0530428288921714,0.6201733410432935
1761838941452256000,3.162256103515625,0.7481652224451303,1.9839466424427925,0.6818726952396332
1761838941462326000,3.172325927734375,0.8242518523037433,1.905119481704384,0.7394182907573879
1761838941472396000,3.18239599609375,0.7798340339064598,1.8345172746062277,0.8128400853209197
1761838941482466000,3.192466064453125,0.7058668804198504,1.791467675822228,0.8480698041342198
1761838941492536000,3.2025361328125,0.652476066493988,1.7658700009681283,0.8767388492576778
1761838941502606000,3.212606201171875,0.5541004479378462,1.7140103421323,0.9076201636031269
1761838941512676000,3.222676025390625,0.4486187967687845,1.6602729067258535,0.916778014179319
1761838941522746000,3.23274609375,0.33616146136820313,1.6212094549685716,0.9248300954706966
1761838941532816100,3.242816162109375,0.2178828724682331,1.5763266494080423,0.9487025539673865
1761838941542886100,3.25288623046875,0.011547814452648162,1.5547151215806603,0.9849079128798097
1761838941552956200,3.2629560546875,-0.18182605518102646,1.5630448507696388,1.0294121674515306
1761838941563027200,3.273027099609375,-0.34853052907586096,1.5839667888976632,1.0723697771031409
1761838941573097000,3.283096923828125,-0.6854518689006567,1.5436699959531426,1.096716063656658
1761838941583167000,3.2931669921875,-1.0763947217702865,1.4790645450517534,1.1947560205176473
1761838941593237200,3.3032373046875,-1.5128542941898107,1.4720787778176367,1.2653243253462017
1761838941603307000,3.31330712890625,-1.9744249269902705,1.579696564232558,1.2419725297227502
1761838941613377000,3.323376953125,-2.3138819227725267,1.754577914842218,1.2924223217606543
1761838941623447300,3.333447265625,-2.5701433334738013,1.8984315283730624,1.1154044705789536
1761838941633517000,3.34351708984375,-2.6895278377890586,2.059392197918892,0.9639837097294628
1761838941643587000,3.353587158203125,-2.917247629138827,2.2335358819037676,0.8575392779428511
1761838941653656800,3.36365673828125,-3.088406744354963,2.3576119050361215,0.7899158674597739
1761838941663727000,3.37372705078125,-3.149439597466588,2.4146461900308727,0.8117655148919671
1761838941673797000,3.383797119140625,-2.8853403327465057,2.5574066014975307,0.6773224845893681
1761838941683867000,3.393866943359375,-2.6266303598493335,2.591961197528243,0.5816890774134547
1761838941693938000,3.40393798828125,-2.2278683576613663,2.523817051106691,0.4988279119186103
1761838941704008200,3.41400830078125,-1.9088643673211334,2.4332132355958223,0.449411919907853
1761838941714078000,3.424077880859375,-1.4186369643568992,2.1821042392216623,0.38897425621040166
1761838941724148000,3.43414794921875,-0.8945587297171353,2.0957668489836156,0.39950953261964023
1761838941734218200,3.44421826171875,-0.5664496419012546,1.9875439362823961,0.33068120332621037
1761838941744288000,3.4542880859375,-0.09675590839982032,1.8024669164814053,0.3814057206522673
1761838941754358000,3.46435791015625,0.18013620239794254,1.6866526718683539,0.3402881493767723
1761838941764428000,3.474427978515625,0.5099480024784803,1.495174406722933,0.36253750018365677
1761838941774498000,3.484498046875,0.7413333305984735,1.3973692815311252,0.41864714461416
1761838941784568000,3.494568115234375,0.9165016814559698,1.2245263048812747,0.4292018563762307
1761838941794638000,3.50463818359375,1.0837579440146683,1.0310825848817824,0.39709918354228135
1761838941804708000,3.5147080078125,1.0949679048150778,0.9040124944999813,0.37131756695602086
1761838941814778000,3.524778076171875,0.9557242692977189,0.7593192152746021,0.3533691647460684
1761838941824849200,3.53484912109375,0.7725795327335596,0.6472530711486936,0.3218107183240354
1761838941834919000,3.5449189453125,0.7278384737312793,0.5935961536325514,0.24553693186286835
1761838941844989200,3.5549892578125,0.7457996623575687,0.5040760417051613,0.13595852203262038
1761838941855059200,3.56505908203125,0.6016337680071592,0.43178368956297636,0.012849398570507764
1761838941865129000,3.57512890625,0.42904315868318077,0.379117536649853,-0.11036536809001117
1761838941875199000,3.585198974609375,0.22401041543781755,0.3175017690837383,-0.18160145264491437
1761838941885269200,3.595269287109375,-0.051097150030732154,0.25099647591039537,-0.2245284844951704
1761838941895339000,3.605339111328125,-0.14442776015698908,0.1791639963649213,-0.3781778446469456
1761838941905409000,3.615408935546875,-0.4261310706287622,0.24973814641237257,-0.4392207807611674
1761838941915479000,3.62547900390625,-0.7995750916868448,0.2936696425974369,-0.5118694720603525
1761838941925549000,3.635549072265625,-0.9900199221313,0.15095891549140214,-0.5305925849698484
1761838941935619000,3.645619140625,-0.9193418733179569,0.021898235814273356,-0.503711373111233
1761838941945689000,3.655689208984375,-0.743656220588088,0.0048781274303793904,-0.5559739136595279
1761838941955759000,3.665759033203125,-0.57399289688766,-0.04909589321091771,-0.5389280497798696
1761838941965830100,3.675830078125,-0.5491612379699945,-0.17273747044876217,-0.4069872115565464
1761838941975900200,3.685900146484375,-0.6019499943494796,-0.3334589244112372,-0.261876949028112
1761838941985970000,3.695969970703125,-0.4672568617433309,-0.4071181809924543,-0.14637894902369006
1761838941996040200,3.706040283203125,-0.26793022118508814,-0.40694793899208304,-0.1339632839616388
1761838942006110000,3.71610986328125,-0.18468495174348354,-0.3881424084961414,-0.2037006178587675
1761838942016180000,3.726179931640625,-0.06569733779132365,-0.3779794725306332,-0.314041143768467
1761838942026250200,3.736250244140625,0.09009528146684169,-0.35163697065860033,-0.468633812652342
1761838942036320000,3.746320068359375,0.1070657054901123,-0.32939708179980515,-0.588554798464477
1761838942046390000,3.75639013671875,-0.016286533412337302,-0.2867183621548116,-0.6894084245067089
1761838942056460000,3.7664599609375,-0.10062953496277331,-0.16222952043786645,-0.7941247173264622
1761838942066530000,3.776530029296875,-0.18725100283920765,-0.014148060078918933,-0.8998770751956849
1761838942076600000,3.78660009765625,-0.13377601776123046,0.19536212084144353,-1.0604410735741256
1761838942086670000,3.796670166015625,0.03932137204110622,0.43657969166785476,-1.276308368436247
1761838942096740000,3.806739990234375,0.1806950053244829,0.5736486134946346,-1.4256218548081814
1761838942106810000,3.81681005859375,0.24385318002700804,0.6672703155219555,-1.498161459709704
1761838942116881200,3.826881103515625,0.2889052046746015,0.7483860255889594,-1.5434332645878195
1761838942126951000,3.836950927734375,0.22521277696490286,0.777960202858597,-1.5293360579133033
1761838942137021200,3.847021240234375,0.16480360870957372,0.7996662771016358,-1.4599468798667192
1761838942147091200,3.85709130859375,0.29658582230508324,0.8982147680066526,-1.4638614229619502
1761838942157161000,3.867160888671875,0.3627069384664297,0.9684788291916251,-1.463085762414336
1761838942167231000,3.87723095703125,0.4210305326193571,1.0099871898829937,-1.451927824062109
1761838942177301200,3.88730126953125,0.30808395239710806,0.9381582174688577,-1.3612132416531444
1761838942187371000,3.89737109375,0.26525661806166173,0.8943179066985845,-1.2849541778370737
1761838942197441000,3.90744091796875,0.2812175727814436,0.8797982368282973,-1.2210391934178768
1761838942207511000,3.917510986328125,0.31684125934839247,0.8331257713720202,-1.1512366853300482
1761838942217581000,3.9275810546875,0.3922130189359188,0.7691279309749602,-1.0904065151836722
1761838942227651000,3.937651123046875,0.3972288012713194,0.685833561694622,-1.035038190639764
1761838942237721000,3.94772119140625,0.41703240289390087,0.5884618594840169,-0.9955267759192734
1761838942247791000,3.957791015625,0.46170916448831556,0.4749323648072779,-0.9734229345303028
1761838942257861000,3.967861083984375,0.5263917722791434,0.3604911621131003,-0.9166064570046961
1761838942267932200,3.97793212890625,0.5304220507085323,0.26146891621649265,-0.8767433793023228
1761838942278002000,3.988001953125,0.5531207892507314,0.13079700195044278,-0.8550459267571568
1761838942288072200,3.998072265625,0.6065741470187902,-0.039029695618152616,-0.8139827525500207
1761838942298142200,4.00814208984375,0.5675105491310358,-0.20160262266620993,-0.7385624776456504
1761838942308212000,4.0182119140625,0.4922685534030199,-0.3454595971979201,-0.678892071993649
1761838942318280200,4.0282802734375,0.5004349087238311,-0.41753202297911046,-0.6503156735897064
1761838942328350000,4.038349853515625,0.5030903916686773,-0.5074881882362068,-0.6038290130291134
1761838942338420200,4.048420166015625,0.4543932885169983,-0.5491308428317309,-0.6208387461494654
1761838942348490200,4.058490234375,0.5401432342559099,-0.5386931815780699,-0.6373353421159088
1761838942358560000,4.06856005859375,0.6263660582035779,-0.5647362621121108,-0.6061480305612087
1761838942368630300,4.07863037109375,0.6417378148585557,-0.5978722235165536,-0.567953178332001
1761838942378700300,4.0887001953125,0.7034884608507156,-0.6441754172690213,-0.5120609029792249
1761838942388770000,4.09877001953125,0.7578542572885751,-0.6635396045610308,-0.4833589054342359
1761838942398840000,4.108840087890625,0.8323603399574756,-0.6079181089736521,-0.4754750568492338
1761838942408910000,4.11891015625,0.9021879094213247,-0.5583908386081456,-0.456948124098964
1761838942418980000,4.12897998046875,0.9733990421980618,-0.5473572572879493,-0.4140941940175369
1761838942429050000,4.139050048828125,1.0397253255426884,-0.5595953920923173,-0.3477308300655335
1761838942439120100,4.1491201171875,1.0626274777024984,-0.5864532961405813,-0.22071681725252418
1761838942449190100,4.159190185546875,1.0356108759611844,-0.6273045080974697,-0.09724555508028715
1761838942459261200,4.16926123046875,1.0433505303025246,-0.6492474598363042,-0.0121002972362563
1761838942469331200,4.179331298828125,1.0411620803475379,-0.6383211382828653,0.058068742609024046
1761838942479401200,4.189401123046875,0.9229945506066083,-0.6095163379505276,0.07988569334801286
1761838942489471200,4.19947119140625,0.8022007640153169,-0.572563302475959,0.08235942651778459
1761838942499541000,4.209541015625,0.698638682731986,-0.520438270702213,0.06238020346681587
1761838942509611000,4.219611083984375,0.6568582271009683,-0.4525356779515743,0.010581828097859397
1761838942519681300,4.229681396484375,0.5624854144454002,-0.42428719632774586,-0.012878839294123463
1761838942529751000,4.2397509765625,0.37651217645704743,-0.48689022136554116,-0.0329197933365358
1761838942539821000,4.249821044921875,0.2738672100186348,-0.5408281477801501,-0.0753012470680056
1761838942549891300,4.259891357421875,0.14998013358712195,-0.6473612076982855,-0.1034389754934702
1761838942559961000,4.269961181640625,-0.04808744682073593,-0.787103440387547,-0.1523363504576031
1761838942570031000,4.280031005859375,-0.1580780998468399,-0.9134265117943287,-0.19319920718651265
1761838942580101400,4.290101318359375,-0.33327743036448954,-1.055137998729944,-0.2530908361074515
1761838942590171100,4.300171142578125,-0.4513923531353473,-1.1394136341325938,-0.3436729329768568
1761838942600241200,4.3102412109375,-0.5140063379585743,-1.2472991315729915,-0.38604718978255986
1761838942610311000,4.320310791015625,-0.6536883648931979,-1.3103459548555314,-0.39510486791990695
1761838942620382000,4.3303818359375,-0.7592442503422498,-1.3281626204445958,-0.38457328130509705
1761838942630452200,4.3404521484375,-0.8639841432332992,-1.362335669811815,-0.3364453198108822
1761838942640522200,4.350522216796875,-0.9939373878359794,-1.3558400241822004,-0.3196327897630632
1761838942650592000,4.360592041015625,-1.1327905627310275,-1.3803902358099818,-0.2901722837346606
1761838942660662300,4.370662353515625,-1.318396720972657,-1.3556567765697836,-0.32967871175277974
1761838942670732300,4.380732177734375,-1.4275076685547827,-1.3166137830786406,-0.3808365789948031
1761838942680802000,4.390802001953125,-1.4879630140393971,-1.3363409584641457,-0.3963824135750532
1761838942690872300,4.400872314453125,-1.5340964041829108,-1.418656984231621,-0.37007739416919644
1761838942700942000,4.410942138671875,-1.704253648880124,-1.5377086033307015,-0.26441326257269826
1761838942711012000,4.42101220703125,-1.993750974228978,-1.6717732287749647,-0.21141342072580008
1761838942721082000,4.43108203125,-2.1685048990666864,-1.6091344017714262,-0.3188700252296403
1761838942731152100,4.441152099609375,-2.3853338785678146,-1.4152673417933284,-0.48887613448575135
1761838942741222100,4.45122216796875,-2.652115514239669,-1.1878867192700504,-0.7503769071452319
1761838942751292200,4.461292236328125,-2.745333896163106,-0.7497467925481498,-1.0421056448079644
1761838942761362200,4.471362060546875,-2.690740720710158,-0.227503664381057,-1.3014455861717462
1761838942771432200,4.48143212890625,-2.547306647765636,0.14496522803455592,-1.3643994704738258
1761838942781502200,4.491502197265625,-2.0801789653599263,0.5311185085400939,-1.318895025883615
1761838942791573000,4.501572998046875,-1.6527666227489708,0.9314525823503732,-1.198112564403936
1761838942801643000,4.51164306640625,-1.3465350202202797,1.174978868510574,-0.8817829078394919
1761838942811713300,4.52171337890625,-0.9846610254466533,1.355652392655611,-0.4960477796807885
1761838942821783000,4.531782958984375,-0.5325029486358166,1.5207383254379032,-0.25306829548208043
1761838942831853000,4.54185302734375,0.12798632844388486,1.670272322692722,-0.13639529688153415
1761838942841923300,4.55192333984375,0.6804290723025799,1.6956953716322778,-0.0510242491913028
1761838942851993000,4.5619931640625,1.0902420453369617,1.535866336464882,0.11550271271215751
1761838942862063000,4.57206298828125,1.3757500087887047,1.3209969665989278,0.31762148647326977
1761838942872133400,4.58213330078125,1.5220903245687485,1.091919915421307,0.47595052887387573
1761838942882203100,4.592203125,1.624777961105108,0.9627046297043561,0.5139737873958423
1761838942892273200,4.602273193359375,1.7467857996612786,0.9338000222593545,0.48073242938816546
1761838942902343000,4.612343017578125,1.8719874658226965,0.9316998351097107,0.42381241842284795
1761838942912413200,4.6224130859375,2.099401552224159,1.0034659714207053,0.3250841139715165
1761838942922483200,4.632483154296875,2.331604626467824,1.016441188327968,0.2624295779421925
1761838942932553000,4.642552978515625,2.4174013339579106,0.9224661428183316,0.35571130742542445
1761838942942624000,4.6526240234375,2.44645850161612,0.8030147107467055,0.5347791499394923
1761838942952694300,4.6626943359375,2.3601941766142844,0.7225120180115103,0.7530513139862567
1761838942962764300,4.672764404296875,1.8331436481654644,0.4966527598366141,1.0942452165637164
1761838942972834000,4.682833984375,1.2509855650007724,0.3651055240407586,1.3794929947093129
1761838942982904300,4.692904296875,0.7240034256130456,0.33269027812629937,1.5902967225715516
1761838942992974000,4.70297412109375,0.41107612483799455,0.41188422635048627,1.5982245929613708
1761838943003044000,4.713044189453125,0.18852993673384189,0.5550099639981985,1.4714184142127633
1761838943013115100,4.723115234375,-0.29365795215964313,0.6757566965773701,1.346859137608111
1761838943023185200,4.73318505859375,-0.9119809891611337,0.7610054147958755,1.3444412628114222
1761838943033255200,4.743255126953125,-1.419875566241145,0.9455801841631531,1.2831921366006136
1761838943043325200,4.7533251953125,-1.7600643834292888,1.1989552257731557,1.1037177591122687
1761838943053395000,4.76339501953125,-2.0229577794909477,1.452863643607497,0.8639701877731829
1761838943063465200,4.77346533203125,-2.243170556211471,1.5694591017261146,0.6730722067337482
1761838943073535200,4.78353515625,-2.181325802195072,1.6550635015144943,0.4717892444759607
1761838943083605000,4.79360498046875,-1.9523820220082997,1.7726362802326678,0.2245510433868505
1761838943093675300,4.80367529296875,-1.7364765870928762,1.794003477910161,0.02325761453397572
1761838943103745300,4.813745361328125,-1.4737141239345073,1.7319456656649708,-0.052609892681241034
1761838943113815000,4.82381494140625,-1.1796774015903473,1.6182544045552612,-0.058501416671555485
1761838943123885000,4.833885009765625,-0.830306330037117,1.4998779082387685,-0.027245186332799494
1761838943133955300,4.843955322265625,-0.4802899463176727,1.3306447926491498,-0.0011870726264081894
1761838943144025000,4.854025146484375,-0.0146527947306633,1.1076245572924612,-0.01987046544686891
1761838943154095000,4.86409521484375,0.47496787451207634,0.9295350582912564,-0.1424019899504259
1761838943164165400,4.874165283203125,0.7378472420483827,0.7505912805482745,-0.2403104111199267
1761838943174235100,4.884235107421875,0.9232195915341377,0.5845955394446849,-0.2793904121532105
1761838943184306200,4.89430615234375,1.109314994597435,0.47254970745444297,-0.3879571150571108
1761838943194376200,4.904376220703125,1.326494687232375,0.2630652454972267,-0.462972900813818
1761838943204446000,4.914446044921875,1.4109586848139761,0.07462269478589297,-0.5459465867724269
1761838943214516200,4.92451611328125,1.366670630276203,-0.13802227702885866,-0.5957063872521743
1761838943224586200,4.934586181640625,1.412059339532256,-0.4045516915053129,-0.6563560497324913
1761838943234656000,4.944656005859375,1.400349027994275,-0.6437506159856915,-0.7463534237828106
1761838943244726300,4.954726318359375,1.367224757027626,-0.8520749481223523,-0.8375527940340339
1761838943254796000,4.964796142578125,1.2734341281741857,-1.0435320243492723,-0.8926648057293146
1761838943264866000,4.974865966796875,1.06514209087193,-1.1822937215685845,-0.9088581809654831
1761838943274936300,4.984936279296875,0.8446148413747548,-1.3193746260941028,-0.8996932430613785
1761838943285006000,4.995006103515625,0.7445324189007282,-1.3918269911035894,-0.9390720443781465
1761838943295076900,5.005076904296875,0.6612468174487351,-1.3865233317375183,-0.9881772899392992
1761838943305146600,5.015146728515625,0.412272641146183,-1.3655509785965083,-0.9131636230744421
1761838943315217000,5.025216796875,0.22546470589935777,-1.3604516096308827,-0.7492727452956139
1761838943325287000,5.035286865234375,0.14571546187996864,-1.3189762744262814,-0.5667585982525721
1761838943335356700,5.045356689453125,0.037542671930789945,-1.2344801281407474,-0.40669703297093507
1761838943345426700,5.0554267578125,0.013919219759106635,-1.1321133941218255,-0.2531873370181769
1761838943355497000,5.0654970703125,-0.04940846629142761,-1.0186465894177557,-0.10806815139777026
1761838943365566700,5.075566650390625,-0.2651262696802616,-0.9410165295094252,0.05834986110534519
1761838943375636700,5.08563671875,-0.46340486249029633,-0.8715513636171818,0.20296717075137422
1761838943385707800,5.095707763671875,-0.6185036542654037,-0.7557667834900319,0.28417974705528465
1761838943395777800,5.10577783203125,-0.732093208566308,-0.6485103777334094,0.3291092413017526
1761838943405847800,5.115847900390625,-0.8336217381954193,-0.6073151746444404,0.35256497222371397
1761838943415917800,5.125917724609375,-0.9058341569691896,-0.569552284091711,0.3788336782071739
1761838943425987800,5.13598779296875,-1.0041805494308471,-0.5584978061139583,0.34621282671801745
1761838943436057900,5.146057861328125,-1.1557593503862618,-0.42562487467229365,0.26808026064764706
1761838943446127600,5.156127685546875,-1.3978823456197975,-0.28766265726760026,0.22690368919391185
1761838943456197600,5.16619775390625,-1.22202659702003,-0.36231662397459147,0.13697448500897735
1761838943466268000,5.176267822265625,-1.1783090358465909,-0.17577639975324272,0.0915629793992266
1761838943476337700,5.186337646484375,-1.3523685486793517,0.017849398814886806,0.12008267917986959
1761838943486407700,5.19640771484375,-1.3553361663132906,-0.02346197799965739,0.2174514222484082
1761838943496478000,5.20647802734375,-1.2739660430938005,0.02060249691531062,0.25184753978177904
1761838943506547700,5.216547607421875,-1.165557690823078,0.17979264965727923,0.2130330212842673
1761838943516617700,5.22661767578125,-1.0633493622362613,0.2723996216841042,0.15206132377535103
1761838943526687700,5.236687744140625,-0.9466086504280566,0.28078780306205153,0.10006444842591881
1761838943536757800,5.2467578125,-0.7724673045307398,0.2888116811722517,0.01564735872596502
1761838943546827800,5.256827880859375,-0.5614578249633312,0.32460882460996504,-0.042196708281710744
1761838943556897800,5.266897705078125,-0.32039222982823845,0.38448753925040363,-0.10623203114494681
1761838943566967800,5.2769677734375,-0.052961774858832356,0.43482437243312594,-0.13074023026190698
1761838943577037800,5.287037841796875,0.23022914382219314,0.4706010576047003,-0.13199417584575712
1761838943587108900,5.29710888671875,0.4973644152373075,0.4928967683039605,-0.14233794827088714
1761838943597178600,5.3071787109375,0.645560588017106,0.5326647150687873,-0.1038030504323542
1761838943607249000,5.317248779296875,0.829243084719777,0.5881795354112982,-0.008097454803064464
1761838943617319000,5.32731884765625,1.0296265408545733,0.6518918368652462,0.048083720493689176
1761838943627388700,5.337388671875,1.3138777822434902,0.7075307219788431,0.08206833461672067
1761838943637458700,5.347458740234375,1.626412284308672,0.8213654832124709,0.0823919405478984
1761838943647529000,5.357529052734375,1.4458452892780302,0.8332381457053124,0.25078718054126947
1761838943657598700,5.3675986328125,1.395009420531988,0.8310067333914339,0.40818412972353396
1761838943667668700,5.377668701171875,1.4422194999963045,0.8458956749655305,0.4688394912922755
1761838943677738800,5.38773876953125,1.4168331298053263,0.7950367176048457,0.45214207552410657
1761838943687808800,5.397808837890625,1.2420377039134503,0.7380166072659194,0.3887752995721996
1761838943697878800,5.407878662109375,0.9990677364617585,0.711404640802741,0.28630254789553583
1761838943707948800,5.41794873046875,0.7810749738782644,0.7248338850878179,0.11529643128402531
1761838943718018800,5.428018798828125,0.6347983709841967,0.7479618088275194,-0.10087956420108675
1761838943728088800,5.4380888671875,0.49358606574237346,0.765598003283143,-0.2855969569094479
1761838943738158600,5.44815869140625,0.3063748103916645,0.7284469610184431,-0.42151312850452954
1761838943748228900,5.458228759765625,0.09961422044038772,0.7029818265028297,-0.5460642218027264
1761838943758299000,5.468298828125,-0.10699673190712929,0.6643474138125777,-0.6346909650869668
1761838943768368600,5.47836865234375,-0.18834288972914218,0.6238890005655586,-0.6867411780588328
1761838943778439000,5.48843896484375,-0.21925591438710687,0.5939686402067542,-0.7559544880818575
1761838943788508700,5.4985087890625,-0.17808453056514262,0.5300301287814975,-0.7673356407307088
1761838943798578700,5.50857861328125,-0.2542500708788633,0.39839930635541676,-0.7223126960471272
1761838943808649700,5.518649658203125,-0.2778992420136928,0.14112491921931505,-0.6685595516148954
1761838943818719700,5.5287197265625,-0.07499474296867847,-0.12371011242941021,-0.6749981332950293
1761838943828789800,5.538789794921875,0.16839315763413906,-0.4194178367257118,-0.7141581772945821
1761838943838859800,5.54885986328125,0.1498603065997362,-0.7705797372184693,-0.6409604007452726
1761838943848929800,5.5589296875,-0.12622107233703136,-1.117112516605854,-0.5314755783494561
1761838943858999800,5.568999755859375,-0.19314941322803497,-1.290144878347963,-0.5942812863525003
1761838943869069800,5.57906982421875,0.1621171461045742,-1.2928548679590224,-0.7490714505698531
1761838943879139600,5.5891396484375,0.41899756548702716,-1.2759864430055021,-0.775312757089734
1761838943889209900,5.5992099609375,0.416713253942132,-1.31880603242591,-0.6341109732419252
1761838943899280000,5.60927978515625,0.32669688293039795,-1.342491297787428,-0.4512940073274076
1761838943909349600,5.619349609375,0.42603754712641234,-1.2910226840958,-0.3529582093250006
1761838943919419600,5.629419677734375,0.6161065299957991,-1.2476251486569643,-0.2436450537016615
1761838943929490000,5.639489990234375,0.4878852237522602,-1.3141044306062162,-0.041843424164899626
1761838943939559700,5.6495595703125,0.4384188897937536,-1.29515320802927,0.14551160987094044
1761838943949629700,5.659629638671875,0.4632014488726854,-1.1873917753599583,0.28506653982717545
1761838943959700000,5.669699951171875,0.4695101936280727,-1.0397468067221343,0.3602527867799625
1761838943969769700,5.679769775390625,0.4862900635153055,-0.9273417860306798,0.38945513506252316
1761838943979839700,5.68983984375,0.4495458484858274,-0.8532352240733801,0.468694128004834
1761838943989909800,5.69990966796875,0.36560558251738545,-0.743245886221528,0.5250962891085073
1761838943999979800,5.709979736328125,0.23558277980983255,-0.6388967462137342,0.5568208858776837
1761838944010049800,5.7200498046875,0.11969956161379813,-0.5514689303904772,0.5702130495553835
1761838944020119600,5.73011962890625,0.03144844670891762,-0.4383797268271446,0.5435672173552215
1761838944030189800,5.74018994140625,-0.16223405048251152,-0.39083062466681,0.5461768153317272
1761838944040259800,5.750259765625,-0.1317652624607086,-0.33703634450659153,0.48574850398451086
1761838944050331000,5.760330810546875,-0.25412322962880135,-0.2910058302156627,0.41775253386199473
1761838944060400600,5.770400634765625,-0.4701689497977495,-0.2578425424128771,0.3858461873177439
1761838944070471000,5.780470947265625,-0.6666834555447101,-0.2261757767781615,0.3755419431854039
1761838944080540700,5.790540771484375,-0.8310287990927696,-0.21441958027184008,0.3618435631027445
1761838944090610700,5.800610595703125,-1.012651440656185,-0.20333105389401315,0.3283699307091534
1761838944100680700,5.8106806640625,-1.1445113956630228,-0.1460245278291404,0.2567383805632591
1761838944110750700,5.820750732421875,-1.293387367400527,-0.09618789925351738,0.16155350260613485
1761838944120820700,5.83082080078125,-1.4806389547616243,-0.14627923324257133,0.03937885154911783
1761838944130890800,5.840890869140625,-1.596935429933667,-0.15960194841325281,-0.16582228423282502
1761838944140960800,5.850960693359375,-1.6602385660648344,-0.09111015759781002,-0.38102088605314494
1761838944151030800,5.86103076171875,-1.6452432415068148,-0.004992547590285539,-0.5879009011330083
1761838944161100800,5.871100830078125,-1.4784610262006521,0.12136588739082217,-0.7670963520821183
1761838944171170800,5.8811708984375,-1.1846972755789755,0.24520693272352218,-0.8602229640688747
1761838944181240800,5.89124072265625,-0.8551368199110031,0.34914749193042516,-0.8180722138207406
1761838944191310800,5.901310791015625,-0.6029921968787908,0.39679859316051,-0.6090767774894833
1761838944201380600,5.911380615234375,-0.38837504820823665,0.35877149871364233,-0.3688679453141987
1761838944211451000,5.921450927734375,-0.20333120002448557,0.3819814016483724,-0.19306920586498452
1761838944221520600,5.931520751953125,0.022668927925825116,0.47063116048201914,-0.07293046738263219
1761838944231590700,5.941590576171875,0.1351993285626173,0.5197356753908098,0.03527936664130538
1761838944241661000,5.951660888671875,0.09054068714678287,0.5547822927221655,0.18697514503989368
1761838944251730700,5.961730712890625,0.10316811352968215,0.6145822430379688,0.2670880712725222
1761838944261800700,5.97180078125,0.1579693787753582,0.705095311525464,0.24922365755159406
1761838944271871000,5.98187109375,0.2766945423990488,0.8223710069932043,0.1679358423206955
1761838944281940700,5.991940673828125,0.3163882548838854,0.9209439016871154,0.08867865613456814
1761838944292009500,6.002009521484375,0.36447862431406974,0.9903649361766874,0.04886449560783803
1761838944302079700,6.012079833984375,0.491499907118082,1.0418056389480828,0.012404796608164907
1761838944312149800,6.022149658203125,0.5314233367055654,1.0296319476820528,0.06189681299719959
1761838944322220800,6.032220703125,0.5982049626022576,0.9907343540109693,0.12916118090953677
1761838944332290600,6.04229052734375,0.6460802279770373,0.9817765560515225,0.1985286951135844
1761838944342360800,6.05236083984375,0.587885228639841,0.9222809955097735,0.28147308191247283
1761838944352430600,6.0624306640625,0.5092419000357389,0.8273873738504945,0.4106279426790774
1761838944362500600,6.07250048828125,0.5232809467822312,0.7929692636810243,0.5140624155273661
1761838944372571000,6.08257080078125,0.48225277082324025,0.7507657603323459,0.6433152202431112
1761838944382640600,6.092640625,0.20991174745857713,0.5884490000024437,0.8561665282849222
1761838944392710700,6.102710693359375,0.05937397998869419,0.4746360122092068,1.0104102376006543
1761838944402780700,6.11278076171875,-0.03599485796689987,0.4195981617286801,1.0385134655348955
1761838944412850700,6.1228505859375,-0.06903320421576499,0.4126730386406183,0.9771418819881975
1761838944422920700,6.132920654296875,-0.18535949000418184,0.4205309125341475,0.9064004125498235
1761838944432990700,6.14299072265625,-0.25465397550463675,0.4028748443342745,0.8382545125626027
1761838944443060700,6.153060791015625,-0.3095668844312429,0.37738852090016006,0.7369924518499523
1761838944453130800,6.163130859375,-0.3561795825242996,0.33156624253243205,0.614267624130845
1761838944463200800,6.17320068359375,-0.4453437206208706,0.2891743770048022,0.53831755319871
1761838944473270500,6.1832705078125,-0.5103951617240905,0.2791905969984829,0.43598757099360225
1761838944483340800,6.1933408203125,-0.4714893847465515,0.2927554503619671,0.31384226019550115
1761838944493410600,6.20341064453125,-0.3818640588790178,0.2792182156577706,0.2162822688711807
1761838944503480600,6.21348046875,-0.31633857052326203,0.32522330324649806,0.031581096645258364
1761838944513550800,6.22355078125,-0.15512100360691547,0.28109862257689233,-0.04416921393107623
1761838944523620600,6.23362060546875,-0.03504267180860042,0.24075243753269313,-0.04145871286336332
1761838944533690600,6.243690673828125,0.055775663235783576,0.21840894216895101,0.014721804846264421
1761838944543761000,6.253760986328125,0.12880991978645323,0.15038666856139898,0.158780987419188
1761838944553830700,6.26383056640625,0.15648001700043676,0.08538359664455056,0.259096414931491
1761838944563900700,6.273900634765625,0.2721376097470522,0.09089403062909841,0.2585557321835309
1761838944573970700,6.283970703125,0.40632688448429105,0.16642258821353315,0.18921631156280636
1761838944584040700,6.294040771484375,0.5572498518794775,0.12901990927532314,0.12064955581501126
1761838944594110700,6.30411083984375,0.6108306354194879,0.04446238819137215,0.06156425657458603
1761838944604180500,6.314180419921875,0.5361380902677774,0.00022065701335668563,0.03205963740982115
1761838944614250800,6.324250732421875,0.5435170946031809,-0.08257453057318925,0.002090688668936491
1761838944624320800,6.33432080078125,0.5537468121945858,-0.1863549307823181,0.006217632405832409
1761838944634391800,6.344391845703125,0.5224456650018692,-0.28713600304499265,-0.0017534926038235425
1761838944644461600,6.354461669921875,0.5592980165809393,-0.40047596649900075,0.05205554673410952
1761838944654531800,6.36453173828125,0.48001346746385093,-0.523043777025491,0.1417806797143072
1761838944664601900,6.374601806640625,0.4285235187232494,-0.5990643559105694,0.16051153753884137
1761838944674671600,6.384671630859375,0.38278877250850196,-0.5885336095459759,0.11140621891245245
1761838944684741600,6.39474169921875,0.2876560813963413,-0.5971186286702752,0.07270151746496557
1761838944694811600,6.404811767578125,0.10304770202040672,-0.6374862948939204,0.09495616550147533
1761838944704881700,6.414881591796875,-0.15546645604372022,-0.6961268460415303,0.17618556507602334
1761838944714951700,6.42495166015625,-0.10381693282723427,-0.605337152569741,0.11411138621792197
1761838944725021700,6.435021728515625,-0.2149976724207401,-0.48627968825176354,0.09009656010847539
1761838944735091700,6.445091796875,-0.39488603753745555,-0.382347604612261,0.13378379920888692
1761838944745161700,6.45516162109375,-0.5551742146492004,-0.2830262296386063,0.18378168276082724
1761838944755231700,6.465231689453125,-0.762408851853013,-0.2588040809214115,0.24190573575366286
1761838944765301800,6.4753017578125,-0.9217302297592163,-0.21410013905912637,0.2735664004411548
1761838944775371800,6.485371826171875,-1.1606816092193126,-0.17130334599241615,0.2942740747639909
1761838944785441500,6.495441650390625,-1.4167396063029765,-0.0856006003960967,0.27024872726052995
1761838944795511800,6.50551171875,-1.5180664758801459,0.07561667425930499,0.15021229837518185
1761838944805581600,6.51558154296875,-1.6333166568696498,0.2023402892909944,0.019467117943521586
1761838944815651600,6.525651611328125,-1.7945365618735551,0.31204467272162434,-0.06118934058127924
1761838944825721900,6.535721923828125,-1.654443031528592,0.48355508559346194,-0.14295940463747828
1761838944835791600,6.54579150390625,-1.3989625420719385,0.7058774018138647,-0.36508652707934375
1761838944845861600,6.555861572265625,-1.067740290671587,0.7884403880797326,-0.526480400410667
1761838944855931600,6.565931640625,-0.5898129818320273,0.8268350006647408,-0.654349970607087
1761838944866001700,6.576001708984375,-0.16919921332001686,0.8687243234977126,-0.7223360769227146
1761838944876071700,6.58607177734375,-0.02574234402179718,0.7955544578686357,-0.604020882339403
1761838944886141700,6.5961416015625,0.10727788693606853,0.6648294982410967,-0.5106770108727738
1761838944896211700,6.606211669921875,0.3020879268527031,0.4696628999717533,-0.4830464419515803
1761838944906281700,6.61628173828125,0.4764209959298372,0.29335619273409247,-0.49433279245644807
1761838944916351700,6.626351806640625,0.6141542268842458,0.15925503467172383,-0.5642226500341668
1761838944926421800,6.636421875,0.7784896335601806,0.05175663685277104,-0.6927397608865052
1761838944936491800,6.64649169921875,0.9317483504265546,0.035087095472216605,-0.8403819530453532
1761838944946561500,6.6565615234375,0.951029974001646,0.0276759424328804,-0.940498350854218
1761838944956631600,6.666631591796875,0.9372042777448892,0.04023687945082784,-1.028679980719462
1761838944966701800,6.676701904296875,1.0620932246953247,0.13497282633036375,-1.0958246677748857
1761838944976771600,6.686771484375,1.1650158390313385,0.2583072373151779,-1.0745144609816373
1761838944986841600,6.696841552734375,1.1260019255042075,0.3126842857994139,-0.9279555340148508
1761838944996912600,6.70691259765625,1.0451964504301547,0.33306685635372996,-0.7867085958510637
1761838945006983000,6.71698291015625,0.8993927257448434,0.3870489141710102,-0.6929209626723081
1761838945017052700,6.727052734375,0.7836877867251634,0.4854368076868355,-0.6317218861483037
1761838945027122700,6.737122802734375,0.6832634189456701,0.5763879753306508,-0.5852324491087347
1761838945037192700,6.747192626953125,0.5315367339521646,0.6538987927734852,-0.5912339180132374
1761838945047262700,6.7572626953125,0.42226445832848547,0.7269361180640757,-0.6035994785895571
1761838945057332700,6.767332763671875,0.331040465092659,0.7918066496424376,-0.6665785338655114
1761838945067402500,6.777402587890625,0.24607085607647894,0.8797466527715325,-0.7645197795923799
1761838945077472800,6.78747265625,0.1729956829935312,0.9288890154726803,-0.8808282374631613
1761838945087542800,6.797542724609375,0.05667115077078342,0.9824765210144221,-1.0182497721198946
1761838945097612500,6.807612548828125,-0.12021978609561919,1.0294519149400294,-1.1215885660413651
1761838945107682800,6.817682861328125,-0.2283738713443279,1.0361464441426098,-1.2286096286721526
1761838945117752800,6.8277529296875,-0.3201426389813423,1.015058647928387,-1.2744602563515304
1761838945127822600,6.837822509765625,-0.47366088356673713,0.9333310895733534,-1.3080406005226075
1761838945137892600,6.847892578125,-0.6414420467823744,0.8310888587169348,-1.3699381076395512
1761838945147962600,6.857962646484375,-0.6996861459583044,0.739840461692214,-1.501118848210573
1761838945158032600,6.86803271484375,-0.753712335178256,0.5923217497825622,-1.626790762232244
1761838945168102700,6.8781025390625,-0.7135311314374208,0.4554864905811846,-1.7597266759075223
1761838945178172700,6.888172607421875,-0.6546814675837754,0.3296101400285959,-1.8355119847320018
1761838945188242700,6.89824267578125,-0.587765986174345,0.1201981587857008,-1.8932620167806744
1761838945198312700,6.908312744140625,-0.40284313402175903,-0.05186988796889782,-1.9127775952421127
1761838945208382700,6.9183828125,0.019626491490006445,-0.12209580910056829,-1.960130444177985
1761838945218452700,6.92845263671875,0.10943360366523265,-0.25698037262558937,-1.8680784756854176
1761838945228522800,6.938522705078125,0.174799517545104,-0.44454643276333805,-1.6779745676331221
1761838945238592500,6.948592529296875,0.33811610256731506,-0.5640528098925948,-1.520419030355662
1761838945248662800,6.958662841796875,0.4519698607623577,-0.6162962073490024,-1.3946841341003775
1761838945258732800,6.96873291015625,0.502221792140603,-0.6232932266294956,-1.2478548657596111
1761838945268802600,6.978802490234375,0.4777624736666679,-0.6291342077426612,-1.0845028440978377
1761838945278872800,6.988872802734375,0.28351883546113965,-0.5955816283613443,-0.914601546923071
1761838945288942600,6.998942626953125,0.05529635528624057,-0.49967941418141126,-0.7598646472629159
1761838945299012900,7.009012939453125,-0.1349684424161911,-0.4196184738643467,-0.5657167610494419
1761838945309083000,7.019082763671875,-0.3106225309640169,-0.32629867739304896,-0.3707543070500716
1761838945319153000,7.02915283203125,-0.4972837512165308,-0.24708573220744728,-0.23898108047861605
1761838945329223000,7.039222900390625,-0.5064122295677662,-0.19107479891106485,-0.1665558957369998
1761838945339293000,7.04929296875,-0.46715164780318735,-0.172140965860337,-0.1291113138858229
1761838945349363000,7.059363037109375,-0.46160044341683387,-0.16320727942883967,-0.08726246919371188
1761838945359433000,7.069432861328125,-0.46082069121599195,-0.18242489785701035,-0.07643398199155926
1761838945369502700,7.079502685546875,-0.5295616344869136,-0.17547274063155055,-0.1111236756440252
1761838945379573000,7.089572998046875,-0.6088993750959635,-0.07166121463179588,-0.18633980627842248
1761838945389643000,7.09964306640625,-0.5471007983088493,0.12558978869616985,-0.34464404303133483
1761838945399712800,7.109712646484375,-0.43200668466389175,0.3271235839098692,-0.48426250321045516
1761838945409782800,7.11978271484375,-0.3699380587637424,0.4687161206409335,-0.5516134534277022
1761838945419853000,7.12985302734375,-0.23609657455086708,0.5567028855212033,-0.5583297560706735
1761838945429922800,7.1399228515625,-0.04390227009057998,0.5981986789919436,-0.5370424186963587
1761838945439992800,7.149992919921875,0.1597457407981157,0.6603222499497234,-0.5182392262879759
1761838945450064000,7.16006396484375,0.2563257081091404,0.696279552385211,-0.4497438552759587
1761838945460134000,7.1701337890625,0.2590215230643749,0.6831859697952866,-0.3394296693839133
1761838945470203000,7.180202880859375,0.21002865183651445,0.6504477755367756,-0.17692944224588572
1761838945480274000,7.19027392578125,0.29040801045298575,0.6397505865640938,-0.11394070582613348
1761838945490344000,7.200343994140625,0.22188743193447588,0.5286417431630194,0.02063990631625056
1761838945500414000,7.2104140625,0.10661737720072269,0.343975203859061,0.1595067444104701
1761838945510484000,7.22048388671875,0.03955284270942211,0.24704890732839702,0.18406397030092775
1761838945520553700,7.2305537109375,-0.08839023111462592,0.22131723083108662,0.1559231868352741
1761838945530624000,7.2406240234375,-0.14247019634842872,0.21209026054143904,0.04030366107672453
1761838945540694000,7.250694091796875,-0.23218963024020195,0.30541181057840583,-0.11866145073771477
1761838945550763800,7.260763671875,-0.25590952852368354,0.5339987401515245,-0.34742994742281735
1761838945560834000,7.270833984375,-0.1601864703029394,0.8108513957217335,-0.5316108221016824
1761838945570903800,7.28090380859375,-0.12826456086337565,1.041076155629754,-0.5881679911039769
1761838945580973800,7.290973876953125,-0.15234569367468356,1.2345935253873466,-0.55501186369434
1761838945591043800,7.3010439453125,-0.09448737894594669,1.4393191023796796,-0.515368639287725
1761838945601113900,7.31111376953125,0.04352642251551151,1.5345435634285212,-0.41899676176942885
1761838945611183900,7.321183837890625,0.08985153583884238,1.464484815557301,-0.31337796715199945
1761838945621254000,7.33125390625,0.06385141766369343,1.4497688924625516,-0.14102292014956475
1761838945631324000,7.341323974609375,-0.06685995182991028,1.4873454666629433,0.07488039587400853
1761838945641394000,7.351393798828125,-0.2095043357014656,1.3723738103538752,0.20164726552553475
1761838945651464000,7.3614638671875,-0.2646545605152845,1.2245604994118213,0.2527343325536698
1761838945661534000,7.371533935546875,-0.35473172180354595,1.0993807528212667,0.2505678021695465
1761838945671604000,7.38160400390625,-0.44567046835720536,0.9849234757751226,0.2061774563010782
1761838945681674000,7.391674072265625,-0.5552420191884041,0.8978712152659892,0.09025770548693836
1761838945691743700,7.40174365234375,-0.6995739177554845,0.7776821165695786,0.07923705671355127
1761838945701814000,7.41181396484375,-0.8004875303566455,0.7015957789719104,-0.03159633074700832
1761838945711883800,7.4218837890625,-0.873908155876398,0.7212579262971878,-0.23119798885434864
1761838945721953800,7.431953857421875,-0.9499760810345411,0.6835752613738179,-0.3169014651030302
1761838945732024000,7.442024169921875,-1.0278004944711923,0.6423673449337483,-0.4016185606628656
1761838945742093800,7.45209375,-1.0363660782426596,0.636746582442522,-0.5124032866761088
1761838945752163800,7.462163818359375,-1.1289841561853884,0.6181812904432415,-0.6026738516446203
1761838945762233900,7.47223388671875,-0.9879583134263753,0.7092986084342002,-0.7559343220766633
1761838945772304000,7.482303955078125,-0.727682406386733,0.8752943495377897,-0.9294904884971678
1761838945782374000,7.492373779296875,-0.4887129067480564,1.0300897744521498,-1.0678411206975578
1761838945792444000,7.50244384765625,-0.3015320465356111,1.1454638740822671,-1.1151536376230418
1761838945802514000,7.512513916015625,-0.180599728256464,1.2135393391817808,-1.0364582865707577
1761838945812584000,7.522583984375,-0.07618073788285255,1.2438295557662844,-0.8809408309921621
1761838945822654000,7.532654052734375,0.009935118559002875,1.1650278217300771,-0.7467582782566548
1761838945832724000,7.542723876953125,0.11444237173795699,1.0960586226612328,-0.6915723976075648
1761838945842794000,7.5527939453125,0.2342828031271696,1.0885071843683718,-0.6376998645793647
1761838945852863700,7.56286376953125,0.24915479356646536,1.121383325792849,-0.5741656961712985
1761838945862933800,7.572933837890625,0.29195114824175833,1.1602212982311844,-0.6026689562737941
1761838945873004000,7.583004150390625,0.32894027794301506,1.1412547319546342,-0.5944023554489016
1761838945883073800,7.59307373046875,0.2581260355293751,1.1297747220411896,-0.5637455705743283
1761838945893143800,7.603143798828125,0.1892524057894945,1.1452245123684406,-0.5507622434258461
1761838945903214000,7.613214111328125,0.024092238727211952,1.2240914205953477,-0.531901767872274
1761838945913283800,7.623283935546875,-0.15168401489555836,1.337416186480224,-0.4702866578932851
1761838945923353900,7.633353759765625,-0.4110165036052465,1.4581038823485373,-0.3873344531141221
1761838945933423900,7.643423828125,-0.7797779198050498,1.5438447679981588,-0.28744258477613327
1761838945943494000,7.653493896484375,-1.00434304651618,1.6426947260677813,-0.1938868606571108
1761838945953564000,7.66356396484375,-1.2441010661840437,1.7757678562566637,-0.16888616531547157
1761838945963634000,7.673634033203125,-1.409140821737051,1.8608473553881049,-0.17957944529801606
1761838945973704000,7.683703857421875,-1.535492826977372,1.98933637265712,-0.19314389680270105
1761838945983774000,7.69377392578125,-1.6774983284234999,2.11680949088186,-0.25311865569613873
1761838945993843700,7.70384375,-1.7854618595361709,2.2315347712144256,-0.303190353402961
1761838946003914000,7.7139140625,-1.8311515975654125,2.347583993627131,-0.39447592236660417
1761838946013984000,7.72398388671875,-1.7728239117592572,2.497899935039878,-0.5353137682728469
1761838946024053800,7.7340537109375,-1.7145318817883728,2.647070213548839,-0.6698301560726017
1761838946034123800,7.744123779296875,-1.6664520337522029,2.7857901174530384,-0.7945211692981421
1761838946044194800,7.75419482421875,-1.3442127147525549,2.926532174834609,-0.8883888819757848
1761838946054264800,7.764264892578125,-0.898254077103734,2.9906670856148003,-0.9741110629249363
1761838946064333800,7.774333740234375,-0.5757523077756166,2.9398326781734823,-0.9383647728916257
1761838946074404900,7.78440478515625,-0.09066343674361706,2.89788358797729,-0.8415051849216222
1761838946084475000,7.794474853515625,0.4108212732940912,2.7791493642643093,-0.724548346144706
1761838946094545000,7.804544921875,0.634370500960946,2.5140590426802634,-0.4945243329731747
1761838946104615000,7.814614990234375,0.7348731946736574,2.2467510450467465,-0.305058028704673
1761838946114685000,7.824684814453125,0.9443395364522933,2.0621429579317567,-0.18886336993928998
1761838946124755000,7.8347548828125,0.9536597379833459,1.8381252359703182,-0.01890917353350669
1761838946134825000,7.844824951171875,0.9235843331933021,1.6592805346876383,0.16609573087934404
1761838946144894700,7.854894775390625,0.9615841012418269,1.5548209200426935,0.23882848373278975
1761838946154965000,7.864965087890625,1.0186597411602736,1.5144479931220411,0.2634387549847364
1761838946165035000,7.875034912109375,0.934910613849759,1.4828732896849512,0.2677494395243935
1761838946175104800,7.885104736328125,0.8360609480410813,1.4221075630769133,0.22225655750781295
1761838946185175000,7.895175048828125,0.771194800376892,1.3895795044377446,0.1203190452190116
1761838946195244800,7.905244873046875,0.5939946514308452,1.3408321324035524,0.0715060971353203
1761838946205314800,7.915314697265625,0.4372416627079248,1.3313091017767786,0.013154665127396582
1761838946215385000,7.925385009765625,0.3089583971440792,1.3696572448715567,-0.009518555381055921
1761838946225454800,7.935454833984375,0.20694529886841773,1.3882912181928753,-0.02022822024282068
1761838946235524900,7.94552490234375,0.1341314070701599,1.3398533504992722,0.027037096540071068
1761838946245595000,7.955594970703125,-0.13106325167119504,1.2101504273958503,0.12420600618757306
1761838946255665000,7.965664794921875,-0.4565928443878889,1.0609694813624024,0.11305703659309074
1761838946265735000,7.97573486328125,-0.6210597684890031,1.0134512127317488,-0.003231319204578176
1761838946275805000,7.985804931640625,-0.8856360030710697,1.0092957004874945,-0.15813667989997193
1761838946285875000,7.995875,-1.2328835065990686,0.9677081370800733,-0.2839216075757518
1761838946295945000,8.005945068359376,-1.2416665325134992,0.9665513682603836,-0.49359417598359284
1761838946306015000,8.016014892578125,-1.1668944923847913,0.9401073057100177,-0.6785436969473958
1761838946316084000,8.026083984375,-1.1506681647270918,0.7772614069394767,-0.7565672862179577
1761838946326154000,8.036154052734375,-1.053006247398257,0.5887805700443685,-0.7939391316264868
1761838946336224000,8.04622412109375,-1.0771312193512916,0.43681379268467424,-0.738410867280513
1761838946346294000,8.0562939453125,-1.092638000562787,0.3101359164908528,-0.6008673502119257
1761838946356364000,8.066364013671874,-0.9777315184444189,0.1411988612383604,-0.3759727358181029
1761838946366434000,8.07643408203125,-0.8101794878095387,-0.04641103804111481,-0.1636841031603515
1761838946376504000,8.086504150390626,-0.6270002644538879,-0.15335896237045527,-0.015114165164716541
1761838946386574000,8.096573974609376,-0.3688578623116016,-0.11141235639229416,0.11154266824107617
1761838946396644000,8.10664404296875,-0.14655600435733795,-0.019581044913083313,0.1839212008293718
1761838946406713900,8.1167138671875,0.016094225710630416,0.03151625124812126,0.2421355989867821
1761838946416784100,8.1267841796875,0.09821896668970584,0.000997632735222578,0.2949469690568745
1761838946426854100,8.136854248046875,0.1376823775500059,-0.0509111259393394,0.3109250575745478
1761838946436924000,8.146923828125,0.14192776003479957,-0.07400353997424244,0.3148451536277309
1761838946446994200,8.156994140625,0.04943710786402225,-0.08873203028962015,0.3439636960843578
1761838946457064000,8.16706396484375,0.025604396855831144,-0.11199980089142918,0.31924978179484603
1761838946467134000,8.177134033203124,0.07143442013859748,-0.09787059164345265,0.2722829730344936
1761838946477204000,8.187203857421874,0.01248772565126419,-0.06588979162350296,0.2515341995162889
1761838946487274000,8.19727392578125,-0.09468670091032981,-0.10854703008905052,0.27049309394303706
1761838946497344000,8.207343994140626,-0.08577508018016815,-0.15923764514550565,0.23478056004885584
1761838946507414000,8.2174140625,-0.22173078006803987,-0.19981836959794164,0.21343961105747147
1761838946517484000,8.227484130859375,-0.30790158156752584,-0.2766292220778763,0.23010190071333197
1761838946527554000,8.237553955078125,-0.3976414737254381,-0.35683877708539363,0.2115457053359598
1761838946537624000,8.2476240234375,-0.6461363420784473,-0.44699616400301456,0.24517750569963825
1761838946547694000,8.257694091796875,-0.6748416275590657,-0.4894748310312628,0.1611691063984297
1761838946557764000,8.26776416015625,-0.679807725533843,-0.5058658477313817,0.027500932925846426
1761838946567834000,8.277834228515625,-0.7094026533305644,-0.5637775000825525,-0.0890985803133808
1761838946577903900,8.28790380859375,-0.7055664361685514,-0.6656348232746124,-0.21805291353920472
1761838946587974100,8.29797412109375,-0.5877618945211172,-0.7468618847616016,-0.3658633201381191
1761838946598044000,8.3080439453125,-0.396973949727416,-0.8305259641371667,-0.43583230736665424
1761838946608114000,8.318114013671876,-0.26462650346457955,-0.952188934778422,-0.41749176403395827
1761838946618184200,8.32818408203125,-0.12235095290541648,-1.0712800091050565,-0.36744803204629567
1761838946628254000,8.33825390625,-0.01993570356965065,-1.1422143707670271,-0.31078831598497925
1761838946638324000,8.348323974609375,0.11276830104589462,-1.1231624642945826,-0.3152921302102506
1761838946648394000,8.35839404296875,0.24409341852366923,-1.093521067007631,-0.3222157919935882
1761838946658464000,8.368464111328125,0.3741062843590975,-1.0678459430031477,-0.3556495307682082
1761838946668534000,8.378533935546875,0.3980155677348375,-1.0096281473122537,-0.3660325392251834
1761838946678604000,8.38860400390625,0.46451896121203895,-0.9656908059082925,-0.3660078797079623
1761838946688674000,8.398674072265624,0.4615612804502249,-0.9312135128974914,-0.32767968342266973
1761838946698745000,8.4087451171875,0.44947921299040317,-0.8325888880163431,-0.31233700673170384
1761838946708815000,8.418815185546874,0.6058318042188883,-0.6645484893426299,-0.31259953012540936
1761838946718884900,8.428884765625,0.6761468649387359,-0.5705336963444948,-0.1861097238495946
1761838946728955100,8.438955078125,0.608728694704175,-0.5596991447277366,-0.008592983235046267
1761838946739025200,8.449025146484376,0.691232790389657,-0.4452605723820626,0.018138298758864402
1761838946749095000,8.459094970703125,0.3268120337426662,-0.3752973938398063,0.1721969338312745
1761838946759165000,8.4691650390625,0.046996144452691076,-0.24376550174355505,0.32748511069864034
1761838946769235200,8.479235107421875,0.15950374873578546,0.14922317773997784,0.2195300551533699
1761838946779305000,8.489304931640625,0.30835633959770203,0.6507122716918587,-0.0500206799056381
1761838946789375000,8.499375,0.26681436889767646,1.0527388286337256,-0.16650369062572717
1761838946799445000,8.509445068359375,0.25467443377077575,1.306951197850704,-0.07880860216841101
1761838946809515000,8.519514892578124,0.33477205283641814,1.36109049205631,0.05537760382890701
1761838946819585000,8.5295849609375,0.4282359339535236,1.3124670386627315,0.147321947228536
1761838946829655000,8.539655029296876,0.4702823470443487,1.261501406057179,0.26477906367778775
1761838946839725000,8.54972509765625,0.4510720351397991,1.17031949839741,0.4077186311036348
1761838946849795000,8.559795166015626,0.3761088563531637,0.9774192376248538,0.4890695381660014
1761838946859864800,8.56986474609375,0.38808395630717274,0.6814889566190541,0.492492133025825
1761838946869935000,8.57993505859375,0.4171861321508884,0.3241960060253739,0.49428266970440743
1761838946880005000,8.590005126953125,0.4420037625432014,0.023641864611208437,0.5081361307509243
1761838946890075000,8.600074951171875,0.4473439545273781,-0.1945361914113164,0.5239886566601694
1761838946900145200,8.610145263671875,0.4052437654227018,-0.3422892965987325,0.5352222175318747
1761838946910215200,8.620215087890625,0.4301502431422472,-0.4372855018496513,0.5435930093836039
1761838946920285000,8.630284912109374,0.45827977456152436,-0.4641860759958625,0.49171128484643994
1761838946930356000,8.64035595703125,0.5045499428272247,-0.41724984503686424,0.4452577228378504
1761838946940426000,8.650426025390624,0.5797030912280082,-0.3728615449950099,0.4335762720681727
1761838946950496000,8.66049609375,0.6073679277449846,-0.3431614032581448,0.549403303097561
1761838946960566000,8.67056591796875,0.5393570523142814,-0.29763883848935363,0.766675496321544
1761838946970636000,8.680635986328125,0.43013738366067406,-0.23567367296367883,1.013520624706149
1761838946980706000,8.6907060546875,0.3642091597229242,-0.11658464446365832,1.1878137270990758
1761838946990776000,8.700776123046875,0.4650923771858215,0.10401245539933443,1.2510117223553359
1761838947000845800,8.710845703125,0.30934476611316203,0.2860001308828592,1.3734735882893203
1761838947010916000,8.720916015625,0.059949149528145784,0.36563597765564915,1.6133730622544884
1761838947020986000,8.730986083984375,0.020743512821197508,0.531808244369924,1.756768556754291
1761838947031056000,8.741055908203125,-0.0345253699362278,0.7327252228595316,1.8015682140760123
1761838947041126000,8.7511259765625,-0.17981939153373241,0.7919292531087994,1.8765645644798874
1761838947051196200,8.761196044921874,-0.2950987986177206,0.7612308941148221,1.9250082773923873
1761838947061266000,8.771265869140626,-0.4383580995172262,0.7000361284397542,1.9481056598633526
1761838947071336000,8.7813359375,-0.4383750506520271,0.641049978724867,1.8951973687574266
1761838947081406200,8.79140625,-0.41661856139600273,0.5418811639644205,1.8131895321562885
1761838947091476000,8.80147607421875,-0.28500352106094357,0.4550909153923392,1.704410008485615
1761838947101546000,8.8115458984375,-0.21476094105541704,0.28949878665357826,1.5603715399071574
1761838947111616300,8.8216162109375,-0.26565117033720015,0.16309402831271289,1.4913894813567399
1761838947121686000,8.83168603515625,-0.3140338007122278,0.038140930084884166,1.4407012043878435
1761838947131756000,8.841756103515625,-0.2579834121882915,-0.14573504336327314,1.3637591267436742
1761838947141825800,8.85182568359375,-0.28973230314850806,-0.3412337961964309,1.3480463015660642
1761838947151896000,8.86189599609375,-0.31408114698529244,-0.4859647770836949,1.3090750581368804
1761838947161966000,8.871966064453124,-0.2759177128076553,-0.5613344908446073,1.3257161040753125
1761838947172035800,8.882035888671876,-0.19129472527205943,-0.6067901278570293,1.3208584349110721
1761838947182106000,8.892106201171876,-0.029607202756404875,-0.6053485507465899,1.2338541051968932
1761838947192176000,8.902176025390625,0.08379705810546874,-0.6139451141782105,1.1719334364000706
1761838947202246000,8.912245849609375,0.14895371314883232,-0.6504096354834735,1.157713772389665
1761838947212316200,8.922316162109375,0.18494974015951154,-0.7126585863865912,1.113306840712577
1761838947222386200,8.93238623046875,0.2922492544054985,-0.8106221170105039,1.0800540479954333
1761838947232456000,8.9424560546875,0.4126765457719564,-0.9349103215888142,1.101160183583945
1761838947242526000,8.95252587890625,0.48782092634439467,-1.0013339278280735,1.1634569191515445
1761838947252596200,8.96259619140625,0.4768272386431694,-1.1068738850556312,1.196034808281809
1761838947262666000,8.972666015625,0.5900123037964106,-1.091078496161103,1.24912020952031
1761838947272736000,8.982736083984374,0.6683166097044945,-1.0603615785971283,1.1300818152289838
1761838947282806000,8.992805908203126,0.8171358828186989,-1.0038144925974308,0.940617227993533
1761838947292876000,9.0028759765625,0.7990092744976282,-0.9311750805832445,0.8142090355865657
1761838947302946300,9.0129462890625,0.4429156166911125,-0.763595869680494,0.7805955197982489
1761838947313016000,9.02301611328125,0.5018278243869543,-0.9901702903874218,0.563327856618911
1761838947323086300,9.03308642578125,0.5213116925358772,-0.9238095202513038,0.5404483546823263
1761838947333156400,9.04315625,0.4477724090725183,-0.5313027790658176,0.5265273813575506
1761838947343226000,9.05322607421875,0.17126842080950735,-0.42068040400743484,0.42007768887393176
1761838947353296400,9.06329638671875,0.029773206973075866,-0.49381461380124086,0.4374305363435298
1761838947363366400,9.073366455078125,0.0052425768285989756,-0.6769986594624817,0.4733162713801488
1761838947373436200,9.083436279296874,0.013665537258982658,-0.6103107762638479,0.49820568836703893
1761838947383506200,9.093506103515624,-0.19645313094854353,-0.6071824151102453,0.5407951953586191
1761838947393576400,9.103576416015626,-0.40769174309670925,-0.7849995999760925,0.6213711725257337
1761838947403646200,9.113646240234376,-0.547148144581914,-0.8259140864275395,0.6494339953843504
1761838947413716200,9.12371630859375,-0.6140162797182798,-0.8735722749855369,0.6779157743073999
1761838947423786200,9.1337861328125,-0.6308055019557476,-0.9374255192801356,0.6840270237293093
1761838947433856300,9.143856201171875,-0.7860749741226434,-0.9538297607880085,0.7248308894131332
1761838947443926300,9.15392626953125,-0.7887357177644968,-0.8871213462579994,0.6905261034250259
1761838947453996300,9.163996337890625,-0.6942489233404397,-0.7658916524674743,0.6599987170837819
1761838947464066300,9.17406640625,-0.7651192798554897,-0.6636964025579393,0.6950362743258476
1761838947474136300,9.18413623046875,-1.060920089262724,-0.6274621828772127,0.8552977826263755
1761838947484206000,9.1942060546875,-1.2302490664422512,-0.643076369985938,1.026026616666466
1761838947494276400,9.2042763671875,-1.1809732866197824,-0.7187628946110606,1.1333123946480452
1761838947504346400,9.214346435546876,-1.2635124536186455,-0.7363263160914182,1.162394842877984
1761838947514416000,9.224416015625,-1.4261650217741726,-0.4903938455723226,0.991872710391134
1761838947524486400,9.234486328125,-1.5976614061206578,-0.13774740561023355,0.681385642375052
1761838947534556400,9.244556396484375,-1.648932159152627,0.11427023004144429,0.3949341509955004
1761838947544626200,9.254626220703125,-1.686995055565238,0.29015213599577544,0.007255085694789886
1761838947554696400,9.264696533203125,-1.5637340020775794,0.43663492898643014,-0.25825488607343283
1761838947564766200,9.27476611328125,-1.3813082274377346,0.5201926253780722,-0.3101815457308665
1761838947574836200,9.284836181640625,-0.6040262161016464,0.6515494531683623,-0.5660511075703427
1761838947584906200,9.29490625,0.0730851099550724,0.7361962599709629,-0.6906840704657137
1761838947594976300,9.304976318359374,0.18321312562525272,0.6089670335046946,-0.49927572875134646
1761838947605046300,9.31504638671875,0.06668985596001148,0.32371026833504435,-0.18620958576118574
1761838947615116300,9.3251162109375,0.48206630834043024,0.22339725197553634,-0.08579875331670045
1761838947625186300,9.335186279296876,1.0712602814912795,0.1579592957727611,-0.132025666962564
1761838947635256300,9.34525634765625,1.3629291056603192,-0.04281768972426653,-0.16016372874816878
1761838947645326300,9.355326416015625,1.6029776327073573,-0.24889015128090977,-0.23112262206319717
1761838947655396000,9.36539599609375,1.9522084190070628,-0.3116542120993137,-0.34300065973848104
1761838947665466400,9.37546630859375,2.2482915524870157,-0.2655576468348503,-0.4594048696013167
1761838947675536100,9.3855361328125,2.2364678437024352,-0.136347767945379,-0.603700637409091
1761838947685606100,9.395606201171875,2.2912995040863753,-0.005384323386847973,-0.6688981359194964
1761838947695676400,9.405676513671875,1.9893267280459404,0.020687837111204862,-0.5854194961134344
1761838947705746200,9.41574609375,1.4301491229742764,0.07731821748018264,-0.44363951051887124
1761838947715816200,9.425816162109374,0.8875310230374336,0.15448767413944006,-0.2953747660148889
1761838947725886500,9.435886474609376,0.656614481472969,0.2213501101873815,-0.2574709691541269
1761838947735956200,9.445956298828126,0.5893202298790217,0.3338768575623631,-0.31688082417380065
1761838947746026200,9.456026123046875,0.3870131122052669,0.4504566797204315,-0.41920536301881073
1761838947756097300,9.46609716796875,0.11832593517303466,0.49703591393530366,-0.5194250750716776
1761838947766167000,9.4761669921875,-0.07429273217916488,0.590783580429852,-0.674956413045153
1761838947776237300,9.4862373046875,-0.08926467586159706,0.6998297922126948,-0.8447853756360709
1761838947786307300,9.496307373046875,-0.10231061991751193,0.7176639934584498,-0.9756657450210302
1761838947796377000,9.506377197265625,-0.31847265994250773,0.6652781187914312,-1.0743031563185155
1761838947806447400,9.516447265625,-0.2866565489649772,0.6948840063735843,-1.1532302703000605
1761838947816517400,9.526517333984375,-0.09999299062490463,0.8120075800195335,-1.2461540531910955
1761838947826587100,9.536587158203124,-0.08473287765085696,0.8376284896187484,-1.3203773733958601
1761838947836657400,9.546657470703124,-0.25756430999338625,0.7729894287087022,-1.2547427255772055
1761838947846727400,9.5567275390625,-0.4715121811002493,0.6400380252033472,-1.1062214124962686
1761838947856797200,9.566797119140626,-0.5205190808534622,0.45320714747235175,-1.0075739912614226
1761838947866867200,9.5768671875,-0.4402314921736717,0.2260682978156954,-0.8992907266750931
1761838947876937500,9.5869375,-0.40548517296314235,-0.060075844647735355,-0.8030635183244943
1761838947887007200,9.59700732421875,-0.3967746277630329,-0.2716512875348329,-0.7917831226363777
1761838947897077200,9.6070771484375,-0.32026188144683837,-0.41077341556437313,-0.9277993936050682
1761838947907147300,9.617147216796875,-0.19659692333340645,-0.4929382693581283,-1.1448283526577054
1761838947917217300,9.62721728515625,-0.05812485671043396,-0.5982406915027648,-1.2746058023020623
1761838947927287300,9.637287353515624,0.13492986397147178,-0.6818308288592845,-1.3596077061526477
1761838947937357300,9.647357421875,0.26637480843663214,-0.7392049402676523,-1.4421312371909618
1761838947947427300,9.65742724609375,0.34666415068209167,-0.8520126234758645,-1.4174638289242982
1761838947957497300,9.667497314453126,0.42625908092260356,-0.9567431640166789,-1.3480851722717284
1761838947967567000,9.677567138671876,0.5160165087372064,-1.0170581511825323,-1.2273996683605015
1761838947977637400,9.687637451171875,0.549714195677638,-1.115240366058424,-1.0309002140522003
1761838947987707400,9.697707275390625,0.52374973333776,-1.20705750288181,-0.7874914167918264
1761838947997777200,9.707777099609375,0.4942588504374027,-1.2599281653910874,-0.5508166039615869
1761838948007847400,9.717847412109375,0.4490753083646297,-1.326582657776773,-0.3704165629956871
1761838948017917200,9.727917236328125,0.45023441527187824,-1.4106601402588188,-0.250576643063128
1761838948027987200,9.7379873046875,0.42188042744696136,-1.4374734745129942,-0.23167791785839945
1761838948038057200,9.74805712890625,0.4161152880489826,-1.4495650404535234,-0.24589327101986855
1761838948048127200,9.758127197265624,0.44689971789121624,-1.4221211532108484,-0.2601873154407367
1761838948058197200,9.768197265625,0.39517712943851946,-1.3413748609781264,-0.2897037346411496
1761838948068267300,9.778267333984376,0.4154313974380493,-1.3340259595200419,-0.27435988890640434
1761838948078337300,9.788337158203126,0.271095407217741,-1.3473019129395485,-0.27555004853904247
1761838948088407300,9.7984072265625,0.20867548366189,-1.2529130259320138,-0.32425971891134975
1761838948098477300,9.808477294921875,0.29528643014431,-1.1259602052543312,-0.389015976460278
1761838948108547300,9.81854736328125,0.29490532187223434,-1.1140184961132704,-0.4209676965162158
1761838948118617300,9.828617431640625,0.358431745365262,-1.1214669854883104,-0.3733239748749882
1761838948128687400,9.838687255859375,0.2964776857554912,-1.0672313913013785,-0.26335173428840936
1761838948138757000,9.848757080078125,0.14251695809960366,-0.9172733234155923,-0.2478318743996322
1761838948148827400,9.858827392578124,0.14337269814610482,-0.7660812567554414,-0.21110336839593946
1761838948158897200,9.868897216796874,0.22564999933838842,-0.6651402446907013,-0.21578699616752564
1761838948168967200,9.87896728515625,0.1264104574292898,-0.6420324138909578,-0.035881533785536886
1761838948179037400,9.889037353515626,0.10329963095486164,-0.6105234691664576,0.07090294361039996
1761838948189107200,9.899107177734376,-0.08827157317101955,-0.48818406056836244,0.12886194223463535
1761838948199177200,9.90917724609375,-0.4607756830304861,-0.489860615478456,0.2005013834260404
1761838948209247200,9.919247314453125,-0.7849053458213806,-0.5279791876010597,0.15668576870560647
1761838948219317200,9.929317138671875,-0.9740022687882185,-0.40255364955589173,0.010110182864964007
1761838948229387300,9.93938720703125,-1.0902420453369617,-0.11241934147775172,-0.1858168783828616
1761838948239457300,9.949457275390625,-1.1889952650338411,0.1447215554717928,-0.30581016224622726
1761838948249527300,9.95952734375,-1.1440981386870146,0.4673302923057228,-0.2936429007209837
1761838948259597300,9.969597412109374,-1.7199696889281273,0.7060923597387969,-0.28142675855271515
1761838948269667300,9.979667236328124,-1.6456874781429767,0.7479185542076826,-0.3982781641937792
1761838948279737300,9.9897373046875,-1.2674351800203323,0.9322769774105399,-0.5742560778684914
1761838948289807400,9.999807373046876,-1.0628852518558503,0.9975606198344379,-0.477642938940227
1761838948299877400,10.00987744140625,-1.128136599445343,0.8270771388575434,-0.16770049919486044
1761838948309947400,10.019947509765625,-1.0866975045979022,0.666278966397047,0.07269099607095122
1761838948320017700,10.030017578125,-0.7518769364446402,0.5393361556567251,0.23868074582517146
