time,seconds_elapsed,z,y,x
1761383308318180600,0.0791806640625,-0.8517608642578125,-0.5303802490234375,0.063568115234375
1761383308328250400,0.08925048828125,-0.8464813232421875,-0.544158935546875,0.068084716796875
1761383308338320400,0.0993203125,-0.841796875,-0.55517578125,0.0740509033203125
1761383308348389400,0.109389404296875,-0.8374481201171875,-0.56097412109375,0.076995849609375
1761383308358459400,0.11945947265625,-0.8302154541015625,-0.5599517822265625,0.07757568359375
1761383308368529700,0.12952978515625,-0.8280792236328125,-0.5555572509765625,0.0778961181640625
1761383308378599400,0.139599365234375,-0.82891845703125,-0.5534820556640625,0.0788421630859375
1761383308388669400,0.14966943359375,-0.8313446044921875,-0.548583984375,0.076934814453125
1761383308398739500,0.159739501953125,-0.83929443359375,-0.540130615234375,0.0757293701171875
1761383308408809500,0.1698095703125,-0.8431549072265625,-0.5352935791015625,0.0760650634765625
1761383308418879500,0.17987939453125,-0.8498077392578125,-0.5302276611328125,0.0753021240234375
1761383308428949200,0.18994921875,-0.854156494140625,-0.5241241455078125,0.075225830078125
1761383308439019500,0.20001953125,-0.8561859130859375,-0.5197906494140625,0.07952880859375
1761383308449089500,0.210089599609375,-0.852813720703125,-0.52166748046875,0.0855560302734375
1761383308459159300,0.2201591796875,-0.8444671630859375,-0.522857666015625,0.0898895263671875
1761383308469229600,0.2302294921875,-0.8355865478515625,-0.5224151611328125,0.093109130859375
1761383308479299600,0.240299560546875,-0.83111572265625,-0.5241546630859375,0.0972137451171875
1761383308489369300,0.250369384765625,-0.8296966552734375,-0.5272369384765625,0.0980987548828125
1761383308499439400,0.260439453125,-0.8273162841796875,-0.5249786376953125,0.0977325439453125
1761383308509509600,0.270509521484375,-0.8321685791015625,-0.5214385986328125,0.09930419921875
1761383308519579400,0.280579345703125,-0.8353271484375,-0.51971435546875,0.102783203125
1761383308529648600,0.290648681640625,-0.8391265869140625,-0.5196685791015625,0.10296630859375
1761383308539718400,0.300718505859375,-0.8430633544921875,-0.51739501953125,0.1076202392578125
1761383308549788400,0.310788330078125,-0.8472900390625,-0.517547607421875,0.1116180419921875
1761383308559858700,0.320858642578125,-0.8470001220703125,-0.5237884521484375,0.1136932373046875
1761383308569928400,0.330928466796875,-0.8465576171875,-0.5261993408203125,0.1139373779296875
1761383308579998500,0.34099853515625,-0.845001220703125,-0.5270233154296875,0.1133270263671875
1761383308590068500,0.351068359375,-0.843505859375,-0.530914306640625,0.1138916015625
1761383308600138500,0.361138427734375,-0.844512939453125,-0.535888671875,0.11309814453125
1761383308610208500,0.37120849609375,-0.8484649658203125,-0.5396881103515625,0.1081695556640625
1761383308620278300,0.3812783203125,-0.8560791015625,-0.5377655029296875,0.104736328125
1761383308630348500,0.3913486328125,-0.8636627197265625,-0.5383758544921875,0.10516357421875
1761383308640418600,0.40141845703125,-0.8560028076171875,-0.539306640625,0.099853515625
1761383308650488300,0.41148828125,-0.85601806640625,-0.533905029296875,0.0977935791015625
1761383308660558300,0.421558349609375,-0.859161376953125,-0.52935791015625,0.094970703125
1761383308670628600,0.431628662109375,-0.8545684814453125,-0.532440185546875,0.0923614501953125
1761383308680698400,0.441698486328125,-0.8495635986328125,-0.5326080322265625,0.0872955322265625
1761383308690768400,0.451768310546875,-0.84527587890625,-0.53021240234375,0.0835113525390625
1761383308700837400,0.46183740234375,-0.8395843505859375,-0.5313568115234375,0.082977294921875
1761383308710907400,0.471907470703125,-0.834808349609375,-0.5318756103515625,0.0795135498046875
1761383308720977700,0.481977783203125,-0.8237762451171875,-0.5307769775390625,0.068817138671875
1761383308731047400,0.49204736328125,-0.822113037109375,-0.5355377197265625,0.063446044921875
1761383308741117400,0.502117431640625,-0.8213653564453125,-0.53955078125,0.068389892578125
1761383308751187500,0.5121875,-0.81475830078125,-0.5463409423828125,0.066986083984375
1761383308761257500,0.522257568359375,-0.8094482421875,-0.5531463623046875,0.06817626953125
1761383308771327500,0.532327392578125,-0.815704345703125,-0.5364837646484375,0.076873779296875
1761383308781397500,0.5423974609375,-0.8127899169921875,-0.529449462890625,0.0744476318359375
1761383308791467500,0.552467529296875,-0.8227386474609375,-0.5232086181640625,0.08740234375
1761383308801537500,0.56253759765625,-0.825653076171875,-0.526214599609375,0.1024322509765625
1761383308811607300,0.572607177734375,-0.834930419921875,-0.5292510986328125,0.120025634765625
1761383308821677600,0.582677490234375,-0.8392333984375,-0.537445068359375,0.140411376953125
1761383308831747600,0.59274755859375,-0.8441619873046875,-0.54736328125,0.156982421875
1761383308841817300,0.6028173828125,-0.859649658203125,-0.54620361328125,0.172027587890625
1761383308851887400,0.612887451171875,-0.8608245849609375,-0.548858642578125,0.1811981201171875
1761383308861956000,0.6229560546875,-0.846343994140625,-0.5428619384765625,0.188262939453125
1761383308872026000,0.633026123046875,-0.833160400390625,-0.539764404296875,0.194793701171875
1761383308882096000,0.64309619140625,-0.8109588623046875,-0.5345306396484375,0.189697265625
1761383308892166100,0.653166259765625,-0.790191650390625,-0.5218048095703125,0.19232177734375
1761383308902236000,0.66323583984375,-0.7876129150390625,-0.530853271484375,0.208038330078125
1761383308912306200,0.67330615234375,-0.7867889404296875,-0.5674591064453125,0.2386016845703125
1761383308922376200,0.683376220703125,-0.7755279541015625,-0.5975799560546875,0.2583160400390625
1761383308932446000,0.693446044921875,-0.74432373046875,-0.6042327880859375,0.2540130615234375
1761383308942516000,0.703515869140625,-0.7183074951171875,-0.6034088134765625,0.2393798828125
1761383308952586200,0.713586181640625,-0.7171783447265625,-0.606201171875,0.2274169921875
1761383308962656000,0.723656005859375,-0.7244110107421875,-0.6042633056640625,0.2167816162109375
1761383308972726000,0.73372607421875,-0.7249298095703125,-0.595123291015625,0.20562744140625
1761383308982796300,0.74379638671875,-0.7282562255859375,-0.58685302734375,0.203216552734375
1761383308992866000,0.753865966796875,-0.661376953125,-0.5771026611328125,0.2086029052734375
1761383309002936000,0.76393603515625,-0.7111053466796875,-0.5883026123046875,0.245941162109375
1761383309013005000,0.774005126953125,-0.755584716796875,-0.6186981201171875,0.268890380859375
1761383309023075000,0.784074951171875,-0.6984100341796875,-0.6259002685546875,0.2718048095703125
1761383309033145000,0.79414501953125,-0.7115478515625,-0.6138763427734375,0.25628662109375
1761383309043215000,0.804215087890625,-0.715606689453125,-0.6226806640625,0.225494384765625
1761383309053285000,0.81428515625,-0.7205963134765625,-0.6392822265625,0.196563720703125
1761383309063355100,0.824355224609375,-0.70135498046875,-0.6371917724609375,0.192779541015625
1761383309073425200,0.834425048828125,-0.6903228759765625,-0.6113128662109375,0.190032958984375
1761383309083495200,0.8444951171875,-0.6832275390625,-0.60205078125,0.1623382568359375
1761383309093565000,0.85456494140625,-0.700469970703125,-0.605682373046875,0.1829681396484375
1761383309103635200,0.86463525390625,-0.7494049072265625,-0.6254730224609375,0.21405029296875
1761383309113705200,0.874705322265625,-0.738037109375,-0.6503448486328125,0.225860595703125
1761383309123775000,0.88477490234375,-0.7356719970703125,-0.6433258056640625,0.2269744873046875
1761383309133845000,0.894844970703125,-0.758148193359375,-0.620849609375,0.2182464599609375
1761383309143915300,0.904915283203125,-0.7748260498046875,-0.6111602783203125,0.2012176513671875
1761383309153985000,0.914985107421875,-0.7627716064453125,-0.5999908447265625,0.1849517822265625
1761383309164055000,0.925054931640625,-0.7585296630859375,-0.5874481201171875,0.1910247802734375
1761383309174124000,0.9351240234375,-0.7598876953125,-0.5936126708984375,0.2207794189453125
1761383309184194000,0.945194091796875,-0.759613037109375,-0.6152191162109375,0.254486083984375
1761383309194264000,0.95526416015625,-0.751678466796875,-0.6335906982421875,0.27703857421875
1761383309204334000,0.965333984375,-0.7628326416015625,-0.6374969482421875,0.28558349609375
1761383309214404000,0.975404052734375,-0.78167724609375,-0.6318206787109375,0.281768798828125
1761383309224474000,0.98547412109375,-0.7830352783203125,-0.62066650390625,0.264678955078125
1761383309234544000,0.995544189453125,-0.7715606689453125,-0.6057891845703125,0.2409820556640625
1761383309244614100,1.0056142578125,-0.78125,-0.593658447265625,0.2198944091796875
1761383309254684200,1.01568408203125,-0.7866973876953125,-0.5796966552734375,0.2070159912109375
1761383309264754200,1.025754150390625,-0.79205322265625,-0.5731353759765625,0.205108642578125
1761383309274824200,1.03582421875,-0.8049468994140625,-0.5749664306640625,0.204833984375
1761383309284894000,1.04589404296875,-0.81732177734375,-0.578369140625,0.201416015625
1761383309294964000,1.0559638671875,-0.836456298828125,-0.57550048828125,0.1983642578125
1761383309305034200,1.0660341796875,-0.8656005859375,-0.5767059326171875,0.19989013671875
1761383309315104000,1.07610400390625,-0.9027252197265625,-0.5884246826171875,0.2079315185546875
1761383309325174000,1.086174072265625,-0.9362030029296875,-0.598602294921875,0.21429443359375
1761383309335243000,1.096242919921875,-0.9553070068359375,-0.595550537109375,0.195098876953125
1761383309345313000,1.10631298828125,-1.016510009765625,-0.5798492431640625,0.1753997802734375
1761383309355383000,1.116383056640625,-1.022979736328125,-0.565338134765625,0.153900146484375
1761383309365453000,1.126453125,-1.008544921875,-0.552001953125,0.1265411376953125
1761383309375523000,1.136523193359375,-1.0076751708984375,-0.5406341552734375,0.1026153564453125
1761383309385593000,1.146593017578125,-0.9828338623046875,-0.539825439453125,0.0857086181640625
1761383309395663000,1.1566630859375,-0.946807861328125,-0.5407867431640625,0.0809173583984375
1761383309405733000,1.166733154296875,-0.91754150390625,-0.5547027587890625,0.0836334228515625
1761383309415803100,1.17680322265625,-0.885223388671875,-0.579681396484375,0.0946044921875
1761383309425873200,1.186873046875,-0.862457275390625,-0.603302001953125,0.0987548828125
1761383309435943200,1.196943115234375,-0.8597564697265625,-0.613067626953125,0.0885772705078125
1761383309446013200,1.20701318359375,-0.840301513671875,-0.6207427978515625,0.0869598388671875
1761383309456083000,1.2170830078125,-0.8040924072265625,-0.6369171142578125,0.099212646484375
1761383309466153200,1.2271533203125,-0.7948455810546875,-0.628448486328125,0.0700531005859375
1761383309476223000,1.237222900390625,-0.759368896484375,-0.639923095703125,0.0581512451171875
1761383309486292200,1.247292236328125,-0.7617950439453125,-0.6451263427734375,0.0341949462890625
1761383309496362200,1.2573623046875,-0.788177490234375,-0.6407928466796875,-0.007232666015625
1761383309506432000,1.267431884765625,-0.7658843994140625,-0.635009765625,-0.03375244140625
1761383309516502000,1.277501953125,-0.7265625,-0.61444091796875,-0.050323486328125
1761383309526572000,1.287572021484375,-0.6962127685546875,-0.597625732421875,-0.065460205078125
1761383309536642000,1.29764208984375,-0.65399169921875,-0.5864410400390625,-0.06640625
1761383309546712000,1.307712158203125,-0.6215057373046875,-0.5772857666015625,-0.061370849609375
1761383309556782000,1.317781982421875,-0.6105804443359375,-0.574371337890625,-0.050506591796875
1761383309566852000,1.32785205078125,-0.608551025390625,-0.582183837890625,-0.0440826416015625
1761383309576922000,1.337922119140625,-0.615264892578125,-0.5883026123046875,-0.0390625
1761383309586992000,1.3479921875,-0.632843017578125,-0.587738037109375,-0.03948974609375
1761383309597062100,1.358062255859375,-0.6549072265625,-0.597412109375,-0.025970458984375
1761383309607132200,1.368132080078125,-0.680084228515625,-0.61138916015625,-0.0181884765625
1761383309617202000,1.378201904296875,-0.691314697265625,-0.6233367919921875,-0.010498046875
1761383309627272200,1.388272216796875,-0.70135498046875,-0.6264495849609375,0.0062713623046875
1761383309637341000,1.3983408203125,-0.69158935546875,-0.6208038330078125,0.02130126953125
1761383309647411200,1.4084111328125,-0.6792144775390625,-0.62042236328125,0.0396728515625
1761383309657481200,1.418481201171875,-0.6714019775390625,-0.6257781982421875,0.0542755126953125
1761383309667551000,1.428551025390625,-0.6590728759765625,-0.628570556640625,0.0546722412109375
1761383309677621200,1.438621337890625,-0.6609954833984375,-0.6257781982421875,0.0489959716796875
1761383309687691300,1.448691162109375,-0.65704345703125,-0.6103668212890625,0.04278564453125
1761383309697761000,1.458760986328125,-0.649383544921875,-0.580322265625,0.0341339111328125
1761383309707831000,1.4688310546875,-0.6324462890625,-0.5383758544921875,0.0212554931640625
1761383309717901000,1.478901123046875,-0.6416168212890625,-0.514007568359375,0.011932373046875
1761383309727971000,1.48897119140625,-0.70709228515625,-0.5214996337890625,0.0087890625
1761383309738041000,1.499041015625,-0.7661285400390625,-0.53558349609375,-0.009674072265625
1761383309748111000,1.509111083984375,-0.7469940185546875,-0.5151214599609375,-0.02911376953125
1761383309758181000,1.51918115234375,-0.7111358642578125,-0.4826812744140625,-0.0265960693359375
1761383309768251100,1.529251220703125,-0.716033935546875,-0.4719085693359375,-0.011993408203125
1761383309778321200,1.539321044921875,-0.735198974609375,-0.484375,-0.00103759765625
1761383309788391200,1.54939111328125,-0.7595977783203125,-0.5084686279296875,-0.0201263427734375
1761383309798460000,1.5594599609375,-0.7779693603515625,-0.537384033203125,-0.0585784912109375
1761383309808530200,1.5695302734375,-0.702972412109375,-0.5165252685546875,-0.06646728515625
1761383309818600200,1.57960009765625,-0.6875762939453125,-0.4814300537109375,-0.085113525390625
1761383309828670000,1.589669921875,-0.7447052001953125,-0.4347686767578125,-0.0803680419921875
1761383309838740200,1.599740234375,-0.77294921875,-0.3939056396484375,-0.0530548095703125
1761383309848810200,1.609810302734375,-0.7505950927734375,-0.3642425537109375,-0.0343780517578125
1761383309858880000,1.6198798828125,-0.7310638427734375,-0.3872833251953125,-0.0410308837890625
1761383309868946200,1.6299462890625,-0.7065582275390625,-0.42669677734375,-0.0603790283203125
1761383309879016200,1.64001611328125,-0.698944091796875,-0.443756103515625,-0.086212158203125
1761383309889086000,1.6500859375,-0.6793212890625,-0.4356231689453125,-0.091583251953125
1761383309899156000,1.660156005859375,-0.6648101806640625,-0.3995361328125,-0.0879669189453125
1761383309909226200,1.670226318359375,-0.6626129150390625,-0.3681793212890625,-0.0931396484375
1761383309919296000,1.6802958984375,-0.6658935546875,-0.34912109375,-0.1011199951171875
1761383309929366000,1.690365966796875,-0.65179443359375,-0.3288116455078125,-0.1082305908203125
1761383309939436300,1.700436279296875,-0.6321563720703125,-0.3069610595703125,-0.113372802734375
1761383309949505000,1.710505126953125,-0.6255645751953125,-0.2929534912109375,-0.1062164306640625
1761383309959575300,1.7205751953125,-0.610870361328125,-0.2814178466796875,-0.0845794677734375
1761383309969645000,1.73064501953125,-0.603973388671875,-0.2729644775390625,-0.0489959716796875
1761383309979715000,1.740715087890625,-0.6107940673828125,-0.276702880859375,-0.013946533203125
1761383309989785000,1.75078515625,-0.634918212890625,-0.2816925048828125,-0.001922607421875
1761383309999855000,1.760855224609375,-0.6520538330078125,-0.27215576171875,0.0036468505859375
1761383310009925000,1.770925048828125,-0.6565704345703125,-0.25543212890625,0.0019683837890625
1761383310019995100,1.7809951171875,-0.67327880859375,-0.241943359375,-0.014251708984375
1761383310030065200,1.791065185546875,-0.6954498291015625,-0.233978271484375,-0.0412139892578125
1761383310040135200,1.80113525390625,-0.749725341796875,-0.230560302734375,-0.0589599609375
1761383310050205000,1.811204833984375,-0.81048583984375,-0.2277679443359375,-0.060150146484375
1761383310060275200,1.821275146484375,-0.822479248046875,-0.2294464111328125,-0.0684356689453125
1761383310070345200,1.83134521484375,-0.8200531005859375,-0.2307586669921875,-0.070648193359375
1761383310080415000,1.8414150390625,-0.8325042724609375,-0.2187347412109375,-0.065093994140625
1761383310090485000,1.851485107421875,-0.8580322265625,-0.20458984375,-0.04949951171875
1761383310100555300,1.86155517578125,-0.9134063720703125,-0.19122314453125,-0.02294921875
1761383310110624000,1.8716240234375,-0.944000244140625,-0.170257568359375,-0.0104827880859375
1761383310120694300,1.8816943359375,-0.958526611328125,-0.137359619140625,-0.0067596435546875
1761383310130764000,1.891763916015625,-0.98077392578125,-0.112335205078125,0.00128173828125
1761383310140834000,1.901833984375,-0.993072509765625,-0.0831756591796875,0.0072479248046875
1761383310150904000,1.911904052734375,-0.9871978759765625,-0.051239013671875,0.009124755859375
1761383310160974000,1.92197412109375,-0.9678497314453125,-0.023529052734375,0.0223236083984375
1761383310171044000,1.932044189453125,-0.931915283203125,0.0110015869140625,0.0355224609375
1761383310181114000,1.942114013671875,-0.89678955078125,0.0480194091796875,0.026763916015625
1761383310191184100,1.95218408203125,-0.89154052734375,0.0943756103515625,0.0275726318359375
1761383310201254100,1.962254150390625,-0.9231414794921875,0.131744384765625,0.0326385498046875
1761383310211324200,1.97232421875,-0.9727630615234375,0.129058837890625,0.0343475341796875
1761383310221394200,1.982394287109375,-0.9954071044921875,0.1137847900390625,0.041534423828125
1761383310231464200,1.992464111328125,-0.9736480712890625,0.0736541748046875,0.0483856201171875
1761383310241534000,2.002533935546875,-0.9410858154296875,0.0074462890625,0.0664215087890625
1761383310251604000,2.01260400390625,-0.9336395263671875,-0.0883026123046875,0.0709991455078125
1761383310261674200,2.02267431640625,-0.9265899658203125,-0.17901611328125,0.0668182373046875
1761383310271744000,2.032743896484375,-0.9571075439453125,-0.23541259765625,0.081817626953125
1761383310281813200,2.042813232421875,-1.052764892578125,-0.271240234375,0.1076202392578125
1761383310291883000,2.052883056640625,-1.151458740234375,-0.2881622314453125,0.1177978515625
1761383310301953000,2.062953125,-1.2369384765625,-0.29296875,0.1143798828125
1761383310312023000,2.07302294921875,-1.3266754150390625,-0.3027496337890625,0.101348876953125
1761383310322093000,2.083093017578125,-1.41290283203125,-0.2863616943359375,0.080596923828125
1761383310332163000,2.0931630859375,-1.5207977294921875,-0.240478515625,0.068267822265625
1761383310342233000,2.103233154296875,-1.6943359375,-0.188629150390625,0.0809478759765625
1761383310352303000,2.11330322265625,-1.8818817138671875,-0.14373779296875,0.1176910400390625
1761383310362373000,2.123373046875,-1.9732666015625,-0.059356689453125,0.202850341796875
1761383310372443100,2.133443115234375,-2.0878143310546875,0.0024261474609375,0.2840728759765625
1761383310382513200,2.14351318359375,-2.2151336669921875,-0.0828094482421875,0.32061767578125
1761383310392583200,2.153583251953125,-2.2802734375,-0.180328369140625,0.307586669921875
1761383310402653200,2.163653076171875,-2.2939300537109375,-0.2100372314453125,0.2407989501953125
1761383310412723000,2.173722900390625,-2.421142578125,-0.2193603515625,0.1722412109375
1761383310422793200,2.183793212890625,-2.5644073486328125,-0.24468994140625,0.109954833984375
1761383310432863000,2.193863037109375,-2.6398773193359375,-0.2235565185546875,0.0025787353515625
1761383310442932200,2.20393212890625,-2.51226806640625,-0.1031646728515625,-0.03656005859375
1761383310453002200,2.214002197265625,-2.4173126220703125,0.0117950439453125,-0.07208251953125
1761383310463072000,2.224072021484375,-2.3411407470703125,0.091033935546875,-0.0936431884765625
1761383310473142300,2.234142333984375,-2.324859619140625,0.1731109619140625,-0.0685577392578125
1761383310483212000,2.2442119140625,-2.4181060791015625,0.2454986572265625,0.0120849609375
1761383310493282000,2.254281982421875,-2.475799560546875,0.32440185546875,0.1381072998046875
1761383310503352000,2.26435205078125,-2.4246978759765625,0.33770751953125,0.2585906982421875
1761383310513422000,2.274422119140625,-2.339447021484375,0.3035125732421875,0.347930908203125
1761383310523492000,2.2844921875,-2.2564239501953125,0.201629638671875,0.340087890625
1761383310533562000,2.29456201171875,-1.9346771240234375,0.0988311767578125,0.229156494140625
1761383310543632100,2.304632080078125,-1.6477203369140625,-0.034881591796875,0.1040191650390625
1761383310553702100,2.3147021484375,-1.4368438720703125,-0.14642333984375,0.0005340576171875
1761383310563772200,2.324772216796875,-1.3959197998046875,-0.236053466796875,-0.060272216796875
1761383310573842200,2.33484228515625,-1.2675018310546875,-0.2440032958984375,-0.0736236572265625
1761383310583912200,2.344912109375,-1.1740570068359375,-0.2470550537109375,-0.0675048828125
1761383310593982000,2.35498193359375,-1.116455078125,-0.262969970703125,-0.0301666259765625
1761383310604052000,2.365052001953125,-0.9692230224609375,-0.31854248046875,-0.0467071533203125
1761383310614122200,2.375122314453125,-0.7292938232421875,-0.334747314453125,-0.1365966796875
1761383310624191000,2.38519091796875,-0.48773193359375,-0.2665252685546875,-0.2510528564453125
1761383310634261200,2.39526123046875,-0.3418731689453125,-0.2145233154296875,-0.3112030029296875
1761383310644331300,2.405331298828125,-0.2433319091796875,-0.1960296630859375,-0.375457763671875
1761383310654401000,2.415401123046875,-0.2694549560546875,-0.141754150390625,-0.4048309326171875
1761383310664471000,2.425470947265625,-0.46282958984375,-0.0616912841796875,-0.3764801025390625
1761383310674541000,2.435541015625,-0.5270843505859375,0.0331573486328125,-0.339752197265625
1761383310684611000,2.445611083984375,-0.4878692626953125,0.153289794921875,-0.2855072021484375
1761383310694681000,2.45568115234375,-0.387542724609375,0.2695770263671875,-0.2001190185546875
1761383310704751000,2.465751220703125,-0.1038970947265625,0.35333251953125,-0.1255645751953125
1761383310714821000,2.475821044921875,0.2627410888671875,0.3481597900390625,-0.072662353515625
1761383310724891100,2.48589111328125,0.52783203125,0.2495269775390625,0.0023345947265625
1761383310734961200,2.495961181640625,0.6308441162109375,0.140594482421875,0.0553131103515625
1761383310745031200,2.50603125,0.6284942626953125,0.1084442138671875,0.1012115478515625
1761383310755101200,2.51610107421875,0.524383544921875,0.0640869140625,0.102508544921875
1761383310765171000,2.5261708984375,0.4249420166015625,0.04571533203125,0.0758056640625
1761383310775241200,2.5362412109375,0.291107177734375,0.0494537353515625,0.0405426025390625
1761383310785311000,2.54631103515625,0.15521240234375,0.028594970703125,0.0088653564453125
1761383310795381000,2.556381103515625,0.09881591796875,-0.021453857421875,-0.0274658203125
1761383310805450200,2.5664501953125,0.0423126220703125,-0.0732574462890625,-0.053802490234375
1761383310815520000,2.57652001953125,-0.0312042236328125,-0.133544921875,-0.058868408203125
1761383310825590000,2.586590087890625,-0.1097869873046875,-0.1710357666015625,-0.046783447265625
1761383310835660000,2.596659912109375,-0.1526947021484375,-0.1924896240234375,-0.0371856689453125
1761383310845730000,2.60672998046875,-0.1870269775390625,-0.1925048828125,-0.0239410400390625
1761383310855800000,2.616800048828125,-0.212158203125,-0.1722564697265625,-0.001861572265625
1761383310865870600,2.62687060546875,-0.2263946533203125,-0.1459808349609375,0.0080718994140625
1761383310875940900,2.63694091796875,-0.2432403564453125,-0.107879638671875,0.004241943359375
1761383310886010600,2.6470107421875,-0.2425079345703125,-0.0699005126953125,-0.0167388916015625
1761383310896080600,2.65708056640625,-0.234893798828125,-0.024322509765625,-0.0517578125
1761383310906151000,2.66715087890625,-0.2260589599609375,0.00079345703125,-0.0734710693359375
1761383310916220700,2.677220703125,-0.2106475830078125,0.0106201171875,-0.0860443115234375
1761383310926290700,2.687290771484375,-0.2284698486328125,-0.004364013671875,-0.088287353515625
1761383310936361000,2.69736083984375,-0.2498931884765625,-0.0425262451171875,-0.083099365234375
1761383310946430700,2.7074306640625,-0.25830078125,-0.0810089111328125,-0.0770111083984375
1761383310956500700,2.717500732421875,-0.2811431884765625,-0.1175537109375,-0.0594482421875
1761383310966570500,2.727570556640625,-0.274627685546875,-0.1505584716796875,-0.026641845703125
1761383310976640800,2.737640869140625,-0.25750732421875,-0.2207489013671875,0.028350830078125
1761383310986710800,2.747710693359375,-0.260009765625,-0.3021392822265625,0.0567626953125
1761383310996779800,2.75777978515625,-0.3999786376953125,-0.347625732421875,0.0555267333984375
1761383311006849800,2.767849853515625,-0.62030029296875,-0.460357666015625,0.0866241455078125
1761383311016919600,2.77791943359375,-0.7294921875,-0.6354522705078125,0.102996826171875
1761383311026989800,2.78798974609375,-0.8222808837890625,-0.8032684326171875,0.083038330078125
1761383311037059800,2.798059814453125,-0.9330596923828125,-0.8561553955078125,-0.0213775634765625
1761383311047129600,2.808129638671875,-1.1080780029296875,-0.9168853759765625,-0.130340576171875
1761383311057199600,2.81819970703125,-1.3205718994140625,-0.9886932373046875,-0.25677490234375
1761383311067270000,2.828269775390625,-1.4587249755859375,-0.9292755126953125,-0.42333984375
1761383311077339600,2.838339599609375,-1.5440216064453125,-0.901702880859375,-0.5606689453125
1761383311087409700,2.84840966796875,-1.6485137939453125,-0.94281005859375,-0.5765838623046875
1761383311097480000,2.85847998046875,-1.733551025390625,-0.9544219970703125,-0.4503936767578125
1761383311107549700,2.8685498046875,-1.6904296875,-1.008514404296875,-0.2456512451171875
1761383311117619700,2.87861962890625,-1.6418304443359375,-1.0237579345703125,-0.026397705078125
1761383311127689700,2.888689697265625,-1.7500762939453125,-0.910400390625,0.170867919921875
1761383311137759700,2.898759765625,-1.8749542236328125,-0.757476806640625,0.3253021240234375
1761383311147829800,2.908829833984375,-1.9908447265625,-0.6169281005859375,0.4001617431640625
1761383311157899500,2.9188994140625,-2.1520538330078125,-0.52874755859375,0.40667724609375
1761383311167969800,2.9289697265625,-2.2742767333984375,-0.45379638671875,0.341156005859375
1761383311178039800,2.939039794921875,-2.3142852783203125,-0.3304901123046875,0.200653076171875
1761383311188108800,2.94910888671875,-2.36541748046875,-0.21368408203125,0.08447265625
1761383311198178800,2.9591787109375,-2.321319580078125,-0.1350250244140625,0.00018310546875
1761383311208248600,2.96924853515625,-2.12396240234375,-0.094268798828125,-0.083343505859375
1761383311218318600,2.979318603515625,-1.8955230712890625,-0.0667572021484375,-0.155548095703125
1761383311228388900,2.989388916015625,-1.7243194580078125,-0.1024169921875,-0.2081298828125
1761383311238458600,2.999458740234375,-1.5257568359375,-0.1400299072265625,-0.250244140625
1761383311248528600,3.009528564453125,-1.351593017578125,-0.141571044921875,-0.2764129638671875
1761383311258599000,3.019598876953125,-1.3259429931640625,-0.139556884765625,-0.2540740966796875
1761383311268668700,3.029668701171875,-1.3533935546875,-0.0980224609375,-0.1955108642578125
1761383311278738700,3.03973876953125,-1.2688751220703125,-0.0528411865234375,-0.1721038818359375
1761383311288808700,3.04980859375,-1.1921539306640625,-0.1082916259765625,-0.1635284423828125
1761383311298878700,3.059878662109375,-1.0998687744140625,-0.149169921875,-0.1640472412109375
1761383311308948700,3.06994873046875,-1.030914306640625,-0.18994140625,-0.15386962890625
1761383311319018800,3.080018798828125,-0.951751708984375,-0.183013916015625,-0.1017303466796875
1761383311329088800,3.0900888671875,-0.9069976806640625,-0.1613311767578125,-0.0435791015625
1761383311339158800,3.10015869140625,-0.890350341796875,-0.1475982666015625,0.01226806640625
1761383311349228500,3.110228515625,-0.850189208984375,-0.1398468017578125,0.0634002685546875
1761383311359298800,3.120298828125,-0.7641143798828125,-0.1229248046875,0.0981597900390625
1761383311369368800,3.130368896484375,-0.6747894287109375,-0.12420654296875,0.1004486083984375
1761383311379438600,3.1404384765625,-0.59869384765625,-0.1513671875,0.0993194580078125
1761383311389507800,3.1505078125,-0.56500244140625,-0.175537109375,0.0749664306640625
1761383311399577600,3.16057763671875,-0.5764923095703125,-0.1772613525390625,0.0443115234375
1761383311409647600,3.170647705078125,-0.5802001953125,-0.1678619384765625,0.02825927734375
1761383311419718000,3.1807177734375,-0.56494140625,-0.1716156005859375,0.0278472900390625
1761383311429787600,3.19078759765625,-0.560150146484375,-0.186737060546875,0.0352935791015625
1761383311439857700,3.200857666015625,-0.5679779052734375,-0.194915771484375,0.0406951904296875
1761383311449927700,3.210927734375,-0.5864105224609375,-0.1831817626953125,0.0354766845703125
1761383311459997700,3.220997802734375,-0.601593017578125,-0.1749114990234375,0.0286712646484375
1761383311470067700,3.231067626953125,-0.6113128662109375,-0.15435791015625,0.01611328125
1761383311480137700,3.2411376953125,-0.63623046875,-0.1071319580078125,-0.0145416259765625
1761383311490207700,3.251207763671875,-0.644989013671875,-0.0630340576171875,-0.0424652099609375
1761383311500277800,3.26127783203125,-0.5947265625,-0.0399627685546875,-0.05926513671875
1761383311510347800,3.27134765625,-0.5096435546875,-0.0746917724609375,-0.0432281494140625
1761383311520417800,3.281417724609375,-0.439178466796875,-0.1623992919921875,-0.0012969970703125
1761383311530487800,3.29148779296875,-0.4014434814453125,-0.169464111328125,0.0196533203125
1761383311540557600,3.3015576171875,-0.4405670166015625,-0.26507568359375,0.070281982421875
1761383311550627600,3.311627685546875,-0.48895263671875,-0.4384765625,0.144866943359375
1761383311560697900,3.32169775390625,-0.5341339111328125,-0.4678192138671875,0.1950836181640625
1761383311570767600,3.331767578125,-0.617645263671875,-0.4641876220703125,0.2347869873046875
1761383311580836900,3.3418369140625,-0.6512298583984375,-0.4955596923828125,0.264984130859375
1761383311590906600,3.35190673828125,-0.660919189453125,-0.5207672119140625,0.2836761474609375
1761383311600976600,3.3619765625,-0.7025146484375,-0.519775390625,0.2963714599609375
1761383311611047000,3.372046875,-0.7714996337890625,-0.5012969970703125,0.3013916015625
1761383311621116700,3.38211669921875,-0.83746337890625,-0.4920196533203125,0.319610595703125
1761383311631186700,3.392186767578125,-0.8996124267578125,-0.4815521240234375,0.309295654296875
1761383311641256700,3.402256591796875,-0.9738311767578125,-0.46246337890625,0.281524658203125
1761383311651326700,3.41232666015625,-1.0487213134765625,-0.443023681640625,0.24554443359375
1761383311661396700,3.422396728515625,-1.1041717529296875,-0.4303741455078125,0.1819305419921875
1761383311671466800,3.432466796875,-1.1217803955078125,-0.412261962890625,0.1407318115234375
1761383311681536800,3.442536865234375,-1.138885498046875,-0.3929595947265625,0.1123046875
1761383311691606800,3.452606689453125,-1.1514892578125,-0.378387451171875,0.0822601318359375
1761383311701676500,3.462676513671875,-1.120941162109375,-0.3578033447265625,0.0551605224609375
1761383311711746800,3.472746826171875,-1.052581787109375,-0.3158416748046875,0.0166778564453125
1761383311721816800,3.48281689453125,-0.9737701416015625,-0.264984130859375,-0.02752685546875
1761383311731886600,3.492886474609375,-0.91522216796875,-0.2507171630859375,-0.0641326904296875
1761383311741956600,3.50295654296875,-0.8963623046875,-0.3001861572265625,-0.08221435546875
1761383311752027000,3.51302685546875,-0.9024658203125,-0.3791046142578125,-0.097320556640625
1761383311762096600,3.5230966796875,-0.8795928955078125,-0.40411376953125,-0.103302001953125
1761383311772166000,3.533165771484375,-0.847991943359375,-0.3896636962890625,-0.11773681640625
1761383311782235600,3.543235595703125,-0.8345489501953125,-0.370635986328125,-0.1187286376953125
1761383311792305700,3.5533056640625,-0.8312225341796875,-0.3536376953125,-0.1129150390625
1761383311802375700,3.563375732421875,-0.8184661865234375,-0.327117919921875,-0.1072845458984375
1761383311812445700,3.57344580078125,-0.8317413330078125,-0.3055877685546875,-0.0973358154296875
1761383311822515700,3.583515625,-0.87286376953125,-0.2852020263671875,-0.0818023681640625
1761383311832585700,3.593585693359375,-0.85650634765625,-0.2489013671875,-0.082794189453125
1761383311842655700,3.60365576171875,-0.8397674560546875,-0.205780029296875,-0.082489013671875
1761383311852725800,3.613725830078125,-0.8351593017578125,-0.1804046630859375,-0.0629730224609375
1761383311862795800,3.623795654296875,-0.81268310546875,-0.15869140625,-0.0442657470703125
1761383311872865800,3.63386572265625,-0.7752685546875,-0.1381683349609375,-0.0355987548828125
1761383311882936000,3.64393603515625,-0.723876953125,-0.12176513671875,-0.027679443359375
1761383311893005800,3.654005859375,-0.6774139404296875,-0.0997772216796875,-0.02288818359375
1761383311903075800,3.664075927734375,-0.6426544189453125,-0.07470703125,-0.02691650390625
1761383311913145900,3.674145751953125,-0.6272735595703125,-0.0540924072265625,-0.02587890625
1761383311923216000,3.6842158203125,-0.620086669921875,-0.0442657470703125,-0.0127410888671875
1761383311933286000,3.694285888671875,-0.599212646484375,-0.034393310546875,-0.0036773681640625
1761383311943356000,3.70435595703125,-0.580078125,-0.0223846435546875,0.0027008056640625
1761383311953426000,3.714426025390625,-0.5566864013671875,-0.0200958251953125,0.00604248046875
1761383311963496000,3.724495849609375,-0.5354156494140625,-0.0338287353515625,0.0062103271484375
1761383311973565000,3.73456494140625,-0.5407562255859375,-0.0630645751953125,0.011077880859375
1761383311983635000,3.744635009765625,-0.55499267578125,-0.0856170654296875,0.012939453125
1761383311993704700,3.75470458984375,-0.5446319580078125,-0.09075927734375,-0.003814697265625
1761383312003775000,3.76477490234375,-0.5542755126953125,-0.100555419921875,-0.0169219970703125
1761383312013845000,3.774844970703125,-0.57855224609375,-0.1342620849609375,-0.0131683349609375
1761383312023914800,3.784914794921875,-0.60931396484375,-0.1689453125,0.00592041015625
1761383312033985000,3.794985107421875,-0.67694091796875,-0.193603515625,0.03570556640625
1761383312044055000,3.805054931640625,-0.774871826171875,-0.21783447265625,0.0705413818359375
1761383312054124800,3.815124755859375,-0.85986328125,-0.239990234375,0.1157073974609375
1761383312064194800,3.82519482421875,-0.9663543701171875,-0.2885589599609375,0.2147216796875
1761383312074265000,3.83526513671875,-1.125244140625,-0.296722412109375,0.3002166748046875
1761383312084334800,3.8453349609375,-1.2838592529296875,-0.2719879150390625,0.345367431640625
1761383312094404900,3.85540478515625,-1.4243316650390625,-0.31689453125,0.3784027099609375
1761383312104475000,3.865474853515625,-1.602569580078125,-0.3361053466796875,0.3933868408203125
1761383312114545000,3.875544921875,-1.7909698486328125,-0.270050048828125,0.3845977783203125
1761383312124615000,3.885614990234375,-1.93463134765625,-0.1815948486328125,0.3527984619140625
1761383312134685000,3.895684814453125,-2.0344390869140625,-0.1441802978515625,0.323638916015625
1761383312144755000,3.9057548828125,-2.1474151611328125,-0.2059478759765625,0.32122802734375
1761383312154823700,3.91582373046875,-2.269378662109375,-0.305694580078125,0.32342529296875
1761383312164894000,3.92589404296875,-2.414031982421875,-0.368988037109375,0.3054656982421875
1761383312174964000,3.9359638671875,-2.5529632568359375,-0.4127655029296875,0.2633514404296875
1761383312185033700,3.94603369140625,-2.6391143798828125,-0.4106597900390625,0.215362548828125
1761383312195104000,3.95610400390625,-2.7367706298828125,-0.4053192138671875,0.2220916748046875
1761383312205174000,3.966174072265625,-2.8169708251953125,-0.4312286376953125,0.25506591796875
1761383312215243800,3.976243896484375,-2.7981109619140625,-0.4228515625,0.2875518798828125
1761383312225313800,3.986313720703125,-2.6990814208984375,-0.410247802734375,0.2918853759765625
1761383312235384000,3.996384033203125,-2.5516510009765625,-0.33465576171875,0.2514495849609375
1761383312245453800,4.006453857421875,-2.4163055419921875,-0.1964874267578125,0.1875
1761383312255523800,4.01652392578125,-2.30560302734375,-0.0625152587890625,0.138427734375
1761383312265594000,4.026593994140625,-2.335540771484375,0.1024627685546875,0.1760406494140625
1761383312275664000,4.036663818359375,-2.3916473388671875,0.256256103515625,0.22845458984375
1761383312285734000,4.04673388671875,-2.301422119140625,0.3357086181640625,0.227325439453125
1761383312295804000,4.056803955078125,-2.01593017578125,0.3573760986328125,0.178802490234375
1761383312305874000,4.0668740234375,-1.590972900390625,0.3374786376953125,0.0131683349609375
1761383312315944000,4.07694384765625,-1.1360626220703125,0.2766876220703125,-0.1622161865234375
1761383312326013700,4.087013671875,-0.661895751953125,0.2574615478515625,-0.2803802490234375
1761383312336084000,4.097083984375,-0.3763885498046875,0.3706512451171875,-0.29266357421875
1761383312346152700,4.107152587890625,-0.2904815673828125,0.354644775390625,-0.350006103515625
1761383312356223000,4.117222900390625,-0.2162017822265625,0.3630828857421875,-0.3152313232421875
1761383312366293000,4.12729296875,-0.1612396240234375,0.437469482421875,-0.18505859375
1761383312376362800,4.13736279296875,-0.1845245361328125,0.3725433349609375,-0.0557403564453125
1761383312386432800,4.147432861328125,-0.184783935546875,0.293548583984375,0.0497589111328125
1761383312396503000,4.1575029296875,-0.09368896484375,0.244171142578125,0.0873260498046875
1761383312406572800,4.16757275390625,0.0709381103515625,0.19293212890625,0.069305419921875
1761383312416642800,4.177642822265625,0.135833740234375,0.170806884765625,0.0416107177734375
1761383312426713000,4.187713134765625,0.1016387939453125,0.149017333984375,-0.0343475341796875
1761383312436782800,4.197782958984375,0.2534637451171875,0.1261749267578125,0.0058441162109375
1761383312446852900,4.207852783203125,0.4589385986328125,-0.0064697265625,0.0435943603515625
1761383312456923000,4.2179228515625,0.4027099609375,-0.02081298828125,-0.0140380859375
1761383312466993000,4.227992919921875,0.4431915283203125,0.0220947265625,-0.1519012451171875
1761383312477063000,4.23806298828125,0.5340118408203125,-0.027984619140625,-0.1886749267578125
1761383312487132700,4.248132568359375,0.4180450439453125,-0.090789794921875,-0.1529541015625
1761383312497203000,4.258202880859375,0.2986602783203125,-0.1782989501953125,-0.1935272216796875
1761383312507273000,4.26827294921875,0.2774200439453125,-0.1829376220703125,-0.296905517578125
1761383312517342700,4.2783427734375,0.2854461669921875,-0.0744476318359375,-0.425018310546875
1761383312527413000,4.2884130859375,0.1984710693359375,-0.0141448974609375,-0.477386474609375
1761383312537481700,4.298481689453125,0.1622772216796875,-0.027984619140625,-0.4755859375
1761383312547551700,4.3085517578125,0.123748779296875,-0.0190887451171875,-0.4599609375
1761383312557622000,4.3186220703125,0.094390869140625,-0.036651611328125,-0.40631103515625
1761383312567691800,4.32869189453125,0.0719757080078125,-0.035064697265625,-0.333282470703125
1761383312577761800,4.33876171875,0.08935546875,-0.0404052734375,-0.247283935546875
1761383312587832000,4.34883203125,0.1472930908203125,-0.0551605224609375,-0.1383514404296875
1761383312597901800,4.35890185546875,0.1757659912109375,-0.08917236328125,-0.0181732177734375
1761383312607971800,4.368971923828125,0.1351318359375,-0.1285247802734375,0.0914306640625
1761383312618042000,4.3790419921875,0.045654296875,-0.130035400390625,0.1739959716796875
1761383312628112000,4.38911181640625,-0.0521697998046875,-0.1269378662109375,0.2136077880859375
1761383312638182000,4.399181884765625,-0.130523681640625,-0.146820068359375,0.25384521484375
1761383312648252000,4.409251953125,-0.216400146484375,-0.171417236328125,0.2946624755859375
1761383312658322000,4.419322021484375,-0.31658935546875,-0.19384765625,0.3296051025390625
1761383312668392000,4.429391845703125,-0.4247589111328125,-0.240509033203125,0.3540191650390625
1761383312678461700,4.439461669921875,-0.575103759765625,-0.2951202392578125,0.3643646240234375
1761383312688532000,4.449531982421875,-0.7764892578125,-0.425628662109375,0.403167724609375
1761383312698602000,4.45960205078125,-0.9607086181640625,-0.6044464111328125,0.4060516357421875
1761383312708671700,4.469671630859375,-1.13153076171875,-0.8325347900390625,0.3839569091796875
1761383312718741000,4.479740966796875,-1.302703857421875,-1.0365142822265625,0.2743377685546875
1761383312728810800,4.489810791015625,-1.474639892578125,-1.13751220703125,0.0599365234375
1761383312738880800,4.499880859375,-1.608734130859375,-0.96185302734375,-0.2249755859375
1761383312748951000,4.509950927734375,-1.7134857177734375,-0.6942291259765625,-0.5294647216796875
1761383312759020800,4.520020751953125,-1.8979949951171875,-0.58978271484375,-0.588165283203125
1761383312769090800,4.5300908203125,-2.3098602294921875,-0.4624176025390625,-0.4109954833984375
1761383312779161000,4.5401611328125,-2.5246124267578125,-0.4527130126953125,-0.1739501953125
1761383312789230800,4.55023095703125,-2.5946044921875,-0.3076171875,-0.032135009765625
1761383312799300900,4.56030078125,-2.5908050537109375,-0.135406494140625,0.0952911376953125
1761383312809371000,4.570370849609375,-2.5917510986328125,-0.1202545166015625,0.1803131103515625
1761383312819441000,4.58044091796875,-2.5397796630859375,-0.15704345703125,0.177825927734375
1761383312829511000,4.590510986328125,-2.4423828125,-0.19219970703125,0.1289215087890625
1761383312839580700,4.60058056640625,-2.3404693603515625,-0.2100830078125,0.067901611328125
1761383312849651000,4.61065087890625,-2.2861480712890625,-0.228057861328125,0.035736083984375
1761383312859721000,4.620720947265625,-2.247711181640625,-0.21038818359375,-0.010009765625
1761383312869793800,4.630793701171875,-2.1576385498046875,-0.1654205322265625,-0.0882568359375
1761383312879863800,4.64086376953125,-1.993194580078125,-0.1572113037109375,-0.1914215087890625
1761383312889932800,4.650932861328125,-1.82330322265625,-0.086029052734375,-0.30206298828125
1761383312900003000,4.661003173828125,-1.69580078125,-0.048828125,-0.3839263916015625
1761383312910072800,4.67107275390625,-1.598541259765625,-0.0227508544921875,-0.4206390380859375
1761383312920142800,4.681142822265625,-1.4928741455078125,0.0077056884765625,-0.4398956298828125
1761383312930212900,4.691212890625,-1.3872833251953125,-0.0110931396484375,-0.434234619140625
1761383312940283000,4.701282958984375,-1.2482147216796875,-0.00555419921875,-0.4288787841796875
1761383312950353000,4.711352783203125,-1.11956787109375,0.0003662109375,-0.4021453857421875
1761383312960422700,4.721422607421875,-1.0009002685546875,-0.0242919921875,-0.347320556640625
1761383312970493000,4.731492919921875,-0.877288818359375,-0.05584716796875,-0.292388916015625
1761383312980563000,4.74156298828125,-0.751800537109375,-0.0788421630859375,-0.2336273193359375
1761383312990632700,4.7516328125,-0.6304931640625,-0.1042022705078125,-0.1755523681640625
1761383313000703000,4.761702880859375,-0.531768798828125,-0.11480712890625,-0.119110107421875
1761383313010773000,4.77177294921875,-0.4390716552734375,-0.122344970703125,-0.0675201416015625
1761383313020842800,4.7818427734375,-0.3455047607421875,-0.1176910400390625,-0.0223846435546875
1761383313030912800,4.791912841796875,-0.288543701171875,-0.1134490966796875,0.0250091552734375
1761383313040983000,4.801983154296875,-0.2577056884765625,-0.0997772216796875,0.0674285888671875
1761383313051052800,4.812052734375,-0.231597900390625,-0.0926513671875,0.1038360595703125
1761383313061122800,4.822122802734375,-0.2613983154296875,-0.100677490234375,0.1458282470703125
1761383313071191800,4.83219189453125,-0.3156280517578125,-0.1107330322265625,0.1769866943359375
1761383313081261800,4.84226171875,-0.379852294921875,-0.1168212890625,0.180145263671875
1761383313091329800,4.852329833984375,-0.4364776611328125,-0.1217193603515625,0.16851806640625
1761383313101399800,4.86239990234375,-0.47674560546875,-0.1271514892578125,0.144439697265625
1761383313111469800,4.8724697265625,-0.5028076171875,-0.1324920654296875,0.1182708740234375
1761383313121539800,4.882539794921875,-0.5416107177734375,-0.1397247314453125,0.1038665771484375
1761383313131609900,4.89260986328125,-0.5805816650390625,-0.1542510986328125,0.08807373046875
1761383313141679900,4.902679931640625,-0.611572265625,-0.1588897705078125,0.0566864013671875
1761383313151750000,4.91275,-0.652435302734375,-0.151702880859375,0.0290069580078125
1761383313161820000,4.92281982421875,-0.7277984619140625,-0.1462554931640625,0.0131988525390625
1761383313171889700,4.9328896484375,-0.7834014892578125,-0.17059326171875,-0.003662109375
1761383313181960000,4.9429599609375,-0.8126678466796875,-0.22332763671875,-0.0226898193359375
1761383313192030000,4.953030029296875,-0.837432861328125,-0.279937744140625,-0.0635528564453125
1761383313202099700,4.963099609375,-0.8475799560546875,-0.310089111328125,-0.1169891357421875
1761383313212169000,4.9731689453125,-0.8667144775390625,-0.3121795654296875,-0.1466064453125
1761383313222238700,4.98323876953125,-0.9394683837890625,-0.3363800048828125,-0.1363525390625
1761383313232309000,4.99330908203125,-0.9923553466796875,-0.3657379150390625,-0.1134185791015625
1761383313242379000,5.00337890625,-1.021392822265625,-0.3800201416015625,-0.09033203125
1761383313252448800,5.01344873046875,-1.0710601806640625,-0.3960418701171875,-0.0577392578125
1761383313262518800,5.023518798828125,-1.143096923828125,-0.40643310546875,-0.03057861328125
1761383313272589000,5.033589111328125,-1.2088775634765625,-0.403228759765625,-0.0253753662109375
1761383313282658800,5.043658935546875,-1.2679901123046875,-0.396636962890625,-0.0407257080078125
1761383313292728800,5.053728759765625,-1.305084228515625,-0.3975982666015625,-0.0652313232421875
1761383313302798800,5.063798828125,-1.31427001953125,-0.3966522216796875,-0.0912322998046875
1761383313312868900,5.073868896484375,-1.3184356689453125,-0.3929443359375,-0.1129913330078125
1761383313322939000,5.08393896484375,-1.3348236083984375,-0.3816986083984375,-0.127166748046875
1761383313333008600,5.094008544921875,-1.33233642578125,-0.373260498046875,-0.1391143798828125
1761383313343079000,5.104078857421875,-1.315521240234375,-0.3744049072265625,-0.1455841064453125
1761383313353149000,5.11414892578125,-1.271514892578125,-0.397918701171875,-0.1409149169921875
1761383313363218700,5.12421875,-1.22430419921875,-0.42059326171875,-0.1450653076171875
1761383313373289000,5.1342890625,-1.2099761962890625,-0.4107818603515625,-0.160888671875
1761383313383357700,5.144357666015625,-1.195587158203125,-0.38800048828125,-0.1837310791015625
1761383313393428000,5.154427978515625,-1.1619720458984375,-0.3863067626953125,-0.20513916015625
1761383313403498000,5.164498046875,-1.0597381591796875,-0.33294677734375,-0.2144927978515625
1761383313413567700,5.174567626953125,-1.000274658203125,-0.393768310546875,-0.1825103759765625
1761383313423637800,5.1846376953125,-0.997467041015625,-0.427276611328125,-0.1451568603515625
1761383313433708000,5.1947080078125,-0.91845703125,-0.407806396484375,-0.109130859375
1761383313443777800,5.20477783203125,-0.8482666015625,-0.4551239013671875,-0.0298919677734375
1761383313453847800,5.214847900390625,-0.81011962890625,-0.4420166015625,0.0357513427734375
1761383313463917800,5.224917724609375,-0.7833404541015625,-0.42138671875,0.0830841064453125
1761383313473987800,5.23498779296875,-0.77862548828125,-0.374603271484375,0.088836669921875
1761383313484057900,5.245057861328125,-0.795745849609375,-0.302001953125,0.0701141357421875
1761383313494127900,5.2551279296875,-0.781463623046875,-0.25799560546875,0.0507354736328125
1761383313504198000,5.265197998046875,-0.742767333984375,-0.2517547607421875,0.0381011962890625
1761383313514268000,5.275267822265625,-0.745635986328125,-0.2653656005859375,0.03619384765625
1761383313524337700,5.285337646484375,-0.7670440673828125,-0.287445068359375,0.0455322265625
1761383313534408000,5.295407958984375,-0.78143310546875,-0.284423828125,0.076080322265625
1761383313544478000,5.30547802734375,-0.7750244140625,-0.253997802734375,0.116607666015625
1761383313554547000,5.315546875,-0.7684326171875,-0.2371978759765625,0.1393585205078125
1761383313564617000,5.325616943359375,-0.7582855224609375,-0.24700927734375,0.141204833984375
1761383313574686700,5.335686767578125,-0.73394775390625,-0.2610931396484375,0.133026123046875
1761383313584756700,5.3457568359375,-0.7204437255859375,-0.28759765625,0.1064300537109375
1761383313594827000,5.355826904296875,-0.6936187744140625,-0.302032470703125,0.1039886474609375
1761383313604896800,5.365896728515625,-0.63763427734375,-0.3131256103515625,0.1211395263671875
1761383313614966800,5.375966796875,-0.618682861328125,-0.33648681640625,0.1497650146484375
1761383313625037000,5.386037109375,-0.656646728515625,-0.346710205078125,0.1910552978515625
1761383313635106800,5.39610693359375,-0.6537933349609375,-0.351654052734375,0.2066497802734375
1761383313645176800,5.4061767578125,-0.6417083740234375,-0.3510589599609375,0.21405029296875
1761383313655246800,5.416246826171875,-0.6690521240234375,-0.3524932861328125,0.2197113037109375
1761383313665316900,5.42631689453125,-0.6999664306640625,-0.3577728271484375,0.2111053466796875
1761383313675387000,5.436386962890625,-0.7639617919921875,-0.3590240478515625,0.201995849609375
1761383313685456600,5.44645654296875,-0.8084564208984375,-0.358734130859375,0.19061279296875
1761383313695527000,5.45652685546875,-0.8319549560546875,-0.364105224609375,0.1883392333984375
1761383313705597000,5.466596923828125,-0.8830718994140625,-0.36505126953125,0.18975830078125
1761383313715669000,5.4766689453125,-0.9183197021484375,-0.3657989501953125,0.192474365234375
1761383313725738800,5.48673876953125,-0.92791748046875,-0.367767333984375,0.207244873046875
1761383313735808800,5.496808837890625,-0.923095703125,-0.366363525390625,0.21649169921875
1761383313745879000,5.506879150390625,-0.9066619873046875,-0.3623504638671875,0.2132568359375
1761383313755948800,5.51694873046875,-0.8899688720703125,-0.3548431396484375,0.2017974853515625
1761383313766017800,5.527017822265625,-0.877471923828125,-0.3485260009765625,0.1712799072265625
1761383313776087800,5.537087890625,-0.860198974609375,-0.3617095947265625,0.1354217529296875
1761383313786157800,5.54715771484375,-0.8484649658203125,-0.36444091796875,0.1094512939453125
1761383313796227800,5.557227783203125,-0.8454742431640625,-0.3622894287109375,0.0769500732421875
1761383313806297900,5.5672978515625,-0.7935333251953125,-0.33538818359375,0.0612335205078125
1761383313816367900,5.577367919921875,-0.7492523193359375,-0.3266448974609375,0.047271728515625
1761383313826438000,5.58743798828125,-0.716278076171875,-0.3132781982421875,0.0491485595703125
1761383313836508000,5.5975078125,-0.6802978515625,-0.2847442626953125,0.0556793212890625
1761383313846578000,5.607577880859375,-0.6247711181640625,-0.222564697265625,0.0526885986328125
1761383313856648000,5.61764794921875,-0.676361083984375,-0.3237762451171875,0.1202239990234375
1761383313866717700,5.6277177734375,-0.61712646484375,-0.3069305419921875,0.084808349609375
1761383313876784000,5.6377841796875,-0.580413818359375,-0.203521728515625,0.0333709716796875
1761383313886854100,5.647854248046875,-0.5118255615234375,-0.2105712890625,0.0387115478515625
1761383313896924200,5.657924072265625,-0.4830474853515625,-0.2130584716796875,0.068695068359375
1761383313906994200,5.667994140625,-0.4776458740234375,-0.172821044921875,0.092254638671875
1761383313917064200,5.678064208984375,-0.4841156005859375,-0.1222991943359375,0.0902252197265625
1761383313927134000,5.688134033203125,-0.5320892333984375,-0.0746612548828125,0.084442138671875
1761383313937203200,5.698203125,-0.5907135009765625,-0.0450286865234375,0.079742431640625
1761383313947273200,5.708273193359375,-0.6003875732421875,-0.0076904296875,0.08245849609375
1761383313957343000,5.718343017578125,-0.6053619384765625,0.0269622802734375,0.0839080810546875
1761383313967413200,5.728413330078125,-0.6385498046875,0.0243072509765625,0.1063232421875
1761383313977483000,5.73848291015625,-0.695587158203125,-0.0321502685546875,0.1358795166015625
1761383313987553000,5.748552978515625,-0.72259521484375,-0.065032958984375,0.221588134765625
1761383313997623300,5.758623291015625,-0.73907470703125,-0.0597686767578125,0.2521514892578125
1761383314007693000,5.768693115234375,-0.8020477294921875,-0.08868408203125,0.2511138916015625
1761383314017763000,5.77876318359375,-0.8612060546875,-0.1176300048828125,0.2467193603515625
1761383314027833300,5.788833251953125,-0.949920654296875,-0.13824462890625,0.25823974609375
1761383314037903000,5.798903076171875,-1.0605926513671875,-0.159698486328125,0.292022705078125
1761383314047973000,5.80897314453125,-1.143585205078125,-0.1766510009765625,0.3418731689453125
1761383314058043100,5.819043212890625,-1.2556304931640625,-0.214752197265625,0.398345947265625
1761383314068113200,5.829113037109375,-1.42095947265625,-0.3055419921875,0.4487762451171875
1761383314078183200,5.83918310546875,-1.5630035400390625,-0.436248779296875,0.4894866943359375
1761383314088253200,5.849253173828125,-1.7665252685546875,-0.5472564697265625,0.51446533203125
1761383314098322200,5.859322265625,-2.0281524658203125,-0.6163330078125,0.5192413330078125
1761383314108392200,5.86939208984375,-2.28851318359375,-0.66314697265625,0.4956512451171875
1761383314118462200,5.879462158203125,-2.5200653076171875,-0.6783905029296875,0.5278167724609375
1761383314128532200,5.8895322265625,-2.6962432861328125,-0.7376251220703125,0.593231201171875
1761383314138602200,5.899602294921875,-2.9291229248046875,-0.86016845703125,0.705108642578125
1761383314148672000,5.909672119140625,-3.155242919921875,-0.944793701171875,0.750701904296875
1761383314158742300,5.9197421875,-3.1595458984375,-0.934051513671875,0.6019134521484375
1761383314168812000,5.92981201171875,-3.1156005859375,-0.869476318359375,0.4188690185546875
1761383314178882000,5.939882080078125,-3.0636749267578125,-0.807037353515625,0.27056884765625
1761383314188952300,5.949952392578125,-3.1994781494140625,-0.6768035888671875,0.1180877685546875
1761383314199022000,5.96002197265625,-3.255340576171875,-0.482513427734375,-0.0912017822265625
1761383314209092000,5.970092041015625,-3.1925201416015625,-0.302886962890625,-0.22943115234375
1761383314219162000,5.980162109375,-2.9904327392578125,-0.2102203369140625,-0.2682647705078125
1761383314229232000,5.990232177734375,-2.620391845703125,-0.2169952392578125,-0.26806640625
1761383314239302100,6.00030224609375,-2.142059326171875,-0.22259521484375,-0.2863616943359375
1761383314249372200,6.0103720703125,-1.641754150390625,-0.232635498046875,-0.3638916015625
1761383314259441200,6.020441162109375,-1.1183929443359375,-0.2434234619140625,-0.5253143310546875
1761383314269511200,6.03051123046875,-0.609405517578125,-0.2602996826171875,-0.7018585205078125
1761383314279581200,6.040581298828125,-0.201690673828125,-0.2868804931640625,-0.79168701171875
1761383314289651200,6.050651123046875,0.0475616455078125,-0.265625,-0.77703857421875
1761383314299721200,6.06072119140625,0.153778076171875,-0.1985626220703125,-0.6669921875
1761383314309791000,6.070791015625,0.1473236083984375,-0.0825347900390625,-0.5074310302734375
1761383314319861200,6.080861328125,0.104766845703125,0.0636138916015625,-0.3409271240234375
1761383314329931300,6.09093115234375,0.0906829833984375,0.21466064453125,-0.21142578125
1761383314340001000,6.1010009765625,0.0783843994140625,0.3594970703125,-0.121246337890625
1761383314350071300,6.1110712890625,0.0413055419921875,0.4068450927734375,-0.0333404541015625
1761383314360141000,6.12114111328125,0.0626678466796875,0.3868560791015625,0.01715087890625
1761383314370211000,6.131211181640625,0.13507080078125,0.3503875732421875,0.04248046875
1761383314380281000,6.141281005859375,0.25408935546875,0.2900848388671875,0.0738525390625
1761383314390351000,6.15135107421875,0.41265869140625,0.2208709716796875,0.05340576171875
1761383314400421000,6.161421142578125,0.544769287109375,0.15283203125,-0.0169525146484375
1761383314410491100,6.1714912109375,0.5953216552734375,0.098388671875,-0.109039306640625
1761383314420561200,6.18156103515625,0.54541015625,0.0385894775390625,-0.190185546875
1761383314430630100,6.191630126953125,0.445465087890625,0.0122833251953125,-0.2506103515625
1761383314440700200,6.2017001953125,0.3250274658203125,0.0101165771484375,-0.2873687744140625
1761383314450770200,6.211770263671875,0.20159912109375,-0.0035247802734375,-0.296234130859375
1761383314460840200,6.221840087890625,0.09320068359375,-0.0519866943359375,-0.2718658447265625
1761383314470910000,6.231909912109375,0.027008056640625,-0.109649658203125,-0.239410400390625
1761383314480980200,6.241980224609375,-0.0140228271484375,-0.12750244140625,-0.2246246337890625
1761383314491050200,6.25205029296875,-0.032562255859375,-0.1363372802734375,-0.20782470703125
1761383314501120000,6.2621201171875,-0.0293426513671875,-0.1550140380859375,-0.19061279296875
1761383314511190300,6.272190185546875,-0.0063629150390625,-0.1360015869140625,-0.16900634765625
1761383314521260000,6.282260009765625,0.02886962890625,-0.1283111572265625,-0.1265106201171875
1761383314531330000,6.292330078125,0.0788116455078125,-0.141448974609375,-0.086456298828125
1761383314541400300,6.302400390625,0.11065673828125,-0.1999969482421875,-0.0214996337890625
1761383314551470000,6.312469970703125,0.074798583984375,-0.2440338134765625,0.058837890625
1761383314561540000,6.3225400390625,-0.0058746337890625,-0.2192230224609375,0.1237335205078125
1761383314571610000,6.332610107421875,-0.1158294677734375,-0.1746063232421875,0.1955108642578125
1761383314581680000,6.34268017578125,-0.23736572265625,-0.1252899169921875,0.2804718017578125
1761383314591750100,6.352750244140625,-0.34222412109375,-0.1062774658203125,0.3668975830078125
1761383314601819100,6.362819091796875,-0.3935699462890625,-0.1326904296875,0.449462890625
1761383314611889200,6.37288916015625,-0.41644287109375,-0.1344757080078125,0.4980316162109375
1761383314621959200,6.382959228515625,-0.4207000732421875,-0.113616943359375,0.516693115234375
1761383314632029200,6.393029296875,-0.443389892578125,-0.131866455078125,0.5501556396484375
1761383314642099200,6.40309912109375,-0.4810333251953125,-0.22772216796875,0.58026123046875
1761383314652169200,6.413169189453125,-0.535186767578125,-0.345367431640625,0.586029052734375
1761383314662239000,6.423239013671875,-0.6265716552734375,-0.5253753662109375,0.5954132080078125
1761383314672309200,6.433309326171875,-0.7168426513671875,-0.7634124755859375,0.5804443359375
1761383314682379300,6.443379150390625,-0.825439453125,-0.7799072265625,0.39373779296875
1761383314692449000,6.453448974609375,-0.9400634765625,-0.868011474609375,0.23956298828125
1761383314702519300,6.463519287109375,-1.1572265625,-1.03851318359375,0.163299560546875
1761383314712589000,6.473589111328125,-1.3824462890625,-1.0406951904296875,-0.0281982421875
1761383314722659000,6.4836591796875,-1.559051513671875,-0.9451751708984375,-0.2569122314453125
1761383314732729000,6.49372900390625,-1.8111419677734375,-0.698760986328125,-0.4088287353515625
1761383314742799000,6.503799072265625,-2.039825439453125,-0.6755523681640625,-0.356231689453125
1761383314752869000,6.513869140625,-2.2678070068359375,-0.6624603271484375,-0.211090087890625
1761383314762938000,6.523938232421875,-2.438507080078125,-0.64361572265625,-0.0577545166015625
1761383314773008100,6.534008056640625,-2.4434356689453125,-0.6539459228515625,0.037994384765625
1761383314783078100,6.544078125,-2.32379150390625,-0.5495452880859375,-0.009063720703125
1761383314793148200,6.554148193359375,-2.2049560546875,-0.4341583251953125,-0.094512939453125
1761383314803218200,6.56421826171875,-2.16259765625,-0.373443603515625,-0.117218017578125
1761383314813288200,6.5742880859375,-2.1888427734375,-0.3457183837890625,-0.111053466796875
1761383314823358000,6.58435791015625,-2.200714111328125,-0.314056396484375,-0.11895751953125
1761383314833428200,6.59442822265625,-2.2099456787109375,-0.2924652099609375,-0.1468963623046875
1761383314843498200,6.604498291015625,-2.173828125,-0.24224853515625,-0.2052459716796875
1761383314853568000,6.614568115234375,-2.0282440185546875,-0.1752777099609375,-0.2946319580078125
1761383314863638300,6.62463818359375,-1.827789306640625,-0.0923309326171875,-0.3855743408203125
1761383314873708300,6.634708251953125,-1.6237640380859375,-0.0243072509765625,-0.4510955810546875
1761383314883778300,6.6447783203125,-1.412994384765625,0.0133209228515625,-0.4846343994140625
1761383314893848300,6.654848388671875,-1.273681640625,-0.010772705078125,-0.45013427734375
1761383314903918300,6.66491845703125,-1.1826934814453125,-0.064208984375,-0.3895416259765625
1761383314913988400,6.67498828125,-1.1090240478515625,-0.1190185546875,-0.335479736328125
1761383314924057300,6.685057373046875,-1.0516510009765625,-0.1586456298828125,-0.28631591796875
1761383314934127400,6.69512744140625,-0.934112548828125,-0.1604766845703125,-0.267486572265625
1761383314944197400,6.705197265625,-0.8221282958984375,-0.1662750244140625,-0.2449493408203125
1761383314954267100,6.71526708984375,-0.7228240966796875,-0.1628265380859375,-0.2042694091796875
1761383314964337400,6.72533740234375,-0.6239471435546875,-0.150604248046875,-0.1536712646484375
1761383314974407400,6.735407470703125,-0.5409088134765625,-0.1616973876953125,-0.0920562744140625
1761383314984477200,6.745477294921875,-0.4801177978515625,-0.1805419921875,-0.0213775634765625
1761383314994547500,6.75554736328125,-0.422607421875,-0.2103271484375,0.0485382080078125
1761383315004617500,6.765617431640625,-0.385528564453125,-0.23870849609375,0.103973388671875
1761383315014687200,6.775687255859375,-0.385040283203125,-0.2505950927734375,0.1441497802734375
1761383315024757500,6.785757568359375,-0.4332122802734375,-0.2459869384765625,0.1698150634765625
1761383315034827300,6.7958271484375,-0.4696502685546875,-0.2452239990234375,0.167388916015625
1761383315044897300,6.805897216796875,-0.4996185302734375,-0.238616943359375,0.151885986328125
1761383315054967300,6.81596728515625,-0.5549468994140625,-0.2381134033203125,0.143890380859375
1761383315065037300,6.826037353515625,-0.6082763671875,-0.2269134521484375,0.13641357421875
1761383315075107300,6.836107421875,-0.6644439697265625,-0.2090911865234375,0.1114349365234375
1761383315085176600,6.846176513671875,-0.73297119140625,-0.180328369140625,0.0728912353515625
1761383315095246300,6.856246337890625,-0.798370361328125,-0.15155029296875,0.04388427734375
1761383315105316400,6.86631640625,-0.8548583984375,-0.139556884765625,0.0283355712890625
1761383315115386400,6.876386474609375,-0.920196533203125,-0.1475067138671875,0.0373382568359375
1761383315125456400,6.886456298828125,-0.9673919677734375,-0.1725006103515625,0.0628204345703125
1761383315135526400,6.8965263671875,-0.985015869140625,-0.21051025390625,0.08709716796875
1761383315145596200,6.90659619140625,-0.96002197265625,-0.25103759765625,0.0901031494140625
1761383315155666400,6.91666650390625,-0.9185638427734375,-0.2917633056640625,0.09210205078125
1761383315165736400,6.926736328125,-0.8809661865234375,-0.3362884521484375,0.096435546875
1761383315175806200,6.93680615234375,-0.8656158447265625,-0.39666748046875,0.103118896484375
1761383315185876500,6.94687646484375,-0.8644256591796875,-0.4549713134765625,0.1132965087890625
1761383315195946500,6.956946533203125,-0.856292724609375,-0.4944000244140625,0.113494873046875
1761383315206016300,6.967016357421875,-0.8758544921875,-0.51336669921875,0.121002197265625
1761383315216086300,6.977086181640625,-0.900054931640625,-0.5099639892578125,0.127044677734375
1761383315226156300,6.98715625,-0.9133453369140625,-0.4951324462890625,0.1281890869140625
1761383315236225300,6.997225341796875,-0.9204559326171875,-0.478271484375,0.1270904541015625
1761383315246295600,7.007295654296875,-0.936798095703125,-0.45751953125,0.131378173828125
1761383315256365300,7.017365234375,-0.9678192138671875,-0.4455108642578125,0.142059326171875
1761383315266435300,7.027435302734375,-0.995880126953125,-0.4281463623046875,0.1479644775390625
1761383315276505300,7.03750537109375,-1.01556396484375,-0.4098358154296875,0.140289306640625
1761383315286575400,7.047575439453125,-1.0262908935546875,-0.3906707763671875,0.1253204345703125
1761383315296645400,7.057645263671875,-1.03173828125,-0.372161865234375,0.109893798828125
1761383315306715100,7.067715087890625,-1.0402069091796875,-0.3639984130859375,0.105438232421875
1761383315316785400,7.077785400390625,-1.0474700927734375,-0.35968017578125,0.1006011962890625
1761383315326855400,7.08785546875,-1.040740966796875,-0.3528900146484375,0.0892791748046875
1761383315336925200,7.09792529296875,-1.0191650390625,-0.36083984375,0.08038330078125
1761383315346995500,7.107995361328125,-0.993988037109375,-0.378265380859375,0.07684326171875
1761383315357065500,7.1180654296875,-0.957061767578125,-0.3961181640625,0.072113037109375
1761383315367135200,7.12813525390625,-0.9227142333984375,-0.4088592529296875,0.0652008056640625
1761383315377205200,7.138205322265625,-0.8882904052734375,-0.4256744384765625,0.0745391845703125
1761383315387275500,7.148275634765625,-0.85400390625,-0.4417877197265625,0.0893096923828125
1761383315397344300,7.15834423828125,-0.82232666015625,-0.44561767578125,0.103118896484375
1761383315407414500,7.16841455078125,-0.800994873046875,-0.4505157470703125,0.1232757568359375
1761383315417484300,7.178484375,-0.7905426025390625,-0.4535980224609375,0.1425628662109375
1761383315427554300,7.18855419921875,-0.786163330078125,-0.4457244873046875,0.1512603759765625
1761383315437624600,7.19862451171875,-0.7758636474609375,-0.4273529052734375,0.144256591796875
1761383315447694300,7.2086943359375,-0.7631988525390625,-0.405975341796875,0.127593994140625
1761383315457764400,7.218764404296875,-0.743408203125,-0.3850250244140625,0.1098175048828125
1761383315467834000,7.228834228515625,-0.72265625,-0.3713226318359375,0.0961456298828125
1761383315477904400,7.238904296875,-0.701263427734375,-0.3618621826171875,0.0859375
1761383315487974400,7.248974365234375,-0.6845703125,-0.3483428955078125,0.0779266357421875
1761383315498044200,7.259044189453125,-0.672454833984375,-0.3291168212890625,0.0685272216796875
1761383315508114400,7.269114501953125,-0.6628570556640625,-0.308685302734375,0.057861328125
1761383315518184400,7.279184326171875,-0.648162841796875,-0.294097900390625,0.0518035888671875
1761383315528254200,7.289254150390625,-0.6347198486328125,-0.282012939453125,0.046234130859375
1761383315538324500,7.299324462890625,-0.622711181640625,-0.2702178955078125,0.0417938232421875
1761383315548393200,7.309393310546875,-0.6140899658203125,-0.2706146240234375,0.040283203125
1761383315558463200,7.319463134765625,-0.6099395751953125,-0.2786865234375,0.041839599609375
1761383315568533500,7.329533447265625,-0.6161956787109375,-0.279449462890625,0.039794921875
1761383315578603300,7.339603271484375,-0.62811279296875,-0.275360107421875,0.03240966796875
1761383315588673300,7.34967333984375,-0.63287353515625,-0.27020263671875,0.014984130859375
1761383315598743600,7.35974365234375,-0.63323974609375,-0.2620697021484375,-0.0117950439453125
1761383315608813300,7.369813232421875,-0.6256256103515625,-0.2507171630859375,-0.0377960205078125
1761383315618883300,7.37988330078125,-0.626068115234375,-0.243377685546875,-0.0580902099609375
1761383315628953300,7.389953369140625,-0.6240081787109375,-0.2382049560546875,-0.07342529296875
1761383315639023400,7.4000234375,-0.6282196044921875,-0.232635498046875,-0.081817626953125
1761383315649093400,7.41009326171875,-0.6514892578125,-0.2152862548828125,-0.0865478515625
1761383315659163100,7.4201630859375,-0.6742095947265625,-0.1790618896484375,-0.0929412841796875
1761383315669233400,7.4302333984375,-0.6750946044921875,-0.1382904052734375,-0.1082305908203125
1761383315679303400,7.440303466796875,-0.6743011474609375,-0.100860595703125,-0.1179962158203125
1761383315689373200,7.450373291015625,-0.6832427978515625,-0.0681915283203125,-0.1153717041015625
1761383315699442400,7.4604423828125,-0.694000244140625,-0.0576171875,-0.0977935791015625
1761383315709512200,7.47051220703125,-0.716705322265625,-0.0640106201171875,-0.066650390625
1761383315719582200,7.480582275390625,-0.783447265625,-0.0803680419921875,-0.021148681640625
1761383315729652500,7.490652587890625,-0.8528289794921875,-0.1079559326171875,0.0292510986328125
1761383315739722200,7.50072216796875,-0.899749755859375,-0.1226043701171875,0.056671142578125
1761383315749792300,7.510792236328125,-0.928863525390625,-0.161651611328125,0.07965087890625
1761383315759862500,7.520862548828125,-0.9757080078125,-0.259033203125,0.123809814453125
1761383315769932300,7.530932373046875,-1.053466796875,-0.39593505859375,0.1877288818359375
1761383315780002300,7.541002197265625,-1.1868896484375,-0.442413330078125,0.2014007568359375
1761383315790072300,7.551072265625,-1.4063568115234375,-0.335296630859375,0.1309967041015625
1761383315800142300,7.561142333984375,-1.6627044677734375,-0.2590179443359375,0.055633544921875
1761383315810212400,7.57121240234375,-1.9561614990234375,-0.2315826416015625,0.0189208984375
1761383315820282400,7.581282470703125,-2.245697021484375,-0.240631103515625,0.0617523193359375
1761383315830352400,7.591352294921875,-2.4424285888671875,-0.385589599609375,0.1543426513671875
1761383315840421400,7.60142138671875,-2.5792694091796875,-0.5716705322265625,0.20977783203125
1761383315850491400,7.611491455078125,-2.6164703369140625,-0.6583251953125,0.1702423095703125
1761383315860561400,7.6215615234375,-2.601043701171875,-0.6374664306640625,0.06365966796875
1761383315870631700,7.631631591796875,-2.580047607421875,-0.623077392578125,-0.0511322021484375
1761383315880701400,7.641701416015625,-2.6120452880859375,-0.6511077880859375,-0.09649658203125
1761383315890771700,7.651771728515625,-2.7398529052734375,-0.68988037109375,-0.052215576171875
1761383315900841700,7.661841796875,-2.873260498046875,-0.7051239013671875,0.0122528076171875
1761383315910911500,7.671911376953125,-2.975250244140625,-0.6782073974609375,0.0707550048828125
1761383315920981800,7.681981689453125,-2.9399566650390625,-0.5955047607421875,0.0966033935546875
1761383315931051500,7.692051513671875,-2.7408294677734375,-0.4243621826171875,0.0565948486328125
1761383315941121500,7.70212158203125,-2.5673828125,-0.364288330078125,0.0077056884765625
1761383315951191600,7.712191650390625,-2.1764068603515625,-0.2854156494140625,-0.11529541015625
1761383315961261600,7.722261474609375,-1.7169189453125,-0.235260009765625,-0.4211273193359375
1761383315971331600,7.73233154296875,-1.3732452392578125,-0.17852783203125,-0.5676422119140625
1761383315981401600,7.742401611328125,-0.961395263671875,-0.05084228515625,-0.5959930419921875
1761383315991470600,7.752470703125,-0.5686492919921875,0.0205230712890625,-0.5415496826171875
1761383316001540600,7.76254052734375,-0.4293670654296875,0.0011138916015625,-0.36395263671875
1761383316011610600,7.772610595703125,-0.4579620361328125,-0.117919921875,-0.2100830078125
1761383316021680600,7.7826806640625,-0.324951171875,0.1156005859375,-0.1674041748046875
1761383316031750700,7.792750732421875,-0.1334991455078125,0.31005859375,-0.096527099609375
1761383316041820400,7.8028203125,-0.0628662109375,0.3618316650390625,0.025848388671875
1761383316051890700,7.812890625,-0.162750244140625,0.37554931640625,0.136138916015625
1761383316061960700,7.822960693359375,-0.122589111328125,0.3215179443359375,0.236083984375
1761383316072030500,7.833030517578125,0.0381317138671875,0.2411041259765625,0.290740966796875
1761383316082100700,7.843100830078125,0.140533447265625,0.2246856689453125,0.379608154296875
1761383316092170800,7.853170654296875,0.2097625732421875,0.1787872314453125,0.4302978515625
1761383316102240500,7.863240478515625,0.336456298828125,0.18719482421875,0.43121337890625
1761383316112310500,7.873310546875,0.4577484130859375,0.164642333984375,0.3477325439453125
1761383316122380500,7.883380615234375,0.497589111328125,0.121826171875,0.2506103515625
1761383316132449500,7.893449462890625,0.4476470947265625,0.111480712890625,0.1744232177734375
1761383316142519800,7.903519775390625,0.379486083984375,0.0492095947265625,0.1006927490234375
1761383316152589600,7.913589599609375,0.2915802001953125,-0.0794830322265625,0.036163330078125
1761383316162659600,7.92365966796875,0.20330810546875,-0.1822967529296875,-0.0074615478515625
1761383316172729600,7.9337294921875,0.109527587890625,-0.226226806640625,-0.0426788330078125
1761383316182799600,7.943799560546875,0.0199432373046875,-0.234771728515625,-0.08203125
1761383316192869600,7.95386962890625,-0.03143310546875,-0.1936798095703125,-0.139739990234375
1761383316202939400,7.963939453125,-0.082489013671875,-0.1556549072265625,-0.196685791015625
1761383316213009700,7.974009765625,-0.1141204833984375,-0.1248016357421875,-0.250885009765625
1761383316223079700,7.98407958984375,-0.1299591064453125,-0.0875091552734375,-0.29730224609375
1761383316233149400,7.9941494140625,-0.13739013671875,-0.046234130859375,-0.3251190185546875
1761383316243219700,8.0042197265625,-0.143768310546875,-0.0069122314453125,-0.31524658203125
1761383316253289700,8.014289794921876,-0.1426544189453125,-0.0283660888671875,-0.25604248046875
1761383316263359500,8.024359375,-0.1194610595703125,-0.06640625,-0.196533203125
1761383316273428700,8.0344287109375,-0.08203125,-0.0689849853515625,-0.1604461669921875
1761383316283498500,8.04449853515625,-0.0923004150390625,-0.0619049072265625,-0.124786376953125
1761383316293568500,8.054568603515625,-0.1089324951171875,-0.0731964111328125,-0.0967864990234375
1761383316303638800,8.064638671875,-0.1418304443359375,-0.0754241943359375,-0.0743865966796875
1761383316313708500,8.07470849609375,-0.2040252685546875,-0.071014404296875,-0.0221099853515625
1761383316323778600,8.084778564453124,-0.2947235107421875,-0.1123199462890625,0.075775146484375
1761383316333848800,8.094848876953124,-0.4824676513671875,-0.185699462890625,0.2239990234375
1761383316343918600,8.104918701171876,-0.671051025390625,-0.260467529296875,0.3645172119140625
1761383316353988600,8.114988525390626,-0.822479248046875,-0.40911865234375,0.4614410400390625
1761383316364058400,8.125058349609375,-0.9280853271484375,-0.5662384033203125,0.501251220703125
1761383316374128600,8.135128662109375,-0.999908447265625,-0.74285888671875,0.4796295166015625
1761383316384198700,8.14519873046875,-1.1251220703125,-0.8951873779296875,0.3856353759765625
1761383316394268400,8.155268310546875,-1.24725341796875,-1.0413055419921875,0.322845458984375
1761383316404338700,8.165338623046875,-1.449951171875,-0.97003173828125,0.24176025390625
1761383316414407400,8.175407470703124,-1.594451904296875,-0.877655029296875,0.1424713134765625
1761383316424477700,8.185477783203124,-1.5823211669921875,-0.891876220703125,0.0403594970703125
1761383316434547700,8.195547607421876,-1.7122039794921875,-1.02239990234375,0.021148681640625
1761383316444617500,8.205617431640626,-1.89447021484375,-0.9787139892578125,0.153076171875
1761383316454687500,8.2156875,-1.94854736328125,-0.8324127197265625,0.2732391357421875
1761383316464757800,8.2257578125,-2.00244140625,-0.931121826171875,0.4455108642578125
1761383316474827500,8.23582763671875,-2.2127227783203125,-0.9268798828125,0.475982666015625
1761383316484897500,8.2458974609375,-2.2641754150390625,-0.8055419921875,0.35986328125
1761383316494967800,8.2559677734375,-2.2099609375,-0.6587677001953125,0.1633453369140625
1761383316505037600,8.26603759765625,-2.225250244140625,-0.572509765625,0.0141448974609375
1761383316515107600,8.276107666015625,-2.2999420166015625,-0.501129150390625,-0.0291748046875
1761383316525177600,8.286177490234374,-2.311859130859375,-0.4272003173828125,-0.05029296875
1761383316535247600,8.29624755859375,-2.2299041748046875,-0.3936309814453125,-0.0640869140625
1761383316545316600,8.306316650390626,-2.046630859375,-0.3890838623046875,-0.090179443359375
1761383316555386600,8.31638671875,-1.8205718994140625,-0.3748321533203125,-0.1132659912109375
1761383316565456600,8.32645654296875,-1.61810302734375,-0.3437042236328125,-0.10009765625
1761383316575526700,8.336526611328125,-1.43023681640625,-0.290283203125,-0.0440521240234375
1761383316585596700,8.3465966796875,-1.265777587890625,-0.2146453857421875,0.0222625732421875
1761383316595666700,8.356666748046875,-1.1152801513671875,-0.153228759765625,0.0497283935546875
1761383316605736400,8.366736328125,-0.9689788818359375,-0.111419677734375,0.04150390625
1761383316615806500,8.376806396484374,-0.8275299072265625,-0.1071929931640625,0.0270843505859375
1761383316625876700,8.386876708984374,-0.6872100830078125,-0.138336181640625,0.022979736328125
1761383316635946500,8.396946533203124,-0.5973358154296875,-0.1680908203125,0.008819580078125
1761383316646016500,8.4070166015625,-0.5534210205078125,-0.2020721435546875,0.01287841796875
1761383316656086800,8.417086669921876,-0.523193359375,-0.241455078125,0.03143310546875
1761383316666156500,8.427156494140625,-0.4907989501953125,-0.2846527099609375,0.059295654296875
1761383316676225500,8.4372255859375,-0.466705322265625,-0.318145751953125,0.0844879150390625
1761383316686295600,8.447295654296875,-0.4555816650390625,-0.34600830078125,0.081085205078125
1761383316696365600,8.457365478515625,-0.455291748046875,-0.3712921142578125,0.048095703125
1761383316706435600,8.467435546875,-0.45941162109375,-0.3787384033203125,0.017791748046875
1761383316716505600,8.477505615234374,-0.490966796875,-0.356170654296875,0.0167388916015625
1761383316726575600,8.48757568359375,-0.4673309326171875,-0.31878662109375,0.0246429443359375
1761383316736645600,8.497645751953126,-0.659912109375,-0.39984130859375,0.1084136962890625
1761383316746715600,8.507715576171876,-0.97119140625,-0.4824981689453125,0.1786651611328125
1761383316756785700,8.51778564453125,-0.90728759765625,-0.4478302001953125,0.1702117919921875
1761383316766855700,8.527855712890625,-0.7725982666015625,-0.384307861328125,0.12799072265625
1761383316776925400,8.537925537109375,-0.78814697265625,-0.3596954345703125,0.0977630615234375
1761383316786995700,8.54799560546875,-0.87066650390625,-0.37646484375,0.0969696044921875
1761383316797065500,8.5580654296875,-0.94775390625,-0.369476318359375,0.1002197265625
1761383316807135500,8.568135498046875,-0.96771240234375,-0.3261871337890625,0.0979766845703125
1761383316817204700,8.578204833984374,-0.9457550048828125,-0.2942657470703125,0.099639892578125
1761383316827274500,8.5882744140625,-0.9279632568359375,-0.288818359375,0.1099700927734375
1761383316837344800,8.5983447265625,-0.90618896484375,-0.2826385498046875,0.1266326904296875
1761383316847414500,8.60841455078125,-0.8641204833984375,-0.28863525390625,0.1402587890625
1761383316857484500,8.618484619140625,-0.809722900390625,-0.355560302734375,0.13812255859375
1761383316867554600,8.628554443359375,-0.790313720703125,-0.4133148193359375,0.153045654296875
1761383316877624800,8.638624755859375,-0.82427978515625,-0.4317626953125,0.180419921875
1761383316887694800,8.64869482421875,-0.855560302734375,-0.4851531982421875,0.1977996826171875
1761383316897764600,8.6587646484375,-0.84698486328125,-0.545196533203125,0.2094268798828125
1761383316907835000,8.6688349609375,-0.8595428466796875,-0.566070556640625,0.2252960205078125
1761383316917905000,8.67890478515625,-0.867034912109375,-0.57244873046875,0.236236572265625
1761383316927974700,8.688974609375,-0.86700439453125,-0.568695068359375,0.2322845458984375
1761383316938044700,8.699044677734374,-0.8804931640625,-0.545745849609375,0.225738525390625
1761383316948113700,8.70911376953125,-0.8919219970703125,-0.5111541748046875,0.2199249267578125
1761383316958183700,8.71918359375,-0.923614501953125,-0.4806976318359375,0.2033538818359375
1761383316968254000,8.72925390625,-0.963165283203125,-0.4525909423828125,0.1770477294921875
1761383316978323700,8.73932373046875,-0.972808837890625,-0.4248809814453125,0.1394195556640625
1761383316988393700,8.749393798828125,-0.9486236572265625,-0.4010467529296875,0.0954132080078125
1761383316998463700,8.759463623046875,-0.9212493896484375,-0.3829345703125,0.0536041259765625
1761383317008533800,8.76953369140625,-0.912750244140625,-0.3743438720703125,0.02734375
1761383317018603800,8.779603759765624,-0.9133453369140625,-0.3717498779296875,0.0181732177734375
1761383317028673500,8.789673583984374,-0.8786468505859375,-0.370208740234375,0.0110626220703125
1761383317038743800,8.799743896484374,-0.8332977294921875,-0.375946044921875,0.0139617919921875
1761383317048813800,8.809813720703126,-0.8117218017578125,-0.4000091552734375,0.0331573486328125
1761383317058883600,8.819883544921876,-0.7903289794921875,-0.4285736083984375,0.0462799072265625
1761383317068952800,8.829952880859375,-0.7576141357421875,-0.4565277099609375,0.0546112060546875
1761383317079022800,8.84002294921875,-0.7347412109375,-0.48895263671875,0.063720703125
1761383317089092600,8.850092529296875,-0.73046875,-0.52252197265625,0.0718231201171875
1761383317099163000,8.860162841796875,-0.7498321533203125,-0.544189453125,0.0825347900390625
1761383317109232600,8.870232666015625,-0.7687530517578125,-0.5485992431640625,0.091796875
1761383317119302700,8.880302734375,-0.7637481689453125,-0.5408782958984375,0.1042633056640625
1761383317129373000,8.890373046875,-0.7688140869140625,-0.5279083251953125,0.1193084716796875
1761383317139442700,8.900442626953126,-0.783355712890625,-0.513702392578125,0.1309967041015625
1761383317149512700,8.9105126953125,-0.79144287109375,-0.5015411376953125,0.1335601806640625
1761383317159583000,8.9205830078125,-0.7943878173828125,-0.4932708740234375,0.13116455078125
1761383317169652700,8.93065283203125,-0.7987213134765625,-0.482421875,0.1173553466796875
1761383317179722800,8.94072265625,-0.8095703125,-0.475189208984375,0.10284423828125
1761383317189792800,8.950792724609375,-0.8308563232421875,-0.48236083984375,0.0989227294921875
1761383317199861800,8.96086181640625,-0.869842529296875,-0.498016357421875,0.1068572998046875
1761383317209931800,8.970931884765625,-0.892059326171875,-0.4964447021484375,0.1055145263671875
1761383317220001800,8.981001708984374,-0.89990234375,-0.4832916259765625,0.103668212890625
1761383317230071800,8.99107177734375,-0.9180755615234375,-0.47625732421875,0.1075286865234375
1761383317240141800,9.001141845703126,-0.933837890625,-0.4769439697265625,0.1116485595703125
1761383317250211800,9.0112119140625,-0.9323272705078125,-0.482666015625,0.103851318359375
1761383317260281900,9.02128173828125,-0.9319305419921875,-0.4931793212890625,0.092742919921875
1761383317270351600,9.0313515625,-0.923004150390625,-0.4917755126953125,0.090911865234375
1761383317280421600,9.041421630859375,-0.91241455078125,-0.48492431640625,0.1052398681640625
1761383317290492000,9.051491943359375,-0.9110870361328125,-0.48138427734375,0.123809814453125
1761383317300561700,9.061561767578125,-0.917999267578125,-0.4808197021484375,0.130340576171875
1761383317310631700,9.071631591796875,-0.917877197265625,-0.48486328125,0.1309661865234375
1761383317320701000,9.081700927734374,-0.9210205078125,-0.47705078125,0.124847412109375
1761383317330770700,9.091770751953124,-0.91900634765625,-0.4640655517578125,0.115020751953125
1761383317340840700,9.1018408203125,-0.91119384765625,-0.4516754150390625,0.10491943359375
1761383317350910700,9.11191064453125,-0.904022216796875,-0.4351348876953125,0.0913543701171875
1761383317360980700,9.121980712890625,-0.9017333984375,-0.4225006103515625,0.0802764892578125
1761383317371050800,9.13205078125,-0.898193359375,-0.4179534912109375,0.075225830078125
1761383317381120800,9.142120849609375,-0.8915252685546875,-0.4207611083984375,0.076873779296875
1761383317391190800,9.152190673828125,-0.89007568359375,-0.428863525390625,0.0819854736328125
1761383317401260800,9.1622607421875,-0.8990325927734375,-0.43896484375,0.08856201171875
1761383317411330800,9.172330810546875,-0.8969268798828125,-0.446746826171875,0.0939788818359375
1761383317421400800,9.18240087890625,-0.8860626220703125,-0.446533203125,0.0933074951171875
1761383317431470800,9.192470947265624,-0.878387451171875,-0.4433441162109375,0.09033203125
1761383317441539800,9.202539794921876,-0.876312255859375,-0.444671630859375,0.0885162353515625
1761383317451609900,9.21260986328125,-0.880218505859375,-0.4468231201171875,0.0873260498046875
1761383317461679600,9.2226796875,-0.886444091796875,-0.452392578125,0.0869140625
1761383317471750000,9.23275,-0.891265869140625,-0.4513702392578125,0.08221435546875
1761383317481820000,9.24281982421875,-0.8928985595703125,-0.4507904052734375,0.0777435302734375
1761383317491889700,9.2528896484375,-0.8851318359375,-0.45758056640625,0.0702972412109375
1761383317501959700,9.262959716796875,-0.88140869140625,-0.4646759033203125,0.0697174072265625
1761383317512029700,9.27302978515625,-0.884033203125,-0.4783477783203125,0.0730133056640625
1761383317522099700,9.283099609375,-0.8813323974609375,-0.4886627197265625,0.0765838623046875
1761383317532169700,9.293169677734374,-0.8844451904296875,-0.48858642578125,0.0804443359375
1761383317542239700,9.30323974609375,-0.882904052734375,-0.4880828857421875,0.0796051025390625
1761383317552309800,9.313309814453126,-0.87969970703125,-0.481719970703125,0.07257080078125
1761383317562379000,9.32337890625,-0.87896728515625,-0.4744720458984375,0.0678253173828125
1761383317572448800,9.33344873046875,-0.867919921875,-0.46905517578125,0.059539794921875
1761383317582518800,9.343518798828125,-0.8642730712890625,-0.46942138671875,0.0517120361328125
1761383317592588500,9.353588623046875,-0.8749542236328125,-0.47442626953125,0.050933837890625
1761383317602658800,9.363658935546875,-0.8855743408203125,-0.481048583984375,0.0539093017578125
1761383317612728800,9.373728759765624,-0.8882904052734375,-0.483001708984375,0.053680419921875
1761383317622798600,9.383798583984374,-0.8920135498046875,-0.485321044921875,0.0537109375
1761383317632868900,9.393868896484374,-0.8927764892578125,-0.485107421875,0.0531005859375
1761383317642939000,9.40393896484375,-0.8829193115234375,-0.484283447265625,0.051544189453125
1761383317653008600,9.414008544921876,-0.87725830078125,-0.4870758056640625,0.0519561767578125
1761383317663079000,9.424078857421875,-0.871246337890625,-0.4932861328125,0.054351806640625
1761383317673149000,9.43414892578125,-0.859832763671875,-0.501708984375,0.054779052734375
1761383317683217700,9.4442177734375,-0.850494384765625,-0.509918212890625,0.0535888671875
1761383317693288000,9.454287841796875,-0.8507537841796875,-0.51654052734375,0.0577239990234375
1761383317703357700,9.464357666015625,-0.858612060546875,-0.5209197998046875,0.065277099609375
1761383317713427700,9.474427734375,-0.8642730712890625,-0.5230712890625,0.0731201171875
1761383317723498000,9.484498046875,-0.8607025146484375,-0.523956298828125,0.0771331787109375
1761383317733567700,9.494567626953126,-0.856231689453125,-0.5233612060546875,0.075469970703125
1761383317743637800,9.5046376953125,-0.8534393310546875,-0.519989013671875,0.07159423828125
1761383317753707800,9.514707763671876,-0.84576416015625,-0.51947021484375,0.062835693359375
1761383317763777800,9.52477783203125,-0.8475341796875,-0.5189361572265625,0.0623626708984375
1761383317773847800,9.534847900390625,-0.85113525390625,-0.51959228515625,0.0671539306640625
1761383317783917600,9.54491748046875,-0.8558197021484375,-0.5169525146484375,0.071441650390625
1761383317793987800,9.55498779296875,-0.8595733642578125,-0.5140838623046875,0.0783233642578125
1761383317804056800,9.565056884765625,-0.85650634765625,-0.5138702392578125,0.0856781005859375
1761383317814126800,9.575126953125,-0.8489990234375,-0.5142822265625,0.0904388427734375
1761383317824196900,9.58519677734375,-0.844879150390625,-0.5146942138671875,0.0902862548828125
1761383317834266600,9.5952666015625,-0.8371734619140625,-0.5162811279296875,0.083770751953125
1761383317844336600,9.605336669921876,-0.8299407958984375,-0.5115203857421875,0.076873779296875
1761383317854407000,9.615406982421876,-0.831939697265625,-0.510162353515625,0.0797882080078125
1761383317864476700,9.6254765625,-0.8472442626953125,-0.51043701171875,0.090118408203125
1761383317874546000,9.6355458984375,-0.856109619140625,-0.5111083984375,0.0986175537109375
1761383317884616000,9.645615966796875,-0.8607177734375,-0.5110626220703125,0.1047210693359375
1761383317894685700,9.655685791015625,-0.859130859375,-0.513671875,0.1026763916015625
1761383317904755700,9.665755615234374,-0.85223388671875,-0.52099609375,0.097015380859375
1761383317914826000,9.675825927734374,-0.8422393798828125,-0.5300750732421875,0.0875244140625
1761383317924894700,9.685894775390626,-0.834381103515625,-0.537994384765625,0.076141357421875
1761383317934965000,9.695965087890626,-0.8285064697265625,-0.5428009033203125,0.068572998046875
1761383317945034800,9.70603466796875,-0.8214569091796875,-0.5442047119140625,0.066497802734375
1761383317955104800,9.716104736328125,-0.8287811279296875,-0.5464324951171875,0.0709228515625
1761383317965175000,9.726175048828125,-0.8259429931640625,-0.546600341796875,0.0800628662109375
1761383317975244800,9.736244873046875,-0.81292724609375,-0.549652099609375,0.0832977294921875
1761383317985314800,9.746314697265625,-0.8095245361328125,-0.5541229248046875,0.090362548828125
1761383317995384800,9.756384765625,-0.80859375,-0.559906005859375,0.0963287353515625
1761383318005454800,9.766454833984374,-0.7966766357421875,-0.5648956298828125,0.0965576171875
1761383318015524900,9.77652490234375,-0.7945098876953125,-0.5684967041015625,0.0985107421875
1761383318025595000,9.786594970703124,-0.788848876953125,-0.576690673828125,0.0998077392578125
1761383318035664000,9.796663818359375,-0.78533935546875,-0.5839996337890625,0.0971527099609375
1761383318045734000,9.80673388671875,-0.7806549072265625,-0.5843353271484375,0.0927886962890625
1761383318055803600,9.8168037109375,-0.7758026123046875,-0.580657958984375,0.085174560546875
1761383318065874000,9.8268740234375,-0.7784271240234375,-0.5757598876953125,0.0838623046875
1761383318075944000,9.83694384765625,-0.780914306640625,-0.5743865966796875,0.0856170654296875
1761383318086013700,9.847013671875,-0.7744293212890625,-0.5808258056640625,0.085968017578125
1761383318096084000,9.857083984375,-0.76898193359375,-0.5900115966796875,0.092041015625
1761383318106154000,9.867154052734374,-0.7683563232421875,-0.5982208251953125,0.100830078125
1761383318116223700,9.8772236328125,-0.763519287109375,-0.6034698486328125,0.107330322265625
1761383318126294000,9.8872939453125,-0.7623291015625,-0.604339599609375,0.1106109619140625
1761383318136363800,9.89736376953125,-0.7617950439453125,-0.6052398681640625,0.1134490966796875
1761383318146432800,9.907432861328125,-0.759796142578125,-0.606109619140625,0.1109161376953125
1761383318156503000,9.9175029296875,-0.7579803466796875,-0.598236083984375,0.1099700927734375
1761383318166572800,9.92757275390625,-0.758270263671875,-0.5914764404296875,0.10955810546875
1761383318176642800,9.937642822265625,-0.7607421875,-0.5909576416015625,0.1094970703125
1761383318186712800,9.947712890625,-0.7626800537109375,-0.5963897705078125,0.1064453125
1761383318196782800,9.957782958984374,-0.756561279296875,-0.600830078125,0.1060333251953125
1761383318206852900,9.967852783203124,-0.761627197265625,-0.5984344482421875,0.11126708984375
1761383318216923000,9.9779228515625,-0.7719573974609375,-0.6016845703125,0.1191864013671875
1761383318226993000,9.987992919921876,-0.7788848876953125,-0.6056365966796875,0.1273345947265625
1761383318237063000,9.99806298828125,-0.7745361328125,-0.6036224365234375,0.130340576171875
1761383318247132700,10.008132568359375,-0.7692108154296875,-0.6014862060546875,0.1281585693359375
1761383318257203000,10.018202880859375,-0.772247314453125,-0.60174560546875,0.1247406005859375
1761383318267271700,10.028271728515625,-0.7702484130859375,-0.60455322265625,0.1175384521484375
1761383318277342000,10.038342041015625,-0.7730712890625,-0.606170654296875,0.113983154296875
1761383318287412000,10.048411865234375,-0.7789154052734375,-0.6070556640625,0.1182098388671875
1761383318297481700,10.058481689453124,-0.774200439453125,-0.6106719970703125,0.118194580078125
1761383318307551700,10.0685517578125,-0.778594970703125,-0.6143646240234375,0.1219024658203125
1761383318317622000,10.0786220703125,-0.782562255859375,-0.6164093017578125,0.12689208984375
1761383318327691800,10.08869189453125,-0.7823028564453125,-0.615936279296875,0.12567138671875
1761383318337761800,10.09876171875,-0.7835693359375,-0.6125335693359375,0.12664794921875
1761383318347832000,10.10883203125,-0.785430908203125,-0.6090545654296875,0.128204345703125
1761383318357901800,10.11890185546875,-0.787109375,-0.6058502197265625,0.1294708251953125
1761383318367970800,10.128970703125,-0.7845458984375,-0.60382080078125,0.130584716796875
1761383318378040800,10.139040771484375,-0.7826385498046875,-0.604339599609375,0.1310577392578125
1761383318388110800,10.14911083984375,-0.78021240234375,-0.607177734375,0.132965087890625
1761383318398180900,10.159180908203124,-0.7759246826171875,-0.6102447509765625,0.128692626953125
1761383318408251000,10.1692509765625,-0.7768402099609375,-0.6096038818359375,0.1214599609375
1761383318418321000,10.17932080078125,-0.77398681640625,-0.6029205322265625,0.1150970458984375
1761383318428390700,10.189390625,-0.7723236083984375,-0.59991455078125,0.106658935546875
1761383318438461000,10.1994609375,-0.7753448486328125,-0.6039886474609375,0.104827880859375
1761383318448531000,10.209531005859375,-0.7770843505859375,-0.60797119140625,0.108062744140625
1761383318458600700,10.2196005859375,-0.7801971435546875,-0.6115570068359375,0.1076812744140625
1761383318468670700,10.229670654296875,-0.777923583984375,-0.613983154296875,0.110260009765625
1761383318478739700,10.23973974609375,-0.7762908935546875,-0.6136322021484375,0.11004638671875
1761383318488809700,10.249809814453124,-0.77728271484375,-0.6150665283203125,0.1083984375
1761383318498880000,10.2598798828125,-0.7716064453125,-0.615509033203125,0.10601806640625
1761383318508949800,10.26994970703125,-0.76617431640625,-0.61273193359375,0.1002044677734375
1761383318519019800,10.280019775390626,-0.7648468017578125,-0.614837646484375,0.098236083984375
1761383318529090000,10.290090087890626,-0.7676239013671875,-0.6185302734375,0.100311279296875
1761383318539159800,10.300159912109375,-0.774383544921875,-0.6180419921875,0.0969696044921875
1761383318549229800,10.310229736328125,-0.7735748291015625,-0.6132354736328125,0.0908660888671875
1761383318559299800,10.3202998046875,-0.78363037109375,-0.608917236328125,0.0869598388671875
1761383318569369900,10.330369873046875,-0.788055419921875,-0.6054229736328125,0.0879669189453125
1761383318579439900,10.34043994140625,-0.7851715087890625,-0.6019287109375,0.0910186767578125
1761383318589508900,10.3505087890625,-0.7808380126953125,-0.6021881103515625,0.0911865234375
1761383318599579000,10.360578857421874,-0.7795257568359375,-0.605194091796875,0.0888671875
1761383318609649000,10.37064892578125,-0.77923583984375,-0.6060638427734375,0.0848846435546875
1761383318619719000,10.380718994140626,-0.7786712646484375,-0.6046142578125,0.0811004638671875
1761383318629789000,10.390788818359376,-0.7828369140625,-0.6077423095703125,0.075042724609375
1761383318639859000,10.40085888671875,-0.784881591796875,-0.6138153076171875,0.0713958740234375
1761383318649928700,10.4109287109375,-0.7834625244140625,-0.61590576171875,0.070281982421875
1761383318659999000,10.4209990234375,-0.7812957763671875,-0.614898681640625,0.072906494140625
1761383318670068700,10.43106884765625,-0.7828369140625,-0.6165771484375,0.0729827880859375
1761383318680138800,10.441138671875,-0.7819976806640625,-0.6170654296875,0.0705718994140625
1761383318690209000,10.451208984375,-0.7835845947265625,-0.62066650390625,0.0699005126953125
1761383318700277800,10.46127783203125,-0.778778076171875,-0.6230621337890625,0.070098876953125
1761383318710347800,10.47134765625,-0.7738037109375,-0.62493896484375,0.0707550048828125
1761383318720417800,10.481417724609376,-0.77374267578125,-0.62298583984375,0.0722808837890625
1761383318730487800,10.49148779296875,-0.7754058837890625,-0.6176605224609375,0.072296142578125
