time,seconds_elapsed,z,y,x
1761383308323215400,0.08421533203125,-0.07763269025683403,-0.008424713996052742,-0.22779650984778999
1761383308333285600,0.09428564453125,-0.03248831115067005,-0.13288754448890686,-0.1828443653780967
1761383308343355400,0.10435546875,0.009379238241910934,-0.23462124130129813,-0.12531031416766344
1761383308353424600,0.114424560546875,0.05109539646506309,-0.2902536966741085,-0.09792955528907478
1761383308363494400,0.124494384765625,0.12448387328088283,-0.28439211116433144,-0.09383402960374951
1761383308373564400,0.134564453125,0.1508358736336231,-0.2500643096268177,-0.09179404820874333
1761383308383634700,0.144634765625,0.14998130263090131,-0.2415671149164438,-0.08311784366965293
1761383308393704400,0.154704345703125,0.1346107150197029,-0.20687515624165534,-0.10105397091992199
1761383308403774500,0.1647744140625,0.06430792925953864,-0.13603402582108973,-0.111473292799294
1761383308413844500,0.174844482421875,0.031982115194201466,-0.09732523272037505,-0.10711714341640471
1761383308423914500,0.18491455078125,-0.030637714847922323,-0.05178571681678295,-0.11407390375174581
1761383308433984500,0.194984619140625,-0.07371054837703704,0.008759060516953467,-0.11481062052845954
1761383308444054300,0.20505419921875,-0.09616261868178844,0.05537292765378952,-0.07257277651876211
1761383308454124500,0.21512451171875,-0.0666407561212778,0.04274900840222835,-0.013038345271348952
1761383308464194600,0.225194580078125,0.011555413237214087,0.037030630755424496,0.029936288580298422
1761383308474264300,0.235264404296875,0.09604045360684395,0.04554828373193741,0.06150010529719293
1761383308484334600,0.24533447265625,0.13883447019457817,0.029992402681708333,0.10066599451564252
1761383308494404600,0.255404541015625,0.15331015479266644,-0.0017167407900094986,0.10579824283756314
1761383308504474400,0.265474365234375,0.17878069613575934,0.016039865174889565,0.09633439505212009
1761383308514544400,0.27554443359375,0.13469137904047965,0.043855508339405054,0.10410210644416511
1761383308524613400,0.28561328125,0.10802373686730861,0.05235504113733768,0.1295260321665555
1761383308534683400,0.295683349609375,0.07549217109680176,0.043677813684940336,0.12261113821156322
1761383308544753700,0.305753662109375,0.04206161065995693,0.056251464053988454,0.1604769046168774
1761383308554823400,0.315823486328125,0.005728314518928528,0.04540799847841263,0.19368863467127084
1761383308564893400,0.3258935546875,0.013372691792249678,-0.024360534274578093,0.20972024347446858
1761383308574963500,0.33596337890625,0.02197568496465683,-0.05548515585660934,0.20909451279155908
1761383308585033500,0.346033447265625,0.040676878303289414,-0.06951075859963894,0.20122991689629852
1761383308595103500,0.356103515625,0.05780395419299602,-0.11192074430584907,0.2054896932326257
1761383308605173500,0.366173583984375,0.04935702836513519,-0.16312486184239386,0.19723412525840103
1761383308615243500,0.376243408203125,0.011221066716313361,-0.20128361984491347,0.14954853723682462
1761383308625313500,0.3863134765625,-0.06260930864810943,-0.18311960212290285,0.11969532383009791
1761383308635383300,0.39638330078125,-0.13597323554456234,-0.18973989704549313,0.12958441129028797
1761383308645453600,0.40645361328125,-0.06009937165379524,-0.199078218755126,0.08333017124608158
1761383308655523600,0.416523681640625,-0.05966799449920654,-0.14607552736401558,0.06872625715844333
1761383308665593300,0.42659326171875,-0.0901081409484148,-0.10133271479606627,0.04551942296363413
1761383308675663400,0.436663330078125,-0.04535656055212021,-0.1306856505304575,0.022238135293126106
1761383308685733600,0.446733642578125,0.002709258958697319,-0.1307113694936037,-0.027681933782249687
1761383308695802400,0.45680224609375,0.042888709133863445,-0.10453121857643127,-0.06692015758454799
1761383308705872600,0.46687255859375,0.09603051673471927,-0.11198153458237647,-0.0755862791210413
1761383308715942400,0.4769423828125,0.13844576313793658,-0.11099486163258553,-0.11608173644281923
1761383308726012400,0.487012451171875,0.24014555768072604,-0.09186287566125392,-0.23349457535892723
1761383308736082400,0.49708251953125,0.24822131210863588,-0.12868307853639124,-0.3057401657499373
1761383308746152400,0.50715234375,0.2454021630346775,-0.15692016198337078,-0.2862165501125157
1761383308756222500,0.517222412109375,0.29701778398156164,-0.2098176394343376,-0.3398090240903199
1761383308766292500,0.52729248046875,0.3325543767869472,-0.26011925517320633,-0.37915786866024137
1761383308776362500,0.537362548828125,0.25018355209231374,-0.07610182742774486,-0.3559318913735449
1761383308786432500,0.5474326171875,0.2524772159874439,0.018640987583994864,-0.4518194194409996
1761383308796502500,0.55750244140625,0.12271277195513247,0.11141747095882892,-0.40596667286977167
1761383308806572500,0.567572509765625,0.05596095667481422,0.11961012976467608,-0.3456169797167182
1761383308816642600,0.577642578125,-0.0778735132753849,0.13186872283518314,-0.2631371416896581
1761383308826712300,0.58771240234375,-0.16656243507564067,0.09690028530657291,-0.1530325068950653
1761383308836782300,0.5977822265625,-0.26326515198349953,0.04666530506312847,-0.07655833902359008
1761383308846852600,0.6078525390625,-0.46361879750192164,0.10522913771271705,-0.007961626528948546
1761383308856921300,0.61792138671875,-0.5236655621856451,0.1268079323142767,0.010210136108100414
1761383308866991000,0.6279912109375,-0.43039106616079803,0.234138426220417,0.014914952798187732
1761383308877061000,0.63806103515625,-0.34980127966403957,0.31341771464049817,0.020351298633217812
1761383308887131100,0.648131103515625,-0.1804208645582199,0.412791112062335,-0.08508870535120368
1761383308897201200,0.658201171875,-0.02273556342124939,0.5824813237696885,-0.11078896379694342
1761383308907271200,0.668271240234375,-0.038436405900120735,0.5337707766145467,0.00026449615508317945
1761383308917341000,0.6783408203125,-0.06481646330356597,0.20985563335716723,0.2696399477124214
1761383308927411200,0.6884111328125,0.017728548914194106,-0.055251347100734705,0.4448553525820374
1761383308937481200,0.698481201171875,0.30075463242232797,-0.09415653955638408,0.3922879838682711
1761383308947551000,0.708551025390625,0.5362257685512304,-0.06283844122886657,0.24238617621436714
1761383308957621000,0.71862109375,0.529063037315011,-0.06884031199216842,0.1190653553634882
1761383308967691300,0.728691162109375,0.4384802645921707,-0.028208441874384878,0.004787234276533127
1761383308977761000,0.738760986328125,0.4111608805119991,0.08394494214355945,-0.12073971831649541
1761383308987831000,0.7488310546875,0.3522323062032461,0.1891384240210056,-0.16977219090238213
1761383308997901300,0.7589013671875,0.9795797766596078,0.31009353865385053,-0.14559329680502414
1761383309007971000,0.76897119140625,0.4700274955004453,0.22395722394585607,0.2108336846090853
1761383309018040000,0.7790400390625,0.017598200532793998,-0.05087620075643062,0.44447541335374113
1761383309028110000,0.789110107421875,0.5684960530370473,-0.10055530068278312,0.49762745008766646
1761383309038180000,0.79918017578125,0.4374252025812864,0.03307458660602569,0.3819371241152286
1761383309048250000,0.80925,0.40144028148651123,-0.0445551810413599,0.11836042196452617
1761383309058320100,0.819320068359375,0.3593079436779022,-0.20569500654637812,-0.13621288951933383
1761383309068390100,0.82939013671875,0.5574193632274865,-0.1918278092354536,-0.15883943960815666
1761383309078460200,0.839460205078125,0.6790911016970872,0.045425534135103224,-0.18560089754462242
1761383309088530200,0.8495302734375,0.7669710452020168,0.11022738439142703,-0.467128997579962
1761383309098600200,0.85960009765625,0.6236474468946457,0.03934475291669368,-0.2739085649423301
1761383309108670000,0.869669921875,0.1758814675629139,-0.1964940474808216,0.0272283447958529
1761383309118740000,0.879739990234375,0.322258023700118,-0.4854483519941568,0.14149214509651065
1761383309128810200,0.889810302734375,0.3816425250828266,-0.46462943584918975,0.1487983764566481
1761383309138880000,0.8998798828125,0.1967681882470846,-0.2940197712093591,0.05396612959578633
1761383309148950000,0.909949951171875,0.06463759960532188,-0.2482557989001274,-0.13395970376506447
1761383309159020300,0.920020263671875,0.20846797839105127,-0.18610183280408382,-0.32851883766055107
1761383309169090000,0.930090087890625,0.27146657861769197,-0.10885317342877388,-0.3128058663524687
1761383309179159000,0.940158935546875,0.2780629081428051,-0.21369652669429778,-0.0645689182832837
1761383309189229000,0.95022900390625,0.3007178075432777,-0.4680255080282688,0.22923969439342617
1761383309199299000,0.960299072265625,0.3996154041469097,-0.6881903539538383,0.4248768327839672
1761383309209369000,0.970369140625,0.3135965783387422,-0.7640899368077516,0.4977307643316686
1761383309219439000,0.980439208984375,0.15376549734473227,-0.7428454887270927,0.46320992444008585
1761383309229509000,0.990509033203125,0.1647054090321064,-0.6635825669199228,0.3070211454711854
1761383309239579100,1.0005791015625,0.29841186868846414,-0.5424585254609584,0.08879574317559599
1761383309249649200,1.010649169921875,0.22058570168614386,-0.4421136526584625,-0.10254165219441055
1761383309259719200,1.02071923828125,0.18025252225399016,-0.3173725897461176,-0.21203750744089483
1761383309269789200,1.0307890625,0.137303607365489,-0.2589081258177757,-0.21099135938882826
1761383309279859000,1.04085888671875,0.017721534651517868,-0.2765548416674137,-0.18837649973779916
1761383309289929200,1.05092919921875,-0.09790507843494414,-0.30437633005082604,-0.18744024180099367
1761383309299999000,1.0609990234375,-0.2786731489956379,-0.2675286546468735,-0.17001067583337426
1761383309310069000,1.071069091796875,-0.5545008454322815,-0.2690519186913967,-0.09045330112427473
1761383309320139300,1.08113916015625,-0.9045844491690397,-0.372704600867629,0.07397460614070296
1761383309330209000,1.091208984375,-1.2170049694657326,-0.4594955800920725,0.23917305938675998
1761383309340278300,1.1012783203125,-1.3873054220259189,-0.4154705604046583,0.16862945060804485
1761383309350348000,1.11134814453125,-1.9713065027087926,-0.24605215137600897,0.10230404404625296
1761383309360418000,1.12141796875,-2.0232249059945344,-0.0853589005947113,0.015164397514611481
1761383309370488000,1.131488037109375,-1.8767279383480548,0.0679220281034708,-0.13999839940741657
1761383309380558000,1.14155810546875,-1.871447367596626,0.20796295147836208,-0.2763232248686254
1761383309390628000,1.151628173828125,-1.6405203046381474,0.25231939507722856,-0.3617606705922633
1761383309400698000,1.161697998046875,-1.3082891684561968,0.28655659572184083,-0.344759851430729
1761383309410768100,1.17176806640625,-1.0488485431969166,0.19975567962527274,-0.26469927643984553
1761383309420838100,1.181838134765625,-0.7631734064847231,0.007955342918634414,-0.10690620407946407
1761383309430908200,1.191908203125,-0.5716472105443478,-0.16981413034796713,-0.009192702693864702
1761383309440978200,1.201978271484375,-0.5753811363756657,-0.2124059023618698,-0.035530820651724936
1761383309451048200,1.212048095703125,-0.4142518322646618,-0.23520400962531565,0.033467093054950235
1761383309461118000,1.222117919921875,-0.08798574196696281,-0.3429775711238384,0.2491031364444643
1761383309471188000,1.23218798828125,-0.024456395864486693,-0.2122311303168535,0.06955057915337383
1761383309481258200,1.24225830078125,0.2976636806696653,-0.28065350915789605,0.06583312953282147
1761383309491327000,1.252326904296875,0.24960429089963435,-0.29150223543047904,-0.04730301844477653
1761383309501397200,1.262397216796875,-0.03383972575962543,-0.21078794577121734,-0.32538740776702757
1761383309511467300,1.27246728515625,0.15806640940904618,-0.11639642841517925,-0.45797428880892693
1761383309521537000,1.282537109375,0.5155161579996347,0.12180500946044921,-0.49794396869093177
1761383309531607000,1.29260693359375,0.7853659490704537,0.3200800951391458,-0.5309832282552496
1761383309541677000,1.302677001953125,1.1740911258906126,0.4579769922226667,-0.43289238145723935
1761383309551747000,1.3127470703125,1.4717553910821675,0.5688906053125858,-0.28284846191890534
1761383309561817000,1.322817138671875,1.562507675153017,0.6117068337321281,-0.08066526288576424
1761383309571887000,1.33288720703125,1.5699568221151827,0.543382654568553,0.07385477915331722
1761383309581957000,1.34295703125,1.4952847352296113,0.4863397478759289,0.21040062695406375
1761383309592027100,1.353027099609375,1.3169985446125267,0.4906844990819692,0.2880029951378703
1761383309602097200,1.36309716796875,1.0968722771316766,0.3915414032846689,0.4975377259775996
1761383309612167200,1.373167236328125,0.8492021691650151,0.24600071344971655,0.648197293196246
1761383309622237200,1.3832373046875,0.7425368611693381,0.11422200698554515,0.7988567873496561
1761383309632307000,1.393306884765625,0.6530787085622549,0.061115270698070524,1.040499451720342
1761383309642376200,1.403376220703125,0.7647603834152221,0.08394026596844195,1.2677765408039092
1761383309652446000,1.413446044921875,0.9105395581811666,0.04293254827558994,1.5302759691119192
1761383309662516200,1.42351611328125,1.0207973377108572,-0.0668371554762125,1.752932047331333
1761383309672586200,1.433586181640625,1.1845417927563189,-0.16342238348424434,1.8291972486272454
1761383309682656000,1.443656005859375,1.217380817040801,-0.21577099488079546,1.8329466642886398
1761383309692726000,1.45372607421875,1.3158482055336236,-0.15227613556981087,1.8110704941757023
1761383309702796000,1.463796142578125,1.4561749601125715,0.051982700693607324,1.7369800065703689
1761383309712866000,1.473865966796875,1.690146797594428,0.3748866210818291,1.5896183849185703
1761383309722936000,1.48393603515625,1.6678981409072875,0.5289835423380136,1.4539318573608995
1761383309733006000,1.494006103515625,1.0913871237188577,0.3738970255225897,1.3673676726296544
1761383309743076000,1.504076171875,0.5749404068708419,0.1580471201866865,1.122283781763911
1761383309753146000,1.51414599609375,0.8225123151600361,0.28500995080173014,0.8549143362667411
1761383309763216100,1.524216064453125,1.2328805839896202,0.5306774867743254,0.7919689275320619
1761383309773286100,1.5342861328125,1.241974575549364,0.5632786106497049,0.847330603139475
1761383309783356200,1.544356201171875,1.1068477277010678,0.36932606434524057,0.8812416405696422
1761383309793425200,1.554425048828125,0.9108779963552951,0.06895955445766448,0.6538628446772694
1761383309803495200,1.5644951171875,0.7592956882685422,-0.2598281632721424,0.26285949379205703
1761383309813565000,1.57456494140625,1.5036843147844074,-0.07029518697559833,0.1858419397588819
1761383309823635200,1.58463525390625,1.6480986309379337,0.2833276968032121,0.012321794499829411
1761383309833705200,1.594705322265625,1.0727397063940762,0.7635083375275135,0.07455518250763415
1761383309843775000,1.60477490234375,0.7784750205129385,1.18998544511497,0.3594664221752435
1761383309853845000,1.614844970703125,0.981755951654911,1.503465119075775,0.5636562848556786
1761383309863911200,1.6249111328125,1.160171906131506,1.2932535118877886,0.5304275306012481
1761383309873981000,1.63498095703125,1.3945365423232317,0.9083551998794078,0.3840020207557827
1761383309884051200,1.64505126953125,1.4756751948744058,0.7209370237797498,0.17906893849261105
1761383309894121200,1.655121337890625,1.6877929279446602,0.759119162657857,0.17022767958492038
1761383309904191000,1.66519091796875,1.8612223261803387,1.0543331120878456,0.23627397694438695
1761383309914261000,1.675260986328125,1.9223054481744766,1.2924556395083666,0.19503800345361233
1761383309924331300,1.685331298828125,1.936743723371625,1.4030492268636823,0.09643179101198911
1761383309934401000,1.695401123046875,2.1276871509879824,1.5216615777626632,-0.031697891425341365
1761383309944471000,1.705470947265625,2.3773890570431946,1.6524351988375185,-0.1793676291782409
1761383309954540000,1.7155400390625,2.501866500583291,1.7032313200950622,-0.24205139130204914
1761383309964610000,1.725610107421875,2.706631532803178,1.7258762826234102,-0.19092830311246214
1761383309974680000,1.73568017578125,2.8350281956136225,1.7108014630883932,-0.015223616888560354
1761383309984750000,1.74575,2.8298469935834407,1.563747446081042,0.16046724173938853
1761383309994820000,1.755820068359375,2.6570821967363356,1.3887196727380156,0.12768403929537162
1761383310004890000,1.76589013671875,2.554547120413184,1.3417241128072142,0.04987443983536213
1761383310014960000,1.775960205078125,2.5759599107980726,1.3543907021567225,-0.08509138136547989
1761383310025030100,1.786030029296875,2.475961074954271,1.329180565315485,-0.35507768569700415
1761383310035100000,1.796099853515625,2.3187129961907864,1.247901627510786,-0.7278926881365477
1761383310045170200,1.806170166015625,1.8419249205142258,1.1230237864762544,-1.0082526211753486
1761383310055240200,1.816240234375,1.295576986399293,0.9969614118322729,-1.1256792694211006
1761383310065310000,1.82631005859375,1.2209382172614336,0.8344041207447648,-1.314039548676461
1761383310075380000,1.8363798828125,1.282271514624357,0.6811459884002804,-1.4418340078100562
1761383310085450200,1.8464501953125,1.1947142272025346,0.6596347060769796,-1.485176890452206
1761383310095520000,1.85652001953125,0.978751509141922,0.655571986682713,-1.408948806296289
1761383310105590000,1.866590087890625,0.47099604827165603,0.6415326476752757,-1.1948112578362227
1761383310115659000,1.876658935546875,0.2061748990178108,0.7047716325290501,-1.0885579647075385
1761383310125729000,1.88672900390625,0.09855331321060656,0.8893407028079032,-1.0397994136922062
1761383310135799300,1.89679931640625,-0.08625497265160083,1.0037481493629514,-0.9263453223392367
1761383310145869000,1.906869140625,-0.17616203806996344,1.169308275528252,-0.8165164357461034
1761383310155939000,1.91693896484375,-0.09125321933031082,1.3755389963865279,-0.7340303141087293
1761383310166009000,1.927009033203125,0.12228548645377159,1.5534782732620835,-0.532549198930338
1761383310176079000,1.9370791015625,0.49527650304734705,1.8082206577025353,-0.33032515643015503
1761383310186149000,1.947149169921875,0.8581254803329705,2.0908695784613487,-0.34820246616527434
1761383310196219100,1.95721923828125,0.9265022664666175,2.464303662647307,-0.27980313940625634
1761383310206289200,1.9672890625,0.6321808819621801,2.749363590070605,-0.1750187497863546
1761383310216359200,1.977359130859375,0.15887772579193113,2.647821616438031,-0.11095474881790578
1761383310226429000,1.987428955078125,-0.05327624763548374,2.437080870809406,-0.008630904092639684
1761383310236499000,1.9974990234375,0.1662953085720539,1.9997529911227523,0.06635879737474024
1761383310246569200,2.0075693359375,0.4890700496226549,1.317254419069737,0.22317849465832112
1761383310256639000,2.017638916015625,0.5636193869113921,0.3489223779376596,0.22100071222782133
1761383310266708200,2.027708251953125,0.6330348684430122,-0.5712223361957818,0.113356220469065
1761383310276778000,2.037778076171875,0.3348065396279096,-1.1639194951619953,0.19768113837353884
1761383310286848000,2.047847900390625,-0.5986468611508607,-1.5733143158495426,0.41883163433559234
1761383310296918300,2.057918212890625,-1.5574240882784127,-1.8190902806326745,0.5261856552477926
1761383310306988000,2.067988037109375,-2.3832658401221036,-1.9679333730138837,0.5317728077303618
1761383310317058000,2.07805810546875,-3.2495705352574586,-2.188764573893696,0.45446061813216654
1761383310327128000,2.088128173828125,-4.082183973193168,-2.1788576585158705,0.2905560040889308
1761383310337198000,2.098197998046875,-5.130153395467996,-1.902616558972746,0.17911949963606894
1761383310347268000,2.10826806640625,-6.826729349327087,-1.5739676651917398,0.2749974196249619
1761383310357338000,2.118338134765625,-8.667068461954592,-1.2883141557894646,0.5600590275486931
1761383310367408000,2.128408203125,-9.570418985414504,-0.5631801552439109,1.2768047736510633
1761383310377478100,2.13847802734375,-10.70285766596794,0.007328018500260077,1.9576541171923278
1761383310387548200,2.148548095703125,-11.956445522421598,-0.8131327846571803,2.2587457264840602
1761383310397618200,2.1586181640625,-12.593128976500033,-1.7331994651183484,2.155372738032043
1761383310407688200,2.168688232421875,-12.718097418427467,-1.9917504480615258,1.611174967688322
1761383310417758000,2.178758056640625,-13.953355837464331,-2.0660889190785587,1.1232666553214192
1761383310427828000,2.188827880859375,-15.34773280531168,-2.313719864078611,0.7421694160964339
1761383310437897200,2.198897216796875,-16.08278427916169,-2.114421280571073,-0.09774165890100411
1761383310447967000,2.208967041015625,-14.83050808982849,-0.9464568208672106,-0.3456760529601946
1761383310458037200,2.219037353515625,-13.89932964824438,0.1662530220665969,-0.6603489918261766
1761383310468107000,2.22910693359375,-13.152169218927622,0.9296068814184516,-0.9251273979168385
1761383310478177000,2.239177001953125,-12.992892849206923,1.72424458976835,-0.7632493212651461
1761383310488247000,2.2492470703125,-13.908024995875358,2.4378321275681256,-0.028921494647720827
1761383310498317000,2.259317138671875,-14.473898299193381,3.2522581669062376,1.214897987249121
1761383310508387000,2.269386962890625,-13.972958363556861,3.4697295359641314,2.477716394189
1761383310518457000,2.27945703125,-13.140172491663694,3.25689751714468,3.526942538526654
1761383310528527000,2.289527099609375,-12.33654724780321,2.4044828156739473,3.6759500276893373
1761383310538597000,2.29959716796875,-9.199484901350736,1.5485373097285628,2.812052685956657
1761383310548667100,2.309667236328125,-6.407547659444808,0.3671087536219507,1.7843457149878144
1761383310558737200,2.319737060546875,-4.361776575121283,-0.6444237660069019,0.950450493613258
1761383310568807200,2.32980712890625,-3.979305782520771,-1.4875690462857485,0.5052848329730332
1761383310578877200,2.339877197265625,-2.7332980059325696,-1.555759954458475,0.4799379910748452
1761383310588947000,2.349947021484375,-1.8274205943435429,-1.5893308001488446,0.6242093185611068
1761383310599017200,2.360017333984375,-1.2739309717804193,-1.7587366419568657,1.0814617959015072
1761383310609087000,2.3700869140625,0.15691665485203266,-2.326635167492181,1.0203021015398204
1761383310619156200,2.38015625,2.4981711531966924,-2.526342770192027,0.233276840955019
1761383310629226200,2.390226318359375,4.8603573804110285,-1.9316816176764666,-0.8156120342522859
1761383310639296000,2.4002958984375,6.2918234312027685,-1.5363712172470987,-1.3687166030205786
1761383310649366000,2.410365966796875,7.267828271985054,-1.5010359922327101,-2.0112886767461893
1761383310659436000,2.42043603515625,7.025223630714416,-1.115355736066401,-2.3480108407370746
1761383310669506000,2.430506103515625,5.142900648838281,-0.41722887531407177,-2.1429265134349462
1761383310679576000,2.440576171875,4.525910321745276,0.5402566315025091,-1.8709546156436203
1761383310689646000,2.45064599609375,4.914959908214211,1.8693496646650134,-1.4000482914820314
1761383310699716000,2.460716064453125,5.887284599179029,3.2545500772356983,-0.568188886784017
1761383310709786000,2.4707861328125,8.642517373543978,4.362358174401521,0.19077756953015923
1761383310719856000,2.480856201171875,12.206888602232933,4.579610055489838,0.7262218323148787
1761383310729926100,2.490926025390625,14.781647905069589,3.824034556788206,1.4409288756638765
1761383310739996200,2.50099609375,15.779633691513537,2.9030779417499897,1.8907643547460435
1761383310750066000,2.51106591796875,15.757833363115786,2.675413679979741,2.2251574912674723
1761383310760136200,2.52113623046875,14.746533337068557,2.292097960987687,2.0842717876315118
1761383310770206200,2.531206298828125,13.783075258648395,2.149724064620584,1.644317943355441
1761383310780276000,2.54127587890625,12.478817537665366,2.224385922373086,1.120669405369833
1761383310790346200,2.55134619140625,11.148563790160416,2.0656836992785332,0.6478999907501042
1761383310800415000,2.5614150390625,10.593871221548318,1.6201964785337448,0.157519114257209
1761383310810485200,2.5714853515625,10.03749873702526,1.1436181000851093,-0.19641276240553707
1761383310820555300,2.58155517578125,9.314999870756267,0.5695844327956437,-0.30318184130294246
1761383310830625000,2.591625,8.541770349681377,0.21961218047887085,-0.21734586124839259
1761383310840695000,2.601695068359375,8.115238881558179,0.041446255240589376,-0.15116041114656253
1761383310850765000,2.61176513671875,7.768991494983434,0.09179156399071216,-0.05597076568277552
1761383310860835000,2.6218349609375,7.509250425472855,0.3573967032290995,0.11251258185231126
1761383310870905600,2.631905517578125,7.352370595499873,0.6973197090879082,0.14678334683980793
1761383310880975600,2.6419755859375,7.165158171105384,1.1686309607885776,0.030251679238979704
1761383310891046000,2.6520458984375,7.144802196297049,1.653644136235863,-0.2711814232670702
1761383310901115600,2.66211572265625,7.185129530510306,2.2291414463371035,-0.7232744537513702
1761383310911185700,2.672185546875,7.2296361962348215,2.6204592699989675,-1.0485494871851055
1761383310921256000,2.682255859375,7.332524323779344,2.8720278467088938,-1.2700883248776196
1761383310931325700,2.69232568359375,7.106819379383325,2.8818177115783095,-1.3599587115474046
1761383310941395700,2.702395751953125,6.844752497273683,2.6633245982572435,-1.342077894680947
1761383310951465700,2.7124658203125,6.709925509154796,2.4398130722522735,-1.2817222101785242
1761383310961535700,2.72253564453125,6.431642236259579,2.2364780728355047,-1.0836279609594492
1761383310971605800,2.732605712890625,6.437882591953874,2.0703680577024817,-0.7239147244162857
1761383310981675500,2.742675537109375,6.54755058889687,1.533167598900199,-0.1451110297134146
1761383310991745800,2.752745849609375,6.472102841463685,0.8621317933648824,0.17748013493120668
1761383311001814800,2.762814697265625,5.060054023325443,0.5133826531022787,0.22898531777355818
1761383311011884800,2.772884765625,2.862140658944845,-0.5026458627715706,0.6084102764047682
1761383311021954800,2.782954833984375,1.7482348294258117,-2.121746655023098,0.8326776622783392
1761383311032024600,2.793024658203125,0.7939362090170383,-3.6710102331995964,0.683770418619737
1761383311042094600,2.803094482421875,-0.32105507765114305,-4.128756923797726,-0.2949127014610916
1761383311052164900,2.813164794921875,-2.0370137773722408,-4.72431195641309,-1.299274964134395
1761383311062234600,2.823234619140625,-4.100125288075208,-5.47200225482285,-2.4627786450371145
1761383311072304600,2.8333046875,-5.433122781330347,-4.936508307677507,-4.038470795933902
1761383311082375000,2.843375,-6.257136148703098,-4.693396301406621,-5.361595422211289
1761383311092444700,2.853444580078125,-7.273406364378332,-5.114540231272578,-5.5212663442075245
1761383311102514700,2.8635146484375,-8.090892960330843,-5.2632104513049125,-4.310689361962676
1761383311112584700,2.873584716796875,-7.632320924824476,-5.871160562852024,-2.35648640813753
1761383311122654700,2.88365478515625,-7.089103689950704,-6.171992936685681,-0.26521796655170615
1761383311132724700,2.893724853515625,-8.055972453597187,-5.289019430822134,1.6355778797999023
1761383311142794500,2.90379443359375,-9.173990394610167,-4.068374059027433,3.153947430279851
1761383311152864800,2.91386474609375,-10.205970805114507,-2.991629793167114,3.9338305640250444
1761383311162934800,2.923934814453125,-11.692630919861793,-2.432150867061317,4.081600912608206
1761383311173004500,2.934004638671875,-12.8144558519423,-1.980223968657851,3.5362355597898363
1761383311183074800,2.94407470703125,-13.151043429768084,-1.0064031939163804,2.2549521794199943
1761383311193143600,2.9541435546875,-13.617011420744657,-0.03339651203677058,1.2095141753189265
1761383311203213600,2.964213623046875,-13.166684066492317,0.6354068582713603,0.46547600620854646
1761383311213283800,2.974283935546875,-11.22569262254834,0.9919405149303376,-0.2927934077521786
1761383311223353600,2.984353515625,-8.985772008043527,1.2505980269879102,-0.9566044131331145
1761383311233423600,2.994423583984375,-7.307440151405334,0.8931235823474823,-1.437194365310669
1761383311243494000,3.004493896484375,-5.356915739962458,0.5000798116758466,-1.8274349151298404
1761383311253563600,3.014563720703125,-3.6408424739509817,0.440707439122349,-2.0777173975519836
1761383311263633700,3.024633544921875,-3.3771336698532104,0.39440322245657444,-1.856144438394159
1761383311273704000,3.034703857421875,-3.6319764459282156,0.7235887073323131,-1.287526512543112
1761383311283773700,3.044773681640625,-2.7891601784080264,1.0932621238104998,-1.080334326241538
1761383311293843700,3.05484375,-2.025402250033617,0.49681364948675033,-1.041461209424585
1761383311303913700,3.064913818359375,-1.1139560984015464,0.07744856586158275,-1.1098897988107055
1761383311313983700,3.074983642578125,-0.4378834677428007,-0.2983285743191838,-1.0883572545036673
1761383311324053800,3.0850537109375,0.33068098413050173,-0.1619498267136514,-0.6689565150432288
1761383311334123500,3.09512353515625,0.7529594709843397,0.16121829756870865,-0.1915969596216455
1761383311344193800,3.10519384765625,0.8901146097898482,0.443082497690618,0.2740566864424385
1761383311354263800,3.115263916015625,1.2487988686114548,0.6941337725281715,0.7027322356559336
1761383311364333600,3.12533349609375,2.0497323891699315,1.0525801309406757,0.9740976189214736
1761383311374403800,3.13540380859375,2.8759073184907433,1.2403279773861169,0.9265057005327194
1761383311384472600,3.14547265625,3.5676468893587585,1.17291185297817,0.8413948564149439
1761383311394542600,3.15554248046875,3.841238205045461,1.1254475064918399,0.5268957032132894
1761383311404612900,3.16561279296875,3.671885262468457,1.2829367005348205,0.15126845636460928
1761383311414682600,3.1756826171875,3.580502279278636,1.5321362100258469,-0.08331961331944912
1761383311424752600,3.185752685546875,3.677478552430868,1.6352555159777402,-0.16789408553820104
1761383311434823000,3.195822998046875,3.674675769969821,1.61079648976475,-0.1761205004831776
1761383311444892700,3.205892578125,3.552394375169277,1.6372095726549625,-0.20082926367353646
1761383311454962700,3.215962646484375,3.3318454983621835,1.8404878734484313,-0.32320100363865495
1761383311465032700,3.22603271484375,3.149213972017169,1.9929075091421602,-0.4525595702838152
1761383311475102700,3.236102783203125,3.0255273865938186,2.25254482601732,-0.627381884182617
1761383311485172700,3.2461728515625,2.756587111583352,2.7658985452860594,-0.9665504184123128
1761383311495242800,3.25624267578125,2.6466607559651134,3.248017752857506,-1.2703515058584511
1761383311505312800,3.266312744140625,3.1117016952246424,3.530461360302567,-1.4704299876973033
1761383311515382800,3.2763828125,3.9110114139735694,3.2563819688379763,-1.3677254000261425
1761383311525452500,3.28645263671875,4.560072703588008,2.4690876820534466,-1.03764238178879
1761383311535522800,3.296522705078125,4.8831046342700715,2.4735642429456113,-0.9375473920941352
1761383311545592800,3.3065927734375,4.451194980239868,1.6060127626195548,-0.5523872142791748
1761383311555662600,3.31666259765625,3.9342397293478246,-0.037974341346323486,0.07669336358010768
1761383311565732600,3.326732666015625,3.4630957970380782,-0.294572144395113,0.4887156832270324
1761383311575803000,3.336802978515625,2.6335738953769203,-0.2560086049839854,0.8235710304327308
1761383311585871600,3.34687158203125,2.3090911813646553,-0.585249911700189,1.086157114110887
1761383311595942000,3.35694189453125,2.2313410022079943,-0.8741139075815677,1.251779053466022
1761383311606011600,3.36701171875,1.8511404926270245,-0.9236723037376999,1.3714771537750958
1761383311616081700,3.37708154296875,1.2110633044570684,-0.8167749405518173,1.4283641392536461
1761383311626151700,3.387151611328125,0.607947188937664,-0.8124535702213644,1.6292026456795632
1761383311636221700,3.3972216796875,0.048558571463823315,-0.8065060599938034,1.5682374509766697
1761383311646291700,3.407291748046875,-0.6239315245330334,-0.7234624506041407,1.3587304849267006
1761383311656361700,3.41736181640625,-1.2997995725303888,-0.6402735875248908,1.0946892340041696
1761383311666431700,3.427431640625,-1.7849743682801722,-0.6221773743420839,0.5833573028866201
1761383311676501800,3.437501708984375,-1.9020453349560498,-0.5453849343016743,0.30846732569150626
1761383311686571800,3.44757177734375,-2.019077723187208,-0.44916181760430335,0.17108130073957145
1761383311696641800,3.457641845703125,-2.099062529528141,-0.388448990227282,0.020435323654860258
1761383311706711800,3.4677119140625,-1.764746988287568,-0.25512159301638604,-0.11398008798845112
1761383311716781600,3.477781494140625,-1.0682441485404968,0.10056816016435623,-0.38974600776787843
1761383311726851600,3.4878515625,-0.2745809112459421,0.5490571930736303,-0.7597394865132868
1761383311736921900,3.497921875,0.31904256878495213,0.6356210855439305,-1.0887797907646746
1761383311746991600,3.50799169921875,0.5253489852279425,0.08734510597586631,-1.2544593785911797
1761383311757061600,3.5180615234375,0.48975510927736754,-0.7617816598653793,-1.3999484843693673
1761383311767132000,3.5281318359375,0.7401298000276089,-1.0922507548108695,-1.468474908106774
1761383311777200600,3.53820068359375,1.075741226297617,-1.0402519797652958,-1.6364004482291639
1761383311787271000,3.54827099609375,1.2313210795879364,-0.9425038454577326,-1.6856484632618725
1761383311797340700,3.558340576171875,1.285554189556837,-0.862384306821227,-1.6756515315130351
1761383311807410700,3.56841064453125,1.4311416411429643,-0.6889665990233421,-1.6684592819213866
1761383311817480700,3.578480712890625,1.3219845163315533,-0.5680418795287608,-1.608806484991312
1761383311827550700,3.58855078125,0.9396434875905513,-0.45886356579884885,-1.482892286646366
1761383311837620700,3.598620849609375,1.1189777259558438,-0.18698519150987267,-1.511712138417363
1761383311847690800,3.608690673828125,1.2992103744655847,0.16302607764303684,-1.5206033008813857
1761383311857760800,3.6187607421875,1.3574275856345892,0.35257965833619237,-1.333805887028575
1761383311867831000,3.6288310546875,1.5878391002863645,0.5203294035002589,-1.1494659493304789
1761383311877900800,3.63890087890625,1.962103790077567,0.6883898220486938,-1.0618023519899695
1761383311887970800,3.648970703125,2.4714620099693536,0.824734521254152,-0.9817893424678593
1761383311898041000,3.659041015625,2.930871080821752,1.02247082388103,-0.9347267817154526
1761383311908110800,3.66911083984375,3.2740725238293407,1.2566218173220753,-0.9757339879516511
1761383311918180900,3.679180908203125,3.425803300476074,1.4546166247546672,-0.9651313453946262
1761383311928251000,3.6892509765625,3.4951205823302267,1.5579732465937732,-0.8323856205292045
1761383311938321000,3.69932080078125,3.696275607359409,1.6748752864435315,-0.7346363171778619
1761383311948391000,3.709390869140625,3.8781981086522337,1.8249664791896938,-0.6564494271043688
1761383311958461000,3.7194609375,4.1006344066411256,1.8871322818540035,-0.6006628040831535
1761383311968530000,3.729530029296875,4.3026621228516095,1.7921126957274973,-0.5669080531932413
1761383311978599700,3.739599609375,4.245373132443428,1.5392004493236542,-0.4773252512931823
1761383311988670000,3.749669921875,4.101488393121958,1.347568308790773,-0.4177415010113269
1761383311998740000,3.759739990234375,4.198286387097835,1.3248610946811734,-0.5534675203291699
1761383312008809700,3.769809814453125,4.098421991288662,1.2535443095728753,-0.6729214731514453
1761383312018880000,3.7798798828125,3.855140473669767,0.9419275068745017,-0.6498404572933912
1761383312028950000,3.789949951171875,3.5496143890619276,0.6100755792684853,-0.49617421907205134
1761383312039019800,3.800019775390625,2.8852374568939205,0.36166853532940146,-0.24947945894356816
1761383312049089800,3.81008984375,1.924893126580119,0.10736892622038721,0.03292217252328992
1761383312059160000,3.82016015625,1.088966034051776,-0.12429010427445172,0.39645496735461055
1761383312069229800,3.830229736328125,0.03878419642448425,-0.6066141867682338,1.2790069598704576
1761383312079299800,3.8402998046875,-1.522040640208125,-0.7013608011722564,2.050293822444975
1761383312089369900,3.850369873046875,-3.0691490861773487,-0.5061950796857476,2.466774144414067
1761383312099439900,3.86043994140625,-4.423833510583639,-1.0391941412754355,2.8152374534726143
1761383312109510000,3.870510009765625,-6.137546477204561,-1.357432700201124,3.040254123343527
1761383312119580000,3.880579833984375,-7.947598003596067,-0.8520531746819615,3.0787934050962327
1761383312129650000,3.89064990234375,-9.323997416204213,-0.11121493412405252,2.917620554104447
1761383312139720000,3.900719970703125,-10.279061760288476,0.1583697762697935,2.78488323174119
1761383312149789700,3.910789794921875,-11.370975538229942,-0.5193181806311011,2.9000945420250295
1761383312159859000,3.92085888671875,-12.555244943785667,-1.5599676352813838,3.038939825874567
1761383312169928700,3.9309287109375,-13.962317727077007,-2.2544484676815566,2.9597298032984134
1761383312179999000,3.9409990234375,-15.31125162513256,-2.7836177418500183,2.6148309087231754
1761383312190069000,3.951069091796875,-16.14043567314148,-2.8913249601140616,2.1761090904600917
1761383312200138800,3.961138671875,-17.082141353958843,-2.9857638237431643,2.2458831761710343
1761383312210208800,3.971208740234375,-17.853774545753,-3.3981218050852418,2.55049842954427
1761383312220279000,3.981279052734375,-17.65547081850171,-3.489870698978007,2.824502709946036
1761383312230348800,3.991348876953125,-16.673123330694438,-3.567767593128979,2.792745927940309
1761383312240418800,4.001418701171875,-15.220281314396857,-3.0645316555097697,2.3016341433569787
1761383312250489000,4.011489013671875,-13.89280404586792,-1.9800996116258203,1.578748323597014
1761383312260558800,4.021558837890625,-12.814835791170596,-0.948867389140278,1.0294180126704275
1761383312270628900,4.03162890625,-13.120337325859069,0.413266949413158,1.4043153012767433
1761383312280699000,4.041698974609375,-13.68095694643259,1.7304288313612342,2.029090729288012
1761383312290769000,4.051768798828125,-12.80337682404518,2.3987208911463616,2.2338665751628577
1761383312300839000,4.0618388671875,-10.011333199155331,2.5714675678148864,2.0314665185086427
1761383312310908700,4.07190869140625,-5.854782259503007,2.385476794169843,0.6823304489444941
1761383312320979000,4.08197900390625,-1.4038397927194832,1.8365549179136753,-0.8227499963734298
1761383312331049000,4.092049072265625,3.2432144442290065,1.7348063157930969,-1.8598147974699735
1761383312341118700,4.10211865234375,6.048278878733515,2.9562556974470615,-1.9458245631888507
1761383312351188000,4.11218798828125,6.900477891626954,2.9293492780819532,-2.52464911801666
1761383312361257700,4.1222578125,7.639973485404252,3.164813984470069,-2.2239362789094446
1761383312371328000,4.132327880859375,8.187596261760593,4.066007037635147,-0.9839096956226974
1761383312381398000,4.14239794921875,7.962910723540187,3.6160844647914168,0.2704777137108147
1761383312391467800,4.1524677734375,7.957982034966349,3.0493454845547676,1.316554307976365
1761383312401537800,4.162537841796875,8.84286985001862,2.803447062435746,1.7010297183975576
1761383312411608000,4.172608154296875,10.441793823421001,2.5634298073098063,1.5355490872092543
1761383312421677800,4.182677734375,11.05370407077074,2.614278243276477,1.2901837490536272
1761383312431747800,4.192747802734375,10.685492689669132,2.6641552038624883,0.5860214805945754
1761383312441818000,4.202818115234375,12.139898886543511,2.6866365002617236,0.9873950535204261
1761383312451887900,4.212887939453125,14.127742098033428,1.5785308814540504,1.318242845585197
1761383312461958000,4.2229580078125,13.55961955448389,1.5732161161720752,0.6698129126768558
1761383312472028000,4.23302783203125,13.948623548245429,2.095349792615324,-0.8301721822634339
1761383312482098000,4.243097900390625,14.83526142183542,1.6816662617579101,-1.38671110939458
1761383312492168000,4.25316796875,13.691730853903293,1.1339397327661513,-1.2467717466980217
1761383312502237700,4.26323779296875,12.50683951705694,0.35640345440804955,-1.853814095750451
1761383312512308000,4.273307861328125,12.274922274017333,0.41063524920269845,-3.066944269609451
1761383312522378000,4.2833779296875,12.324344768834113,1.579641473044455,-4.497429492670298
1761383312532447000,4.293447021484375,11.438504183101653,2.2785760699830946,-5.156809347203374
1761383312542517000,4.30351708984375,11.045997734177112,2.260264022092521,-5.26071571187973
1761383312552586800,4.313586669921875,10.624543423187733,2.4803280379921198,-5.2093204556852575
1761383312562656800,4.32365673828125,10.286692109036444,2.455356386081874,-4.77094540503323
1761383312572727000,4.33372705078125,10.011784450054169,2.625355517607927,-4.136437249167264
1761383312582796800,4.343796875,10.126446602022646,2.7170605723589656,-3.3800872589617965
1761383312592866800,4.35386669921875,10.646669914799928,2.681768309703469,-2.407345803889632
1761383312602937000,4.36393701171875,10.895118605923653,2.4038725748211145,-1.3216384793728588
1761383312613006800,4.3740068359375,10.489002149319647,2.0120760277315974,-0.32233408461101354
1761383312623076900,4.384076904296875,9.624123687595128,1.941808605545759,0.43560690111294387
1761383312633147000,4.39414697265625,8.687061448669432,1.8946976025417446,0.7916463445141911
1761383312643217000,4.404216796875,7.942043876600265,1.6234131024926899,1.169926845818013
1761383312653287000,4.414286865234375,7.121779632627963,1.3163833353236316,1.572277227886766
1761383312663356700,4.424356689453125,6.161633455234766,1.0378305978372693,1.940383833439648
1761383312673427000,4.434427001953125,5.126663799786567,0.5221244702234864,2.235504259367287
1761383312683497000,4.4444970703125,3.6831326326698064,-0.07338292385786771,2.434836599013954
1761383312693566700,4.454566650390625,1.7423013477236031,-1.411104230764508,2.962627570566535
1761383312703636000,4.464635986328125,-0.030830607071518898,-3.217081055063009,3.180779323104024
1761383312713705700,4.474705810546875,-1.6742302665382622,-5.507412006378173,3.1897762840300796
1761383312723775700,4.484775634765625,-3.319848771098256,-7.58367409055531,2.3653799086891114
1761383312733846000,4.494845947265625,-4.968817170608044,-8.69369051142037,0.5196877080632374
1761383312743915800,4.504915771484375,-6.2455065011858935,-7.128685174232721,-2.0428917294949294
1761383312753985800,4.51498583984375,-7.236245969763398,-4.678845798006654,-4.870663670369982
1761383312764056000,4.52505615234375,-9.012793285959958,-3.825567173182964,-5.352843375957012
1761383312774125800,4.535125732421875,-13.02943481966257,-2.705693082909286,-3.5495661660060285
1761383312784195800,4.54519580078125,-15.12518077198863,-2.6846263294830917,-1.1586632551342249
1761383312794266000,4.55526611328125,-15.808150176423787,-1.3119506135731935,0.3231018541131168
1761383312804335900,4.5653359375,-15.771659643894433,0.32438305303007364,1.7080083252385259
1761383312814406000,4.575406005859375,-15.786853705894947,0.4140875816136598,2.7187545167952774
1761383312824476000,4.585475830078125,-15.286535701549052,-0.016231003832817077,2.884121896867454
1761383312834546000,4.5955458984375,-14.3387989238739,-0.4535786111332476,2.574282332974672
1761383312844616000,4.605615966796875,-13.341216457533836,-0.7497954539954662,2.1091043233320117
1761383312854685700,4.615685791015625,-12.805191179990768,-1.0650639110691844,1.888014763776958
1761383312864756000,4.625755859375,-12.421284217107296,-1.0290078974995762,1.4932853781059383
1761383312874828800,4.635828857421875,-11.526901428478956,-0.7081308067638427,0.7324737323164939
1761383312884898800,4.64589892578125,-9.896918884468079,-0.7328796097036451,-0.32782764052599667
1761383312894967800,4.6559677734375,-8.207327382668852,-0.12359342724718153,-1.5194158446624875
1761383312905037800,4.666037841796875,-6.9306129176497455,0.18319675901234148,-2.4798989989250897
1761383312915107800,4.67610791015625,-5.952100477960705,0.42897820368818934,-3.0367411467865106
1761383312925177900,4.686177734375,-4.8970600943863385,0.77235025402233,-3.4431735374718904
1761383312935248000,4.696247802734375,-3.85138608957231,0.68292790338099,-3.6115830617189406
1761383312945317600,4.706317626953125,-2.487557989245653,0.8732011766508221,-3.7769314448297022
1761383312955388000,4.716387939453125,-1.2366846524477004,1.098998256309703,-3.7120343175053594
1761383312965458000,4.7264580078125,-0.09368716847896576,1.047551196862757,-3.3432702709570523
1761383312975527700,4.736527587890625,1.0891793845415114,0.9425475384689866,-2.9458988463446496
1761383312985598000,4.746597900390625,2.2831109369337557,0.9287912541866302,-2.491289284728467
1761383312995668000,4.75666796875,3.4301638337731357,0.8915070870615541,-2.0313298865169287
1761383313005737700,4.76673779296875,4.351539843267203,0.9912849736310541,-1.582586294324696
1761383313015807700,4.776807861328125,5.211337640726566,1.1073775967940687,-1.1827348894648253
1761383313025878000,4.7868779296875,6.0802463808804745,1.320410983404517,-0.8476849695350974
1761383313035947800,4.79694775390625,6.594702216172218,1.4987164632439613,-0.4850081339459866
1761383313046017800,4.807017822265625,6.859878170213103,1.736848343014717,-0.16312347360290586
1761383313056087800,4.817087890625,7.0873320041030645,1.8790856073901057,0.1143552779763937
1761383313066157800,4.82715771484375,6.775582514935731,1.8461521828204392,0.46857283971272407
1761383313076227000,4.83722705078125,6.231412509381771,1.7767124436303972,0.7411500099208206
1761383313086294800,4.847294677734375,5.593007053816319,1.7413465312168002,0.7621022701218724
1761383313096364800,4.85736474609375,5.029695709940791,1.7218211620137094,0.6562126226738095
1761383313106434800,4.867434814453125,4.625351523706317,1.7056386734977365,0.44126266185231505
1761383313116504800,4.8775048828125,4.359206432372331,1.69683840418756,0.21738785549290476
1761383313126574800,4.887574951171875,3.9683518423080444,1.671720621804893,0.12227116566747426
1761383313136644900,4.897644775390625,3.5763591881245373,1.5756714003697037,0.026446619833633302
1761383313146715000,4.90771484375,3.261905116173625,1.5795084943145512,-0.21168613671995698
1761383313156785000,4.917784912109375,2.850080218794942,1.7020485400512813,-0.3975450276136398
1761383313166855000,4.92785498046875,2.099284647846222,1.8102707221001386,-0.44454427733886986
1761383313176925000,4.937925048828125,1.540690980142355,1.6290072692379354,-0.4824596915721893
1761383313186994700,4.94799462890625,1.2381594011753796,1.1704232510328292,-0.5313839910758659
1761383313197065000,4.95806494140625,0.9782003049999475,0.6711673229604959,-0.7996893657162785
1761383313207133700,4.9681337890625,0.8627589853525162,0.4219192981526255,-1.2127839177045971
1761383313217204000,4.978203857421875,0.6655307783782481,0.4272548139616847,-1.4169346904836595
1761383313227274000,4.98827392578125,-0.04719663546085357,0.18694179075956344,-1.2498267503544687
1761383313237343700,4.99834375,-0.5540817432373761,-0.13351619778126478,-0.9787595463179052
1761383313247413800,5.008413818359375,-0.8177467081934213,-0.3313020386382937,-0.726166156604886
1761383313257484000,5.018484130859375,-1.2767594732046126,-0.5661386762559414,-0.3922998204365372
1761383313267553800,5.0285537109375,-1.9515484937936067,-0.7579165088698268,-0.11692589564938098
1761383313277623800,5.038623779296875,-2.564821261668205,-0.8197267760947347,-0.057677916660532354
1761383313287693800,5.04869384765625,-3.114925917968154,-0.8446922905251383,-0.20041755933379754
1761383313297763800,5.058763916015625,-3.4522371338933704,-0.9366633027359843,-0.43574448295272883
1761383313307833900,5.068833740234375,-3.51880014860332,-1.002584220150113,-0.6914199835248291
1761383313317904000,5.07890380859375,-3.539263090917468,-1.032870345081389,-0.9099586895532905
1761383313327974000,5.088973876953125,-3.6834798386722802,-0.9775751588389276,-1.0563125954672694
1761383313338044000,5.0990439453125,-3.647349371626973,-0.9346756360501051,-1.1792496046323329
1761383313348113700,5.10911376953125,-3.4759102704256772,-0.968521791550517,-1.2437595592699944
1761383313358184000,5.119183837890625,-3.0422394519418474,-1.206793079791963,-1.1937522503025828
1761383313368254000,5.12925390625,-2.5802795275628565,-1.426425426276028,-1.2228813141532242
1761383313378323700,5.13932373046875,-2.444040334558487,-1.3165750585034488,-1.3618635222554205
1761383313388393000,5.14939306640625,-2.311874674603343,-1.0636161964789033,-1.56959398015216
1761383313398462700,5.159462646484375,-1.9972469996511935,-0.9963725060284138,-1.7743572588063776
1761383313408532700,5.16953271484375,-1.017040031003952,-0.39714375333637,-1.8881508112467824
1761383313418603000,5.17960302734375,-0.462405914580822,-0.8996051994517446,-1.6108090569853781
1761383313428672800,5.1896728515625,-0.46710897770524024,-1.1261959867715834,-1.2860136237621307
1761383313438742800,5.19974267578125,0.27335750693082805,-0.8311442421659827,-0.9756915370494127
1761383313448813000,5.20981298828125,0.9272393485695123,-1.1951155014798045,-0.2365275133140385
1761383313458882800,5.2198828125,1.268006257906556,-0.9734224230736493,0.37912491623871025
1761383313468952800,5.229952880859375,1.4990215836703777,-0.6856371623396873,0.824811458947882
1761383313479022800,5.24002294921875,1.516171455913782,-0.15032441698014734,0.871534485547617
1761383313489092900,5.2500927734375,1.3213695993036032,0.6307613705530762,0.6808171948373317
1761383313499163000,5.260162841796875,1.434821790960431,1.1291098283916712,0.4734891437290236
1761383313509232600,5.270232666015625,1.7859528579235076,1.2596183687895535,0.3133474258832633
1761383313519303000,5.280302978515625,1.7270669537127017,1.1988973581060767,0.24211422740519045
1761383313529373000,5.290373046875,1.484652866578102,1.0564192707121371,0.2724247743916698
1761383313539442700,5.300442626953125,1.3112544480025767,1.1570154879271983,0.5097743264120072
1761383313549512000,5.310511962890625,1.3442764276385306,1.5187521200567482,0.8498850368626415
1761383313559581700,5.320581787109375,1.384270584374666,1.7343571107208728,1.0257856475174427
1761383313569652000,5.33065185546875,1.4663269362926483,1.672904570892453,1.0056672808572649
1761383313579722000,5.340721923828125,1.6957915254831313,1.5517024957612156,0.893761149598658
1761383313589791700,5.350791748046875,1.8257956234902142,1.2939292191922664,0.6030343555200844
1761383313599861800,5.36086181640625,2.0905553979456424,1.1442694036006926,0.5395246639661491
1761383313609932000,5.37093212890625,2.6442232996851205,1.0181976766064762,0.6498186838530003
1761383313620001800,5.381001708984375,2.839486344066262,0.7585860786944627,0.8598866447865963
1761383313630071800,5.39107177734375,2.481234046921134,0.6149123517751693,1.1874968431696296
1761383313640142000,5.40114208984375,2.5245213999837635,0.516629087677598,1.2552603197105228
1761383313650211800,5.4112119140625,2.6572406021684407,0.4715753094643354,1.2378577878803014
1761383313660281900,5.42128173828125,2.402626958674192,0.40653059036284683,1.2081875298250466
1761383313670351600,5.4313515625,2.1153075618863104,0.300383461022377,1.0560512411173433
1761383313680422000,5.441421875,1.5064748222857713,0.23070114524811505,0.9199627086300403
1761383313690492000,5.451491943359375,1.0887205348581075,0.1783145399287343,0.7728922519445419
1761383313700561700,5.461561767578125,0.8741840502083301,0.07659984007775783,0.717773225986585
1761383313710632000,5.4716318359375,0.38472470900714395,0.0274079391464591,0.6986231929019093
1761383313720703700,5.481703857421875,0.046126960402727124,-0.009115618869662284,0.6905450273212045
1761383313730774000,5.49177392578125,-0.04439034586846828,-0.049211190153658387,0.80117390518561
1761383313740843800,5.50184375,0.005679214680194855,-0.052639411036670206,0.8631095523558556
1761383313750913800,5.511913818359375,0.1711065082460642,-0.031604221792519094,0.8108985958643257
1761383313760982800,5.521982666015625,0.34170331340432164,0.019796879620850086,0.686460169160366
1761383313771052800,5.532052734375,0.4731190317749977,0.05589052178710699,0.3796754627935588
1761383313781122800,5.542122802734375,0.6515256339013576,-0.10017097754031419,0.01978065913841128
1761383313791192800,5.55219287109375,0.7751637040078639,-0.15312398457080126,-0.2440250294625759
1761383313801262800,5.562262939453125,0.8117471755176782,-0.1567962433427572,-0.5766596318788826
1761383313811332900,5.572332763671875,1.32652274428308,0.08316431315988301,-0.7542128320463001
1761383313821403000,5.58240283203125,1.7653794409722088,0.14376608137786387,-0.9221326730802655
1761383313831473000,5.592472900390625,2.0936305676072835,0.24673838007450102,-0.9387649511903524
1761383313841543000,5.60254296875,2.449968555563688,0.4968418526679277,-0.9206735603131353
1761383313851613000,5.612613037109375,2.995444383019209,1.0810156595692038,-1.0004477926433086
1761383313861683000,5.622682861328125,2.4887732102543114,0.06882628346681595,-0.38407179805636404
1761383313871749000,5.6327490234375,3.0692642369896173,0.21388182013332843,-0.7747999852620064
1761383313881819100,5.642819091796875,3.4295226132601497,1.2044196286588906,-1.32438719355911
1761383313891889200,5.65288916015625,4.102725241440535,1.1087179054871201,-1.3193908465765416
1761383313901959200,5.662959228515625,4.386405989465117,1.0538982278019189,-1.0733803423851729
1761383313912029000,5.67302880859375,4.441647399693728,1.4136831413418054,-0.89206019089967
1761383313922099200,5.68309912109375,4.382210875862836,1.8703648330569267,-0.9576625438839197
1761383313932168200,5.693168212890625,3.9189883842021223,2.297508587859571,-1.0444964854672552
1761383313942238200,5.70323828125,3.35316827237606,2.5534119789034126,-1.1019953192338348
1761383313952308200,5.71330810546875,3.26508491525352,2.8982749253824354,-1.0761407470092177
1761383313962378000,5.7233779296875,3.218450005328655,3.2326939269974826,-1.0600213868573307
1761383313972448000,5.733447998046875,2.891334020203352,3.2150308445349336,-0.8350191839031874
1761383313982518300,5.743518310546875,2.327665533453226,2.6791972901716825,-0.5378837648913264
1761383313992588000,5.753588134765625,2.056599936851859,2.3783929733887312,0.3070953797511756
1761383314002658000,5.763657958984375,1.889881434431672,2.4482021304130552,0.61127428753376
1761383314012728300,5.773728271484375,1.271529171335697,2.171726491461694,0.6087661041051149
1761383314022798000,5.783798095703125,0.6968436160087585,1.8770289671212435,0.5748645651556551
1761383314032868000,5.7938681640625,-0.1611982776939869,1.6447683174714445,0.6979315573759377
1761383314042938000,5.803938232421875,-1.2312100204288958,1.3899980221107602,1.0336470285423098
1761383314053008100,5.814008056640625,-2.0284505316883323,1.1675333748102188,1.5160253254413605
1761383314063078100,5.824078125,-3.1059488307863474,0.7214025954648852,2.0634392813526095
1761383314073148200,5.834148193359375,-4.698734739825129,-0.2587514739513397,2.5652064615935086
1761383314083218200,5.84421826171875,-6.055902797740697,-1.6415867648258804,2.9973475862920282
1761383314093288200,5.8542880859375,-8.01066850001514,-2.828154802712798,3.315023835159838
1761383314103357200,5.864357177734375,-10.533152256691455,-3.5845123917028308,3.4853158121526238
1761383314113427200,5.87442724609375,-13.043120815187692,-4.09953462870568,3.4318916804790494
1761383314123497200,5.884497314453125,-15.271400091737508,-4.292764413693547,3.9721281459763644
1761383314133567000,5.89456689453125,-16.956512402296067,-4.925408236992359,4.876966862167418
1761383314143637200,5.90463720703125,-19.197863926386834,-6.200741476786137,6.272316182178258
1761383314153707000,5.91470703125,-21.382245609021187,-7.108927165317535,7.008637822094559
1761383314163777000,5.924777099609375,-21.402680494284628,-7.075369763630628,5.790341643774509
1761383314173847300,5.934847412109375,-20.9524490016222,-6.5310974667459725,4.184948182097077
1761383314183917000,5.9449169921875,-20.42041250145435,-6.046525897586346,2.8999226925894614
1761383314193987000,5.954987060546875,-21.73483856523037,-4.8892602342903615,1.558126683589816
1761383314204057300,5.965057373046875,-22.281834149599074,-3.0202994228124616,-0.37484080917872487
1761383314214127000,5.975127197265625,-21.68594915437698,-1.179498537892103,-1.6327723208598792
1761383314224197000,5.985197021484375,-19.745002134096623,-0.10136588641330599,-1.9027096440836786
1761383314234267100,5.99526708984375,-16.174927140808105,0.04465148102268576,-1.7484714146606624
1761383314244337200,6.005337158203125,-11.557625068044661,0.20944179185926912,-1.7278809004440903
1761383314254407200,6.0154072265625,-6.733707366758584,0.31638533227443694,-2.2675705457136033
1761383314264476200,6.02547607421875,-1.6772674422770737,0.3804173672020435,-3.6686920193850994
1761383314274546200,6.035546142578125,3.2665181629270315,0.3247825737416744,-5.313697360482812
1761383314284616200,6.0456162109375,7.2589096369922155,0.10202040479928254,-6.230091489911079
1761383314294686000,6.05568603515625,9.733926124572754,0.28715865326821804,-6.234587632286548
1761383314304756200,6.065756103515625,10.823715749967098,0.8875722318306565,-5.377951513728499
1761383314314826200,6.075826171875,10.805669221144914,1.966827603729069,-4.061752595061064
1761383314324896000,6.08589599609375,10.416215145528316,3.3728353881374,-2.6623493234843014
1761383314334966300,6.09596630859375,10.282205319011211,4.880175302819907,-1.5808033564306794
1761383314345036000,6.1060361328125,10.139378564310073,6.393038072577118,-0.8181384839899838
1761383314355106000,6.11610595703125,9.723986329838633,7.027157229125499,-0.0067234265035018325
1761383314365176300,6.12617626953125,9.849584301841258,7.077150217306613,0.49083515959903595
1761383314375246000,6.13624609375,10.448555572640895,7.013962231987715,0.7669969102956354
1761383314385316000,6.146316162109375,11.49431199504137,6.71530778671503,1.1029293852135538
1761383314395386000,6.15638623046875,12.940804934573173,6.279731426870822,0.9036040598295628
1761383314405456100,6.1664560546875,14.159935225629805,5.778028105646372,0.16351152307242153
1761383314415526100,6.176526123046875,14.618855051660537,5.326072273409366,-0.8484639910835772
1761383314425596200,6.18659619140625,14.12611478909254,4.7514399095743896,-1.80815577577278
1761383314435665200,6.1966650390625,13.162061667388677,4.45876336966753,-2.6097090356647965
1761383314445735200,6.206735107421875,12.001740123653411,4.3801799545571205,-3.2075352280825373
1761383314455805200,6.21680517578125,10.805682080626488,4.186964198094606,-3.540392971730232
1761383314465875200,6.226875244140625,9.74275298962891,3.6686581171154975,-3.539952826747298
1761383314475945200,6.2369453125,9.076884357598423,3.0872645885825154,-3.43945393242687
1761383314486015000,6.247014892578125,8.642878023549914,2.926601148417592,-3.478722989758849
1761383314496085200,6.257085205078125,8.41910141686797,2.881978747358918,-3.455941833630204
1761383314506155300,6.2671552734375,8.402586335396766,2.763453782482445,-3.3855086994886396
1761383314516225000,6.27722509765625,8.579659058570861,3.025687545591593,-3.2324405367583036
1761383314526295300,6.28729541015625,8.885909365800023,3.1679215950965878,-2.8440304172366857
1761383314536365000,6.297364990234375,9.354434640043973,3.075416037617624,-2.4642817430764437
1761383314546435000,6.30743505859375,9.668554365473986,2.493629710374772,-1.8385770713910459
1761383314556505000,6.317505126953125,9.33912951888442,2.012064921815693,-1.0685898932382463
1761383314566575000,6.3275751953125,8.581179984527825,2.180328607851267,-0.4573056688323617
1761383314576645000,6.33764501953125,7.537317413049935,2.5384350667849183,0.22115400309339164
1761383314586715100,6.347715087890625,6.3734448988348245,2.9583082460626957,1.0391853734470904
1761383314596784000,6.3577841796875,5.359969282314181,3.113910895706713,1.8870321824803948
1761383314606854100,6.367854248046875,4.858647069361806,2.8581691249653693,2.7160540256649255
1761383314616924200,6.377924072265625,4.631833286941051,2.8620097260415553,3.232534644782543
1761383314626994200,6.387994140625,4.593117479577661,3.084311583995819,3.4777459614202377
1761383314637064200,6.398064208984375,4.385718007200956,2.905584371612966,3.891830912685394
1761383314647134000,6.408134033203125,4.045516915053129,1.9417165433481334,4.292876057374477
1761383314657204200,6.418204345703125,3.556614623212814,0.7369163909390568,4.467741625893115
1761383314667274200,6.428274169921875,2.713262933641672,-1.106023259575665,4.682339777602255
1761383314677344000,6.438343994140625,1.8925655589491128,-3.5502819130599494,4.659077559958398
1761383314687414300,6.448414306640625,0.9042974489212036,-3.861110780251026,2.9425121265158056
1761383314697484300,6.458484375,-0.13939561120867727,-4.899204412938654,1.525220731548965
1761383314707554000,6.468553955078125,-2.195602749350667,-6.742642952886223,0.8602593505565077
1761383314717624000,6.4786240234375,-4.340535634171962,-6.9222682831525795,-0.9420777290001511
1761383314727694000,6.488694091796875,-6.007962065914273,-6.155492468261718,-3.1003309909045695
1761383314737764000,6.49876416015625,-8.416118017143011,-3.9174595671996473,-4.483240516059101
1761383314747834000,6.508834228515625,-10.608965914827584,-3.8325358431518075,-3.8237908111602064
1761383314757903000,6.518903076171875,-12.817258049881458,-3.781034788495302,-2.1974252886027097
1761383314767973000,6.52897314453125,-14.486374334406852,-3.6139509598940607,-0.4244559039581567
1761383314778043100,6.539043212890625,-14.548652803665398,-3.7007355093777177,0.8246282844007015
1761383314788113200,6.549113037109375,-13.400094178438186,-2.661272049641609,0.6756997056931257
1761383314798183200,6.55918310546875,-12.258210793191195,-1.5447680203229188,0.12532894580289722
1761383314808253000,6.5692529296875,-11.855934645402431,-1.0146914220511913,0.15540332767963408
1761383314818323200,6.5793232421875,-12.11341887589693,-0.8552616153344511,0.42343978571817276
1761383314828393200,6.589393310546875,-12.21892040081024,-0.6821200941294431,0.49503480324596166
1761383314838463000,6.599462890625,-12.290610841536521,-0.6072575992383062,0.3045513943567872
1761383314848533200,6.609533203125,-11.911125202226637,-0.2306122979208827,-0.2576565183214843
1761383314858603300,6.619603271484375,-10.452822582435607,0.34104046558141704,-1.1977540332898498
1761383314868673300,6.62967333984375,-8.453982176113128,1.0982093709543346,-2.211102954690903
1761383314878743300,6.639743408203125,-6.42013300025165,1.7319326600529252,-3.0198963949695226
1761383314888813300,6.649813232421875,-4.3228854111909865,2.0842339398391543,-3.5445734722852706
1761383314898883300,6.65988330078125,-2.932173395591974,1.8427375520713627,-3.4085081745430825
1761383314908953300,6.669953369140625,-2.023347071069479,1.326622843656689,-3.0050460318401453
1761383314919023400,6.6800234375,-1.294418464013934,0.8203991223983467,-2.6442773679599165
1761383314929092400,6.69009228515625,-0.7372720725089311,0.5012041395306587,-2.316573938335478
1761383314939162400,6.700162353515625,0.39674247905910015,0.5969608077600598,-2.2806804949164388
1761383314949232400,6.710232421875,1.46320909653306,0.6921459597118198,-2.203506362082064
1761383314959302400,6.720302490234375,2.393863806504011,0.9035174044594169,-1.9400550398766994
1761383314969372200,6.7303720703125,3.3121149619758126,1.2108391403123735,-1.5667647480756044
1761383314979442400,6.7404423828125,4.071357458752393,1.2840817789167165,-1.0698483688667415
1761383314989512400,6.750512451171875,4.613765130808949,1.2626084905162454,-0.4719171086393296
1761383314999582200,6.760582275390625,5.129181920087337,1.1072142229259014,0.1238559141082689
1761383315009652500,6.770652587890625,5.452530077111721,0.9336986077114939,0.579348797897622
1761383315019722500,6.780722412109375,5.42726002677679,0.8885425381675363,0.8890084021136164
1761383315029792300,6.790792236328125,4.9341357333272695,0.9764175132364034,1.0581221291072667
1761383315039862300,6.8008623046875,4.562355261567235,1.0055752186596394,0.9441072620663792
1761383315049932300,6.810932373046875,4.258338412478566,1.0750719487339258,0.689554335783422
1761383315060002300,6.821002197265625,3.708875561213493,1.0700944525822997,0.49815088943988084
1761383315070072300,6.831072265625,3.1814158674418924,1.158019404272735,0.3062216656565666
1761383315080141300,6.841141357421875,2.6280326278626918,1.3016682890117168,-0.05640658155046403
1761383315090211300,6.85121142578125,1.9542811336278914,1.5478241930231451,-0.5468364482842385
1761383315100281300,6.86128125,1.3090461243033409,1.798637859712541,-0.9371750516504048
1761383315110351400,6.871351318359375,0.7464607566148043,1.8997759287193416,-1.1835342231489718
1761383315120421400,6.88142138671875,0.09093816203176974,1.8295374403670428,-1.1683499518901108
1761383315130491100,6.8914912109375,-0.39387773727774616,1.6241797029510139,-0.9628821782283484
1761383315140561400,6.9015615234375,-0.5957423718810081,1.3248624098554254,-0.735789432735741
1761383315150631400,6.91163134765625,-0.38244565815925596,1.0223387219339608,-0.6819871153995394
1761383315160701200,6.921701171875,-0.0026069676280021667,0.7174331073120236,-0.6020782969042658
1761383315170771500,6.931771484375,0.35044366922080517,0.35744653372019525,-0.4660676519587636
1761383315180841500,6.941841552734375,0.4982756848633289,-0.18501316078454255,-0.28344460118114945
1761383315190911200,6.9519111328125,0.5156447528153658,-0.7305033090263605,-0.0630013036403805
1761383315200981500,6.9619814453125,0.6047071841031313,-1.10685269613713,0.04816379999257624
1761383315211051500,6.972051513671875,0.4230471331387758,-1.292493925692141,0.21302754139155147
1761383315221121300,6.982121337890625,0.1952040076702833,-1.2646692224383353,0.34124636341705916
1761383315231191300,6.99219140625,0.07324293086528777,-1.1291378854423761,0.39617015906386077
1761383315241260300,7.00226025390625,0.011735445979237556,-0.9793225870281458,0.4048096117891371
1761383315251330300,7.012330322265625,-0.13990414525270461,-0.7967074272960424,0.4476386996902525
1761383315261400600,7.022400634765625,-0.4356120156794786,-0.7026061250582337,0.5405075375236571
1761383315271470300,7.03247021484375,-0.7031921082526444,-0.5560685331404209,0.577662744506821
1761383315281540400,7.042540283203125,-0.8898772939026355,-0.39861528719365596,0.4767222438987344
1761383315291610400,7.0526103515625,-0.9899474414169788,-0.23081804962605237,0.3011896628387272
1761383315301680400,7.062680419921875,-1.0384610046952962,-0.06905512378662824,0.12191723766326903
1761383315311750400,7.07275048828125,-1.1168424674928188,-0.007445055308938026,0.0539523933313787
1761383315321820200,7.082820068359375,-1.1850105793118477,0.021482056228816507,-0.013597805785015224
1761383315331890400,7.092890380859375,-1.1193605877935886,0.08373656008988618,-0.14292363920435308
1761383315341960400,7.10296044921875,-0.9122580525368451,0.012047580668330192,-0.24816183700636027
1761383315352030200,7.1130302734375,-0.6741273418098688,-0.14254209254086017,-0.3035398792266846
1761383315362100500,7.1231005859375,-0.32450083419084547,-0.2934919479429722,-0.3751299283184111
1761383315372170500,7.13317041015625,-0.0023299042522907255,-0.3906733882784843,-0.472689408186078
1761383315382240300,7.143240234375,0.32031916459202764,-0.5284148025393486,-0.41330644117332993
1761383315392309500,7.1533095703125,0.6431769077509641,-0.6634288376629353,-0.30000593294687566
1761383315402379300,7.163379150390625,0.9437281265556812,-0.6851581466510892,-0.19215039225332436
1761383315412449300,7.17344921875,1.147144666776061,-0.725651485081017,-0.014428849781677126
1761383315422519600,7.18351953125,1.248097442343831,-0.7554428122326732,0.16466799963116646
1761383315432589300,7.19358935546875,1.2926163830280304,-0.6822703162550926,0.24935338487848638
1761383315442659300,7.203659423828125,1.39666595556736,-0.5073346051096916,0.1872771601937711
1761383315452729300,7.213729248046875,1.5242881268739699,-0.3022971856892109,0.03523753679357469
1761383315462799400,7.22379931640625,1.7222651063889265,-0.10173282002955675,-0.12491393526121973
1761383315472869400,7.233869384765625,1.9304466690540312,0.02654138544499874,-0.24244155966341494
1761383315482939100,7.243939208984375,2.1463392444878817,0.11045680923312902,-0.32335173722095784
1761383315493009400,7.254009521484375,2.318030859145522,0.23053163390010595,-0.37901831405907865
1761383315503079400,7.264079345703125,2.446755438736081,0.40297289788126944,-0.4437648539315909
1761383315513149200,7.274149169921875,2.5520471202909945,0.5848737718641758,-0.5172895974129438
1761383315523219500,7.284219482421875,2.707651523500681,0.7089233453810214,-0.5432359395742417
1761383315533289500,7.29428955078125,2.851134111762047,0.8080901143148541,-0.5626810831479728
1761383315543358200,7.304358154296875,2.981501197862625,0.902133256624639,-0.5687254048135131
1761383315553428500,7.314428466796875,3.0802690306067464,0.8725073491677642,-0.5436108373012394
1761383315563498200,7.324498291015625,3.1375334710955616,0.7616922280162572,-0.4849732087630778
1761383315573568300,7.334568359375,3.095246234986186,0.7161699555084109,-0.45703825006783005
1761383315583638500,7.344638427734375,2.999492781627178,0.7125090949133038,-0.4772892301317304
1761383315593708300,7.354708251953125,2.9757407346397637,0.7135369766563177,-0.5928682777494192
1761383315603778300,7.3647783203125,2.996732084742188,0.7371148361206055,-0.8012447784647345
1761383315613848300,7.374848388671875,3.0971845095723864,0.7859682988777756,-1.006213151236996
1761383315623918300,7.38491845703125,3.119448363828659,0.7895762602418661,-1.1621073311734944
1761383315633988400,7.39498828125,3.1666783170372246,0.7667161936581134,-1.2784276986777783
1761383315644058400,7.405058349609375,3.1531852137356995,0.7417924725428223,-1.3332343707509338
1761383315654128400,7.41512841796875,2.953663927388191,0.8264800497472286,-1.3549094653338194
1761383315664198400,7.425198486328125,2.759147901982069,1.0941311617299914,-1.3948318720079957
1761383315674268200,7.43526806640625,2.7766350433558222,1.4096286052539944,-1.5263511968836188
1761383315684338400,7.44533837890625,2.8072558070689437,1.7001751473948359,-1.6086014639385045
1761383315694407400,7.455407470703125,2.738016851148009,1.95608350687474,-1.5769168703861534
1761383315704477200,7.465477294921875,2.645785142174363,2.0109432243093845,-1.40841060776636
1761383315714547500,7.47554736328125,2.4320056133717296,1.913912006099522,-1.11153413195163
1761383315724617200,7.4856171875,1.7830998065799473,1.7317735239684582,-0.6694568657808005
1761383315734687200,7.495687255859375,1.105553011715412,1.4508923435345291,-0.17294735033977776
1761383315744757500,7.505757568359375,0.6464262649357319,1.3036270218640564,0.09702062375061213
1761383315754827300,7.5158271484375,0.36121816121339795,0.9178712162435054,0.3131939523546025
1761383315764897300,7.525897216796875,-0.0966916109919548,-0.04759966330379247,0.7208885084629059
1761383315774967600,7.535967529296875,-0.8544184425085782,-1.417085643261671,1.306723818835616
1761383315785037300,7.546037353515625,-2.150401671621203,-1.9306331315368412,1.3999094675332306
1761383315795107300,7.556107421875,-4.2798219300121065,-0.9774176301896571,0.6878901288982481
1761383315805177300,7.56617724609375,-6.763674634999036,-0.35307533289864657,-0.03728676094096154
1761383315815247400,7.576247314453125,-9.611410336494446,-0.20320947334095835,-0.33560985536742954
1761383315825317400,7.5863173828125,-12.428695954668521,-0.37246713884994387,0.18748462893199175
1761383315835386400,7.596386474609375,-14.348631751102209,-1.8166434720024465,1.2222858324781058
1761383315845456400,7.606456298828125,-15.694543670988082,-3.6075749951213596,1.8941395302675663
1761383315855526400,7.6165263671875,-16.07151820425987,-4.393976716980338,1.619952294514328
1761383315865596400,7.626596435546875,-15.930077935481071,-4.144306667368114,0.6790224203750491
1761383315875666700,7.636666748046875,-15.722515381497145,-4.0162522421240805,-0.3401225470189005
1761383315885736700,7.64673681640625,-16.023359445768595,-4.364255532455444,-0.6657355071701109
1761383315895806500,7.656806396484375,-17.26232490262985,-4.838224459058046,-0.0969022946005687
1761383315905876700,7.666876708984375,-18.56426557884216,-5.062288065987825,0.6966903982084244
1761383315915946500,7.676946533203125,-19.570399600428342,-4.846620531481504,1.4834712555781007
1761383315926016500,7.6870166015625,-19.244333416616914,-4.074045674923062,2.017641845165193
1761383315936086500,7.69708642578125,-17.330080341994762,-2.445851183372736,1.9892831811651586
1761383315946156500,7.707156494140625,-15.693332541632651,-1.9399330209322272,1.9616377800010143
1761383315956226600,7.7172265625,-11.947794598454236,-1.280064506099373,1.2333464479357004
1761383315966296600,7.727296630859375,-7.54072342210114,-0.9194258983395993,-1.3334572197213768
1761383315976366600,7.73736669921875,-4.253648793357611,-0.4912422790952027,-2.4522902765095234
1761383315986436600,7.7474365234375,-0.2540992642313242,0.6725382459875195,-2.5832281482353805
1761383315996505600,7.757505615234375,3.6065123343259096,1.3606636449463665,-2.07078131467849
1761383316006575600,7.76757568359375,5.0067146473258735,1.2135202691551297,-0.44437078393548723
1761383316016645600,7.777645751953125,4.759842411738634,0.10432385943606495,0.9400427160412073
1761383316026715400,7.78771533203125,6.08864771400094,2.459866264721751,1.253114393723011
1761383316036785700,7.79778564453125,7.980487296763062,4.4460944422304625,1.8635820410490036
1761383316046855700,7.807855712890625,8.67345027194619,5.05742893551886,3.0084421040192244
1761383316056925400,7.817925537109375,7.678619150140881,5.338944029942154,4.056948117388784
1761383316066995700,7.82799560546875,8.045774884709715,5.024982709944248,4.987512518727779
1761383316077065700,7.838065673828125,9.58562824498415,4.514974209450185,5.437774406528472
1761383316087135500,7.848135498046875,10.54729885546565,4.653965916033089,6.1909057269483805
1761383316097205800,7.858205810546875,11.180371133309603,4.489173705500364,6.554462560242414
1761383316107275500,7.868275634765625,12.382829691028594,4.812611878895759,6.420101436069607
1761383316117345500,7.878345458984375,13.546402345514297,4.768830604836344,5.45562862764895
1761383316127414800,7.888414794921875,13.931852446186541,4.453909499895572,4.356647395539284
1761383316137484500,7.898484619140625,13.460461261117457,4.388506761136651,3.453192827183008
1761383316147554600,7.908554443359375,12.830648277330397,3.7613229568094013,2.550606858354807
1761383316157624600,7.91862451171875,12.02003799688816,2.4513632247924804,1.7019833658605812
1761383316167694600,7.928694580078125,11.209108567494154,1.3834510846853256,1.0184379151031375
1761383316177764600,7.9387646484375,10.338218882656097,0.8938169714391231,0.3937245194774121
1761383316187834600,7.948834716796875,9.497178392636775,0.7578092491030692,-0.2695004296438768
1761383316197904600,7.958904541015625,9.0203628444314,1.1119684317156673,-1.0888349550180136
1761383316207974700,7.968974609375,8.539291392347216,1.436192787052691,-1.8682756056927143
1761383316218044400,7.97904443359375,8.241899514356255,1.695435843913257,-2.5978163532972336
1761383316228114700,7.98911474609375,8.088964038094877,2.0380299686774612,-3.2451313837662337
1761383316238184700,7.999184814453125,8.00251558869779,2.4579399728342888,-3.712473293444514
1761383316248254500,8.00925439453125,7.907668144267797,2.9046017903164025,-3.811574888187647
1761383316258324700,8.01932470703125,7.868338588920235,2.7976944902583956,-3.4200650490850206
1761383316268394800,8.029394775390625,8.033897984433173,2.5544541814327237,-3.0017762163892385
1761383316278463500,8.03946337890625,8.338941838482022,2.6587270413339135,-2.775489380452037
1761383316288533800,8.04953369140625,8.185967783775926,2.8358614315673707,-2.5152353929832576
1761383316298603500,8.059603515625,7.9836133198291055,2.804495110183954,-2.300920295999199
1761383316308673500,8.069673583984375,7.6339166695833205,2.836149308598041,-2.1212463042855263
1761383316318743800,8.079743896484375,7.00526103913784,2.915536149045825,-1.6363282597757876
1761383316328813600,8.0898134765625,6.10243015563786,2.539475808009505,-0.6871143952853977
1761383316338883600,8.099883544921875,4.251034811466932,1.8505121315956115,0.7804379911489784
1761383316348953600,8.10995361328125,2.3906378301948306,1.158519170488417,2.1965679411210117
1761383316359023600,8.120023681640625,0.8934405393421649,-0.24894553472995756,3.2054204278856515
1761383316369093600,8.13009375,-0.15183248345553874,-1.7428347239479423,3.667045128960907
1761383316379163400,8.140163330078124,-0.8531295717418194,-3.4556253150269387,3.538589137178659
1761383316389233700,8.150233642578126,-2.0572510942369697,-4.9801370215237135,2.7027283878847954
1761383316399303700,8.1603037109375,-3.210566558602452,-6.497592672029137,2.16571965226233
1761383316409372700,8.17037255859375,-5.145695247992873,-5.908900218659639,1.4463310269683598
1761383316419442700,8.180442626953125,-6.520617573785781,-5.098342545187473,0.5217794561780988
1761383316429512400,8.190512451171875,-6.374368443420529,-5.305833787500858,-0.46491022555194794
1761383316439582500,8.20058251953125,-7.6242527691811315,-6.6478107060253615,-0.6452971147753298
1761383316449652700,8.21065283203125,-9.384434056988358,-6.290929697233438,0.6614202012542635
1761383316459722500,8.220722412109374,-9.886830036652087,-4.931134213423729,1.8543585778906941
1761383316469792500,8.23079248046875,-10.383547386157511,-5.978727203601599,3.593388941119611
1761383316479862800,8.24086279296875,-12.409252418529986,-6.021487317919731,3.996719274136424
1761383316489932500,8.2509326171875,-12.88000998187065,-4.909443775141239,2.988133183223009
1761383316500002600,8.26100244140625,-12.319093424177169,-3.5419133131653067,1.1887579491466282
1761383316510072800,8.27107275390625,-12.441484124571085,-2.7715394737824797,-0.16085852434560655
1761383316520142600,8.281142578125,-13.148258767485618,-2.149303354990482,-0.49351321970187123
1761383316530212600,8.291212646484375,-13.244522508454322,-1.4914067247524856,-0.6399477896366268
1761383316540282400,8.301282470703125,-12.429371661972999,-1.2015744683608411,-0.7568278368502855
1761383316550351600,8.3113515625,-10.632352635633945,-1.1576321585208176,-1.04302531693615
1761383316560421600,8.321421630859374,-8.427910746267438,-0.9789353412762284,-1.3373109725400805
1761383316570491600,8.33149169921875,-6.466250608304143,-0.5996209668800234,-1.291536040445417
1761383316580561700,8.341561767578124,-4.657779629102349,0.026550445534288883,-0.8249269020210951
1761383316590631400,8.35163134765625,-3.087688951474428,0.893421834641695,-0.24859441973734644
1761383316600701700,8.36170166015625,-1.6633032143324613,1.64108407600075,-0.044121684994921084
1761383316610771700,8.371771728515625,-0.2890150947898626,2.213659799566865,-0.1858931584894657
1761383316620841500,8.381841552734375,1.0297393535792827,2.4285049117743966,-0.39039464440234
1761383316630911500,8.391911376953125,2.332576101848483,2.2978397195100784,-0.4941694185882807
1761383316640981800,8.401981689453125,3.1408050401121375,2.1716899588435887,-0.6888882000248879
1761383316651051500,8.412051513671875,3.502978894615173,1.9873191876158116,-0.6919131738692522
1761383316661121500,8.42212158203125,3.737771985352039,1.7308406270325183,-0.5402058511633425
1761383316671191800,8.43219189453125,4.001628088966012,1.417195825637877,-0.28915976395756005
1761383316681260500,8.442260498046876,4.192373948183655,1.1786077265322208,-0.06260960090905428
1761383316691330600,8.45233056640625,4.264263710874319,0.9749074009343981,-0.12268741831816732
1761383316701400600,8.462400634765626,4.237109161967039,0.777200178271532,-0.48958764375597236
1761383316711470600,8.472470703125,4.172902354994416,0.7356865568831562,-0.8542573336627334
1761383316721540600,8.48254052734375,3.8436663089752194,0.9714432319551706,-0.9639265727147459
1761383316731610600,8.492610595703125,4.057885982760787,1.3388798292919992,-1.0109837997049094
1761383316741680600,8.5026806640625,2.1646780342549086,0.5281213725507259,-0.27501053483486176
1761383316751750700,8.512750732421875,-0.8772071974217891,-0.31206425420492884,0.38537688930556174
1761383316761820700,8.522820556640625,-0.2346791089683771,-0.0064794251471757885,0.2920838347107172
1761383316771890700,8.532890625,1.1018261001467704,0.5794029392376542,-0.14078487360998987
1761383316781960400,8.54296044921875,0.9656921210825443,0.7797136223971843,-0.4625428388334811
1761383316792030500,8.553030517578126,0.17586685451567172,0.568813740684092,-0.49126244510039685
1761383316802100700,8.563100830078126,-0.5571218415856362,0.5854705687135457,-0.4726175119936466
1761383316812169500,8.57316943359375,-0.7289946580290794,0.9558625087246299,-0.5067030292078852
1761383316822239700,8.58323974609375,-0.49361412279307837,1.2197674199163913,-0.5087190452054142
1761383316832309500,8.5933095703125,-0.3072603610545397,1.2375196419671177,-0.4350508746653795
1761383316842379500,8.603379638671875,-0.09212649503350258,1.280847034779191,-0.3082556557022035
1761383316852449500,8.613449462890625,0.3083832276046276,1.233742461515963,-0.21181611977517603
1761383316862519600,8.62351953125,0.8150088076621294,0.6231938579082489,-0.2628824362762272
1761383316872589800,8.63358984375,0.9711188223063946,0.12065671620815992,-0.13783917554691433
1761383316882659600,8.64365966796875,0.6063549513101577,0.0027329320952296254,0.12401771707385778
1761383316892729900,8.653729736328126,0.27584698565900323,-0.46897652514278887,0.30360753763541576
1761383316902800000,8.6637998046875,0.34652152734100816,-1.0223486588060855,0.44006037339046594
1761383316912869600,8.67386962890625,0.22043021886348724,-1.2091054483875632,0.6284523629583418
1761383316922940000,8.68393994140625,0.1516559578448534,-1.268082830274105,0.7716717702388763
1761383316933010000,8.694010009765625,0.16163023937046528,-1.2385846408501267,0.7669665151573717
1761383316943078700,8.70407861328125,0.04150339225530624,-1.0274538729906082,0.7328894735105336
1761383316953149000,8.71414892578125,-0.05754150386452674,-0.7045332937285304,0.7050532259494066
1761383316963218700,8.72421875,-0.35436990275382996,-0.4218751667499542,0.5792370811514556
1761383316973288700,8.734288818359374,-0.7277046182185412,-0.1601020068898797,0.3695315237894654
1761383316983359000,8.74435888671875,-0.8090688962191342,0.10186375293284654,0.05536489047780633
1761383316993428700,8.7544287109375,-0.5626999339789152,0.33246202232837674,-0.32413872288018464
1761383317003498800,8.764498779296876,-0.2902969512939453,0.5143900765791535,-0.6913961642578244
1761383317013568800,8.77456884765625,-0.20830255869626998,0.6105372054308652,-0.9164072811707854
1761383317023638800,8.784638671875,-0.22163959465324878,0.6569765927836299,-0.9853970115710049
1761383317033708800,8.794708740234375,0.10330898330509662,0.704968470275402,-1.0480293357685209
1761383317043778600,8.804778564453125,0.524963785302639,0.693571462470293,-1.0242235127672552
1761383317053848800,8.814848876953125,0.7079109534680843,0.5110734993770718,-0.8471054160814732
1761383317063918800,8.8249189453125,0.8856599684685468,0.2888452911809087,-0.7344070384666324
1761383317073987800,8.83498779296875,1.173823414865136,0.07155249356031418,-0.6732168028362095
1761383317084057900,8.845057861328126,1.3677631016880274,-0.19560878907889126,-0.607118190767616
1761383317094127600,8.855127685546876,1.3850024057805537,-0.48521220515072344,-0.5503332043588162
1761383317104197600,8.86519775390625,1.1779039621770382,-0.6712988403856754,-0.464382767611742
1761383317114268000,8.875267822265625,0.9813929635614156,-0.6988131625160574,-0.3891039470046758
1761383317124337700,8.885337646484375,1.023866077631712,-0.6142503807350993,-0.27830226985663176
1761383317134407700,8.89540771484375,0.9709539871335029,-0.48219724124372004,-0.134373691393435
1761383317144478000,8.90547802734375,0.8282873914301395,-0.34081542465388776,-0.012685586310923098
1761383317154547700,8.915547607421875,0.7519950098663568,-0.22217121731191872,0.03012260493263602
1761383317164617700,8.92561767578125,0.7298340314626693,-0.14614420868605374,0.033003859457373615
1761383317174687700,8.935687744140624,0.6990238826572894,-0.05248422047495842,-0.07009433064125478
1761383317184757800,8.9457578125,0.6106196230173111,-0.005073650002479553,-0.17591230109259484
1761383317194826800,8.95582666015625,0.4262812927544117,-0.11017302385568618,-0.1733702153943479
1761383317204896800,8.965896728515625,0.07203706220686436,-0.30515345190316434,-0.05051255507580936
1761383317214966800,8.975966796875,-0.11890987254083156,-0.3302393778428435,-0.019670111436024307
1761383317225036800,8.986036865234375,-0.17382745764255522,-0.23419717067033052,0.0019335984110832214
1761383317235106800,8.99610693359375,-0.3364075450837612,-0.18762714267522096,0.07457198751196265
1761383317245176800,9.0061767578125,-0.48030923554003235,-0.20894903990626335,0.1432168499972671
1761383317255246800,9.016246826171875,-0.45760465177893633,-0.276280116379261,0.08633249486722051
1761383317265316600,9.026316650390624,-0.447812156561017,-0.388380016644299,-0.010502104791998862
1761383317275387000,9.036386962890624,-0.3565548455774784,-0.3807683725968003,-0.023039660934358833
1761383317285456600,9.04645654296875,-0.25105799683928487,-0.3168313224762678,0.11736636942587793
1761383317295526700,9.056526611328126,-0.2382821018964052,-0.2821852487698197,0.2968343902386725
1761383317305597000,9.066596923828126,-0.30842472865879533,-0.2724626039177179,0.35880247837379575
1761383317315666700,9.076666748046875,-0.3115776397317648,-0.3034823038205504,0.3655754065748304
1761383317325735700,9.086735595703125,-0.3476239356249571,-0.2156888695552945,0.3104538963988423
1761383317335805700,9.0968056640625,-0.33358138174712654,-0.07572247272133827,0.22161153760254382
1761383317345875700,9.106875732421875,-0.263210206925869,0.059223173341155046,0.1292741032321006
1761383317355945700,9.11694580078125,-0.19962942289710045,0.2351017182946205,-0.00046557168513536453
1761383317366015700,9.127015625,-0.1844464668124914,0.3727949094995856,-0.10990049052461981
1761383317376085800,9.137085693359374,-0.15723580380380153,0.4305427495911717,-0.16548844916857777
1761383317386155800,9.14715576171875,-0.09885083485245703,0.4142442334800958,-0.15994294387064872
1761383317396225800,9.157225830078126,-0.09005261136889457,0.3427858479440212,-0.12119038469344377
1761383317406295800,9.1672958984375,-0.1809703151345253,0.2478326050519943,-0.06521349979713559
1761383317416365800,9.17736572265625,-0.1613672045201063,0.17241788310557604,-0.017368629560619592
1761383317426435600,9.187435546875,-0.054365211915969845,0.1730941749319434,-0.02659662276357412
1761383317436505900,9.197505859375,0.021887422159314156,0.2025008866801858,-0.05577003721259534
1761383317446574600,9.20757470703125,0.04323357704877853,0.18817600872963666,-0.07075257535427808
1761383317456644900,9.217644775390625,0.00526245057284832,0.16775836686193943,-0.07601100733913481
1761383317466715000,9.22771484375,-0.056769934970140455,0.11699264074265957,-0.07028057392835617
1761383317476784600,9.23778466796875,-0.10667641391158103,0.13452771291136742,-0.10371705264933406
1761383317486855000,9.24785498046875,-0.1276262629598379,0.15212620570510624,-0.1345268361285329
1761383317496925000,9.257925048828126,-0.05905600008070468,0.10188450345993041,-0.19702815435752272
1761383317506994700,9.26799462890625,-0.03194879744648933,0.05165215356498956,-0.1936984254129231
1761383317517064700,9.278064697265625,-0.06793254949748516,-0.061581426905095576,-0.15211531898491085
1761383317527134700,9.288134765625,-0.05129471842944622,-0.14230916056782006,-0.1053746105980128
1761383317537204700,9.298204833984375,-0.09020107992887497,-0.12326105348765849,-0.05184431513622403
1761383317547274800,9.308274658203125,-0.08181026820242404,-0.10276596246957778,-0.04196136515587568
1761383317557344800,9.3183447265625,-0.05564589937627315,-0.027544425007700917,-0.09244747061617672
1761383317567413800,9.328413818359374,-0.053068742364645004,0.054584992146492,-0.12328721084222197
1761383317577483800,9.33848388671875,0.04990647894144058,0.11909575050175189,-0.1946388480681926
1761383317587553800,9.3485537109375,0.07964578364491462,0.12717647336572407,-0.2667738907568157
1761383317597623800,9.358623779296876,-0.03180149793028831,0.09051818305402994,-0.2724137232746929
1761383317607693600,9.368693603515625,-0.14330430908501146,0.039080841283500194,-0.24155374397821722
1761383317617763800,9.378763916015625,-0.17814239823222158,0.034975159530341624,-0.24163696528226136
1761383317627833900,9.388833740234375,-0.22398060482144355,0.029478315679728983,-0.23753522905185817
1761383317637903600,9.398903564453125,-0.24214812967479227,0.05119622649103403,-0.2394067220121622
1761383317647974000,9.408973876953125,-0.157729140278697,0.0813522953018546,-0.2517483171910047
1761383317658044000,9.4190439453125,-0.11551029323041438,0.07756137858629227,-0.24598982672952113
1761383317668113700,9.42911376953125,-0.07039630926251411,0.04061667254865169,-0.2235807187836617
1761383317678183000,9.439182861328124,0.027505846562981603,-0.018527590337395667,-0.22474011795185506
1761383317688252700,9.449252685546876,0.10540507880151272,-0.07685702970921993,-0.2451321139216423
1761383317698322700,9.45932275390625,0.09054419427812099,-0.1219710136771202,-0.212495041950047
1761383317708393000,9.46939306640625,0.0029629414588212967,-0.14755845939815043,-0.14186492393165825
1761383317718462700,9.479462646484375,-0.06162029761075973,-0.1530021117568016,-0.06308868966288864
1761383317728532700,9.48953271484375,-0.03536766597926617,-0.1461579449504614,-0.019003391155600548
1761383317738602800,9.499602783203125,-0.000360065484046936,-0.12465747628211975,-0.030018560036271808
1761383317748672800,9.5096728515625,0.017336919248104096,-0.07503507497906685,-0.06576492313481867
1761383317758742800,9.51974267578125,0.08177110523581504,-0.05232347695529461,-0.15437566513232887
1761383317768812500,9.5298125,0.05297755694985389,-0.02908054853379726,-0.16518895476534962
1761383317778882800,9.5398828125,0.006323942324519157,-0.01788520078063011,-0.12514350623339413
1761383317788952800,9.549952880859376,-0.050072483158111566,0.024397943675518036,-0.08807539301179348
1761383317799022600,9.560022705078126,-0.09664192663133143,0.06812310363352299,-0.022888050569221375
1761383317809091800,9.570091796875,-0.07598726113736629,0.08546119192540645,0.04864522683396935
1761383317819161600,9.58016162109375,-0.011569441762566565,0.09620762686729431,0.09447890337854624
1761383317829231600,9.590231689453125,0.019995909324288366,0.10593056398034095,0.08970862023681402
1761383317839302000,9.600302001953125,0.08704349268078804,0.10298866530954837,0.01880063512511551
1761383317849371600,9.61037158203125,0.1496422799348831,0.1613023225903511,-0.05989895371086895
1761383317859441700,9.620441650390624,0.12180851659178733,0.1858411360412836,-0.043554698761925095
1761383317869512000,9.630511962890624,-0.036846506360173226,0.19514906261265277,0.04744513032920658
1761383317879580700,9.64058056640625,-0.13355740657448767,0.20293723227083682,0.12373327410928904
1761383317889651000,9.65065087890625,-0.19072832356095312,0.22185820583999155,0.18074103642329573
1761383317899721000,9.660720947265625,-0.18956687856614587,0.21905191624760625,0.16162285978160798
1761383317909790700,9.670790771484375,-0.13829086483716965,0.17335341039001942,0.10975362939983606
1761383317919860000,9.68085986328125,-0.05759060370326042,0.11193418830931186,0.021580840428173542
1761383317929929700,9.6909296875,0.0025339023917913435,0.06117898358404636,-0.0847094967752695
1761383317939999700,9.700999755859375,0.04381225371956825,0.03942892406880855,-0.1561980582538992
1761383317950070000,9.711070068359374,0.09720423668920994,0.049426001948118206,-0.17744652492254973
1761383317960139800,9.721139892578124,0.00941606312096119,0.05097381591200828,-0.13853219931237398
1761383317970209800,9.731209716796876,0.019785481444001198,0.07406886029541492,-0.05819514546766877
1761383317980279800,9.74127978515625,0.12764204505085944,0.07174889291524887,-0.03828779120966792
1761383317990349800,9.751349853515626,0.14093582638800142,0.05575462044775486,0.01949541245624423
1761383318000419800,9.761419921875,0.13037000871002674,0.026257892328500745,0.06751680830344557
1761383318010489900,9.77148974609375,0.22832944768071173,0.003360416343808174,0.06040653790682554
1761383318020560000,9.781559814453125,0.23199849158227442,-0.0077507602572441095,0.071987377846241
1761383318030630000,9.7916298828125,0.2711772402822971,-0.06563654751479625,0.07846081164404749
1761383318040699000,9.801698974609375,0.28975393045842646,-0.11563830352425575,0.04654474742338061
1761383318050769000,9.811768798828124,0.3188438313424587,-0.09626958618760108,-0.0040406536929309365
1761383318060839000,9.8218388671875,0.347514045509696,-0.035335517275333406,-0.08982420944049954
1761383318070908700,9.83190869140625,0.300726575371623,0.03977379198372364,-0.11733188263438642
1761383318080979000,9.84197900390625,0.2538502579063177,0.08156301544308663,-0.11775003498122096
1761383318091049000,9.852049072265626,0.29447920541465283,0.046804421272873875,-0.1337763100221753
1761383318101118700,9.86211865234375,0.32599078048765656,-0.01657820983529091,-0.09339410381652415
1761383318111189000,9.87218896484375,0.3121662532746792,-0.07293430330753325,-0.024337445659935474
1761383318121258800,9.8822587890625,0.34231355425715443,-0.10349544578790663,0.025568375694379208
1761383318131328800,9.892328857421875,0.33984804092645643,-0.0947352162271738,0.04813464696332812
1761383318141398800,9.902398681640625,0.3336965325593948,-0.08942249677181244,0.06982493911534547
1761383318151467800,9.9124677734375,0.34328386059403415,-0.08542202895879746,0.040411870691552755
1761383318161537800,9.922537841796874,0.35125440108180045,0.0038812253475189206,0.02568929866030812
1761383318171607800,9.93260791015625,0.3381979356318712,0.08232230937778949,0.01403327459283173
1761383318181677800,9.942677734375,0.30353052687644955,0.0994148984760046,0.0037610330339521167
1761383318191747800,9.952747802734375,0.2741243996500969,0.05764905589222908,-0.03808627728819847
1761383318201817900,9.96281787109375,0.32377368896007536,0.025139117431640625,-0.05590053172446787
1761383318211887900,9.972887939453125,0.2651402982056141,0.0579097526550293,-0.01759410887956619
1761383318221958000,9.9829580078125,0.15707506028413773,0.033095044872164726,0.05072057180330157
1761383318232027600,9.993027587890625,0.08431260641217231,-0.00024199206233024596,0.1260586483169347
1761383318242098000,10.003097900390625,0.12350187650620936,0.023766660034656523,0.15428184936903416
1761383318252168000,10.01316796875,0.17328502132892606,0.04811550387144088,0.13410948749929666
1761383318262237000,10.02323681640625,0.14163900622129438,0.04821604163646698,0.1017628498416394
1761383318272307000,10.033306884765626,0.1588672043979168,0.02367489009797573,0.030683892077207564
1761383318282376700,10.043376708984376,0.1280664079427719,0.011503390789031983,-0.006025470834597945
1761383318292447000,10.053447021484375,0.06756137809753418,0.006270750832557678,0.03179148799292743
1761383318302517000,10.06351708984375,0.11068857216238975,-0.026006547915935516,0.027243030908331273
1761383318312586800,10.073586669921875,0.0650111090928316,-0.05966331832408905,0.05950966213233769
1761383318322656800,10.08365673828125,0.024189269360899924,-0.07798983313143253,0.10451682472489773
1761383318332727000,10.09372705078125,0.02506955932676792,-0.07191665069758892,0.08883439468555152
1761383318342796800,10.103796875,0.010730068328976631,-0.036842414706945416,0.09439816629253327
1761383318352866800,10.11386669921875,-0.009489712879061698,-0.0008417115211486816,0.10629318674765527
1761383318362935800,10.123935791015626,-0.027776480197906493,0.03253624194562435,0.11665369111187755
1761383318373005800,10.134005859375,-0.004473930543661117,0.05467910017073154,0.12694105717465282
1761383318383075800,10.144075927734375,0.012772972333431243,0.051659460088610644,0.13257964758351445
1761383318393145900,10.154145751953125,0.03571428745985031,0.025267712247371673,0.15308357949517667
1761383318403216000,10.1642158203125,0.07714286091327667,-0.0035533085674047467,0.11357669481933116
1761383318413285600,10.17428564453125,0.06732640029788017,0.004285129973292351,0.04512801249325275
1761383318423356000,10.18435595703125,0.09372925405502319,0.07204056933820248,-0.01629880837202072
1761383318433426000,10.194426025390625,0.10710837558805941,0.10516308673918247,-0.09966346640959381
1761383318443495700,10.20449560546875,0.07335340550243855,0.07027648227512837,-0.11878617309592664
1761383318453566000,10.21456591796875,0.05163432564735412,0.037169746965169906,-0.08714461496770382
1761383318463636000,10.224635986328124,0.016098901885747908,0.008791793742775916,-0.08886157495342195
1761383318473704700,10.23470458984375,0.033656185886263845,-0.008185060021281242,-0.05951631106883287
1761383318483775000,10.24477490234375,0.04571604151427745,0.0015349544823169707,-0.055013008300215
1761383318493844700,10.2548447265625,0.03335048093795776,-0.007484218275547027,-0.06216361070722341
1761383318503914800,10.264914794921875,0.08817921871244906,-0.008870119675993918,-0.07533668827414512
1761383318513985000,10.274985107421875,0.14259060785770417,0.018883564168214798,-0.1216584405966103
1761383318524054800,10.2850546875,0.15881752003729344,-0.003809329155087471,-0.12980828317403792
1761383318534124800,10.295124755859375,0.1366413440644741,-0.04428337836265564,-0.09741904848366975
1761383318544194800,10.30519482421875,0.0766360804349184,-0.045322658282518385,-0.11799816452339291
1761383318554264800,10.315264892578124,0.09135960231423378,-0.004721767824888229,-0.16577048098035155
1761383318564334800,10.3253349609375,-0.0005699088424444198,0.031280104404687877,-0.19150683365277946
1761383318574404900,10.33540478515625,-0.038139468780159946,0.06041735156178474,-0.16813538348078727
1761383318584475000,10.345474853515626,-0.005630114841461181,0.09152151487767696,-0.12497099921070039
1761383318594543900,10.3555439453125,0.039511926177144045,0.0877069250255823,-0.11072554317191242
1761383318604614000,10.36561376953125,0.05366787730157375,0.058664370414614676,-0.12093626380190252
1761383318614684000,10.375683837890625,0.05660802240669727,0.052072132542729375,-0.14746047891639172
1761383318624754000,10.38575390625,0.06143325060606002,0.06910977658331394,-0.17281572331674397
1761383318634823700,10.39582373046875,0.019691373419761658,0.041301147681474686,-0.22147658611126242
1761383318644894000,10.40589404296875,-0.0010474632263183592,-0.015964461851119993,-0.24836605434156953
1761383318654963700,10.415963623046874,0.012439210334420204,-0.03490998533964157,-0.2529114426862448
1761383318665033700,10.42603369140625,0.033577859953045845,-0.024216157367825508,-0.2228549617923796
1761383318675104000,10.43610400390625,0.018638064974546432,-0.04044716120064258,-0.21920710680931804
1761383318685173800,10.446173828125,0.02780044559538364,-0.04604103568494319,-0.24034254155755042
1761383318695243000,10.456242919921875,0.015033318480849265,-0.08451309742033482,-0.24418263117708264
1761383318705313000,10.46631298828125,0.06701075847744942,-0.11383563801646232,-0.23973639235794542
1761383318715382800,10.4763828125,0.1222539222717285,-0.1402706404775381,-0.2314818472970277
1761383318725452800,10.486452880859375,0.13043781324923037,-0.13071370758116244,-0.2153397638566792
1761383318735522800,10.496522705078124,0.1222504151403904,-0.08883212966322898,-0.21415727607384322
