time,seconds_elapsed,z,y,x
1761383467395826700,0.08082666015625,0.25199615447223184,-0.06709259154200553,-0.16491247591152786
1761383467405896400,0.090896484375,0.22992519243955611,-0.01555938818156719,-0.35117972841039297
1761383467415965400,0.10096533203125,0.5989326923549175,-0.1021808560580015,-0.5172880265103653
1761383467426035500,0.111035400390625,0.9615975452452897,-0.1503705942094326,-0.632636224514246
1761383467436104400,0.1211044921875,0.7715975359588861,-0.20997662938833236,-0.72337974075675
1761383467446174500,0.131174560546875,0.26768939816653725,-0.07963643129467964,-0.6792331405162811
1761383467456243500,0.141243408203125,-0.4847767363429069,0.1432803436875343,-0.6043619508620351
1761383467466313700,0.151313720703125,-0.5566384419828653,0.29918343758285043,-0.48682223416324705
1761383467476382500,0.161382568359375,-0.28549744205772876,0.31819267395734785,-0.4254761503839865
1761383467486452500,0.171452392578125,-0.17251052982509135,0.24923954924046993,-0.42572548550255596
1761383467496521500,0.181521484375,-0.2578548173725605,0.18607728288471698,-0.4326788483044132
1761383467506591500,0.191591552734375,-0.2732154681116342,0.13241641984581948,-0.3917123759374022
1761383467516660500,0.201660400390625,-0.2834235583931207,0.1053092172116041,-0.2817368474151939
1761383467526730500,0.21173046875,-0.4147989447534084,0.07803191870748996,-0.11676803820654749
1761383467536799500,0.221799560546875,-0.3645727323383093,0.007789338701963424,0.003049889089912176
1761383467546869500,0.231869384765625,-0.08431845163106917,-0.054009238085150714,0.04663030681498349
1761383467556938500,0.2419384765625,0.29027590850591656,-0.020062544819712636,0.05141366863399744
1761383467567008500,0.252008544921875,0.525180058401823,-0.019490297889709473,0.07584295729584992
1761383467577077500,0.262077392578125,0.5330781181752682,-0.13484160116612912,0.15098456138931213
1761383467587147500,0.2721474609375,0.3192494895339012,-0.2760667658895254,0.27632234808579087
1761383467597216300,0.28221630859375,0.13582885863780975,-0.3639712593138218,0.4453512463402003
1761383467607286500,0.29228662109375,-0.009613046997785568,-0.26734160764217374,0.5351362928140908
1761383467617355500,0.30235546875,-0.07857377049922942,-0.053254620325565334,0.49807906631268556
1761383467627425500,0.312425537109375,-0.04503331994712353,0.04020809174776077,0.39858094653263687
1761383467637494500,0.32249462890625,0.09245499633550644,0.026921909195184706,0.27336539797633885
1761383467647564300,0.332564208984375,0.10403320592641829,-0.02782499551475048,0.21031272947490215
1761383467657633500,0.342633544921875,-0.049071781682968135,-0.09657646017968655,0.2493263507410884
1761383467667703300,0.352703369140625,-0.21603695234060286,-0.139739310079813,0.3219109638281166
1761383467677772500,0.3627724609375,-0.4236971214801073,-0.1637421169579029,0.4048644107162952
1761383467687842300,0.37284228515625,-0.5648369460076094,-0.13931903884112834,0.49662426439449187
1761383467697911600,0.38291162109375,-0.5332973138839006,-0.05620996299982071,0.5266754115261137
1761383467707981600,0.392981689453125,-0.4510509923517704,-0.05025543850958347,0.5283822154439985
1761383467718051300,0.40305126953125,-0.4111345770269632,-0.13504501478374004,0.5036366273745894
1761383467728120600,0.41312060546875,-0.3170224611341953,-0.2686813318133354,0.42450449234023685
1761383467738190300,0.4231904296875,-0.2018307323336601,-0.3357265770822763,0.37488209103718395
1761383467748259600,0.433259521484375,-0.03622749767899513,-0.3175853557139635,0.3192142720900476
1761383467758329300,0.443329345703125,-0.040544191834330556,-0.27286709306538104,0.3339658510200679
1761383467768398600,0.453398681640625,-0.0361199456512928,-0.24807927328944204,0.3623056641891598
1761383467778468400,0.46346826171875,0.018071078741550443,-0.26101182009875773,0.4350388919666409
1761383467788537600,0.47353759765625,0.0034048400074243542,-0.3198416102081537,0.47702831417322156
1761383467798607600,0.483607666015625,-0.001979191118478775,-0.3341968832969665,0.4605769455879926
1761383467808676600,0.493676513671875,-0.06602350100576877,-0.35148996340334415,0.43757922409921884
1761383467818746600,0.50374658203125,-0.12842705794870854,-0.3611731530278921,0.3867255274355411
1761383467828815400,0.5138154296875,-0.1376782858967781,-0.27342531147003174,0.2580157070226967
1761383467838885600,0.5238857421875,-0.18955635717213154,-0.17015958278477192,0.17273060231655835
1761383467848954400,0.533954345703125,-0.28827333651185033,-0.14453765027225016,0.218533006940037
1761383467859024600,0.544024658203125,-0.3885656023442745,-0.142850135576725,0.3044489568956196
1761383467869093400,0.55409326171875,-0.516119969111681,-0.1286374858289957,0.33151758108511564
1761383467879163400,0.564163330078125,-0.5212292749494314,-0.10620061309337615,0.32173838374018665
1761383467889232400,0.574232421875,-0.5483125121861696,-0.045861002942919726,0.3150989457257092
1761383467899302400,0.584302490234375,-0.5880114853680134,0.018663199415802953,0.3085816727861762
1761383467909371400,0.594371337890625,-0.5449380673170089,0.08032850521206855,0.3037048605300486
1761383467919441400,0.60444140625,-0.5433721331745386,0.14155717315673827,0.28626623447313904
1761383467929510700,0.6145107421875,-0.5354682281821966,0.14812076945602892,0.29293226823359725
1761383467939580400,0.624580322265625,-0.45372459547519683,0.14164718952775002,0.2944811051107943
1761383467949649700,0.634649658203125,-0.3865431566059589,0.15720365509986878,0.27093919374272224
1761383467959719400,0.644719482421875,-0.26903672112226484,0.16011574315428734,0.25837489572390915
1761383467969788700,0.65478857421875,-0.17336159369647502,0.13352701143622397,0.20593013047650455
1761383467979858400,0.6648583984375,-0.13872691816687582,0.07238017655611038,0.1793394990622997
1761383467989927400,0.674927490234375,-0.04542261152565479,0.056418637314438816,0.12447262123450636
1761383467999997400,0.68499755859375,0.05192249493896961,0.09967267262935638,0.04621215446814894
1761383468010066400,0.69506640625,0.07223287703990935,0.12928513608276843,0.023876550149917602
1761383468020136700,0.70513671875,0.09072130441069602,0.11670388692915439,0.004146890546381473
1761383468030205400,0.715205322265625,0.07262099957466125,0.08552958098649978,-0.04792933364957571
1761383468040275500,0.725275390625,-0.01638648665547371,0.03218786689937114,-0.07501344766914844
1761383468050345500,0.735345458984375,-0.09308277284502983,0.031310499542951585,-0.1212500059261918
1761383468060414500,0.74541455078125,-0.20265315463244915,0.048856093105673785,-0.1687973545208573
1761383468070484500,0.755484375,-0.32098668859004975,0.05567278738319874,-0.19530980613231658
1761383468080553500,0.765553466796875,-0.3721908061265945,0.1253045420140028,-0.2118152429923415
1761383468090623500,0.77562353515625,-0.32636662806272504,0.23228607635200021,-0.21157515062615273
1761383468100692500,0.7856923828125,-0.32849253417551516,0.31858839527666566,-0.2062152310281992
1761383468110762500,0.795762451171875,-0.2663584418237209,0.31669395983219145,-0.21934067006111144
1761383468120831500,0.80583154296875,-0.21056115127801894,0.2543471015125513,-0.229408767350018
1761383468130901500,0.815901611328125,-0.20847090100049973,0.14446458503603934,-0.17582783767953514
1761383468140970500,0.825970458984375,-0.18959259752929208,0.08048632612228393,-0.11334756223857402
1761383468151040500,0.83604052734375,-0.15734043322205543,0.14835399369001387,-0.07726064207404851
1761383468161109500,0.846109619140625,-0.11739771441221236,0.19649170939326285,-0.04601180959045887
1761383468171179500,0.856179443359375,-0.038702947881817815,0.17455577191710472,-0.024396336240321396
1761383468181248500,0.86624853515625,0.002159223860502243,0.15578385142982004,-0.0047369653940200806
1761383468191318500,0.876318603515625,-0.04169336186945438,0.11981529694795608,0.0038148821130394935
1761383468201387500,0.886387451171875,-0.14280454286932945,0.0635603257626295,0.03143529496639967
1761383468211457500,0.89645751953125,-0.15772738671302794,-0.001011222869157791,-0.10961363640725612
1761383468221526300,0.9065263671875,-0.05273498036563396,0.04882277535796165,-0.2864841150075197
1761383468231596500,0.916596435546875,-0.10626724858880042,0.1458300281703472,-0.26263898290917276
1761383468241665500,0.92666552734375,-0.1630664096534252,0.23787819727063178,-0.18484832561165093
1761383468251735600,0.936735595703125,-0.09685878425240516,0.27578210372924805,-0.182646577783674
1761383468261804500,0.946804443359375,-0.03393734091520309,0.2597358088135719,-0.21890257090479134
1761383468271874300,0.956874267578125,0.0050134442478418344,0.20866145513653753,-0.20383271980583667
1761383468281943600,0.966943603515625,0.028113164806365967,0.1300146194010973,-0.16845058690980075
1761383468292013300,0.977013427734375,0.1400625506848097,0.11085106924772262,-0.17840952473580837
1761383468302082600,0.98708251953125,0.20316285772025583,0.10218903936445713,-0.20708587638288736
1761383468312152300,0.99715234375,0.20217910737991332,0.022481296399235726,-0.23887583000585436
1761383468322222600,1.00722265625,0.20397183601558208,-0.04085281939208507,-0.23423647976741194
1761383468332291600,1.01729150390625,0.1476899768233299,0.0013917466193437576,-0.25649653463140126
1761383468342361300,1.027361328125,0.12126081958115101,0.11746668799519538,-0.278390386531502
1761383468352430600,1.0374306640625,0.04746200839877128,0.12466682863235473,-0.24732392487749455
1761383468362500400,1.047500244140625,-0.005265957704186439,0.10226093555688857,-0.22850378133431076
1761383468372569600,1.057569580078125,0.012751929545402526,0.13086451422870157,-0.3110080231502652
1761383468382639400,1.067639404296875,0.05756137760877609,0.18703297617435455,-0.3749960728056729
1761383468392708600,1.07770849609375,0.07938274879455566,0.24142975227236746,-0.3367541665643453
1761383468402778400,1.0877783203125,0.03266425223946571,0.26453473352789875,-0.2403876958735287
1761383468412847600,1.09784765625,0.021368951243162154,0.2784457699805498,-0.17021321266815065
1761383468422917400,1.10791748046875,0.08087386413514613,0.3272223681092262,-0.07640431750565767
1761383468432986600,1.117986572265625,0.4166296673119068,0.4209358400732279,-0.02457505380809307
1761383468443056600,1.128056640625,0.07292027478218079,0.29866496666669845,0.34756855217590926
1761383468453125400,1.13812548828125,-0.12310615518689155,0.06828092454373837,0.33687837746590377
1761383468463195600,1.148195556640625,0.36904900096952914,0.13709902470409868,0.03420768228918314
1761383468473264400,1.158264404296875,0.4017798887044191,0.26466040573418137,0.011552344497293233
1761383468483334700,1.168334716796875,0.44888300066292286,0.28063889611065385,0.05628229758366942
1761383468493403400,1.1784033203125,0.4869435589879751,0.31337387549877166,0.05432210342660546
1761383468503473400,1.188473388671875,0.38978140787482257,0.37279578628242016,0.07446706583276391
1761383468513542400,1.19854248046875,0.15207622908353804,0.39605332775115965,0.17638795578032732
1761383468523612400,1.2086123046875,0.14283552252948284,0.3356137643575668,0.10209332390502095
1761383468533681400,1.218681396484375,0.2417418869614601,0.3577010930031538,-0.07124737313389777
1761383468543751400,1.22875146484375,0.28673662846386433,0.5701216084122658,-0.2266368184186518
1761383468553820400,1.2388203125,0.3643529521077871,0.5801496659517288,-0.27229192352592946
1761383468563890400,1.248890380859375,0.2468307345330715,0.3752893566638231,-0.14487959557771682
1761383468573960400,1.25896044921875,0.12727028912901878,0.22372224614620206,-0.0040974984467029565
1761383468584029400,1.269029541015625,-0.04574117595553398,0.10028057539463042,0.04505187851712107
1761383468594099500,1.279099365234375,-0.07233341480493545,0.06618073739409447,-0.022892361418157814
1761383468604168400,1.28916845703125,0.049803018566966055,0.1878799483925104,-0.20125965444743632
1761383468614238500,1.299238525390625,0.28662089312970634,0.3997983594983816,-0.371379635874182
1761383468624307500,1.309307373046875,0.329925197327137,0.3812906429052353,-0.4951622290179133
1761383468634377500,1.31937744140625,0.3484364210516214,0.2584270643025636,-0.5977050502561032
1761383468644446500,1.329446533203125,0.37212007897794247,0.26111878760457036,-0.6520487809926271
1761383468654516500,1.3395166015625,0.5250765980273485,0.22631284716129302,-0.710203448319435
1761383468664585500,1.34958544921875,0.7570575539529323,0.11057283682823181,-0.7534035614900291
1761383468674655500,1.359655517578125,0.9893839623153209,-0.044159459722042084,-0.7839099050432443
1761383468684724500,1.369724365234375,1.276147478786111,-0.4397901781469583,-0.77927406193614
1761383468694794500,1.37979443359375,1.3848176968634127,-0.3748649937719106,-0.87410499362275
1761383468704863500,1.389863525390625,0.7317185300350189,-0.38454701435267924,-0.5604195679567754
1761383468714933500,1.39993359375,1.1676841814577579,-0.7790250556111336,-0.19956585614159703
1761383468725002200,1.410002197265625,2.4077625679969787,-0.7820821050941944,-0.35912937224060293
1761383468735072300,1.420072265625,0.36296588166356086,-0.7971797209829091,0.04037044270262122
1761383468745141200,1.430141357421875,0.32990824619233605,-0.9529127190083265,0.31218700380176306
1761383468755211300,1.440211181640625,1.6191314796507357,-0.9353291315227746,-0.11362506400570273
1761383468765280300,1.4502802734375,0.43440906963050363,-1.971768275001645,-0.680406275948882
1761383468775350300,1.460350341796875,-0.9465379232794046,-2.499413846734166,-0.2174523720964789
1761383468785420300,1.470420166015625,-0.07466448810100555,-1.4147960710197687,0.17899916119202972
1761383468795489300,1.4804892578125,1.6854437344700097,-0.9864391410350799,-0.009705985978245735
1761383468805559000,1.49055908203125,2.0734084483116866,-1.0262404055476189,-0.49981648456454275
1761383468815628300,1.500628173828125,1.6236083328038453,-1.0983183842867612,-0.7486480375260114
1761383468825698300,1.5106982421875,0.9620897126764059,-1.284866207292676,-0.5360761309474706
1761383468835767300,1.520767333984375,0.220022222584486,-1.2366460740029812,0.06423033397868275
1761383468845837300,1.53083740234375,-0.4223626580059528,-0.5131155265986919,0.7613375693596899
1761383468855906300,1.54090625,-0.9669278003573417,0.47766018233597274,1.177254412227124
1761383468865976300,1.550976318359375,-1.734187014850974,1.3872130675673484,1.3832238518007098
1761383468876045300,1.56104541015625,-2.6397470310539006,1.3318091602534055,1.0704201774053275
1761383468886115300,1.571115234375,-1.7742840474396944,1.0146271246433258,0.6474747510753571
1761383468896184300,1.581184326171875,-1.4834551812261343,1.3491606925487518,0.0579084374807775
1761383468906254300,1.59125439453125,-2.357569088807702,1.1490285808265208,-0.49602688302323217
1761383468916323000,1.601322998046875,-2.6988135525286197,1.07178167501688,-0.44873321692869067
1761383468926393300,1.611393310546875,-2.7175983324974773,2.1612650109410283,0.4910566933952272
1761383468936462000,1.621462158203125,-1.3900380618602037,2.6852684267789124,1.7722389514781534
1761383468946532400,1.631532470703125,-0.3820458451867103,1.2778390851348638,1.6455932239882647
1761383468956601300,1.641601318359375,-0.4248983139634132,-0.08387363047301769,0.9206948953621089
1761383468966671000,1.651671142578125,-0.548440522480011,-0.2982873655259609,0.6105228846445679
1761383468976740400,1.661740234375,-0.5332441223919391,-0.1544955651849508,0.38341654901802535
1761383468986810000,1.67181005859375,-0.44724867745935915,0.17547171771824358,0.19958923701718448
1761383468996880400,1.68188037109375,-0.30536066491305824,0.3729115216165781,0.1595011183872819
1761383469006949000,1.69194921875,0.0195195239841938,0.0359282224714756,-0.03620725860856473
1761383469017019400,1.702019287109375,0.12838263428509233,-0.4484633139461279,-0.310836392910406
1761383469027088100,1.712088134765625,0.03401917397975921,-0.6014630876153707,-0.35961269877813756
1761383469037158100,1.722158203125,-0.5915069262683391,-0.24572365007400512,-0.02743636152334511
1761383469047227400,1.732227294921875,-4.451933231386542,1.6638889052659271,1.2004592005953192
1761383469057297200,1.742297119140625,-3.6088007375240325,2.377944352838397,1.1712316448062658
1761383469067366400,1.752366455078125,-0.2639946353018284,1.812088000655174,0.8132727045845239
1761383469077436200,1.762436279296875,0.8856336649835109,-0.005628361275792122,-0.45612774762678887
1761383469087505400,1.77250537109375,-0.17605565508604049,-0.6532371139943599,-0.816424446613714
1761383469097575200,1.7825751953125,-0.9551520223677158,-0.7332856332212686,0.16703792536659165
1761383469107644400,1.79264453125,-1.2616121729552745,-1.1310983718603849,1.0502372210763393
1761383469117714200,1.802714111328125,-1.9187860418766736,-2.176245722451806,-0.2841745959561318
1761383469127783400,1.812783447265625,-0.4524029914826154,-2.1760078220427035,-0.29863855358380825
1761383469137853400,1.822853515625,-0.15193360574245451,-0.35845629528462886,0.7578943701032549
1761383469147922200,1.832922119140625,-1.1036796190589666,0.8393512217581272,0.321727058628574
1761383469157992400,1.842992431640625,-1.702961270982027,1.259908291646838,-0.452999642201513
1761383469168061200,1.853061279296875,-2.676900411406159,1.6493267114281653,-1.1959579436533152
1761383469178131500,1.86313134765625,-3.603588555833697,1.2266378902077675,-1.7789724975168704
1761383469188201200,1.873201171875,-3.65438643065691,0.7719488336145878,-2.235361782156676
1761383469198270200,1.883270263671875,-3.2626497970610857,0.6455325309664011,-2.0245713521674276
1761383469208340200,1.89334033203125,-2.1971827120184897,0.283831554672122,-0.8996703736424445
1761383469218409200,1.9034091796875,-1.3719032702326774,0.3807423613727092,0.21512918984591958
1761383469228479500,1.9134794921875,-1.0918085640013218,1.5906442208349705,-0.02784019308388233
1761383469238548200,1.92354833984375,-0.3862567408800125,2.566354462584853,-1.2223667887598275
1761383469248618200,1.9336181640625,0.19438158537149428,3.0141689572334287,-2.474998951923847
1761383469258687200,1.943687255859375,0.7595736284270882,3.315174349546432,-3.8637411287546155
1761383469268757200,1.95375732421875,1.8327359441474078,3.656313014805317,-5.3477556974291796
1761383469278826200,1.963826171875,2.945125816145539,4.393434865188598,-7.0139102095395325
1761383469288896300,1.973896240234375,3.303704568766057,4.923670453414321,-8.340947917607426
1761383469298965200,1.98396533203125,3.549989067593217,5.155385451880097,-9.122002433219551
1761383469309035300,1.99403515625,3.4340292770296332,5.77097994070053,-8.921114534693956
1761383469319104300,2.004104248046875,3.072315733514726,6.230906897947192,-8.052318022742867
1761383469329174300,2.01417431640625,2.6642361601442097,6.782212162208557,-7.175084521836042
1761383469339243300,2.0242431640625,2.237602985212207,7.710368625622987,-6.199907948571443
1761383469349313300,2.034313232421875,2.1895792512774466,8.483200087291001,-5.245262122160196
1761383469359382300,2.04438232421875,2.115445216791332,8.67410669002831,-4.40027610938549
1761383469369452300,2.054452392578125,1.8468033402055501,8.522344933721422,-3.5776217554062604
1761383469379522300,2.064522216796875,1.694492425583303,8.379503565973042,-2.695729907299578
1761383469389591300,2.07459130859375,2.4072049341142177,8.528973411950469,-1.6856044779896735
1761383469399661300,2.084661376953125,3.7301851834848523,9.002167847049236,0.007714812161028385
1761383469409730300,2.094730224609375,4.642110058544576,8.890300878757238,2.4891701006174087
1761383469419800300,2.10480029296875,4.419978004199266,8.323508122506738,5.432306788772344
1761383469429869000,2.114869140625,2.410985767827183,7.835527621686458,9.439126016640662
1761383469439939300,2.124939208984375,0.7306710668087005,6.161093941530585,14.204997187149523
1761383469450008300,2.13500830078125,-0.3158464030921459,3.976843776321411,19.103356089174746
1761383469460078300,2.145078369140625,-1.4493302087843418,2.1056652887940404,23.093767787599564
1761383469470147300,2.155147216796875,-1.2956805929042399,0.39564766955971714,25.399285786652563
1761383469480217300,2.16521728515625,0.28395605783462524,-0.5809089598864317,26.37500479623079
1761383469490286300,2.175286376953125,2.640977449631691,0.005810147583484649,26.190230412638186
1761383469500356000,2.185356201171875,3.3930995930090546,2.279966209167242,24.653145932555198
1761383469510425300,2.19542529296875,2.9709198903545735,4.073481611299514,22.110627688109872
1761383469520495000,2.2054951171875,3.1524729738131163,5.3987640001326795,18.89163758455515
1761383469530564400,2.215564453125,3.704041565185785,5.984709200620651,15.412000987082719
1761383469540634400,2.22563427734375,3.911236454901099,6.074432726165652,11.687117709398269
1761383469550703400,2.235703369140625,3.414457146075368,6.465047077733278,7.359289581108093
1761383469560773400,2.2457734375,2.728934842287004,7.289960608816147,2.7952777845054864
1761383469570842400,2.25584228515625,2.097306918032467,7.339314130049943,-1.3841273765116928
1761383469580912400,2.265912353515625,2.3279922811895606,6.731532945328951,-4.807903262813389
1761383469590982100,2.275982177734375,2.9436224258452652,6.486647499644756,-7.3322741484105585
1761383469601051400,2.286051513671875,3.7537878851294515,7.020139459317922,-9.750590843647718
1761383469611121200,2.29612109375,4.498474617809057,8.114974093142152,-12.321286550307272
1761383469621190400,2.3061904296875,5.6773284280568355,8.528948862031102,-14.58943723399639
1761383469631260200,2.31626025390625,6.507873827546835,8.426013972735404,-16.148986059343812
1761383469641329400,2.326329345703125,7.314857734185456,8.076030322241783,-16.69368330364227
1761383469651399400,2.3363994140625,7.565089801594614,7.255698858252167,-16.03349622437954
1761383469661468200,2.34646826171875,7.384306533464789,6.467520774370431,-14.810342084634303
1761383469671538400,2.356538330078125,6.664707480290532,6.081088676923513,-13.372588916397094
1761383469681607200,2.366607177734375,5.811605381077528,5.469941815161705,-11.686900267255306
1761383469691677400,2.376677490234375,5.053327345418929,4.915545599147677,-9.928130015289783
1761383469701746200,2.38674609375,4.402392663148046,4.674363099634647,-8.171606665468216
1761383469711816200,2.396816162109375,3.927762642288208,4.526296106192469,-6.443206417325139
1761383469721886500,2.406886474609375,3.5569501387774944,4.770210661017894,-4.807940672214329
1761383469731956500,2.41695654296875,3.0597894294187427,5.429353784185648,-3.004446020120382
1761383469742026500,2.427026611328125,2.6906068651974198,6.132561674529314,-1.1828012326993047
1761383469752095500,2.437095458984375,2.3927757190063597,7.026077032673358,0.8416518999159336
1761383469762165500,2.44716552734375,2.0331794599063695,7.690701217600703,3.1633518029630183
1761383469772234500,2.457234375,0.2534194652736187,7.369006673002243,6.221975403472781
1761383469782304500,2.467304443359375,-3.242755594545603,5.250119499063492,10.365403826701641
1761383469792373500,2.47737353515625,-6.091158235517144,2.0184733275532722,15.207701234287022
1761383469802443500,2.487443603515625,-7.553238620281219,-1.0214818128436802,21.00157222123146
1761383469812512500,2.497512451171875,-7.364244573166966,-4.21269426715672,25.995561242496965
1761383469822582500,2.50758251953125,-5.732753378158807,-5.053379952389002,28.43764459776878
1761383469832651300,2.5176513671875,-4.621784771135449,-3.200066791898012,27.906307185781
1761383469842721500,2.527721435546875,-3.676436349901557,-0.43080432313680644,25.357985808014867
1761383469852790500,2.53779052734375,-2.2636948733240363,2.937376809453964,22.112453734493254
1761383469862860500,2.547860595703125,-0.8263017705708742,5.599547269240022,18.563648323726653
1761383469872929500,2.557929443359375,0.7206431553997099,7.5503405607521525,14.580366623312234
1761383469882999300,2.567999267578125,2.0227695634424685,8.506823539462685,10.309933868414163
1761383469893068500,2.578068603515625,2.5925030493199825,8.908885752239822,5.442860916012525
1761383469903138300,2.58813818359375,2.147678968659043,9.650354691916704,0.2876595885276794
1761383469913207600,2.59820751953125,2.4357155738055702,10.279151776659488,-4.398769211953878
1761383469923277300,2.60827734375,3.8947523530900474,10.325434219884873,-8.337456568360329
1761383469933347600,2.61834765625,5.956876606321335,10.412202987277507,-11.788996367639303
1761383469943416600,2.62841650390625,7.154468434786796,10.528882908809184,-14.795589921182394
1761383469953486300,2.638486328125,8.151582114571333,10.751333235323429,-17.167947998321054
1761383469963555600,2.6485556640625,9.157008864670992,10.253529844146966,-18.003449558913708
1761383469973625300,2.658625244140625,9.547691605299711,9.579889993593095,-17.35190638935566
1761383469983694600,2.668694580078125,8.819282638204097,9.2175495503515,-15.714090082979201
1761383469993764400,2.678764404296875,7.60803170222044,8.811506158983708,-13.788048370885848
1761383470003833600,2.68883349609375,6.403097109776735,7.925179835560917,-11.874015076494215
1761383470013903400,2.6989033203125,5.35031122713089,7.079798101466894,-10.184026684331894
1761383470023972600,2.70897265625,4.814899697571993,6.731498458537459,-8.635409587365388
1761383470034042600,2.719042724609375,4.6884383867383,6.688745943003893,-7.009310022267699
1761383470044111600,2.729111572265625,4.463739404514432,6.8913418144911525,-5.170464363068342
1761383470054181600,2.739181640625,3.9990731437861915,7.360580205440521,-3.2154408866405486
1761383470064250400,2.74925048828125,3.3583360304027794,8.275438211342692,-1.055597140674293
1761383470074320600,2.759320556640625,2.240579370674491,9.553218259766698,1.4981940468050539
1761383470084390400,2.769390380859375,0.5446464639592915,10.71322942237854,4.358521372717619
1761383470094459600,2.779459716796875,-2.2037252655297515,10.849455755901335,7.83994310004115
1761383470104529400,2.789529296875,-5.003430218827724,8.9818685708642,12.16843875232935
1761383470114598400,2.799598388671875,-7.023609765776992,5.821241808950901,17.157911757475137
1761383470124668700,2.809668701171875,-7.8888716738611455,2.485724344077706,22.419061184597012
1761383470134737400,2.8197373046875,-6.669059245759248,-0.060603814044594764,26.51796014574766
1761383470144807700,2.8298076171875,-4.303776806095242,-2.1710767953813073,28.519755894744396
1761383470154876400,2.83987646484375,-1.744866229775548,-2.794979678341746,28.32144164609909
1761383470164946400,2.849946533203125,-0.19819500617980956,-0.8100608298659324,26.507976511871814
1761383470175015400,2.860015380859375,0.7459585792463272,2.270163777077198,23.612561359834668
1761383470185085400,2.87008544921875,1.6710200723201036,4.918534259569645,20.23824040931463
1761383470195154400,2.880154541015625,2.5655869853436943,6.755618754315376,16.672282788217068
1761383470205224400,2.890224365234375,3.1416034970134494,7.920591338726878,13.218442310780286
1761383470215293400,2.90029345703125,3.2198756542176006,8.393193068629502,9.686983756133914
1761383470225363500,2.910363525390625,2.664502117604017,8.753455536553263,5.597053114336728
1761383470235432400,2.920432373046875,1.3196329847693442,9.628027124774455,1.1144769074052572
1761383470245502500,2.93050244140625,0.7637246106266975,10.548382559049129,-3.370365783153474
1761383470255571500,2.940571533203125,1.9255390232682228,10.848162793481348,-7.682385224676132
1761383470265641500,2.950641357421875,4.43112483663559,11.042777018564939,-11.938490179014206
1761383470275711500,2.96071142578125,7.685471500253677,11.528913352823256,-16.180618045926092
1761383470285780500,2.970780517578125,10.091531940507888,12.522144638216496,-19.606570984005927
1761383470295850500,2.9808505859375,11.093941388612985,12.602025399661063,-21.58362275236845
1761383470305919500,2.99091943359375,10.923070442688465,12.272612243509291,-21.948560810887813
1761383470315989500,3.000989501953125,9.93192005522251,11.436341452109813,-20.74388223903179
1761383470326058500,3.01105859375,8.574798174536229,10.274421825528144,-18.556298545485735
1761383470336128500,3.02112841796875,7.166912905818224,9.205767927142977,-15.92146091378331
1761383470346197200,3.031197265625,6.016308453977108,8.285404309561848,-13.33988374762535
1761383470356267500,3.041267578125,4.838052609622478,7.434217104059457,-10.912674136358499
1761383470366336500,3.05133642578125,3.8116882854342458,6.841040783274173,-8.713928412806988
1761383470376406500,3.061406494140625,2.9131828639179465,6.9413517538070675,-6.546302634662389
1761383470386475500,3.0714755859375,2.0330518880039454,7.711228457322716,-4.294293522956967
1761383470396545500,3.081545654296875,1.4109996013462542,9.004430531284212,-2.089560249428451
1761383470406614500,3.091614501953125,0.937881738615036,10.68116956577301,0.4470416105799377
1761383470416684300,3.101684326171875,-0.6439570983432233,11.942664834350348,3.5421240333065387
1761383470426754600,3.111754638671875,-3.1653187191218137,12.202144622576236,7.092590947544575
1761383470436823300,3.1218232421875,-5.678422653034329,11.112895095407962,11.109983007353543
1761383470446893600,3.1318935546875,-6.935525239610672,9.064549192160367,15.561470248538255
1761383470456962600,3.141962646484375,-6.740438720840215,6.412049647039175,20.090089829242228
1761383470467032300,3.1520322265625,-4.96134581181407,3.6402497687548396,23.909715921938417
1761383470477101600,3.1621015625,-2.0358862346470357,1.3199854514688252,26.2970693236351
1761383470487171300,3.17217138671875,0.6732043817460537,-0.4254103551387787,27.318909448397157
1761383470497240600,3.182240478515625,1.9683657730817794,0.18297347165048122,26.94135740749836
1761383470507310300,3.192310302734375,2.367922140517831,2.234786758747697,25.434920579135415
1761383470517379600,3.202379638671875,2.2630127362787724,5.365173280698061,23.46630229259729
1761383470527449300,3.212449462890625,2.567806999480724,8.253300613814591,20.93808379166126
1761383470537518600,3.2225185546875,3.2510219031095504,10.143142885279655,17.873347845751045
1761383470547588600,3.232588623046875,3.74407430036664,11.025737036436796,14.848864415252208
1761383470557657600,3.24265771484375,3.6272640304535626,11.319142475140094,11.859980705922842
1761383470567727600,3.2527275390625,2.6865292404949663,11.657720934522152,8.331212705534696
1761383470577796400,3.26279638671875,0.23062077348828314,12.226671161067484,3.762819625107944
1761383470587866600,3.27286669921875,-2.2794752107799052,12.800351338744163,-1.3854127401471137
1761383470597935400,3.282935302734375,-2.8497786054998633,12.852902194714545,-5.636856716936826
1761383470608005600,3.293005615234375,-0.4706652088820934,12.243138311743735,-9.041074793070555
1761383470618075400,3.303075439453125,5.004883340245485,12.723514767301081,-12.970868064403533
1761383470628144400,3.313144287109375,11.800068381273746,14.774685080319642,-18.389284274989365
1761383470638214700,3.323214599609375,15.242792421412467,15.328946271777152,-23.228338755130768
1761383470648283400,3.333283447265625,15.573617782449722,14.51259949350953,-25.666625056207177
1761383470658353700,3.343353759765625,14.369862755179405,12.839753959327936,-25.46883921535015
1761383470668422400,3.35342236328125,11.945870352393388,10.936530812764166,-23.097564841794966
1761383470678492700,3.36349267578125,9.580803601306677,9.507599248886107,-19.559931982427834
1761383470688561400,3.3735615234375,7.265154668861627,8.33236012200415,-15.72602835805416
1761383470698631400,3.38363134765625,5.184520945471525,7.113253211823105,-12.24421266297698
1761383470708700400,3.393700439453125,3.5731986782670018,6.264622120544314,-9.50000455597341
1761383470718773200,3.403773193359375,2.235866370677948,6.314191330355405,-7.203565935432911
1761383470728842000,3.413842041015625,1.0322172149349003,6.823159089624881,-5.055407658824325
1761383470738912000,3.423912109375,0.2932809355407953,7.773390606725216,-3.031244595196843
1761383470748981000,3.43398095703125,-0.32918168548345567,9.414725150355697,-0.6808930365525185
1761383470759051000,3.444051025390625,-1.0776590426176786,10.950255386734009,2.130023923372477
1761383470769121300,3.454121337890625,-2.2225275811553,11.89832534188628,5.5474593546062705
1761383470779190000,3.46418994140625,-4.218898967015743,11.749864965212344,9.495822886374592
1761383470789260000,3.474260009765625,-6.172717743828892,10.078132360708713,13.82347974975109
1761383470799329000,3.4843291015625,-7.2424658671915525,7.436518366739153,18.62277388191223
1761383470809399000,3.49439892578125,-5.930301318606734,4.3317064310282465,23.458588941740988
1761383470819468000,3.504468017578125,-2.81496565079391,1.5652905838698148,27.377401384854316
1761383470829538000,3.5145380859375,-0.21192367180287836,-0.3048720046132803,29.065341612315176
1761383470839607000,3.52460693359375,1.9490999315977096,-0.6826274591296911,28.47204488002062
1761383470849677000,3.534677001953125,3.278604322040081,0.9547563010483979,26.67554023294449
1761383470859746300,3.544746337890625,4.076122481197118,4.117463960888982,24.27930443661213
1761383470869816000,3.554816162109375,4.979233350682258,6.8867994948863975,21.588556117117403
1761383470879885300,3.56488525390625,5.734226373320817,8.665375102040171,18.744251559114456
1761383470889955000,3.574955078125,5.9471454859018325,9.691534259045124,15.726313604736328
1761383470900024000,3.585024169921875,5.7214422950714825,10.108822098004817,12.707480162823199
1761383470910094000,3.595093994140625,4.776458030974864,10.250994188189505,9.454473223376274
1761383470920163000,3.6051630859375,2.961894580116868,10.04807624514103,5.891885370972752
1761383470930233000,3.615233154296875,0.2523772627443075,9.776927061909436,1.677835889814794
1761383470940302000,3.625302001953125,-2.766073901852965,9.806658183306455,-2.886362077009678
1761383470950372000,3.6353720703125,-4.0188399205297225,9.41281785542965,-7.034605207043886
1761383470960442000,3.645442138671875,-2.276535211805254,9.569719897234439,-11.03261218290329
1761383470970511000,3.655510986328125,1.3401736684948204,10.881996089500188,-15.076444505870342
1761383470980581000,3.6655810546875,5.899777585527301,12.297849560618399,-19.54194156770706
1761383470990650000,3.675650146484375,8.95173003771007,12.830138574242591,-23.062474823713302
1761383471000720100,3.68572021484375,9.454020803433655,12.569087591177224,-24.690545981144904
1761383471010789000,3.6957890625,8.683873466283082,11.265410884952544,-24.443110850977895
1761383471020859000,3.70585888671875,7.747765167081355,9.470344746246933,-22.684092761731147
1761383471030928100,3.71592822265625,6.817426683452725,8.105561537152528,-20.40650088047981
1761383471040998100,3.725998046875,5.841248824191093,7.565753818461299,-17.623332635962964
1761383471051067100,3.736067138671875,4.490394771727919,7.568570629447698,-14.291138178032636
1761383471061137200,3.74613720703125,2.855969276833534,7.543133990374207,-10.811002398866414
1761383471071206100,3.7562060546875,1.331302964296937,7.707502714797854,-7.551257091075182
1761383471081276200,3.766276123046875,0.14335406651087104,8.249142325091361,-4.650627126999199
1761383471091345200,3.77634521484375,-0.8027974147342145,8.782025797477363,-2.0195057393409312
1761383471101415200,3.786415283203125,-1.8100192315571009,9.19078838467598,0.414758247416839
1761383471111484200,3.796484130859375,-3.2042771030694244,9.41525940336287,2.957811986978352
1761383471121554200,3.80655419921875,-4.154541353395581,9.232757640877365,6.118354285478592
1761383471131624200,3.816624267578125,-4.459298207196593,8.174702293395995,10.445286926233768
1761383471141693200,3.826693115234375,-3.5956150927364825,6.567917669621109,15.337498996067046
1761383471151763200,3.83676318359375,-1.6953776839852333,4.701290269526839,19.763082565188405
1761383471161832200,3.846832275390625,0.4821978257656097,3.401720414099097,23.026047419548032
1761383471171902200,3.856902099609375,2.3485820647537707,2.135408100628853,24.81297292189598
1761383471181971200,3.86697119140625,3.7350422681272026,1.2422779424101114,25.131937164747715
1761383471192041200,3.877041259765625,4.627876073747873,1.6106144111961125,24.44032618869543
1761383471202110000,3.88710986328125,5.046736276590824,3.1795307843476532,23.062304143321512
1761383471212180200,3.89718017578125,4.92760603929758,5.542009857028723,21.22699425703287
1761383471222249000,3.9072490234375,4.70570867049098,7.498164967834949,19.023021738743783
1761383471232319200,3.9173193359375,4.174614419609308,8.626761586007476,16.29875576505065
1761383471242388000,3.927387939453125,3.3855928706407545,8.969230038565398,13.075448382818697
1761383471252458000,3.9374580078125,2.215485261428356,8.821609619846939,9.674603582510352
1761383471262527200,3.94752734375,0.47168048687186087,8.665177533641456,6.0027545603990555
1761383471272597000,3.957596923828125,-1.8082921155035494,8.79139626789093,1.845885640838742
1761383471282666200,3.967666259765625,-4.297544049185515,8.972983253619073,-2.592807585224509
1761383471292736000,3.977736083984375,-5.693181830748915,8.976388093626499,-6.809044639554619
1761383471302805200,3.98780517578125,-4.784052139365673,9.619466217178106,-10.229010319918393
1761383471312875000,3.997875,-1.4151988066017627,11.048335821735858,-13.45096161136627
1761383471322945000,4.007945068359375,3.2542811971664425,13.013306691682338,-17.103961556100845
1761383471333014000,4.018013916015625,7.870275109940767,14.085413360869884,-20.694375573062896
1761383471343084000,4.028083984375,11.03412141842246,14.311257421475648,-23.12102053618431
1761383471353153000,4.038153076171875,11.46916937047839,13.732786502391098,-23.75633737808466
1761383471363223000,4.04822314453125,11.636458366262913,12.315741775661706,-22.551513844799995
1761383471373292300,4.058292236328125,11.498008511471747,11.052740778696537,-20.094960065627095
1761383471383362000,4.068362060546875,10.371213974285125,9.427079020494222,-16.948008777844905
1761383471393431300,4.078431396484375,8.139327028632163,8.44563987970352,-13.439067759954929
1761383471403501000,4.0885009765625,5.6531625395715235,8.28816325288117,-10.110369911968707
1761383471413570000,4.098570068359375,3.252428262776136,8.121127939596771,-7.055487251552939
1761383471423640000,4.10864013671875,1.4094425811626017,8.301357080975174,-4.249221624565124
1761383471433709000,4.118708984375,0.12069091073870658,9.186749922940134,-1.5711153445005417
1761383471443779000,4.128779052734375,-0.9054618165254592,10.282321054345369,1.1044690158709882
1761383471453848000,4.13884814453125,-1.8113222769796846,11.32164890500307,4.115279310326278
1761383471463918300,4.14891845703125,-3.249986130321026,11.22763674235344,7.973782246166468
1761383471473987000,4.158987060546875,-4.358377580332756,9.521520222210883,12.217452081823348
1761383471484057000,4.16905712890625,-4.905184948652982,7.413028185558319,16.258030955952403
1761383471494126000,4.1791259765625,-4.86481202173233,5.142980728337168,19.991990689539907
1761383471504196000,4.189196044921875,-3.3638895728766918,3.029809009435773,22.95690315617323
1761383471514266000,4.19926611328125,-0.996750034103915,2.094459419646859,24.958939728188515
1761383471524335000,4.209335205078125,1.2082581839084625,1.3927239399433136,25.754455315351485
1761383471534405000,4.219405029296875,3.1160885320067404,1.3579565779447555,25.363454594814776
1761383471544474000,4.22947412109375,4.04036610816121,2.041710995277762,24.219970788633823
1761383471554544000,4.239544189453125,4.2947044418454166,3.587185702565312,22.202975132417677
1761383471564613000,4.249613037109375,4.102029660391807,5.35538429261148,19.66143187048435
1761383471574683100,4.25968310546875,3.864021699261665,6.574083791035413,16.82175906393528
1761383471584752000,4.269752197265625,3.285956438368559,7.132314470645785,13.596308824455738
1761383471594822100,4.279822265625,2.5127999825298786,7.141696046975254,10.071997218954563
1761383471604891100,4.28989111328125,1.1214625285089015,6.779174401947856,6.396711792653798
1761383471614961200,4.299961181640625,-0.5893845272868872,6.374428064653277,2.350104744276404
1761383471625030100,4.310030029296875,-2.1539409516632557,6.18061054290533,-1.923034054709971
1761383471635100200,4.32010009765625,-3.501705221417546,6.0980246141552925,-6.182490365302562
1761383471645169000,4.3301689453125,-4.258794339552521,6.590616992685199,-10.260884298563003
1761383471655239200,4.3402392578125,-3.4460669208258388,7.55323745123744,-13.71782741819024
1761383471665308000,4.350307861328125,-1.159349483832717,8.734294909009337,-16.636943763810397
1761383471675378200,4.360378173828125,1.8129682906210423,9.930886620521544,-19.190735097420216
1761383471685448200,4.3704482421875,4.933042092871665,10.861314535999297,-21.499016715967652
1761383471695517200,4.38051708984375,7.711354129528999,11.183597694140673,-22.94352228107452
1761383471705587200,4.390587158203125,9.317349064230918,11.003961257958412,-22.98638410220146
1761383471715656000,4.400656005859375,9.732824885332583,10.256543639010191,-21.420347083878514
1761383471725726500,4.4107265625,9.090983610099553,9.588567805567383,-18.72812927635312
1761383471735795200,4.420795166015625,7.623727284002304,9.506560553488134,-15.455570079696178
1761383471745865500,4.430865478515625,5.8989259371340275,9.223767109692096,-12.064437110584974
1761383471755934200,4.440934326171875,4.318022189068794,8.918355591374635,-8.988487696743011
1761383471766004200,4.451004150390625,2.965176670527458,8.651248377010226,-6.294013634723425
1761383471776073200,4.4610732421875,2.062178029245138,8.540659173569082,-3.7682419424176214
1761383471786143200,4.471143310546875,1.732784162315726,8.810553388303518,-1.1180891065530478
1761383471796212200,4.481212158203125,1.2657955961197613,9.313191360029577,1.7369994419232009
1761383471806282200,4.4912822265625,0.029499061640235594,8.946972029528022,5.124224005419015
1761383471816351200,4.501351318359375,-1.3700748857617377,7.321039053168892,9.546578675621747
1761383471826421200,4.511421142578125,-3.28035905675292,4.715535067978501,14.551684134185313
1761383471836490500,4.521490478515625,-4.137171116399765,2.435547231501341,19.44062054334879
1761383471846560300,4.531560302734375,-4.069969803786278,1.3786042291760443,23.642093743789193
1761383471856629200,4.541629150390625,-2.819974418866634,1.1748416519969702,26.542306651496887
1761383471866699300,4.55169921875,-0.8310545180559158,1.017314171770215,27.86658775433302
1761383471876768300,4.561768310546875,1.0566624318182467,1.5494365966558457,27.34188115866184
1761383471886838300,4.57183837890625,2.249348368063569,3.2367788582235573,25.589419066929814
1761383471896908300,4.581908203125,2.976373771846294,5.0060652435064315,23.122727340102195
1761383471906977300,4.591977294921875,3.340378933429718,6.4628165422022334,20.162441948747635
1761383471917047300,4.60204736328125,3.065481795841455,7.366328393703698,16.808399231624602
1761383471927116300,4.6121162109375,2.257728073874116,7.723184268054366,12.962993385505676
1761383471937186300,4.622186279296875,0.8592185362666844,7.712317421603203,8.846495639300345
1761383471947255300,4.63225537109375,-0.8899889375835657,7.469208337941765,4.584283892519772
1761383471957325300,4.6423251953125,-2.5923475664973257,7.187862170344591,0.3983516678214073
1761383471967394300,4.652394287109375,-3.6294074722230434,7.298653033837676,-3.700194534368813
1761383471977464300,4.66246435546875,-3.705214700618386,8.583636145508288,-8.226510806566477
1761383471987533300,4.672533203125,-1.8490940814912318,10.85886422023773,-13.329839323472976
1761383471997603000,4.68260302734375,1.6574913131833076,12.801740162754058,-18.376930989372728
1761383472007672300,4.69267236328125,5.729234556382894,13.58185009099245,-22.646968607473372
1761383472017742000,4.7027421875,9.149522308307885,13.898469232022762,-25.598734007763863
1761383472027811300,4.712811279296875,11.195869146692752,13.589728277021646,-26.73915024306774
1761383472037881300,4.72288134765625,11.506935329771041,13.146065641355515,-25.682830341076848
1761383472047950300,4.732950439453125,10.947577107435464,12.392991019558906,-23.065095819866656
1761383472058020400,4.743020263671875,9.025981268835068,11.405502077209949,-19.368584065663814
1761383472068090000,4.753090087890625,6.675374420255422,10.917529175174236,-15.434040969455241
1761383472078159400,4.763159423828125,4.410180248284339,10.520787280637025,-11.619137813627718
1761383472088229000,4.77322900390625,2.4676474201172587,10.300998866808413,-7.985552763459086
1761383472098298400,4.78329833984375,1.0184896452903747,10.326226831567286,-4.374904644502699
1761383472108368100,4.7933681640625,-0.32576983121335507,10.065523054504395,-0.8594833246827125
1761383472118437400,4.803437255859375,-1.8489888675510882,9.950791928952931,2.581332543747127
1761383472128507400,4.81350732421875,-3.262505420154333,9.941725994443892,6.448428535887599
1761383472138576400,4.823576416015625,-4.212064737081527,9.17495251764059,11.216364822232723
1761383472148646400,4.833646484375,-4.631001512292027,7.25472387574017,16.30488739967346
1761383472158715100,4.843715087890625,-4.489727247729897,5.123502705407143,20.70432647371292
1761383472168785400,4.853785400390625,-3.7150633099377153,3.299768106099963,24.11548165563345
1761383472178854100,4.863854248046875,-2.053798323434591,1.9355320094943045,26.206889286494253
1761383472188924400,4.87392431640625,-0.3574608545064926,1.1321253768205641,26.857377978563306
1761383472198993200,4.8839931640625,1.1657377235651016,1.2235948692500591,26.29053904508352
1761383472209063200,4.894063232421875,2.3391794456362724,2.286830834239721,24.857494785189626
1761383472219132200,4.904132080078125,2.980106528633833,4.046650302997231,22.81327911361456
1761383472229202200,4.9142021484375,3.259150264507532,5.989491758722067,20.272346092534065
1761383472239271200,4.924271240234375,3.308945684289932,7.6639312840968365,17.424864073538778
1761383472249341200,4.934341064453125,3.125459002420306,8.50386819678843,14.404786769044398
1761383472259410400,4.944410400390625,2.7761346926182506,8.594182673963903,11.321383532065152
1761383472269480200,4.954480224609375,1.9740198533207176,8.25412420515716,8.160775474852324
1761383472279550200,4.96455029296875,0.8449953651249408,7.666794856834411,4.726060553646088
1761383472289619200,4.974619140625,-0.28623744677007196,6.946355845704674,1.1386344664536416
1761383472299689200,4.984689208984375,-1.8633207597643136,6.340224181756377,-2.8375071529477833
1761383472309758200,4.99475830078125,-3.2246418457061052,6.234127613559365,-6.945391969108581
1761383472319828200,5.004828125,-3.5143712262451645,6.83364248971641,-10.983368551784753
1761383472329897200,5.014897216796875,-2.2300608992695805,7.755821632286906,-14.915170240330696
1761383472339967200,5.02496728515625,0.5837882781824096,9.290310835179685,-18.576340632039308
1761383472350036500,5.035036376953125,4.001539826160669,10.557512790966033,-21.79390333313942
1761383472360106200,5.045106201171875,6.988920145189762,11.054767900609969,-23.94679097635746
1761383472370175500,5.055175537109375,9.310220235264302,11.253867746675013,-24.82958503400087
1761383472380245200,5.065245361328125,10.855303312885761,10.674516537624596,-24.266349093449115
1761383472390314200,5.075314208984375,10.885972007393836,10.086042110919951,-22.13958490252495
1761383472400384300,5.08538427734375,9.727278941643238,9.700676181399821,-19.103968668115137
1761383472410453200,5.095453369140625,7.51323277310729,9.222162012583016,-15.480197155952453
1761383472420523300,5.105523193359375,5.247768552023172,8.725962549471854,-11.777253322875499
1761383472430592300,5.11559228515625,3.230145703819394,8.61263719906509,-8.28172591331005
1761383472440662300,5.125662353515625,1.4642308407962321,8.896828234699369,-5.026647428286076
1761383472450732300,5.135732177734375,0.009507248535752296,9.466091180455685,-1.7915028932660817
1761383472460801300,5.14580126953125,-1.5109018449477851,9.966067824018001,1.5078259446337818
1761383472470871300,5.155871337890625,-3.598150748693943,9.825915841484068,5.045811562961339
1761383472480940300,5.165940185546875,-6.094767073664069,8.584182088953256,9.23843627103567
1761383472491010300,5.17601025390625,-7.310865449678897,6.823270733305812,13.460040405356883
1761383472501079300,5.186079345703125,-6.97193393907547,5.509757692721486,17.63282644049525
1761383472511149000,5.196149169921875,-6.450950747841596,3.57777197753191,21.069507693338394
1761383472521218300,5.20621826171875,-4.840106619542837,1.9389269126296043,22.74570604507923
1761383472531288300,5.216288330078125,-3.002052987504005,2.1991934673190117,23.132334541881082
1761383472541357300,5.226357421875,-1.2465303391575813,3.0259277840882537,22.34504434674978
1761383472551426000,5.236426025390625,0.9073113168496638,3.8479783269554373,21.093898622751233
1761383472561496300,5.246496337890625,2.8491981752634046,4.635065108469128,19.35839000390768
1761383472571565300,5.2565654296875,4.222176965773105,5.2526908108562225,16.998982593756914
1761383472581635300,5.26663525390625,4.87007154969573,5.559189539888501,14.415875149291752
1761383472591704300,5.276704345703125,4.601096787893772,5.602868522617221,11.628546277964114
1761383472601774300,5.2867744140625,4.2891994146883485,5.76016453217566,8.82694572017789
1761383472611843300,5.29684326171875,3.8426995097696777,5.5118111181199545,6.234279589250684
1761383472621913000,5.3069130859375,3.1487001772761345,5.175667192408442,3.7253485571086404
1761383472631982300,5.316982421875,2.1243699892640113,5.166275094684958,1.1684403335873037
1761383472642052000,5.327052001953125,1.0188204846799374,5.150628028219938,-1.743019725126028
1761383472652121300,5.337121337890625,-0.3092763770520687,5.244261420685053,-5.146305488845706
1761383472662191400,5.34719140625,-1.1363619914770127,5.423841158244014,-8.763020068234205
1761383472672260400,5.35726025390625,-0.38030280091166496,6.350339333057403,-12.238967163538932
1761383472682330400,5.367330322265625,1.5239058495581148,7.837875646117329,-15.70515858850479
1761383472692399400,5.3773994140625,3.4054631077587603,9.241038562488555,-18.96575379112363
1761383472702469400,5.387469482421875,5.248600911194086,10.15805286964178,-21.71981869075298
1761383472712538400,5.397538330078125,6.739934862971306,10.35902552384138,-23.13618303400278
1761383472722604500,5.4076044921875,7.555587229233979,9.837221663874388,-22.66085217139721
1761383472732673300,5.41767333984375,7.144412320196628,9.186269445946811,-20.53701760418415
1761383472742743600,5.42774365234375,5.878640689474344,9.192554225304722,-17.591863146466014
1761383472752813600,5.4378134765625,4.293519031453132,9.069527565094829,-14.142419442683458
1761383472762882600,5.447882568359375,3.0918659448981285,8.763772932428122,-10.5660783747375
1761383472772952600,5.45795263671875,2.069140853995085,8.763553736719489,-6.993534360986947
1761383472783021600,5.468021484375,0.9083259737849235,8.785217286995053,-3.4133035921260713
1761383472793091600,5.478091552734375,-0.6852467017173767,8.570328335645794,0.48441506342366336
1761383472803160300,5.488160400390625,-2.630661807322502,7.943892719337343,5.041473241496086
1761383472813230600,5.498230712890625,-4.44692037166059,6.774580644416809,10.092527965807914
1761383472823299300,5.50829931640625,-5.851235965198278,5.2614428571105,14.831405915451048
1761383472833369600,5.51836962890625,-5.998382336664199,4.06278544524014,18.26907617933154
1761383472843438300,5.528438232421875,-5.049961668378114,3.489759932079911,21.283531552290913
1761383472853508400,5.53850830078125,-4.785797521728277,2.4752578951209783,23.684015653717516
1761383472863577300,5.548577392578125,-3.4226480513155457,1.6503192295968532,24.416255577278136
1761383472873647400,5.5586474609375,-1.2428349917709827,1.9729531008720398,24.288154098021984
1761383472883716600,5.568716552734375,0.5708324600953608,2.910076714596152,23.15218490525484
1761383472893786400,5.578786376953125,1.7223872714638708,4.27586237873137,21.096931122314928
1761383472903855600,5.588855712890625,2.5672762536048888,5.755590648388862,18.60285337591171
1761383472913925400,5.59892529296875,3.2609248729646203,6.542897210133075,15.925502298128604
1761383472923994600,5.60899462890625,3.448905943644047,7.024063354763388,13.181997370958328
1761383472934064400,5.619064453125,3.3204163418531416,7.137334929156303,10.412128168475627
1761383472944133600,5.629133544921875,2.8934698631882667,6.936971931287646,7.670990554958581
1761383472954203400,5.639203369140625,2.17601483630538,6.636136634844541,4.934449621582031
1761383472964272400,5.6492724609375,1.0784779577851296,6.498973312732577,2.002916715850681
1761383472974342700,5.6593427734375,-0.37991000220179555,6.580844371211528,-1.3962766639888287
1761383472984411400,5.669411376953125,-1.581733769148588,6.916271088564396,-5.409615649014711
1761383472994481700,5.679481689453125,-1.8195704653650522,7.475882408878207,-9.769913968276978
1761383473004551400,5.689551513671875,-0.5682780263721943,8.910593725201487,-13.9984715749979
1761383473014620400,5.699620361328125,1.751835484266281,10.960300979930162,-17.970142332595586
1761383473024690400,5.7096904296875,4.708996021598577,12.229282804870605,-21.33421661438942
1761383473034759400,5.719759521484375,7.75747407566905,12.100634213125705,-23.762138173317908
1761383473044829400,5.729829345703125,9.769807585293053,11.754470997703075,-24.773580822706222
1761383473054898400,5.7398984375,10.359441703426837,10.927323423957825,-23.913503623783587
1761383473064968700,5.74996875,9.504701189357041,10.189762013113498,-21.47135012588501
1761383473075037400,5.760037353515625,7.799310645401477,9.959061744648217,-18.123720782935617
1761383473085107500,5.770107421875,5.971777238333225,9.387727837836742,-14.384223288965224
1761383473095176400,5.780176513671875,4.251754942435026,8.850805903714894,-10.633813940358161
1761383473105246500,5.79024658203125,2.609077752023935,8.702128084897994,-7.015958958762884
1761383473115315500,5.8003154296875,0.9082797234904021,8.723586467990279,-3.582146539354324
1761383473125385500,5.810385498046875,-1.4461024789094925,8.593320504176615,0.10021691730758174
1761383473135454500,5.820454345703125,-4.242842737182975,7.9800553350865835,4.269011197662353
1761383473145524500,5.8305244140625,-7.022920614469051,6.937256008926034,9.103749568170308
1761383473155593500,5.840593505859375,-8.915217293348908,5.588989634868502,14.186680609214305
1761383473165663500,5.85066357421875,-8.836753997486829,3.9275399394482373,19.087671028786897
1761383473175735600,5.860735595703125,-7.139096678131819,2.4048440502017736,23.616098886311054
1761383473185804300,5.87080419921875,-5.871205571037531,0.6298802038043737,27.06442498424053
1761383473195874600,5.88087451171875,-3.956988736772537,-0.6383697997301817,28.100497047972677
1761383473205943600,5.890943603515625,-1.9350474408477543,-0.07771510784327984,27.521785305869578
1761383473216013300,5.901013427734375,-0.6529004293859004,1.1701456031352282,25.934170077466963
1761383473226082600,5.91108251953125,0.4956190328747034,3.2607378259599207,23.876720830309388
1761383473236152300,5.92115234375,1.8366607163757085,5.416896453672647,21.371165412080288
1761383473246221600,5.9312216796875,2.573849786776304,6.866492619916796,18.358573494905233
1761383473256291300,5.941291259765625,2.3702280793726445,7.689205426084995,15.026208356583117
1761383473266360600,5.951360595703125,1.558917541706562,8.072793240016699,11.573564979976416
1761383473276430300,5.961430419921875,0.2404868819316849,8.171179379966855,8.03369924699068
1761383473286499600,5.97149951171875,-1.4431325231879948,8.10912361354828,4.1087744584769
1761383473296569600,5.981569580078125,-2.694462956103682,8.551659291011095,-0.3614581074491143
1761383473306638600,5.991638671875,-3.024633068102598,9.690848614868521,-5.206094479376078
1761383473316708600,6.00170849609375,-2.1177187146812675,11.02680904958248,-10.173362666976452
1761383473326777300,6.01177734375,0.1297568452477455,12.195064893448352,-14.6392151181221
1761383473336847600,6.02184765625,3.0163141525685786,13.066597552365064,-18.557307430267333
1761383473346916400,6.031916259765625,5.790810430330038,13.436495863640308,-21.70654302959442
1761383473356986600,6.041986572265625,8.41613672184348,12.849327258837222,-23.551944101786614
1761383473367055400,6.052055419921875,9.780118551427126,12.365472898036241,-23.798551548957825
1761383473377125400,6.06212548828125,10.019942037546635,11.579683755117655,-22.552645479178427
1761383473387195600,6.072195556640625,9.523732053041458,10.510475145459175,-20.212872159302233
1761383473397264400,6.082264404296875,8.210005077445507,9.685613052302598,-17.174969275259972
1761383473407334700,6.092334716796875,6.816233674275875,8.77850872926712,-13.857026630043983
1761383473417403400,6.1024033203125,5.835621047437191,7.963573571363091,-10.52797923796773
1761383473427473700,6.1124736328125,5.1359074289500715,7.514734994363784,-7.397306884813308
1761383473437542400,6.12254248046875,4.368818310326337,7.5483286364078515,-4.569054466944933
1761383473447612400,6.1326123046875,2.59549170974195,8.000814629998803,-1.7226913689769803
1761383473457681400,6.142681396484375,-0.33305410647001116,7.866698420497775,1.5566355682492254
1761383473467751400,6.15275146484375,-3.569548923587799,7.1823664955377575,5.356795328453183
1761383473477820400,6.1628203125,-6.449101905104517,6.4659910805851215,9.545914658755063
1761383473487890400,6.172890380859375,-8.602216342815757,5.181124873292446,13.84923729134202
1761383473497959400,6.18295947265625,-9.089077484217286,3.2050252910882233,18.669786977499722
1761383473508029400,6.193029541015625,-7.845639265856146,1.1124521235793827,23.148441627073286
1761383473518098700,6.2030986328125,-6.608932401576638,-0.9326455915272235,25.799395696318147
1761383473528168400,6.21316845703125,-5.440417029991746,-1.8682973791331052,26.56695477054119
1761383473538237700,6.22323779296875,-4.390677090913057,-1.7647493263751268,26.300286532115933
1761383473548307500,6.233307373046875,-2.885061515805125,-0.21881810749173164,25.194838734340667
1761383473558376400,6.24337646484375,-1.2131476364504545,2.094728299716115,23.321668196213245
1761383473568446500,6.253446533203125,0.484843298773095,3.925453196302056,20.88286283969879
1761383473578515500,6.263515380859375,1.333848557126522,5.667551714929938,18.057386900806424
1761383473588585500,6.27358544921875,1.2494137856394052,7.191234861648082,14.875765281659364
1761383473598654500,6.283654541015625,0.3278898921072483,8.311715393382311,11.329373946297167
1761383473608724500,6.293724365234375,-1.1892729859966784,9.23974326198101,7.290974169772863
1761383473618793500,6.30379345703125,-2.313963171315193,10.026166026628017,2.626778828409314
1761383473628863500,6.313863525390625,-2.3233266274660824,10.662075573724508,-2.15698192679435
1761383473638932500,6.323932373046875,-1.1195505574077367,11.129822849333285,-6.847364725598693
1761383473649002500,6.33400244140625,1.0097469513863324,12.058815179049969,-11.860122160220145
1761383473659072500,6.344072509765625,2.936957122737169,13.231894497549533,-16.68333142097592
1761383473669141500,6.3541416015625,5.086324775135517,13.272820382177828,-20.70749458235502
1761383473679211300,6.364211181640625,6.774260326421261,12.743699477195738,-23.419372199118136
1761383473689280500,6.374280517578125,7.8269386570394035,12.197012520384789,-24.25509353994131
1761383473699350500,6.3843505859375,8.269692945688963,11.70474104437232,-23.5319721578598
1761383473709419500,6.39441943359375,8.270079899179935,10.763522854810953,-21.72707377644777
1761383473719493400,6.404493408203125,7.785215484553575,9.991777434813976,-19.18050362626314
1761383473729562400,6.414562255859375,7.101843929058313,8.91896232509613,-16.093608455514907
1761383473739632400,6.42463232421875,6.34807021908164,7.662958639672398,-12.880465908944606
1761383473749701400,6.434701416015625,5.304146857327223,6.864758927991986,-9.844799405652283
1761383473759771400,6.444771484375,3.8689112248688935,6.837226193422079,-7.030250518965721
1761383473769840000,6.454840087890625,2.0736030941009522,7.143782790121436,-4.164683684964478
1761383473779910400,6.464910400390625,0.08090060601159929,7.686697827178239,-1.189197655738145
1761383473789979400,6.4749794921875,-2.3070313262254,8.48051537825167,2.7861279711052775
1761383473800049400,6.48504931640625,-4.218288141641021,8.23957662436664,8.17163647608459
1761383473810118400,6.495118408203125,-5.431155280649662,7.230570262214541,14.103165290659666
1761383473820188200,6.505188232421875,-6.628554216891526,5.493557084026932,19.66589060345888
1761383473830257400,6.51525732421875,-6.82146456066668,2.8965736744225024,24.313905794394014
1761383473840327200,6.5253271484375,-5.615501209697127,0.06706161188185214,27.92579514558315
1761383473850396400,6.535396484375,-3.4542402904093263,-2.255682247260213,29.811273376619813
1761383473860466200,6.545466064453125,-1.3953706550598144,-2.374468201160431,29.624081410491463
1761383473870535400,6.555535400390625,0.19962533124387263,-0.3371726842373609,27.71020009179115
1761383473880605400,6.56560546875,1.7034376563221216,2.241274367201328,24.53906362630129
1761383473890675200,6.57567529296875,2.7020588180601597,4.544194750976562,20.682678121006486
1761383473900744400,6.585744384765625,3.5936470075339075,6.296759718561172,16.64805318684578
1761383473910814200,6.595814208984375,4.0891953132599586,7.120166936734318,12.824119167822598
1761383473920883500,6.605883544921875,3.5974200963318346,7.5053569251656524,9.124482559597492
1761383473930953200,6.615953125,2.135629196033627,7.763876928448677,5.295108395346999
1761383473941022500,6.6260224609375,0.20107494553029537,7.854439827427267,1.3537562036454678
1761383473951092200,6.63609228515625,-1.6702327213346957,7.984845491972565,-2.555201784929633
1761383473961161500,6.646161376953125,-2.889412696751952,8.337180674028396,-6.096028471902012
1761383473971231500,6.6562314453125,-2.5144986031413077,8.880930408343673,-9.670995328885317
1761383473981300500,6.666300537109375,-1.19219793353267,9.598960604766011,-13.649348340725897
1761383473991370500,6.67637060546875,0.2745300578415394,10.321453625816106,-17.581001560711858
1761383474001439200,6.686439208984375,2.0226316162765023,11.123972954261303,-20.712374171090126
1761383474011509500,6.696509521484375,4.903334352350234,11.791242100739478,-22.860812433683872
1761383474021578200,6.706578125,7.980226015478372,10.704438213157653,-23.20101118774414
1761383474031648500,6.7166484375,9.252605081641674,9.255418385496736,-21.312198843848705
1761383474041717200,6.72671728515625,9.831640648871659,8.564505913102627,-18.470611143589018
1761383474051787300,6.736787353515625,7.600612950396537,8.38085030440688,-14.561180276805162
1761383474061856300,6.746856201171875,5.0911821520388125,8.645902339807153,-10.808264498335122
1761383474071926300,6.75692626953125,2.5941665986180302,8.663361424130201,-6.975296108984947
1761383474081995300,6.766995361328125,0.9104220692813396,8.639318869763612,-3.107554512417316
1761383474092065300,6.777065185546875,-0.7211895372360945,8.81687206993103,1.0640125023201108
1761383474102134500,6.787134521484375,-2.2912878136485815,8.567094176030158,6.036585518330336
1761383474112204300,6.797204345703125,-2.76985049778223,7.316925772631168,10.897484750533103
1761383474122273500,6.8072734375,-1.646615698903799,5.729775239130854,14.910574729233979
1761383474132343300,6.81734326171875,-0.45661564074158667,3.333513723835349,18.145906895780563
1761383474142412500,6.82741259765625,0.1487970612823963,1.0752724397420883,20.03714149838686
1761383474152482300,6.837482421875,0.38382629886269565,0.16980594704151153,20.570234814131258
1761383474162552300,6.84755224609375,0.7299906833291053,-0.2793307361215353,19.727047959733007
1761383474172621300,6.857621337890625,1.3850959292829035,-0.03070318129956722,17.883642445272205
1761383474182691300,6.86769140625,2.310783372235298,1.2923667921811341,15.340803882831334
1761383474192760600,6.877760498046875,3.0417607285141943,2.806746103981137,12.42002632600069
1761383474202830300,6.887830322265625,3.5391263127952812,4.203457067734003,9.337141559937596
1761383474212899300,6.8978994140625,3.60410527318418,5.3314112963497635,6.2170695112526415
1761383474222969300,6.90796923828125,3.547746257102489,5.852129114645719,3.2109535120934245
1761383474233038300,6.918038330078125,3.3229712870329617,6.006909926512837,0.5878853017050772
1761383474243108400,6.9281083984375,2.937015574926138,5.678554170459509,-1.5632127546824515
1761383474253177300,6.93817724609375,2.486249244734645,4.978176535105705,-3.1737127457186576
1761383474263247400,6.948247314453125,1.6927638482250271,4.242093380120396,-4.1542865018516775
1761383474273316400,6.95831640625,0.8718108913362026,3.3466590366125106,-4.642822006206214
1761383474283386400,6.968386474609375,-0.12315437824279069,2.6343904724568126,-4.805286358313262
1761383474293455400,6.978455322265625,-1.1737725614607333,2.1997546083331105,-4.677151561309397
1761383474303525400,6.988525390625,-1.7096239437416194,1.850302288237214,-4.46567329518646
1761383474313594400,6.998594482421875,-2.0754247565701602,1.5099468823105096,-4.100874060615897
1761383474323664400,7.008664306640625,-1.9790870735824106,0.6033475861877202,-3.8771211270704864
1761383474333733400,7.0187333984375,-1.875539605346322,0.016130466067790984,-3.772676125472784
1761383474343803400,7.028803466796875,-2.2188044689789415,-0.0011859949141740799,-3.4901565301820634
1761383474353872400,7.038872314453125,-2.3630700243115426,0.1324842243850231,-3.3030966660007834
1761383474363942400,7.0489423828125,-2.0695178706139323,0.5063461785942316,-3.022436434841156
1761383474374011400,7.059011474609375,-1.2130372348785399,0.7632265979766846,-2.427662469600886
1761383474384081400,7.069081298828125,-0.10928951901942491,0.6603115824252367,-1.8932180315084755
1761383474394150100,7.079150146484375,0.03961450976878404,0.8682938231259584,-2.742751770715415
1761383474404220400,7.089220458984375,-0.21593699909746647,1.5117764358252286,-1.4912925968535244
1761383474414289400,7.099289306640625,0.9280331292957067,1.2913462169617413,-1.3638492892451584
1761383474424359400,7.109359375,0.7533458399534225,0.9695043728470801,-0.501161980889365
1761383474434428400,7.119428466796875,0.9968909769445657,0.6063333240002393,0.1537973537877202
1761383474444498200,7.129498291015625,0.36453415389358995,0.3482312538683414,0.8082828604079783
1761383474454568400,7.139568359375,-0.8868471324265003,-0.5457581515282393,0.5664081408470869
1761383474464637200,7.14963720703125,-2.5800813746422526,-0.958562707594037,-0.1766181112743914
1761383474474707500,7.15970751953125,-2.8056232374310492,-1.32777245208323,-2.04343065867722
1761383474484776200,7.169776123046875,-3.689658819568157,-3.038829935759306,-5.984018295747041
1761383474494846500,7.179846435546875,-3.507440550199151,-2.7957255282729863,-6.245732126635312
1761383474504915500,7.18991552734375,-1.7645803995490073,0.39118075327873225,-1.015426019936055
1761383474514985200,7.199985107421875,0.9697241530776023,0.2150859352260828,-1.6619149748444557
1761383474525054500,7.210054443359375,1.3980676390588282,-0.6568617342323064,-2.2665394491001964
1761383474535124200,7.220124267578125,1.0424456904172896,-0.2599889067918062,-0.9580466478306799
1761383474545193500,7.230193359375,0.6049339785963297,-0.00019172317981719968,-0.25638072623200714
1761383474555263200,7.24026318359375,0.2064157220363617,-0.31696985416412354,0.19424283448792992
1761383474565332500,7.25033251953125,-0.2814046197861433,-0.5557412008821964,0.43715003890171644
1761383474575402200,7.26040234375,-0.8836609036058187,-0.7296002227067947,0.6289363470830023
1761383474585471500,7.270471435546875,-1.6873182961702347,-0.7770370966643094,0.6778703277304768
1761383474595541500,7.28054150390625,-2.7768963246405125,-0.5722907691448926,0.8549183548547327
1761383474605610500,7.290610595703125,-2.4963170497626064,-0.7162059036046267,0.580311578515172
1761383474615680500,7.300680419921875,-1.767054096186161,-1.190055003219843,0.3361795084815472
1761383474625749200,7.310749267578125,-1.5432733978509903,-1.464967922899127,0.6071496088191867
1761383474635819500,7.320819580078125,-1.3986422240763903,-1.7118296370923518,0.3906598712097853
1761383474645888300,7.33088818359375,-1.3018150040060281,-1.5134312172949314,-0.1019944666404277
1761383474655958500,7.34095849609375,-0.9178232854485511,-0.901648395717144,-0.33867307886295017
1761383474666027300,7.35102734375,-0.5018213946461677,-0.2857376805543899,-0.6958204104408622
1761383474676097300,7.36109716796875,-0.40174014121592044,0.14101649040877817,-0.8873728368010372
1761383474686166300,7.371166259765625,-0.377339274930954,0.5026847334772349,-0.5572547472503036
1761383474696236300,7.381236328125,-0.23283552692830561,0.2996644990980625,-0.22102820302294565
1761383474706305300,7.39130517578125,-0.28964930104017256,-0.19825521193444728,-0.3874683086268604
1761383474716375300,7.401375244140625,-0.7557312737852334,-0.17423077774643897,-0.6402921460948884
1761383474726440400,7.4114404296875,-0.9225549901455641,-0.13073124323785304,-0.7231680707674473
1761383474736510500,7.421510498046875,-0.8017121037155389,-0.05971241816282272,-0.6270647079922258
1761383474746580500,7.43158056640625,-0.7729039423823356,0.06934007820785046,-0.6693524555582553
1761383474756649500,7.4416494140625,-0.5598778622955084,0.0722001438140869,-0.6404834308832883
1761383474766718500,7.451718505859375,-0.3276543297857046,0.017733225089311598,-0.479745244981721
1761383474776788500,7.46178857421875,-0.1704430759012699,-0.031465982365608214,-0.32310806465819475
1761383474786857500,7.471857421875,-0.15535656592845914,0.16123860970437526,-0.21827899564635006
1761383474796927500,7.481927490234375,-0.14061375482678412,0.3149240275502205,-0.07538515792521648
1761383474806997500,7.49199755859375,-0.22261633073091505,0.23004443490505216,0.04124631222169846
1761383474817066500,7.50206640625,-0.3138204502224922,0.05976210252344608,0.049408859017072246
1761383474827136500,7.512136474609375,-0.15117022015452383,-0.1449164204567671,0.0015374295671936123
1761383474837205500,7.52220556640625,0.1325146195232868,-0.30660335845053194,-0.020759340577991676
1761383474847275500,7.532275634765625,0.3335071474671364,-0.5538309833467007,0.05700771664823405
1761383474857344500,7.542344482421875,0.2279699667185545,-0.738402537843585,0.06835939660742879
1761383474867414500,7.55241455078125,0.05857435404360294,-0.7917424983650445,0.09774937641657888
1761383474877483300,7.562483154296875,-0.1943862615466118,-0.5674100113660097,0.08999556568572298
1761383474887553500,7.572553466796875,-0.41142040823101994,-0.1498649827748537,0.013818316667899488
1761383474897622500,7.58262255859375,-0.4763455926060676,0.17838439029455183,-0.1411560632762499
1761383474907692500,7.592692626953125,-0.3007102087587118,0.2625625566720962,-0.22566945295752955
1761383474917761500,7.602761474609375,-0.17112988912165164,0.27912732250392436,-0.2546307407595217
1761383474927831300,7.612831298828125,-0.13104863862395286,0.03143734079301357,-0.2090772511295043
1761383474937900500,7.622900634765625,-0.2308487370252609,-0.19917232677936553,-0.1532985008874908
1761383474947970300,7.63297021484375,-0.27965806837975976,-0.3432148870110512,-0.20886446689534932
1761383474958039600,7.64303955078125,-0.32638825537264343,-0.351564782205224,-0.3399947193881497
1761383474968109300,7.653109375,-0.2717617621719837,-0.24344401470422744,-0.4734030728807673
1761383474978178600,7.663178466796875,-0.305558817833662,-0.08910451686382294,-0.49065761107504363
1761383474988248600,7.67324853515625,-0.43842064335942266,-0.023630466434359548,-0.40427203431371594
1761383474998317600,7.683317626953125,-0.404711850503087,-0.053532268223166465,-0.40144071987792845
1761383475008387600,7.6933876953125,-0.1684346586883068,-0.04643441891670227,-0.33509558570235964
1761383475018456600,7.70345654296875,0.038591304200887674,0.02037000333368778,-0.225038151050359
1761383475028526600,7.713526611328125,0.22134382657706736,0.01666179646551609,-0.12421009784080088
1761383475038595300,7.72359521484375,0.3982826942384243,-0.07454115398228169,-0.01369585933201015
1761383475048665600,7.73366552734375,0.3197942639350891,-0.12602467298209666,0.12625826254226266
1761383475058734300,7.743734375,0.2189244904756546,-0.13347265090048313,0.207343942797184
1761383475068804600,7.7538046875,0.24730828891694545,-0.06526712968051433,0.2618365804851055
1761383475078873300,7.763873291015625,0.42196401407718653,0.011783376774191856,0.2009861712682992
1761383475088943400,7.773943359375,0.5548965667515993,0.08515139532387256,0.1047062828823924
1761383475099012400,7.784012451171875,0.607352145653963,0.16569091293811797,0.2299276766575873
1761383475109082400,7.794082275390625,0.6211375099003315,0.05355331101119518,0.3071257748894393
1761383475119151600,7.804151611328125,0.4587064755409956,-0.09134206665754317,0.3395486195884645
1761383475129221400,7.814221435546875,0.3717909931540489,-0.10149170475006103,0.3728015584360808
1761383475139290600,7.82429052734375,0.3841735048651695,-0.0019499650239944457,0.3851406693968922
1761383475149360400,7.8343603515625,0.39126492443084715,0.08972294102311133,0.3189774676594883
1761383475159430400,7.844430419921875,0.499726468193531,0.14293722933828829,0.20162461530230938
1761383475169499400,7.85449951171875,0.6420569638103246,0.13864274701476095,0.09812368962168692
1761383475179569400,7.8645693359375,0.6643436144202948,0.13330080146491527,0.07369578919932246
1761383475189638400,7.874638427734375,0.5927618947654962,0.10892448509931564,0.11591891056392341
1761383475199708400,7.88470849609375,0.5600678319096565,0.013375029879808426,0.05163980554006994
1761383475209777700,7.894777587890625,0.5605401255965232,-0.10187339754402637,-0.05656816532034427
1761383475219847400,7.904847412109375,0.49196460202038284,-0.090339027094841,-0.09420074402429163
1761383475229916700,7.914916748046875,0.26833061867952346,-0.04342179309725761,-0.2012966985221952
1761383475239986400,7.924986328125,0.15074235013127327,0.08269289625585079,-0.2907215699141845
1761383475250055400,7.935055419921875,0.052848962134122844,0.1193354044765234,-0.39125422037374225
1761383475260125400,7.94512548828125,0.10975684427022933,0.05898702649772167,-0.38219504439905283
1761383475270194400,7.9551943359375,0.245250187343359,-0.10420213275253772,-0.28921858147270973
1761383475280264400,7.965264404296875,0.13241641984581948,-0.11343524052202701,-0.058222398800775406
1761383475290333400,7.97533349609375,0.028335867646336554,-0.0730196435034275,-0.04781937046907842
1761383475300403700,7.98540380859375,0.1541828459739685,-0.05602408503890037,-0.18368191218078136
1761383475310472400,7.995472412109375,0.1970814919799566,-0.07021510747671127,-0.15863131328281013
1761383475320542500,8.00554248046875,0.19802900196313858,-0.09500877247154713,-0.11947481294721364
1761383475330611500,8.015611572265625,0.16821955463290214,-0.08837152641415595,-0.10575115229282528
1761383475340681500,8.025681396484375,0.1336602824270725,-0.07291326051950454,-0.08771258758138865
1761383475350750500,8.03575048828125,-0.007201309680938721,-0.07772621375918388,-0.047670682713389395
1761383475360820500,8.045820556640624,-0.15243804813325404,-0.09972118794620037,-0.014641433086432516
1761383475370889500,8.055889404296876,-0.1514203955233097,-0.08150397873222827,0.0005949336858466267
1761383475380959500,8.06595947265625,-0.09569558569192886,-0.04171966535449028,-0.015705372523516416
1761383475391028500,8.076028564453125,-0.01659282288253307,-0.012801613906025886,-0.04849843877442181
1761383475401098500,8.086098388671875,0.0795464149236679,-0.011004793617129326,-0.04880414372272789
1761383475411167500,8.09616748046875,0.053422962629795075,-0.02722586057782173,-0.023704481518641112
1761383475421237500,8.106237548828124,-0.007690554502606391,-0.07619009023308754,-0.01760583584997803
1761383475431306500,8.116306396484376,0.01703296786546707,-0.12180442493855953,-0.020694778308644888
1761383475441376500,8.12637646484375,0.03099251963496208,-0.05337035565972328,-0.03935998701844364
1761383475451445500,8.136445556640625,-0.002613397368788719,-0.04368950412273407,-0.08287818969488144
1761383475461515500,8.146515625,-0.014075287103652953,-0.11321019959449767,-0.12186587280221282
1761383475471584500,8.15658447265625,0.0840127466827631,-0.1339350077152252,-0.13590846321266142
1761383475481654500,8.166654541015625,0.1069657522469759,-0.05251461561322212,-0.11179068818539381
1761383475491723500,8.1767236328125,0.10962415780127048,0.03245674696862697,-0.06670059654973447
1761383475501793300,8.186793212890626,0.10000351201891898,0.016553075394034385,-0.053301601272448894
1761383475511862500,8.196862548828125,0.11209493182897567,-0.05189560693204403,-0.042676125829108055
1761383475521932500,8.2069326171875,0.0686193627178669,-0.08815700688064097,-0.02326579784043133
1761383475532002600,8.21700244140625,0.08874035972654819,-0.07051204459667205,-0.039284510629437865
1761383475542071600,8.227071533203125,0.13926175569593904,-0.038898178192973136,-0.06231449041999876
1761383475552141300,8.237141357421875,0.17235972317755222,-0.00803483789563179,-0.060070054227765644
1761383475562210600,8.24721044921875,0.1828863778889179,0.038158758002519604,-0.027258228477463124
1761383475572280300,8.2572802734375,0.15662497842907905,0.02348842761516571,0.007650825280416757
1761383475582349600,8.267349609375,0.1536725583642721,-0.029035540348291394,-0.005263108159974217
1761383475592419300,8.27741943359375,0.1699292811602354,-0.042238136270642275,0.0037110016134567557
1761383475602488600,8.287488525390625,0.09822188929915428,0.018800562059879303,0.024460030859988182
1761383475612558300,8.297558349609375,0.11000585059523582,0.04109598049819469,-0.01341185475885868
1761383475622627600,8.307627685546874,0.20416589728295803,0.027207740399241447,-0.0305828793881461
1761383475632697600,8.317697509765624,0.2060620862931013,0.0411696302562952,-0.02696001271586865
1761383475642766600,8.3277666015625,0.2349760460883379,0.023498364487290382,-0.05286521914917976
1761383475652836600,8.337836669921876,0.25370763456523415,0.010334347009658813,-0.01771156124677509
1761383475662905300,8.3479052734375,0.1559644686937332,0.022772388300299644,-0.03393734091520309
1761383475672975600,8.3579755859375,0.08589081551432609,-0.0688894118309021,-0.0062708969630301
1761383475683044400,8.36804443359375,0.025373510709404943,-0.08876432512402534,0.01983849027287215
1761383475693114600,8.378114501953124,0.056658875811100004,-0.0047702831417322155,0.00238313227687031
1761383475703183400,8.388183349609376,0.1520861659556627,0.01882102032601833,-0.045357583465427155
1761383475713253400,8.39825341796875,0.1653892996430397,0.02556581841111183,-0.06595544073823839
1761383475723322600,8.408322509765625,0.16660159804224967,0.018144728499650955,-0.058470893669128415
1761383475733392600,8.418392578125,0.17208792049884794,-0.03671323536932468,-0.03156885821819305
1761383475743462000,8.4284619140625,0.1088520043849945,-0.08851707236468792,-0.02352949027791619
1761383475753531600,8.43853173828125,0.06156535255312919,-0.07377484578490257,-0.02508179775383323
1761383475763601000,8.448600830078124,0.07936696670353412,-0.02388707154393196,-0.04634882299248129
1761383475773670700,8.458670654296874,0.1546446182668209,0.015005845952033995,-0.09379873909465967
1761383475783740000,8.468739990234376,0.2960755346953869,0.07130933245420455,-0.12808675661105662
1761383475793809700,8.4788095703125,0.1832569647669792,0.07759118920266628,-0.02720379487648606
1761383475803879000,8.48887890625,0.12624620677828788,-0.00786357298195362,-0.013826974898390472
1761383475813948700,8.49894873046875,0.13030161964893341,-0.017949498188495634,-0.04674662667103111
1761383475824017700,8.509017578125,0.10214286213517189,-0.07347030988037585,-0.04552840998768806
1761383475834088000,8.519087890625,0.1518348215430975,-0.09807049812972544,-0.05555281426534056
1761383475844156700,8.52915673828125,0.21771394564211366,-0.08667173675894736,-0.06419328990392387
1761383475854227000,8.53922705078125,0.21451836447119713,-0.06321838045716285,-0.04994662828873843
1761383475864295700,8.549295654296875,0.10104571454823016,-0.024928689551353453,-0.029357429246418175
