time,seconds_elapsed,z,y,x
1761307332880314400,0.094314453125,0.07542436655759811,0.0014854162521660327,-0.0250552385404706
1761307332890242300,0.1042421875,0.10580080012083053,0.003148965550214052,-0.020931875000149012
1761307332900170200,0.114170166015625,0.05459259093105793,-0.012976678211987018,-0.002895502245798707
1761307332910097400,0.124097412109375,-0.0002530979782342911,-0.0045290217317640775,0.044305736324936146
1761307332920025300,0.134025390625,-0.035084757384657855,-0.01927344026863575,0.09750270817913115
1761307332929953300,0.143953369140625,-0.10890578039884567,0.009950023867189883,0.11237279892228542
1761307332939880400,0.15388037109375,-0.16998305717408657,0.022876140935719012,0.09881057590730488
1761307332949808400,0.163808349609375,-0.18375147028565406,0.01451791630461812,0.07632146152779459
1761307332959736300,0.173736328125,-0.18293606224954126,0.02021291307583451,0.04669138935245573
1761307332969664300,0.183664306640625,-0.1028220765709877,0.01268207917958498,0.053294440879300235
1761307332979591400,0.19359130859375,-0.032660160586237906,0.000036678748577833174,0.0562746987991035
1761307332989519400,0.203519287109375,0.004948562318086624,-0.007937515000998973,0.07023527348190546
1761307332999447300,0.213447265625,0.026094226199388504,-0.009411971467733383,0.06328793856203556
1761307333009374500,0.22337451171875,-0.013244681498408318,-0.024061551328003406,0.03402129287160933
1761307333019302400,0.233302490234375,-0.09419979417622089,-0.030692075383663177,0.028988340205699202
1761307333029230300,0.243230224609375,-0.16363573397397993,-0.014755524452775715,0.018645371498167515
1761307333039158300,0.253158203125,-0.15869067878723145,-0.006164367848634719,0.0013696809180080889
1761307333049085400,0.26308544921875,-0.16281506524085998,-0.009168225839734078,0.00014693419001996516
1761307333059013400,0.273013427734375,-0.1814525456935167,-0.020174334631115197,-0.009184738583117722
1761307333068941300,0.28294140625,-0.1706084955960512,-0.029115035325288773,-0.013353694830834865
1761307333078868500,0.292868408203125,-0.1478033740699291,-0.024509441225975752,-0.0012779840465635061
1761307333088796400,0.30279638671875,-0.09582534955143927,-0.014066665405780077,0.020782383526861667
1761307333098724400,0.312724365234375,-0.10408756646215915,-0.026672464478760958,0.048055005855858327
1761307333108652300,0.32265234375,-0.12163608263432979,-0.014213380400091409,0.03340228419043124
1761307333118579500,0.332579345703125,-0.17021861949563025,-0.0059321665279567235,-0.020652692732587456
1761307333128507400,0.34250732421875,-0.14956512304544448,0.009963614001125097,-0.04720642620250583
1761307333138435300,0.352435302734375,-0.09678162736296653,0.013806553164869546,-0.06485920646674931
1761307333148362500,0.362362548828125,-0.024442367339134213,-0.018888094212859866,-0.034469255834817886
1761307333158290400,0.37229052734375,0.049051907938718796,-0.07639116576313972,0.017055471958220002
1761307333168218400,0.38221826171875,0.10682897412478923,-0.10261661712676286,0.062406187291443344
1761307333178145500,0.3921455078125,0.12938567384779454,-0.10823694122657179,0.0827132083915174
1761307333188073500,0.402073486328125,0.09671265377998352,-0.11284560406580567,0.12015753451436757
1761307333198001400,0.41200146484375,0.03894026376903057,-0.09325593745484947,0.15156725664809345
1761307333207929300,0.421929443359375,-0.027789339679479597,-0.052294104730337854,0.172050511097908
1761307333217856500,0.4318564453125,-0.0697697017967701,-0.01735065551251173,0.1618019426755607
1761307333227784400,0.441784423828125,-0.09159574915766716,0.01930748866870999,0.142581547768414
1761307333237712400,0.45171240234375,-0.14012801713645456,0.04272051296010613,0.11873568501770496
1761307333247639300,0.461639404296875,-0.1523608912438154,0.052410424586385486,0.08194142030142247
1761307333257567500,0.4715673828125,-0.13845394644439218,0.07230959553793072,-0.0032489187933504578
1761307333267495400,0.481495361328125,-0.08665127849280833,0.06469137561917304,-0.04471738586574792
1761307333277423400,0.49142333984375,-0.010374679020047187,0.03668722414523363,-0.03541048220768571
1761307333287350500,0.5013505859375,0.0692418785303831,0.013233575582504271,-0.0010690905362367629
1761307333297278500,0.511278564453125,0.12017068625688553,-0.00703793581277132,0.050417278007790445
1761307333307206400,0.521206298828125,0.15642039576768874,-0.024762100812792776,0.08276581536158918
1761307333317133300,0.53113330078125,0.18609189593195913,-0.03295139861777425,0.05945990470647811
1761307333327061500,0.5410615234375,0.22321663471162317,-0.052259764069318766,0.030029081430286167
1761307333336990000,0.550989990234375,0.2537678403198719,-0.06738324505165219,-0.01748012711107731
1761307333346918000,0.56091796875,0.2539712539374828,-0.054778907283395524,-0.09592961364351213
1761307333356844800,0.5708447265625,0.1978045455574989,-0.030891981869935987,-0.20662505393810568
1761307333366773000,0.58077294921875,0.13685586359798907,-0.03007525865957141,-0.32202589544467625
1761307333376701000,0.590700927734375,0.08172551252841949,-0.023865444234013555,-0.3678647596210241
1761307333386627800,0.6006279296875,0.08568623285293579,-0.03190159730389714,-0.370054013293609
1761307333396555800,0.6105556640625,0.13281623281836508,-0.06008519699797034,-0.3464858715057373
1761307333406484000,0.62048388671875,0.1494990720719099,-0.06355331149995326,-0.3581433568779379
1761307333416412000,0.630411865234375,0.13350187699496746,-0.07295651513934134,-0.3555981293745339
1761307333426338800,0.6403388671875,0.06884440364539623,-0.09410977780520915,-0.2892808330539614
1761307333436267000,0.65026708984375,-0.011814940956234931,-0.09112725486308336,-0.23156097694784403
1761307333446195000,0.66019482421875,-0.09211012842059135,-0.06845555045828222,-0.1650295264199376
1761307333456121900,0.670121826171875,-0.1682867746502161,-0.029074703314900398,-0.11616057383269071
1761307333466049800,0.6800498046875,-0.23562778799533843,-0.016628624848276374,-0.09314458603486418
1761307333475978000,0.68997802734375,-0.22688801670074463,-0.015575608664005994,-0.12031002166233956
1761307333485906000,0.699906005859375,-0.2020844148337841,-0.028595249234884976,-0.17879077913835645
1761307333495832800,0.709832763671875,-0.19561492655873297,-0.02350172548815608,-0.22201076605319975
1761307333505761000,0.719760986328125,-0.17669862916469573,-0.023543080411851405,-0.2623360544398427
1761307333515689000,0.72968896484375,-0.172705175614357,-0.028486966554820536,-0.24040830027014015
1761307333525615900,0.739615966796875,-0.15987024396061897,-0.03525543777644634,-0.1691725445087999
1761307333535543800,0.749543701171875,-0.159206227093935,-0.02551613405048847,-0.09020619449540972
1761307333545472000,0.759471923828125,-0.1656505809277296,-0.028441373847424983,-0.003982274569198489
1761307333555400000,0.76939990234375,-0.12678045978546143,-0.013840017043054103,0.07797470862753689
1761307333565326800,0.779326904296875,-0.1206856500416994,-0.00849105723053217,0.14792239733971654
1761307333575255000,0.789255126953125,-0.10982757141888141,0.017598785054683683,0.1887541008785367
1761307333585183000,0.799182861328125,-0.10997194832563399,0.034899756206572055,0.20148184583075343
1761307333595110000,0.80910986328125,-0.12763386174440383,0.03256079186499119,0.19744981383569538
1761307333605037800,0.819037841796875,-0.11167699867784976,0.04373597361296415,0.13919840813614429
1761307333614966000,0.828966064453125,-0.12601941228508948,0.05652122090607881,0.08192359238378703
1761307333624894000,0.83889404296875,-0.1393558637201786,0.07014964102506638,0.05210866516083479
1761307333634820900,0.84882080078125,-0.1388280404537916,0.07614829691797495,0.049193727562204
1761307333644748800,0.858748779296875,-0.11492051064372062,0.06946048971712589,0.09415551664307713
1761307333654677000,0.868677001953125,-0.06860065801739693,0.04246025458872318,0.1457145120318979
1761307333664604000,0.87860400390625,-0.013642156383395195,0.025896657800674436,0.21980507270246744
1761307333674531800,0.88853173828125,0.06946048971712589,0.022671558274328707,0.2799545671083033
1761307333684460000,0.8984599609375,0.15009353083372115,0.03173544695675373,0.334560602042824
1761307333694388000,0.908387939453125,0.1512982304483652,0.028722821137309073,0.3558725624017417
1761307333704315000,0.91831494140625,0.11791676985025405,0.03140665339380502,0.3209586315393448
1761307333714242800,0.928242919921875,0.11301438476145267,0.03744739486277103,0.28496881507374344
1761307333724171000,0.9381708984375,0.09291793767213821,0.04784457797557115,0.27084450119659303
1761307333734098000,0.948097900390625,0.09473287813961505,0.06571750379651785,0.2861825017124414
1761307333744025900,0.95802587890625,0.11297288370728492,0.060059331904351705,0.27768538006730376
1761307333753954000,0.9679541015625,0.07139759525954723,0.04955430450290441,0.26571115689612923
1761307333763882000,0.977882080078125,-0.004954992058873176,0.04373568135201931,0.2661025673665106
1761307333773809000,0.987808837890625,-0.07109715100824833,0.05178659359961748,0.29397045217491685
1761307333783736800,0.99773681640625,-0.13838088120818137,0.07831541182398796,0.32551804840937254
1761307333793665000,1.0076650390625,-0.1509755743652582,0.07214344519078732,0.35414077017307277
1761307333803593000,1.017593017578125,-0.1445224527031183,0.09515665650963782,0.3748773417968303
1761307333813520000,1.027519775390625,-0.14861995114982127,0.09157675219625235,0.3597305530041456
1761307333823448000,1.037447998046875,-0.18089082015752792,0.08179360932856798,0.31667715482786296
1761307333833376000,1.0473759765625,-0.1687701742529869,0.07268646602630614,0.241947711731866
1761307333843303000,1.057302978515625,-0.04705225855410099,0.01722732139378786,0.19391908242627978
1761307333853230800,1.06723095703125,0.06705459761917591,-0.023700316800177097,0.15637918697446584
1761307333863159000,1.077158935546875,0.14119184697568415,-0.044400282740592954,0.14063414002768695
1761307333873087000,1.0870869140625,0.18040040629208087,-0.0742044693738222,0.12898147696107626
1761307333883014000,1.097013916015625,0.18349661874175072,-0.09602437925487756,0.10302147160060703
1761307333892941800,1.10694189453125,0.14467676648199557,-0.11287468402981757,0.04623283192999661
1761307333902870000,1.1168701171875,0.06169686997830867,-0.1157122455433011,0.01269201605170965
1761307333912798000,1.1267978515625,-0.03772621180415153,-0.12311404623240232,-0.028575813882052898
1761307333922724900,1.136724853515625,-0.12179857971966265,-0.11247457879632711,-0.08358436520285904
1761307333932653000,1.146653076171875,-0.21597265493273735,-0.09323357949256897,-0.10773089140057564
1761307333942581000,1.1565810546875,-0.2545464234769344,-0.08135375660657883,-0.11742328724488615
1761307333952508000,1.1665078125,-0.18544775280952452,-0.09099310708940028,-0.12039455814063549
1761307333962435800,1.176435791015625,-0.07983341517150401,-0.08364099076092242,-0.11536891199834644
1761307333972364000,1.186364013671875,0.004931611183285713,-0.07697276504337787,-0.12222455004677175
1761307333982292000,1.1962919921875,0.003285597541928291,-0.09357903192937374,-0.12080262748487293
1761307333992219000,1.206218994140625,-0.031905542826652526,-0.12401830159574746,-0.1538168622057885
1761307334002147000,1.21614697265625,-0.08367021685540675,-0.13766367284953593,-0.18685900784693657
1761307334012075000,1.226074951171875,-0.043892917740345,-0.15193389800339938,-0.18529818827100097
1761307334022003000,1.2360029296875,0.052798108729720114,-0.1791051057845354,-0.1468026725947857
1761307334031929900,1.245929931640625,0.09037176032066345,-0.192461138702929,-0.07873860567212104
1761307334041858000,1.255858154296875,0.06304945363104343,-0.21609715809524058,-0.017679887466877698
1761307334051786000,1.265785888671875,0.02949672811925411,-0.22180063043385742,-0.0013255495153367519
1761307334061713000,1.275712890625,0.019599018961191175,-0.20727146208286285,-0.04646393727213144
1761307334071641000,1.28564111328125,0.007916179952025412,-0.21070640496760606,-0.06551832796260715
1761307334081569000,1.295569091796875,-0.018043606212735173,-0.22086597993224857,-0.12482611084729432
1761307334091497000,1.3054970703125,-0.09232114082276821,-0.2046855372428894,-0.17488873019851744
1761307334101423900,1.315423828125,-0.28916180978417394,-0.17765812184661625,-0.20972155864872036
1761307334111352000,1.32535205078125,-0.5016121358096599,-0.1443447580486536,-0.19873510440587996
1761307334121280000,1.335280029296875,-0.525638908085227,-0.13272212479412554,-0.11952113630697131
1761307334131208000,1.3452080078125,-0.41839550794064995,-0.1401362004429102,-0.010560337785258889
1761307334141135000,1.355135009765625,-0.27110885122120376,-0.14297054708600043,0.13685783635936677
1761307334151063000,1.36506298828125,-0.08166238416433334,-0.15154752903431654,0.25588541699573397
1761307334160991000,1.374990966796875,0.07968027043640613,-0.16156798778921364,0.35191607986092566
1761307334170918000,1.38491796875,0.06769464908838271,-0.19971067143976687,0.40642208848707373
1761307334180846000,1.39484619140625,-0.11626432646811008,-0.23699498469531535,0.40303960644192993
1761307334190774000,1.40477392578125,-0.3256149329125881,-0.2711310630530119,0.3008758476492017
1761307334200702000,1.414701904296875,-0.5356377395302057,-0.25865181296914813,0.1264029317099601
1761307334210628900,1.42462890625,-0.6884656637638807,-0.24041794488131998,-0.0014916267972439527
1761307334220557000,1.43455712890625,-0.8645628199040889,-0.20324059913158415,-0.11152005455046891
1761307334230485000,1.444485107421875,-1.0292559539765118,-0.16151596534103155,-0.15735869953110812
1761307334240413000,1.454412841796875,-1.0170376929163931,-0.1516363763615489,-0.163518610400334
1761307334250340000,1.464340087890625,-0.9590244798868894,-0.11832330482453107,-0.13898498458117245
1761307334260268000,1.47426806640625,-0.786501090580225,-0.05346358690112829,-0.05255246340557933
1761307334270196000,1.484196044921875,-0.514730560579896,0.010322072049975395,0.1030773665063083
1761307334280123000,1.494122802734375,-0.21588965282440184,0.05005144037008285,0.3034901948660612
1761307334290051000,1.504051025390625,0.043135961893200875,0.04951631058007479,0.503340859298408
1761307334299979000,1.51397900390625,0.22635025656223295,0.02206365550905466,0.6364362013190984
1761307334309907000,1.523906982421875,0.35033845528066154,-0.004216156390309334,0.6286739698197692
1761307334319834000,1.533834228515625,0.3671539810031652,-0.021686346629261968,0.5330978457890451
1761307334329762000,1.543761962890625,0.3230611567765474,-0.08083119403719902,0.4141865850087255
1761307334339689000,1.55368896484375,0.18512568124830722,-0.14304361232221124,0.24448760547302661
1761307334349617000,1.563616943359375,0.0868143601000309,-0.19750994652509687,0.10683262738659978
1761307334359544000,1.5735439453125,0.03194236770570278,-0.20577479378432034,0.013581877563521265
1761307334369472000,1.583471923828125,-0.06161854404509067,-0.2122816914603114,-0.029614070888608693
1761307334379400000,1.59339990234375,-0.16120470743477344,-0.230801975274086,0.002411883447319269
1761307334389328100,1.603328125,-0.24448797079920767,-0.23146686892360446,0.07527619025856257
1761307334399255000,1.613255126953125,-0.3095680534750223,-0.2497065822303295,0.16185929888598619
1761307334409183000,1.623182861328125,-0.1759679768025875,-0.26002368584424257,0.31180100015886125
1761307334419111000,1.63311083984375,0.02236556106507778,-0.3056622782081365,0.391659622836858
1761307334429038000,1.6430380859375,0.38704000021219254,-0.16968465874940156,0.35855149928741153
1761307334438966000,1.652966064453125,0.701885701829195,-0.0008756137907505035,0.17136216350756583
1761307334448894000,1.66289404296875,0.8611749310314655,0.13870061468183995,-0.24188356045447287
1761307334458822000,1.67282177734375,1.262467328479886,0.5026555073827504,-0.9226415724504738
1761307334468749000,1.6827490234375,1.952321816253662,0.8048255595609545,-1.482161049762368
1761307334478677000,1.692677001953125,2.6133652200847863,0.7781409662529826,-1.6278627753779291
1761307334488605000,1.70260498046875,3.393479239976406,0.7853814389005302,-1.4643110664255916
1761307334498533000,1.712533203125,4.3868163238316775,0.25636662464141846,-0.5492147217229009
1761307334508460000,1.7224599609375,5.43397326067984,0.12349018606841564,0.524296991956979
1761307334518388000,1.732387939453125,6.137653444710374,0.3145852971151471,1.0994409585759044
1761307334528316000,1.74231591796875,6.257592075777054,1.0756330897480249,0.8490142453774809
1761307334538244000,1.752244140625,6.069300039452314,3.1781703096494076,-0.13605579926148056
1761307334548171000,1.7621708984375,4.5684436415702105,5.692663944354653,-1.3663519197158516
1761307334558099000,1.772098876953125,3.159422646820545,5.84727758296132,-1.2343813439413904
1761307334568027100,1.782027099609375,3.412970122388005,3.2235861991733312,-0.37619010489583016
1761307334577954000,1.7919541015625,4.355288382145762,1.0784446400374172,0.005678484027832746
1761307334587882000,1.801882080078125,4.865934888282418,-0.4651005604922771,0.03902750366106629
1761307334597810000,1.811809814453125,5.007601951554418,-1.1091542510777712,-1.0006444842591882
1761307334607738000,1.821738037109375,3.98559173092246,-1.9096219076901673,-1.738582911722362
1761307334617665000,1.8316650390625,3.8953047262758016,-1.6526389047160743,-2.0133948552452026
1761307334627593000,1.841593017578125,4.250644935366511,-0.20861030947118997,-3.26056217713207
1761307334637521200,1.851521240234375,4.577458722674846,1.6473697321414946,-4.246192339871824
1761307334647449000,1.861448974609375,4.314722563001514,2.8265456139504908,-4.303040600775182
1761307334657376000,1.8713759765625,3.445195398688316,2.78898540636301,-3.0647111037299033
1761307334667304000,1.881303955078125,1.4565128137648105,2.1982126395881174,-0.5177507851839065
1761307334677232000,1.891232177734375,-4.178803103470802,1.013005222529918,4.644603336665034
1761307334687160000,1.90116015625,-1.142562599682808,-0.3493023902311921,2.8143884354278446
1761307334697087000,1.9110869140625,-1.232882337555289,-1.3529141998633742,2.021496474766731
1761307334707015000,1.921014892578125,-2.756357394480705,-2.0646246917448936,2.53052356300801
1761307334716943000,1.930943115234375,-3.3903725061327217,-2.582732765933871,2.9827713639289137
1761307334726870000,1.9408701171875,-7.209805706605315,-2.4719077079102396,3.458202179777622
1761307334736798000,1.9507978515625,-11.098570801979303,-2.0343734919965266,3.141185271601379
1761307334746726100,1.96072607421875,-13.939146110326051,-1.5834160231471062,2.49922036998868
1761307334756654000,1.970654052734375,-13.95602593345642,-0.9637063540928065,1.9269301853656768
1761307334766581000,1.9805810546875,-11.812716265922784,-0.6650137687668204,1.6644178975760935
1761307334776509000,1.990509033203125,-7.622374700349569,-1.3262944884851575,1.6561489586636422
1761307334786437000,2.00043701171875,-2.979225654146075,-1.7490452690258622,1.40879741512686
1761307334796365000,2.010364990234375,0.19999533360004423,-1.1981965163603425,0.6909124723941087
1761307334806292000,2.0202919921875,0.822519913944602,-0.563606162103638,-0.2132039208717644
1761307334816220200,2.03022021484375,0.3159042707592249,0.2904868478428572,-0.8167147347971796
1761307334826148000,2.040148193359375,-0.3080973964005709,0.9138823658030479,-0.8698246859550476
1761307334836076000,2.050075927734375,-0.607829700037837,0.8942425033748149,-0.5909406706877053
1761307334846003000,2.0600029296875,0.05154138666689396,0.4946019647866487,-0.32565584944486614
1761307334855931100,2.06993115234375,0.6917933468818664,0.07913955115582794,-0.7772241436690092
1761307334865859000,2.079859130859375,1.041432129460573,0.013206925037596373,-0.9445555172905326
1761307334875786000,2.089785888671875,0.9195943867743015,0.180425065809302,-0.49682680122926826
1761307334885714200,2.099714111328125,0.33479835632145405,0.5134452700097114,-0.020731530122458933
1761307334895642000,2.10964208984375,-0.03177285635769367,0.6943243997294455,0.4734694526478648
1761307334905570000,2.119570068359375,0.44282326223254204,1.0826510056860745,0.5357537671253085
1761307334915497000,2.1294970703125,0.9728852474570274,1.5797425953313708,0.08203969304412603
1761307334925425200,2.139425048828125,1.1013713421165943,1.4371118015937507,-0.4252186319589615
1761307334935353000,2.14935302734375,0.6560194381892681,0.7485312062133103,-0.5873841472499072
1761307334945281000,2.159281005859375,0.4787444704413414,0.24967876264164224,-0.537142298874259
1761307334955208000,2.1692080078125,0.35598201412558556,0.24355350296068934,-0.5054634044103324
1761307334965136100,2.17913623046875,0.3286637990891933,0.5035160697348415,-0.18873364261239767
1761307334975064000,2.18906396484375,0.2374234392404556,0.7728729627221822,0.5228197590112685
1761307334984992000,2.198991943359375,0.029679098948836326,0.9143529789894819,1.2610174219325183
1761307334994919200,2.208919189453125,-0.5218588050246239,0.9745162096597254,1.6917869660168885
1761307335004847000,2.21884716796875,-1.1853776590585707,1.1474370738513766,1.6495058673873544
1761307335014775000,2.228775146484375,-1.6207266398876905,1.2817102274797856,1.158515663357079
1761307335024702000,2.238701904296875,-2.0773773519426584,1.2216226923942566,0.44633419296294446
1761307335034630100,2.248630126953125,-2.431596448048949,1.1427072688505053,-0.22608225327581166
1761307335044558000,2.25855810546875,-2.2737615093082186,1.1326367604088037,-0.6525558537319303
1761307335054486000,2.268486083984375,-1.911573041757941,1.1074554843358695,-0.6466067360691726
1761307335064413200,2.2784130859375,-1.649488039469719,0.9389511214122176,-0.37114392742216584
1761307335074341000,2.288341064453125,-1.3768828122109174,0.7687716648831963,-0.19665011482536793
1761307335084269000,2.29826904296875,-0.9645797759264707,0.6928375952377915,-0.21316431951373815
1761307335094197000,2.308197021484375,-0.43525311923921106,0.6472821511127055,-0.1820538725875318
1761307335104124200,2.318124267578125,-0.026835399955511093,0.5543255619306117,-0.0528783343590796
1761307335114052000,2.328052001953125,0.22286825966536997,0.3560513530347496,0.020110183353722094
1761307335123980000,2.33797998046875,0.48571138684451576,0.2152656757071614,-0.13217705813199282
1761307335133908000,2.347907958984375,0.6955775415956974,0.12363726638890803,-0.3807347625881433
1761307335143835100,2.357835205078125,0.7995756762087345,0.007959215376153588,-0.5338189996704459
1761307335153763000,2.36776318359375,0.9690852706521749,-0.10153057545572519,-0.6165064890988171
1761307335163691000,2.37769091796875,1.1074310805469751,-0.02579129773005843,-0.5521151193395256
1761307335173618200,2.3876181640625,0.8178548447430133,0.047288916854187846,-0.23883666703924536
1761307335183546000,2.397546142578125,0.28636896419525143,0.04880947748497128,0.20720862597972153
1761307335193474000,2.40747412109375,-0.13634908311963082,0.06268113177530467,0.562342206582427
1761307335203402000,2.417402099609375,-0.4042588460385799,0.15358575686365364,0.5973859013043343
1761307335213329200,2.4273291015625,-0.6792331405162811,0.18123261933252213,0.39442031972184777
1761307335223257000,2.437257080078125,-0.9358335739135741,0.14556743171140551,0.16179273645579814
1761307335233185000,2.44718505859375,-1.0274322456806897,0.09519143556207418,-0.004492342983186245
1761307335243113000,2.457113037109375,-0.9478951831072568,0.008958674742281436,-0.22248583621904253
1761307335253040000,2.4670400390625,-0.6938689841121435,-0.09362988533377647,-0.44634208400845526
1761307335262968000,2.476968017578125,-0.4829290626496076,-0.1790435848556459,-0.5798391386978328
1761307335272896000,2.48689599609375,-0.3591501227676868,-0.1431768833130598,-0.5622979290492832
1761307335282823200,2.4968232421875,-0.08536416129171848,-0.0763869279794395,-0.38022140623852607
1761307335292751000,2.506751220703125,0.24249241306781769,-0.037048312542587516,0.007238719081878662
1761307335302679000,2.516678955078125,0.4193775047153234,-0.04278334906324744,0.44324777125492687
1761307335312607000,2.52660693359375,0.47605274713933465,-0.05634104203358292,0.6894350933179259
1761307335322534100,2.5365341796875,0.3851578397274017,-0.029619769977033136,0.6796054809600114
1761307335332462000,2.546462158203125,0.2954050880879164,-0.010682575925439596,0.617684446837008
1761307335342390500,2.556390625,0.19573475354611872,-0.04668927046060562,0.48816038743183016
1761307335352318500,2.566318359375,0.1366115334481001,-0.07881766225770115,0.3036130905933678
1761307335362245600,2.57624560546875,0.05828560023009777,-0.10640899514704942,0.15203984259590506
1761307335372173600,2.586173583984375,0.015437223106622695,-0.18107786716222762,-0.008381751637160777
1761307335382101500,2.5961015625,0.015270634368062018,-0.21827903217896819,-0.07577639486566186
1761307335392029400,2.606029541015625,0.04259937079846859,-0.19508330390006304,-0.0694140202268958
1761307335401956600,2.61595654296875,0.10130056609213352,-0.15920330448448658,-0.04341974727064371
1761307335411884500,2.625884521484375,0.2835205890268087,-0.16688582181110978,0.048603141257911917
1761307335421812500,2.6358125,0.487988099604845,-0.21488047578185795,0.16761939678266644
1761307335431739600,2.64573974609375,0.6478665268719196,-0.22446721929460764,0.2800799470536411
1761307335441667600,2.65566748046875,0.7213976270288228,-0.1790681347750127,0.40148017510548234
1761307335451595500,2.665595458984375,0.6892097601294517,-0.16454539616480468,0.4905287239983678
1761307335461523500,2.6755234375,0.6347516092330217,-0.12929989526048302,0.4901401630721986
1761307335471450600,2.68545068359375,0.49007893440425393,-0.08980477408766746,0.4157493773460388
1761307335481378600,2.695378662109375,0.35637715092301364,-0.10731734216362238,0.3475596382170915
1761307335491306500,2.705306396484375,0.25977380273640155,-0.1364050510905683,0.28592560434192416
1761307335501234400,2.715234375,0.1860463032245636,-0.1735281824350357,0.20491013977900147
1761307335511161600,2.72516162109375,0.12405308064818382,-0.1806415215715766,0.17158815428316593
1761307335521089500,2.735089599609375,0.07356734051406383,-0.1930699182510376,0.20349691198021172
1761307335531017500,2.745017578125,0.07573883933424949,-0.17799349128082392,0.24364465184286235
1761307335540944600,2.754944580078125,0.07371171742081642,-0.1351340082414448,0.2159137643523514
1761307335550872600,2.76487255859375,0.09074468528628349,-0.10780395663678645,0.23310776799842714
1761307335560800500,2.774800537109375,0.20706980203092096,-0.056973494718223806,0.2988860620714724
1761307335570728400,2.784728515625,0.2587976511806249,-0.017160247506946325,0.372612392539531
1761307335580655600,2.794655517578125,0.33763854818344113,-0.010623246953636407,0.44227804943993687
1761307335590583600,2.80458349609375,0.40472763259410854,-0.037975802651047705,0.44327451313138005
1761307335600511500,2.814511474609375,0.4025087875008583,-0.05689867591634393,0.34494448728263377
1761307335610439400,2.824439453125,0.3466846089482307,-0.08823957059755921,0.258831991841644
1761307335620366600,2.83436669921875,0.2952636337906122,-0.07422361246570944,0.22210750442594288
1761307335630294500,2.84429443359375,0.25872867759764195,-0.040823739428073165,0.2846965009383857
1761307335640222500,2.854222412109375,0.3191261554151773,-0.04496288505941629,0.3775485337674618
1761307335650150700,2.864150634765625,0.3347866658836603,-0.045169367416948075,0.44287396950647234
1761307335660077600,2.87407763671875,0.2698310863703489,-0.05152355874925851,0.46399902899116274
1761307335670005500,2.884005615234375,0.20205577326118945,-0.0002497369773685932,0.4816008827857673
1761307335679933400,2.893933349609375,0.18383330335021017,0.05488938192054629,0.4720552019357681
1761307335689860600,2.903860595703125,0.17037644040584562,0.054295215419679875,0.4747574466317892
1761307335699788500,2.91378857421875,0.14553075296282766,0.01949351276010275,0.4352142485335469
1761307335709716500,2.923716552734375,0.13062310668826102,-0.0036386487632989882,0.3067036039546132
1761307335719644700,2.933644775390625,-0.0036380642414093017,0.014752163451910019,0.1407088857643306
1761307335729571600,2.943571533203125,-0.16193068362176416,0.049412704075127836,0.047474429488927126
1761307335739499500,2.95349951171875,-0.20722586937546728,0.04799027005657553,0.04783332592919469
1761307335749427500,2.963427490234375,-0.1992395467966795,0.05567541773170232,0.07247267714515328
1761307335759355600,2.973355712890625,-0.14851239912211894,0.06254471897929907,0.1108751807756722
1761307335769282600,2.983282470703125,-0.027938392761349677,0.04016936717256903,0.1673760895460844
1761307335779210500,2.99321044921875,0.05219488213956356,-0.004328822984546423,0.19808891545683144
1761307335789138400,3.003138427734375,0.13080021682083606,-0.046330520150810475,0.14874679239988325
1761307335799065600,3.013065673828125,0.21806465877592562,-0.058147653064131735,0.07344999774470926
1761307335808993500,3.02299365234375,0.28517887762784955,-0.10671104683354496,0.03728825877830386
1761307335818921500,3.03292138671875,0.361678764462471,-0.1455970961973071,-0.012912234673649072
1761307335828849700,3.042849609375,0.41307752778828144,-0.15324907225519419,-0.06767521373555063
1761307335838776600,3.052776611328125,0.4121972378224134,-0.1437811328165233,-0.10457008928209542
1761307335848704500,3.06270458984375,0.33295711236894127,-0.13399901286214588,-0.12279650471583008
1761307335858632400,3.072632568359375,0.28949323369562624,-0.12045315646007657,-0.10753098491430282
1761307335868559600,3.0825595703125,0.2505593996673822,-0.08577741826772689,-0.06669482439607381
1761307335878487600,3.092487548828125,0.14794249027967452,-0.05924830778241157,-0.0003194412127137184
1761307335888415500,3.10241552734375,0.04220131139159202,-0.03754661745354533,0.042496348815411325
1761307335898343700,3.11234375,-0.040622517767548556,-0.026110300551354885,0.0635042116612196
1761307335908270600,3.1222705078125,-0.07002513786256313,-0.036109716518223284,0.08523980425968766
1761307335918198500,3.132198486328125,-0.027605215284228324,-0.06941343570500612,0.07434870015010238
1761307335928126500,3.14212646484375,0.011460136169195174,-0.09996931748837232,0.06463876864910126
1761307335938054700,3.1520546875,0.06769523361027241,-0.11843524076640605,0.023441373603045938
1761307335947981600,3.161981689453125,0.10923369717895984,-0.09617211716249585,-0.053831543430685996
1761307335957909500,3.171909423828125,0.1824555852562189,-0.11529285108745098,-0.1121383325792849
1761307335967837700,3.181837646484375,0.19465864874720573,-0.12622121846750378,-0.1939583915233612
1761307335977765600,3.191765625,0.06742927615046501,-0.10436287627220153,-0.2502582247637212
1761307335987692500,3.201692626953125,-0.09560323123335837,-0.09130684921368956,-0.24754677384793758
1761307335997620500,3.211620361328125,-0.1463362241268158,-0.07961056620106101,-0.20495748605206607
1761307336007548700,3.221548583984375,-0.12248773102760314,-0.08458294778615236,-0.15507526476904748
1761307336017475600,3.2314755859375,-0.02772036609649658,-0.12218158768787979,-0.1282195526778698
1761307336027403500,3.241403564453125,0.05920271507501602,-0.14325710894241928,-0.09283478943333029
1761307336037331500,3.25133154296875,0.15728607268631456,-0.14291545589789748,-0.06594824381247162
1761307336047259600,3.261259765625,0.1670493418097496,-0.10692673541083932,-0.05768251977041364
1761307336057186600,3.2711865234375,0.18657821814417838,-0.08390124913230537,-0.016225450874865054
1761307336067114500,3.281114501953125,0.10116729510128497,-0.0755991386026144,0.011408990503847598
1761307336077042700,3.291042724609375,-0.05223755223751068,-0.04410071527212858,-0.010815554655343293
1761307336086969600,3.300969482421875,-0.15203706611692905,-0.010000585010647774,-0.06018412732779979
1761307336096897500,3.3108974609375,-0.16788403906822202,-0.0026850013002753257,-0.11249985936805605
1761307336106825500,3.320825439453125,-0.18499825547635554,0.01446121768131852,-0.17376637510508297
1761307336116753700,3.330753662109375,-0.17635434577167033,-0.04457242443710565,-0.15938596757501364
1761307336126680600,3.3406806640625,-0.06344459042847156,-0.0460322678565979,-0.12488777790665626
1761307336136608500,3.3506083984375,0.042997430205345154,-0.03112140671163797,-0.15300196562632917
1761307336146536700,3.36053662109375,0.2045452519893646,-0.04696151153072715,-0.19412234991341829
1761307336156464600,3.370464599609375,0.3556786472648382,-0.04153539482876658,-0.1889877635039389
1761307336166391600,3.3803916015625,0.4363654643952846,-0.04126943736895919,-0.1065809907130897
1761307336176319500,3.390319580078125,0.5155886387139559,-0.07080006775781512,0.028936463887989518
1761307336186247700,3.40024755859375,0.6152274090737104,-0.10210340690761804,0.11825009345784783
1761307336196174600,3.410174560546875,0.5895107840150594,-0.1277950436554849,0.1977801417686045
1761307336206102500,3.4201025390625,0.4617126716196537,-0.15738266492858527,0.24788696558773515
1761307336216030700,3.43003076171875,0.32478958800435065,-0.17858605034649372,0.2317464165173471
1761307336225958700,3.439958740234375,0.1402268013358116,-0.15543942190632223,0.19780381490513682
1761307336235885600,3.449885498046875,-0.12985036875009537,-0.1053536408752203,0.1522527546942234
1761307336245813500,3.4598134765625,-0.35531916630268096,-0.06017462884709238,0.03672141867578029
1761307336255741700,3.46974169921875,-0.43968964038193226,-0.03568769171386957,-0.0960071358591318
1761307336265669600,3.479669677734375,-0.45640930451452727,-0.003198211519420147,-0.17815438093096017
1761307336275596500,3.489596435546875,-0.3785492352426052,0.017260346880555152,-0.19954583626687525
1761307336285524500,3.4995244140625,-0.2043015063613653,-0.014787965417653322,-0.18090075702965258
1761307336295452700,3.50945263671875,0.09744739779531955,-0.11902867661491036,-0.15222469764351843
1761307336305379600,3.519379638671875,0.37564942214787006,-0.23691490519642827,-0.08661635330989956
1761307336315307500,3.5293076171875,0.555150833773613,-0.34652839547321196,-0.019849194329977036
1761307336325235700,3.539235595703125,0.552267387291789,-0.4129970098979771,-0.01891585900261998
1761307336335163600,3.54916357421875,0.3838122703373432,-0.454009549896419,-0.0022281974434852597
1761307336345090300,3.55909033203125,0.1652940225750208,-0.503506863515079,0.0570119270324707
1761307336355018500,3.5690185546875,-0.058818684193491934,-0.5128853711046278,0.0526461330384016
1761307336364946700,3.57894677734375,-0.2607043615847826,-0.4619873969078064,0.0069368135258555405
1761307336374874600,3.58887451171875,-0.6008370646715164,-0.32736250723227855,0.00043050037175416944
1761307336384801300,3.59880126953125,-1.0067126982569694,-0.27061405344158407,-0.031194471947848794
1761307336394729700,3.608729736328125,-1.1518670191228388,-0.30509061580002306,-0.11579071760699153
1761307336404657700,3.61865771484375,-1.0639672018736601,-0.3118351216241717,-0.1620510951310396
1761307336414584300,3.628584228515625,-1.0917068571925164,-0.31764249272868034,-0.1874155457511544
1761307336424512500,3.638512451171875,-1.0412339765399694,-0.3584720773756504,-0.16497984205931424
1761307336434440700,3.648440673828125,-1.1247323439598083,-0.4728136190876364,-0.18837401551976798
1761307336444368600,3.65836865234375,-0.9318354441881179,-0.6269399125687778,-0.21069544518217442
1761307336454295300,3.66829541015625,-1.1777087318658828,-0.5882448557324708,-0.3247799433931708
1761307336464223500,3.678223388671875,-1.2251064428567886,-0.364535907459259,-0.5130284328371286
1761307336474151700,3.688151611328125,-1.2816817320376634,-0.18844795753881335,-0.6180610250644385
1761307336484079600,3.69807958984375,-1.2111743636161088,-0.12919409679844976,-0.4878219492577016
1761307336494006300,3.70800634765625,-1.0028478395223617,-0.2200175464093685,-0.17350626286417245
1761307336503934500,3.7179345703125,-0.9069535163879394,-0.22689210835397242,-0.004684942945837974
1761307336513862700,3.727862548828125,-0.782550891649723,-0.025721739625185727,-0.09017346126958728
1761307336523789300,3.737789306640625,-0.7211030279964208,0.1944033588118851,-0.2695923091784119
1761307336533717500,3.747717529296875,-0.6167039113670587,0.3268335149221122,-0.3339085678748786
1761307336543645400,3.7576455078125,-0.3509861055344343,0.31974720992296934,-0.39202239173464476
1761307336553573600,3.76757373046875,-0.02200491105914116,0.26172026062905784,-0.34592136949077246
1761307336563500300,3.777500244140625,0.4320096072733402,0.19538535558655856,-0.2660634043999016
1761307336573428500,3.787428466796875,0.9833131179690361,0.20496347740143536,-0.21466018409468232
1761307336583356400,3.7973564453125,1.3698662114471196,0.2345893848583102,-0.11007570096105336
1761307336593284600,3.80728466796875,1.692792928189039,0.2221149570800364,-0.059191243832930916
1761307336603211500,3.81721142578125,1.9930057088196276,0.2566086167037487,-0.056990372787788506
1761307336613139500,3.827139404296875,1.953162943252921,0.43156566289812326,-0.15928279946148394
1761307336623067400,3.8370673828125,1.8042443014174698,0.7020477605231106,-0.2751498702403158
1761307336632995600,3.84699560546875,1.944158383542299,0.8583680569171905,-0.2711074629817158
1761307336642922500,3.856922607421875,2.4112691148132086,0.8191112745448946,-0.09526756953820585
1761307336652850400,3.866850341796875,2.81407016325891,0.747670570795983,0.18755064337290822
1761307336662778400,3.8767783203125,3.070696315619349,0.7677087118268012,0.5185678006552159
1761307336672705500,3.88670556640625,3.342982393926382,0.7249502049438655,0.6727773885056376
1761307336682633500,3.896633544921875,3.2360733403027058,0.5689407280646264,0.69452832480371
1761307336692561400,3.9065615234375,3.3112165518313645,0.7037539799191057,0.5676917509168387
1761307336702489600,3.916489501953125,2.983765635663271,0.7247802552044391,0.19166005145311354
1761307336712416500,3.92641650390625,2.488102763646841,0.8854122773177922,-0.32222441369146104
1761307336722344400,3.936344482421875,2.55578513777554,1.3425200854904948,-1.0927259711071848
1761307336732272400,3.9462724609375,2.415303484895825,1.6345450296208262,-1.6074629614278673
1761307336742200600,3.95620068359375,2.8478794938802716,1.5371221817448735,-1.5173450297378002
1761307336752127500,3.96612744140625,3.6041952895551916,1.2019228434070943,-1.0267945322990417
1761307336762055400,3.976055419921875,4.626272730204462,1.1542011611588299,-0.3186652599051595
1761307336771983400,3.9859833984375,4.571340532055497,2.1934579924069344,-0.3521035652570426
1761307336781911600,3.99591162109375,3.7906910901129245,3.6877217140257357,-0.3586132394120097
1761307336791838500,4.00583837890625,2.3747592930614947,4.202116174519062,0.8045835674986243
1761307336801766400,4.015766357421875,0.2462023735016584,3.4049440523207184,2.5661650774925944
1761307336811694300,4.0256943359375,-1.919493897885084,1.8734863260783254,4.271558836318552
1761307336821621500,4.03562158203125,-3.938632995870709,0.26765155037418004,4.750357959556579
1761307336831549400,4.045549560546875,-4.858696753722429,-0.6359978099018335,3.186543293458223
1761307336841477400,4.055477294921875,-4.687770278218388,-1.5821419115580617,0.7702673102684319
1761307336851405300,4.0654052734375,-4.104495758244395,-2.8386709360301494,-1.3884730045005678
1761307336861332500,4.07533251953125,-3.613808336552977,-3.690052202799916,-3.0452029779225587
1761307336871260400,4.085260498046875,-3.3194314224690196,-3.905753055053949,-3.921446883270144
1761307336881188400,4.095188232421875,-2.8642975447177887,-3.5202839574202893,-3.9269682770401237
1761307336891116300,4.1051162109375,-2.3136861079394815,-2.501106622126698,-3.3096406808167695
1761307336901043500,4.11504345703125,-1.6088409717828034,-1.2730220402419565,-2.5633994121715427
1761307336910971400,4.124971435546875,-1.1498258686840535,-0.12076171095259487,-1.6604506013803184
1761307336920899300,4.1348994140625,-1.3442173909276722,0.8422215164974332,-0.6375108448132872
1761307336930827300,4.1448271484375,-1.8615531655699014,1.42281278873682,0.25643355239778753
1761307336940754400,4.15475439453125,-2.5957757873803375,1.5000108869686721,1.1096706761673092
1761307336950682400,4.164682373046875,-3.571324116566777,2.0247078380286694,1.3852498046703636
1761307336960610300,4.1746103515625,-3.709077221265435,1.9597199636809526,1.4608670634515584
1761307336970537500,4.184537353515625,-3.524314528110623,1.3369541219264267,1.4301821484610437
1761307336980465400,4.19446533203125,-3.2229905713677405,0.7688563474919646,1.0733196982391178
1761307336990393300,4.204393310546875,-2.682126037099957,0.29800805539423597,0.5650323224492371
1761307337000321300,4.2143212890625,-1.8616157094120978,-0.2187304474745877,0.08215279802978039
1761307337010248400,4.22424853515625,-1.061205335944891,-0.5957101501118391,-0.28460502326264975
1761307337020176400,4.23417626953125,-0.27286183236837386,-0.739843603497371,-0.6085977618008852
1761307337030104300,4.244104248046875,0.2598965523332357,-0.7501927827499807,-0.7467009951114654
1761307337040032500,4.254032470703125,0.46703298985958097,-0.5799001116374507,-0.6952589771658182
1761307337049959400,4.26395947265625,0.5988865151256323,-0.3613366364939138,-0.41732597901299595
1761307337059887400,4.273887451171875,0.6413496923238039,-0.27053883278090507,0.08935235414505005
1761307337069815300,4.283815185546875,0.326530878713727,-0.1707515207959339,0.7889926151350141
1761307337079743500,4.293743408203125,-0.32988194270730015,0.01048946450613439,1.2187382229991257
1761307337089670400,4.30367041015625,-0.6495370904326438,0.01458550164811313,1.392234402860701
1761307337099598300,4.313598388671875,-0.6329226402401924,0.1038658134702593,1.2764176740296185
1761307337109526300,4.3235263671875,-0.49238370421528815,0.6117012077089399,0.6581289776891469
1761307337119454500,4.333454345703125,-0.4511790026456117,0.44743703963831066,0.3422672308973968
1761307337129381400,4.34338134765625,-0.3320668855309486,0.0316083134457469,0.25049013382345436
1761307337139309300,4.353309326171875,-0.22777181379795072,0.11689634076133369,0.1183221357807517
1761307337149237500,4.363237548828125,-0.21009704089760778,0.5008806066647171,-0.05139014162793755
1761307337159164400,4.373164306640625,-0.24268004459440706,0.7207056992419064,0.0440137676410377
1761307337169092400,4.38309228515625,-0.3681739717006683,0.8494867582600564,0.2495094522230327
1761307337179020300,4.393020263671875,-0.47230070112943645,1.0038108393356204,0.36304581503197547
1761307337188948500,4.402948486328125,-0.44591012233197685,1.1205805580426007,0.4390926974020898
1761307337198875400,4.41287548828125,-0.2034340758770704,1.0310926678843795,0.5084380363069474
1761307337208803300,4.42280322265625,-0.08903788136839866,0.8838811222277582,0.5246176022134721
1761307337218731500,4.4327314453125,0.025551205363869664,0.6379170875266194,0.5780475791059434
1761307337228659500,4.442659423828125,0.3965834891051054,0.5529717361688613,0.5873315402798355
1761307337238586400,4.45258642578125,0.4662713578373193,0.4175735240332782,0.3324417101927101
1761307337248514300,4.462514404296875,0.3919476459980011,0.36970673422589895,0.2159049965240061
1761307337258442500,4.4724423828125,0.29391864892244335,0.22292364311441779,0.21868162163048982
1761307337268370400,4.482370361328125,0.4649760573297739,0.08796163043901324,0.07771291588619351
1761307337278297300,4.49229736328125,0.5873936457306146,0.07083192420080303,-0.1299241646386683
1761307337288225500,4.5022255859375,0.6682476361215114,0.08427081309705972,-0.3070391195192933
1761307337298153500,4.512153564453125,1.0171703793853522,0.030571079352498053,-0.36544337769299745
1761307337308081400,4.522081298828125,1.3607722198873757,0.014651479556411504,-0.2640786603234708
1761307337318008300,4.53200830078125,1.5228414351969957,0.03391980525851249,0.009560951484367251
1761307337327936500,4.5419365234375,1.5002783057332039,0.055353784561902285,0.27407069670148193
1761307337337864200,4.5518642578125,1.311084352132678,0.07536299175918101,0.4818695436593145
1761307337347791000,4.561791015625,1.0314268682748078,0.12811258517205715,0.6037585050761699
1761307337357719300,4.57171923828125,0.7605319520652294,0.18513064968436954,0.661700406435132
1761307337367647200,4.581647216796875,0.5461994655549526,0.15095233962014318,0.6850899767857045
1761307337377575200,4.5915751953125,0.30315234121382234,0.09185016231015324,0.6775122350078076
1761307337387502000,4.601502197265625,0.07763678191006183,0.013577128323167561,0.5484623689856379
1761307337397430300,4.61143017578125,-0.03259294056892395,-0.05755830886885523,0.33804011472165585
1761307337407358200,4.621358154296875,-0.17969605741500855,-0.16600801606327295,0.19357355692423878
1761307337417286100,4.6312861328125,-0.23537761262655257,-0.32132498063370585,0.022969810568541287
1761307337427213300,4.64121337890625,-0.1711573616504669,-0.43781887807399034,-0.10732413723058998
1761307337437141200,4.651141357421875,-0.16163491554558276,-0.5053576059482991,-0.1732790299795568
1761307337447069200,4.661069091796875,-0.20355565643012521,-0.5415514936186373,-0.18328399890437722
1761307337456997000,4.6709970703125,-0.1715583436667919,-0.5764144249461591,-0.12448131599761544
1761307337466924300,4.68092431640625,-0.2182785937875509,-0.5669269040241837,-0.1329283148907125
1761307337476852200,4.690852294921875,-0.349276379007101,-0.5015929927177727,-0.1702952649284154
1761307337486780200,4.7007802734375,-0.4921691846817732,-0.44427682204172014,-0.18430625462420283
1761307337496708000,4.7107080078125,-0.5898462995797396,-0.4378817141771316,-0.22410481572300195
1761307337506635300,4.72063525390625,-0.6533335601061582,-0.45319954868778584,-0.2975343552015722
1761307337516563200,4.730563232421875,-0.6171896490573883,-0.44767990848347544,-0.35798553596772253
1761307337526491100,4.7404912109375,-0.5495633890300989,-0.4173831160277128,-0.420094055486843
1761307337536419000,4.750419189453125,-0.4154641306638717,-0.37387598273456096,-0.4844149172931909
1761307337546346200,4.76034619140625,-0.24514672696888445,-0.36692324098721146,-0.48922502098865805
1761307337556274200,4.770274169921875,-0.15271160437762737,-0.3529107899866998,-0.4623942241430282
1761307337566202000,4.7802021484375,-0.10789221944212912,-0.3272732215136289,-0.4270497929088771
1761307337576130000,4.790130126953125,-0.07938041070699692,-0.2899026912793517,-0.4374677996139973
1761307337586057200,4.80005712890625,-0.02669043852686882,-0.26710122301504013,-0.4737876517515629
1761307337595985200,4.809985107421875,0.015355390042066572,-0.23505875593572853,-0.4438146844226867
1761307337605913000,4.8199130859375,0.015543606090545654,-0.19192557052150366,-0.39197329189591107
1761307337615841000,4.829841064453125,-0.01655365991592407,-0.13348887138292193,-0.3314063757956028
1761307337625768200,4.839768310546875,0.009141337832808493,-0.08075111453831195,-0.2407562369249761
1761307337635696000,4.849696044921875,0.07206921091079711,-0.04661299035400152,-0.1820817104425281
1761307337645624000,4.8596240234375,0.09961422044038772,-0.012877601751685142,-0.20355879823528228
1761307337655552300,4.86955224609375,0.16149930646717547,-0.006893412775546312,-0.30206768778227266
1761307337665479200,4.879479248046875,0.2443821723371744,-0.08321428978145122,-0.38956908029839393
1761307337675407000,4.889406982421875,0.333975934022665,-0.14159005251303314,-0.4183763648487627
1761307337685335000,4.8993349609375,0.336157954236865,-0.1601049294993281,-0.43600189177989956
1761307337695262200,4.90926220703125,0.3172147688359022,-0.17417641721069813,-0.4608587582040578
1761307337705190100,4.919190185546875,0.3124468237817287,-0.2211786991432309,-0.5098083017468452
1761307337715118000,4.9291181640625,0.290905438581109,-0.267228356526047,-0.5067728795737028
1761307337725046300,4.93904638671875,0.272553789332509,-0.3046116001114249,-0.44147206681929524
1761307337734974200,4.94897412109375,0.2797966000676155,-0.30349370199739933,-0.3672812606446445
1761307337744901000,4.958901123046875,0.24550270079970357,-0.26118030853345986,-0.32343831952586766
1761307337754829000,4.9688291015625,0.24501462502181529,-0.22754136604294178,-0.2713965090561658
1761307337764757200,4.97875732421875,0.18671382722258567,-0.19498130483031273,-0.1804519903488457
1761307337774685200,4.988685302734375,0.1585357804864645,-0.16408800778612492,-0.11449870503507553
1761307337784612000,4.998612060546875,0.16259879214167594,-0.17021905788704753,-0.07620229212753474
1761307337794540300,5.008540283203125,0.15942191567122935,-0.1612321799635887,-0.08742986164987086
1761307337804468200,5.01846826171875,0.13334931678175926,-0.15652604809924958,-0.13533522990196942
1761307337814396200,5.028396240234375,0.12418401355147361,-0.16419336785674093,-0.19317425540834665
1761307337824323000,5.038322998046875,0.22307225780487058,-0.2152662602290511,-0.2481267656929791
1761307337834251300,5.048251220703125,0.34992870543599125,-0.2631651987403631,-0.2874015221133828
1761307337844179200,5.05817919921875,0.3654156129032373,-0.29514935976117845,-0.284192350808531
1761307337854107100,5.068107177734375,0.3721387836784124,-0.30638737761229273,-0.2513629711352289
1761307337864034000,5.078033935546875,0.34836920103430746,-0.30967253676280376,-0.19222506492473185
1761307337873962200,5.087962158203125,0.24165596224367616,-0.2714420286983251,-0.12965009693764148
1761307337883890200,5.09789013671875,0.029745149922370907,-0.2487231241509318,-0.0919201588064432
1761307337893818000,5.107818115234375,-0.1673322504043579,-0.198993316950649,-0.07315707921274006
1761307337903745300,5.117745361328125,-0.31069559620022774,-0.14016454975456,-0.11551270438320935
1761307337913673200,5.127673095703125,-0.3441927921324968,-0.12205036252364515,-0.2139504283901304
1761307337923601200,5.13760107421875,-0.17230653168559074,-0.12920081880018114,-0.2620397749070078
1761307337933529000,5.147529052734375,0.06770517048239708,-0.12058175127580761,-0.2661545167494565
1761307337943456300,5.157456298828125,0.23331717296540735,-0.13353197987228632,-0.21000154463388024
1761307337953384200,5.16738427734375,0.3065612728744745,-0.15928221493959427,-0.08834507679864764
1761307337963312000,5.17731201171875,0.2899135049343109,-0.17528364780023692,0.018022271163761615
1761307337973240000,5.187239990234375,0.19427052621245383,-0.1702655273772776,0.08893880490809679
1761307337983167200,5.197167236328125,0.04007365171313285,-0.13620514460429547,0.11734269628934561
1761307337993095200,5.20709521484375,-0.10718611699938774,-0.08921835250183939,0.05957205984406173
1761307338003023000,5.217023193359375,-0.17756430608332155,-0.0768581987529993,0.004983779761940241
1761307338012951000,5.226950927734375,-0.20342355448305605,-0.09076718937903643,-0.03988514340370893
1761307338022879200,5.236879150390625,-0.16071721617877482,-0.12175532509982585,-0.10574490521512925
1761307338032806100,5.24680615234375,-0.052508770394325256,-0.1327501818448305,-0.13316986856162547
1761307338042734000,5.256734130859375,0.04774140986204147,-0.1690598048493266,-0.07496887787505983
1761307338052662000,5.266662109375,0.08162146763205527,-0.19778204146474598,0.042800957785174246
1761307338062590200,5.276590087890625,0.10221417380571365,-0.21400135485976934,0.16148688537701963
1761307338072517000,5.28651708984375,0.13761924918591975,-0.2373132568642497,0.2384777705989778
1761307338082445000,5.296445068359375,-0.0009065934509038925,-0.20062164880484343,0.2825571508221328
1761307338092373200,5.306373291015625,-0.1736585308164358,-0.17292378680109977,0.27152985311225053
1761307338102301200,5.31630126953125,-0.14678747502565384,-0.1593074955113232,0.192150611449033
1761307338112228000,5.32622802734375,-0.10105097524523735,-0.10493994550779462,0.12394063324965536
1761307338122156000,5.336156005859375,-0.10933423494398593,-0.15478534191176294,0.06712685913778842
1761307338132084200,5.346084228515625,-0.09500351177453994,-0.26588410231024023,-0.00776588476113975
1761307338142012200,5.35601220703125,-0.20712240900099277,-0.3418979591935873,-0.09632555415853858
1761307338151940000,5.365940185546875,-0.397354473477602,-0.34816958680897947,-0.10729103867858647
1761307338161867300,5.3758671875,-0.5264280126363039,-0.3112457774288952,-0.046318391321599484
1761307338171795200,5.385795166015625,-0.6521376283198594,-0.27310864673629404,0.06406988271996379
1761307338181723100,5.39572314453125,-0.8416285190403461,-0.28605054589584467,0.11443206953965127
1761307338191651000,5.405651123046875,-1.0630004026681183,-0.33243995662704107,0.09137582279667257
1761307338201578200,5.415578125,-1.2057926705777644,-0.3900822905175388,0.05210070105008781
1761307338211506200,5.425506103515625,-1.331146312430501,-0.3978222371198237,0.020883432748541236
1761307338221434000,5.43543408203125,-1.3805068479269742,-0.3368146645799279,0.02046228472702205
1761307338231362000,5.445362060546875,-1.3071335686802863,-0.21863106048703193,0.07137333760112524
1761307338241289200,5.455289306640625,-1.1727876420766115,-0.04558057856634259,0.09657375676594673
1761307338251217200,5.465217041015625,-1.1188678358405828,0.12559256517514586,0.15596264206282792
1761307338261145000,5.47514501953125,-1.209135551264882,0.25343816997408863,0.14233458727002143
1761307338271073000,5.485072998046875,-1.3965455440580845,0.19627645920738576,-0.008256663952767848
1761307338281001200,5.495001220703125,-1.5857225465238094,0.016099632538110017,-0.2539098060738295
1761307338290928000,5.50492822265625,-1.6817817048311232,-0.14063845087662338,-0.574757816845551
1761307338300856000,5.51485595703125,-1.8231530000269411,-0.09948051105812192,-0.9436531616233289
1761307338310784000,5.524783935546875,-1.9188848260760307,0.06732450060173868,-1.2394596701189875
1761307338320712200,5.534712158203125,-1.8713743023604152,0.2650419523976743,-1.2988807041198014
1761307338330640400,5.544640380859375,-1.7100152811467646,0.43208822546750303,-1.043381217701733
1761307338340568000,5.554568115234375,-1.440668763422966,0.5137823199443519,-0.5578849349126219
1761307338350496000,5.56449609375,-1.1291776329308747,0.5111084245599806,0.006890270970389247
1761307338360424000,5.574423828125,-0.9706605571448802,0.4434660171154886,0.5279107254747301
1761307338370352000,5.58435205078125,-0.7933569478243588,0.33839718453101814,0.8445785279523581
1761307338380279000,5.594279052734375,-0.497467875611782,0.24703626704253254,0.8629900906946509
1761307338390207000,5.60420703125,-0.10969137781858443,0.1839434126611799,0.5252570691607892
1761307338400135200,5.61413525390625,0.41588732451200483,0.08114142903015018,0.012884908275306224
1761307338410063000,5.62406298828125,0.9032406333446502,-0.036826997942104936,-0.4103865351386368
1761307338419991000,5.633990966796875,1.391989780449867,-0.1542491161432117,-0.6398208753213286
1761307338429918000,5.64391796875,1.9788614481329916,-0.19646270249448716,-0.8583188840132207
1761307338439846100,5.65384619140625,2.5501433324962854,-0.05395283172279596,-1.0095907379113138
1761307338449774000,5.663774169921875,3.024226825389266,0.22248189069628715,-1.0116234127826988
1761307338459702000,5.673701904296875,3.348575683888793,0.6486354654178023,-0.9156140849664807
1761307338469629000,5.68362890625,3.510961125540733,1.2457198995575307,-0.9015252077288926
1761307338479557000,5.69355712890625,3.6571710929393766,1.903696755424887,-0.9146756350725889
1761307338489485000,5.703485107421875,3.947739846912026,2.049998200499266,-0.6717050830990076
1761307338499413000,5.7134130859375,4.3886260036021465,1.3130166353695094,-0.08394961831867695
1761307338509341000,5.7233408203125,4.916287941947579,0.14238471002206204,0.3464335567966103
1761307338519268000,5.73326806640625,5.635351573070883,-0.5739085796050727,0.09894348157197236
1761307338529196000,5.743196044921875,6.459612777724861,-0.4252925739780068,-0.6838035171717405
1761307338539124000,5.7531240234375,7.079936633154749,0.04301175099164247,-1.6130821164838969
1761307338549052000,5.763052001953125,7.516337753385305,0.26741467287838455,-2.255439378415048
1761307338558980000,5.77297998046875,7.6272566271722315,0.3408301838316023,-2.266812859214097
1761307338568907000,5.782906982421875,7.092216269013285,0.31797727764099837,-1.2509329580307007
1761307338578835000,5.7928349609375,6.337485112181305,-0.1368931268684566,0.42660657918602224
1761307338588763000,5.802762939453125,4.905360305219888,-1.033077265830338,2.005937086585164
1761307338598691000,5.812691162109375,3.393983097845316,-1.104721529327333,2.9401401366874573
1761307338608619000,5.822618896484375,2.33271229544878,0.1070123678676784,2.9539880447760223
1761307338618546000,5.8325458984375,1.4056471344023942,1.3451670928679407,2.4788641029193994
1761307338628474000,5.84247412109375,0.970390508031845,1.8797170371614396,1.206753916825354
1761307338638402000,5.852402099609375,1.033634607452154,2.029020148269832,-0.9465148346647619
1761307338648330000,5.862330078125,1.2651228114247322,1.6355024764761328,-3.0169167946368454
1761307338658257000,5.8722568359375,1.7802490933239459,1.1199285969398916,-4.567034943816066
1761307338668185000,5.88218505859375,1.7575731511354444,0.8741957406461238,-5.005319393575191
1761307338678113000,5.892113037109375,0.7714899839311837,0.8454895783826708,-3.9315155650809404
1761307338688041000,5.902041015625,-0.3096341044485569,0.652785570834577,-1.7418778616145252
1761307338697969000,5.911968994140625,-1.5568179390788077,0.5618499660860746,0.47239334784895176
1761307338707896000,5.92189599609375,-3.2593612769097087,0.8383899755105376,1.7247068004526196
1761307338717824000,5.931823974609375,-4.641214278748631,1.4372148235768079,1.8653570878975092
1761307338727752000,5.941751953125,-5.47711272970438,1.8913053297549485,1.4478824941940605
1761307338737680100,5.95168017578125,-5.648063170605898,1.8028344346195457,1.1360798135347663
1761307338747608000,5.961608154296875,-5.53065668836534,1.0416163999862968,1.0471724266782403
1761307338757535000,5.971534912109375,-5.003379365423322,0.16557795408293605,0.9428303009331226
1761307338767463000,5.981462890625,-3.990323435619473,-0.37457748206742103,0.4804464520536363
1761307338777391000,5.99139111328125,-3.056523413360119,-0.7441179198157042,-0.06296630539223551
1761307338787319300,6.0013193359375,-2.7059330291450023,-0.7766165331646799,-0.5586882141195237
1761307338797247200,6.011247314453125,-3.203815330776572,-0.15183942465297878,-0.9300712109945714
1761307338807174000,6.021173828125,-4.53409012106955,0.5536863141790032,-0.8516293963119387
1761307338817102000,6.03110205078125,-5.763769278669357,0.8055104000199586,-0.17481456898376344
1761307338827030300,6.0410302734375,-6.641904112330079,0.6853004777312278,0.8006077957354486
1761307338836958200,6.050958251953125,-6.86743779181242,0.5503306470755487,1.486447787170857
1761307338846886100,6.06088623046875,-6.000058745443821,0.48461043986529106,1.699446686989814
1761307338856813300,6.070813232421875,-4.390452634507417,0.6012860505480319,1.6789701545417308
1761307338866741200,6.0807412109375,-2.5490830097883936,0.7314541800104081,1.6169681641370057
1761307338876669200,6.090669189453125,-0.7072118652880192,0.6797646170444787,1.586287633060664
1761307338886597000,6.10059716796875,0.9908592955648898,0.4434859639249742,1.5850111833840608
1761307338896525000,6.110525146484375,2.2581933532983065,-0.0014204521240200846,1.5168492090448735
1761307338906452200,6.1204521484375,2.8578602051466704,-0.43285526431724425,1.2886162074759602
1761307338916380200,6.130380126953125,2.8041555029660463,-0.6752909787617624,0.8935978487957268
1761307338926308000,6.14030810546875,2.3336972148329016,-0.6588039543412625,0.34809652157276866
1761307338936236000,6.150236083984375,1.303542266190052,-0.357911886209622,-0.1262612582169473
1761307338946164200,6.160164306640625,0.12819441823661326,-0.029397870854660866,-0.40692821137830615
1761307338956091100,6.170091064453125,-0.7628291230916977,0.20072545623918994,-0.4646759053394198
1761307338966019000,6.18001904296875,-1.333848557126522,0.35879100713171064,-0.4000611020877957
1761307338975947300,6.189947265625,-1.5529910742670296,0.4781439472649246,-0.27845176132991906
1761307338985875200,6.199875244140625,-1.594380484753847,0.5587208377474918,-0.06355667250081896
1761307338995803100,6.20980322265625,-1.4006407044172287,0.5933018468610942,0.24489742838293313
1761307339005730000,6.21972998046875,-1.0487526816070079,0.5820145465081558,0.5126616453513503
1761307339015658200,6.229658203125,-0.6156663850128651,0.5441112245714291,0.6889473098009824
1761307339025586200,6.239586181640625,-0.23710253672301768,0.49252596223019063,0.7966713330693542
1761307339035514000,6.24951416015625,0.10763444528877734,0.4077782523363828,0.8527921564809977
1761307339045442000,6.259442138671875,0.34862288353443144,0.3046747284755111,0.8083097484149039
1761307339055369200,6.269369140625,0.5629284820377827,0.21224519537482409,0.6577022767096757
1761307339065297200,6.279297119140625,0.7577928824901581,0.13642748211808503,0.41693785647824405
1761307339075225000,6.28922509765625,0.9339245254218578,0.07102441456560045,0.20173574752658605
1761307339085153000,6.299153076171875,1.0593430492043494,-0.007288841833919286,0.03738207454159856
1761307339095081200,6.309081298828125,0.9736994864493608,-0.0723411597199738,-0.11280892531722783
1761307339105008000,6.319008056640625,0.7044558445781469,-0.188399661417678,-0.1795931815624237
1761307339114936000,6.32893603515625,0.3388479239732027,-0.25946400613486764,-0.185784437417984
1761307339124864000,6.338864013671875,0.0009153612792491912,-0.32146544855032116,-0.15483122688010334
1761307339134792200,6.348792236328125,-0.31120880641937254,-0.35493513542115684,-0.13145371229350566
1761307339144720100,6.35872021484375,-0.5387520721584558,-0.3177161424867809,-0.1328615332648158
1761307339154647000,6.36864697265625,-0.5199380660951137,-0.2626722641242668,-0.07603168480098248
1761307339164575000,6.378574951171875,-0.2761713953077793,-0.22115794861614702,0.028230507575720546
1761307339174503200,6.388503173828125,0.14322130697667598,-0.22396387288235126,0.13949950997456909
1761307339184431000,6.39843115234375,0.5855892266571522,-0.2789190865807235,0.2599002055950463
1761307339194359000,6.408359130859375,0.94154844442904,-0.3660527417629957,0.393505104573071
1761307339204286200,6.4182861328125,1.1233411818623542,-0.4433322346679866,0.4371965083919465
1761307339214214100,6.428214111328125,1.0778034195244313,-0.5007488700438291,0.3819133048482239
1761307339224142000,6.43814208984375,0.902735606431961,-0.5304868595730513,0.2723017142675817
1761307339234070000,6.448070068359375,0.5904734915673733,-0.554632728183642,0.1343007722876966
1761307339243998000,6.457998046875,0.20761399191021918,-0.6051992784690111,0.017844576509296894
1761307339253926100,6.467926025390625,-0.14592705880403517,-0.622596768797934,-0.09606237317770719
1761307339263853000,6.47785302734375,-0.42864509927630423,-0.5897071833699942,-0.22689488483294842
1761307339273781000,6.487781005859375,-0.5843149689376353,-0.5572454679653048,-0.3336033013179898
1761307339283709000,6.497708984375,-0.6799445036560297,-0.47782151037752624,-0.39177316621392966
1761307339293637000,6.50763720703125,-0.6427770947784185,-0.4012963429711759,-0.33071444800868627
1761307339303565000,6.51756494140625,-0.4808721301198005,-0.34089185089096424,-0.1452859844215214
1761307339313492000,6.527491943359375,-0.3018143706083298,-0.29276494884267446,0.02158683177754283
1761307339323420200,6.537420166015625,-0.1405313372403383,-0.24610417382419109,0.14888437423966824
1761307339333348000,6.54734814453125,-0.05988894377350807,-0.22848566115573046,0.17429763243757188
1761307339343275300,6.557275146484375,-0.04817804771363735,-0.22628990467712282,0.06281418357044458
1761307339353203200,6.567203125,-0.04858312138319015,-0.20437902857698498,-0.11445479282811283
1761307339363130400,6.57713037109375,-0.032602877441048624,-0.2293297107644379,-0.24743198836185037
1761307339373058300,6.587058349609375,0.03426584221720695,-0.262239462197572,-0.37226255618855353
1761307339382986200,6.596986328125,0.151986797234416,-0.2697437003478408,-0.4300049894526601
1761307339392914200,6.6069140625,0.22695289863049983,-0.29704277229234577,-0.42227921750620007
1761307339402842400,6.61684228515625,0.3242810539603233,-0.3303573051340878,-0.38772885925918815
1761307339412769300,6.626769287109375,0.4294821346223354,-0.2935521536976099,-0.27954912811256943
1761307339422697200,6.636697265625,0.458366283801198,-0.27697102125287054,-0.07606405270062387
1761307339432625400,6.64662548828125,0.4114525569349527,-0.2710283333308995,0.08870623826123773
1761307339442553300,6.65655322265625,0.4029360730022192,-0.20986001727133988,0.1673996896173805
1761307339452481300,6.666481201171875,0.4019856404095888,-0.19728629383705557,0.20193645773045718
1761307339462408200,6.676408203125,0.38964521427452564,-0.24592048782035708,0.2073752877835184
1761307339472336400,6.68633642578125,0.3254974440127611,-0.3310097046282142,0.17602555220872163
1761307339482264300,6.696264404296875,0.24174539409279822,-0.4183361059036106,0.11025061913654208
1761307339492192300,6.706192138671875,0.23585750509798525,-0.42066805598251517,0.03884958981089294
1761307339502120200,6.7161201171875,0.2863818236768246,-0.3550790739364922,-0.0549151008836925
1761307339512047400,6.72604736328125,0.32636370545327664,-0.27710202722139654,-0.10460494139976799
1761307339521975300,6.735975341796875,0.1788344721496105,-0.19681670356392858,-0.15400010981820522
1761307339531903200,6.7459033203125,-0.26489655257761474,-0.11474902653433382,-0.2707842954419553
1761307339541831200,6.7558310546875,-0.8747942910611629,-0.014316037056967615,-0.4029547046374529
1761307339551759400,6.76575927734375,-1.4230448439270258,0.04081818647012114,-0.47679596672207114
1761307339561687600,6.7756875,-1.8735154060423374,0.0589851998668164,-0.43239721835143863
1761307339571614200,6.7856142578125,-2.3084324251949786,0.1111054824002087,-0.31075039512738584
1761307339581542100,6.795542236328125,-2.6530332136064767,0.17345774754732846,-0.20679025443717836
1761307339591470600,6.805470703125,-2.7484061432152984,0.21297325392104685,-0.1022124202400446
1761307339601398500,6.8153984375,-2.4188527018100023,0.26414967973306774,-0.035386078418791295
1761307339611326500,6.825326416015625,-1.8230033624231814,0.2554305128350854,-0.002895136919617653
1761307339621253400,6.83525341796875,-1.217664310157299,0.21430516011193393,0.01266432432718575
1761307339631181600,6.845181640625,-0.763740392717719,0.13655030478015542,-0.024217764803022145
1761307339641109500,6.855109619140625,-0.5916594864815473,0.07055617599934338,-0.08512078098990022
1761307339651037400,6.865037353515625,-0.525386979150772,-0.03496704928912222,-0.1514839622788131
1761307339660965400,6.87496533203125,-0.4493500336527824,-0.11485409434400498,-0.2314908343210816
1761307339670892500,6.884892578125,-0.3482856144040823,-0.15752229259498415,-0.25745975364036855
1761307339680820500,6.894820556640625,-0.08245791845619678,-0.16569493152610956,-0.21209581349939108
1761307339690748400,6.90474853515625,0.26207506541609765,-0.1247962271656841,-0.07423040753267705
1761307339700676400,6.91467626953125,0.6832651725113391,-0.12144143684506416,0.07726173805259168
1761307339710604500,6.9246044921875,1.0912369015932082,-0.1524094065606594,0.25241467214524743
1761307339720532500,6.934532470703125,1.3587526967585086,-0.17857077971212565,0.4811931787677109
1761307339730459400,6.94445947265625,1.4299462938785552,-0.16956768130622804,0.5364829581826925
1761307339740387300,6.95438720703125,1.3771826719403266,-0.04632715914994478,0.27032727238945664
1761307339750315500,6.9643154296875,1.2678858463972806,0.31260230660438537,-0.20174250606093555
1761307339760243500,6.974243408203125,1.1349971328645945,0.7932080408729613,-0.7880952279038727
1761307339770171400,6.98417138671875,1.2612041766762734,1.1542277569048105,-1.1648817643228917
1761307339780098600,6.9940986328125,1.866158613538742,1.3505296428143978,-1.1777971408016978
1761307339790026500,7.004026611328125,3.0421780771434306,1.2273890008360147,-0.6009775691207498
1761307339799954400,7.013954345703125,4.264769906830788,0.8841552629940211,0.245246387951076
1761307339809882400,7.02388232421875,5.199385921648145,0.5798341702617704,0.8828614237911999
1761307339819810300,7.033810302734375,5.785049382585287,0.13234890756756065,1.2822449188783764
1761307339829737500,7.043737548828125,5.937030334600806,-0.4105491783544421,1.4453670042417943
1761307339839665400,7.05366552734375,5.705987536308169,-0.7975329183347523,1.3197149639643728
1761307339849593300,7.06359326171875,5.0211260345160955,-0.9184323572576045,0.9449346528012305
1761307339859521300,7.073521240234375,3.969771645978093,-0.9068611619293689,0.6623577013000845
1761307339869449500,7.083449462890625,3.039472909837961,-0.8663504339732229,0.492130313976109
1761307339879377400,7.09337744140625,2.5624329052269457,-0.5352255054675042,0.351248701993376
1761307339889304300,7.10330419921875,2.6064158393383026,-0.099954996702075,0.3380862919509411
1761307339899232500,7.113232421875,2.7057494892716405,0.21845628844201564,0.4483597074411809
1761307339909160400,7.123160400390625,2.418155951717496,0.5433471448637545,0.5063648832947015
1761307339919088400,7.13308837890625,1.772994007629156,0.7140312629792839,0.5944356731966137
1761307339929016300,7.143016357421875,0.7824678895413875,0.5621070826523006,0.6899019801773131
1761307339938943500,7.152943603515625,-0.3557265780597925,0.45269401031844314,0.7219922319211065
1761307339948871400,7.162871337890625,-1.4546253925830126,0.440306457106024,0.504284569889307
1761307339958799400,7.17279931640625,-2.5266011288672683,0.47688974595274775,0.19309066877812145
1761307339968727300,7.182727294921875,-3.7467005572170016,0.6273698284186422,-0.07327478730827569
1761307339978655200,7.1926552734375,-4.951074593168497,0.9115098645180463,-0.46323710470795626
1761307339988583400,7.20258349609375,-6.015507658988237,1.1625463801778853,-0.7531098392404616
1761307339998510300,7.21251025390625,-6.660768971797824,1.3996500859446823,-0.9392927744567394
1761307340008438300,7.222438232421875,-6.420186191743612,1.6832076459810137,-0.9778982533134519
1761307340018366500,7.232366455078125,-5.521339409443736,1.7527385705858467,-0.9395758291818201
1761307340028294400,7.24229443359375,-4.122178714451193,1.4586488028801976,-0.8084645005851984
1761307340038222300,7.252222412109375,-2.6732518257707354,1.0564110874056816,-0.5879470418296754
1761307340048149200,7.262149169921875,-1.4324948093175887,0.7615322882141917,-0.3649747372679412
1761307340058077400,7.272077392578125,-0.3404974447458982,0.4869430475313216,-0.11073299582600593
1761307340068005400,7.28200537109375,0.48203123702704903,0.15071171753099188,0.14284765135869382
1761307340077933300,7.291933349609375,1.0219763183623551,-0.12168129174923524,0.32518443254083396
1761307340087861200,7.301861328125,1.2122826171189547,-0.3316861060524359,0.39534854048267004
1761307340097789200,7.3117890625,1.1451309888660908,-0.4948678491812199,0.366257324424386
1761307340107716400,7.32171630859375,1.0501719007551669,-0.581056369000487,0.15247794175222515
1761307340117644300,7.331644287109375,0.8955500788420439,-0.4386049504177645,-0.1659894574932754
1761307340127572200,7.341572265625,0.4924439099699259,-0.13668651664676143,-0.4329575556479394
1761307340137500200,7.351500244140625,-0.25533318994045257,0.041817061314359305,-0.5074883343666792
1761307340147428400,7.361428466796875,-0.8553641989260912,0.021901925608702,-0.4225901831515133
1761307340157355300,7.371355224609375,-1.1563245830535889,-0.024628610626235604,-0.4249224254913628
1761307340167283200,7.381283203125,-1.4522890585899353,0.063723042043671,-0.5371735707953572
1761307340177211400,7.39121142578125,-1.6821306643992662,-0.037924784849863495,-0.5684279562368989
1761307340187139300,7.401139404296875,-1.4482716396421194,-0.2397603942880407,-0.5734001916915178
1761307340197067300,7.4110673828125,-0.8183546109586953,-0.3804980677554384,-0.4042361958153546
1761307340206995500,7.420995361328125,-0.07167991933226585,-0.5018226732878014,-0.16288257751911878
1761307340216922400,7.43092236328125,0.9030202685922384,-0.5302123534806072,-0.02972308422103524
1761307340226850300,7.440850341796875,1.5821914497882126,-0.46584597203209993,0.05945815114080905
1761307340236778200,7.4507783203125,1.095866314959526,-0.33191125657781956,0.20891455311477183
1761307340246706400,7.46070654296875,-0.007011924588680267,-0.1576055869642645,0.14722382061630487
1761307340256634400,7.47063427734375,-0.6503185961991548,-0.11509097183980047,-0.27953108099922536
1761307340266561300,7.480561279296875,-0.8714601782023906,-0.1384775465156883,-0.5983939093030989
1761307340276489200,7.4904892578125,-0.9999895274817943,0.06807495364286005,-0.835556578715518
1761307340286417400,7.50041748046875,-1.342839672833681,0.6942332143146545,-1.2113834763221443
1761307340296345600,7.510345703125,-1.3670266041070223,0.770994455499202,-1.104013819449395
1761307340306273500,7.5202734375,-1.469246038609743,0.47273788697030394,-0.7479669964592903
1761307340316200200,7.5302001953125,-1.4664274740576744,0.24204404824580997,-0.5201185372285545
1761307340326128400,7.54012841796875,-1.3082862458467484,0.23008904123175888,-0.42409576540887356
1761307340336056600,7.550056640625,-0.9165823454767466,0.22573818907849488,-0.3395123792313039
1761307340345984000,7.55998388671875,-0.639163580456376,0.15486363131236283,-0.22794205579832194
1761307340355912000,7.569911865234375,-0.7286176414102316,0.06905658509135246,-0.13532660820409656
1761307340365840100,7.579840087890625,-0.43072249007225033,-0.08424129474163054,-0.11522833448387682
1761307340375767000,7.58976708984375,0.4350380151838064,-0.15017777505107224,-0.2430528964947909
1761307340385695000,7.599695068359375,1.1367273176580668,0.01720313680060208,-0.2868075017429888
1761307340395623000,7.609622802734375,1.0713947215259074,0.08145042191408575,-0.1674240934062749
1761307340405551000,7.619551025390625,0.9260545226991176,-0.012607041181996464,0.07910239748321474
1761307340415479300,7.629479248046875,0.8952432048499583,-0.05358896684646606,0.15976999845653772
1761307340425406000,7.639406005859375,0.6985241164416074,0.00465790880843997,0.24384192798063156
1761307340435334000,7.649333984375,0.39913726524114607,-0.025150734804198143,0.4148217411071062
1761307340445262000,7.659261962890625,0.07580489030778408,-0.10812880467697977,0.5912225563690066
1761307340455190300,7.669190185546875,-0.1168997017621994,-0.18365159010775386,0.4711075458221137
1761307340465118200,7.6791181640625,-0.15137129568457602,-0.3106606710173189,0.10845336045622825
1761307340475046100,7.689046142578125,-0.14913900658786297,-0.4622186483804136,-0.18607523705810308
1761307340484973300,7.698973388671875,-0.24978841529488563,-0.6421987103685737,-0.18507745819240806
1761307340494901200,7.7089013671875,-0.5567705439299344,-0.6982500487405806,0.02311630636714399
1761307340504829200,7.7188291015625,-0.8607944072812795,-0.6070198449596762,0.23115334599502382
1761307340514757000,7.728757080078125,-0.9857610956430435,-0.44994931472018357,0.36835020505040883
1761307340524685000,7.73868505859375,-1.0853069270223379,-0.25196963179148735,0.4449115397486835
1761307340534612200,7.7486123046875,-1.1363485474735497,-0.08273965800702571,0.4673867717333138
1761307340544540200,7.7585400390625,-1.054811835515499,-0.003674669924750924,0.3888667772479355
1761307340554468000,7.768468017578125,-0.8749632178872824,0.006402998910099268,0.22871515906266868
1761307340564396000,7.77839599609375,-0.581848286563158,0.017823533721268176,0.02041508458442986
1761307340574324200,7.78832421875,-0.3280687558054924,0.05115808643773198,-0.15152064102739093
1761307340584252200,7.798252197265625,-0.05024199450612068,0.06974266765937209,-0.2249166435625404
1761307340594179000,7.808178955078125,0.28582886596918106,0.05528451871797442,-0.18393683678992093
1761307340604107300,7.818107177734375,0.5925041206121444,0.01683408429250121,-0.016775339842587708
1761307340614035200,7.82803515625,0.6771867293804884,0.010545797803252936,0.206608175868541
1761307340623963100,7.837963134765625,0.46426644775569437,0.010190993016213177,0.480418979524821
1761307340633891000,7.84789111328125,0.1913005704909563,0.020100392612069844,0.6831090321015566
1761307340643818200,7.857818359375,-0.06591302636861801,0.09899404271543025,0.7586522027332335
1761307340653746200,7.86774609375,-0.1545043330132961,0.11357742547169328,0.7316598586503416
1761307340663674000,7.877674072265625,-0.017963526713848113,0.10093962382525205,0.581000218366459
1761307340673602000,7.88760205078125,0.2977864302664995,0.1250203182451427,0.3921552973993122
1761307340683530000,7.897530029296875,0.6637877341032028,0.09667714407518506,0.24654694915562866
1761307340693458200,7.907458251953125,0.8842261362731456,0.03864493408426642,0.16974924841821193
1761307340703385000,7.917385009765625,0.7139011337935924,0.07023848835229873,0.11628982623554765
1761307340713313000,7.92731298828125,0.48522448011040686,0.03513356496244669,0.10604396122694015
1761307340723241200,7.9372412109375,0.43936581525504587,-0.09465981290340424,0.07109934296533466
1761307340733169200,7.947169189453125,0.3736591251134872,-0.13431012463793157,-0.06522329053878784
1761307340743097000,7.95709716796875,0.22305238406062125,-0.07108560670092702,-0.272422418037802
1761307340753024000,7.96702392578125,0.06746551650762557,0.00431260250210762,-0.5350578938156366
1761307340762952200,7.9769521484375,-0.1455512112289667,0.08261281675696372,-0.7314251731116325
1761307340772880100,7.986880126953125,-0.6313514454007149,0.13674648493938146,-0.7076669155791402
1761307340782808000,7.99680810546875,-1.099269985923171,0.18566336832158267,-0.4865254066411406
1761307340792736000,8.006736083984375,-1.3261147480040787,0.21217048617079853,-0.1660590886633843
1761307340802663200,8.0166630859375,-1.4319225623875855,0.19891857121400533,0.19249131464548408
1761307340812591000,8.026591064453125,-1.2819722394168376,0.25379735867530107,0.42396161763519047
1761307340822519000,8.03651904296875,-1.0554998177796602,0.32354674833640457,0.4724249850962311
1761307340832447000,8.046447021484376,-0.8916676844507455,0.3166211137916893,0.3202186633596197
1761307340842375200,8.056375244140625,-0.6724538556396961,0.33896380543783305,-0.04262669719681143
1761307340852303000,8.06630322265625,-0.3806628663957119,0.421318848041445,-0.5366269332306459
1761307340862230000,8.07622998046875,0.11528817491233348,0.4411476571705192,-0.967965180581063
1761307340872158000,8.086157958984375,0.9178770614624023,0.4671116080537438,-1.1663636734437197
1761307340882086100,8.096086181640626,2.0011843391001225,0.5581983847759664,-1.1526022015295923
1761307340892014000,8.10601416015625,3.0208330912977455,0.6037934302590787,-0.959567062330991
1761307340901942000,8.11594189453125,4.007317240518331,0.41266660889983175,-0.669483023135364
1761307340911869000,8.125868896484375,4.8022968211084605,-0.01627316247411072,-0.2339681111548096
1761307340921797000,8.135797119140625,5.008315652781724,-0.3189124395992607,0.4559434405684471
1761307340931725000,8.14572509765625,4.591691246166825,-0.3693465226113796,0.9417370988689362
1761307340941653000,8.155653076171875,4.0015608689486974,-0.024558906390890478,0.7013174004219472
1761307340951581000,8.165580810546874,3.2225954345703123,0.42397579229101534,0.16572050435878335
1761307340961508900,8.1755087890625,2.9292075315237045,0.7615262237995862,-0.34160189885646103
1761307340971436000,8.18543603515625,3.4308085614174604,0.803162156393379,-0.541918427234888
1761307340981364000,8.195364013671876,4.596298447701335,0.12047427231334149,-0.11448679540157318
1761307340991292000,8.2052919921875,5.303707881388068,-0.8775288305915891,0.3905180515863001
1761307341001220000,8.21522021484375,5.812559320801496,-1.200000277846679,0.6912751682266592
1761307341011148000,8.22514794921875,6.109437404051422,-1.2696622084200382,0.929457316879928
1761307341021075000,8.235074951171875,6.124460201138257,-1.598617683932185,1.5603855684325099
1761307341031003000,8.2450029296875,4.879902038836479,-1.948080525422096,2.3464465140298008
1761307341040931000,8.25493115234375,3.3014626350581646,-1.8083401924289761,2.6519141464486715
1761307341050859000,8.26485888671875,1.9446376914918422,-1.0633923245951533,1.994900144264102
1761307341060787000,8.274786865234375,0.26807459809184075,0.04827208267264068,0.7327355981230735
1761307341070714000,8.284714111328125,-1.4085697438508271,1.164857287468761,-0.6774608701467514
1761307341080642000,8.29464208984375,-2.7587212010025977,1.8915210183322428,-1.54622055721879
1761307341090570000,8.304570068359375,-3.614760522711277,2.1037864893101155,-1.6917233992613852
1761307341100498000,8.314497802734374,-3.443126775720715,1.7011995220065115,-0.9135989457517861
1761307341110426000,8.324426025390625,-3.069686261793971,1.1605863321512937,0.2544759885892272
1761307341120354000,8.33435400390625,-2.787868969553709,1.0688984477307646,0.5819459017187356
1761307341130281000,8.344281005859376,-2.176137585902214,0.8262832120008766,0.4225090807393193
1761307341140209000,8.354208984375,-1.5065753600507974,0.20547489752229303,0.5938394608691334
1761307341150137000,8.36413720703125,-1.2552110737413167,-0.01352116035223007,0.7889591512568295
1761307341160065300,8.374065185546876,-1.7059195362657307,0.21966153604593128,0.7295980307497084
1761307341169993200,8.3839931640625,-2.7499691547483205,0.5900170895693824,0.19394523978084324
1761307341179920100,8.393920166015626,-3.9954309878915546,1.114842087455839,-0.8024436328604817
1761307341189848000,8.40384814453125,-5.233122187033295,1.2315616103455425,-1.5790090203598142
1761307341199776300,8.4137763671875,-6.951850935989618,1.002004082174599,-1.856261927293986
1761307341209704200,8.4237041015625,-7.596259431362152,0.8224016213271766,-1.6943435186319051
1761307341219632000,8.433632080078125,-7.123973343279958,1.222819208702445,-1.3102093228638172
1761307341229560000,8.44356005859375,-5.359960514485835,1.258720543166995,-0.7521845410890877
1761307341239487200,8.4534873046875,-3.402136009162664,1.232496553108096,-0.16602335976287722
1761307341249415200,8.463415283203124,-2.15078044180572,0.9625923284363,0.09386749348193406
1761307341259343000,8.473343017578125,-1.1099334187567234,0.11683368732128292,0.275352334009856
1761307341269271000,8.48327099609375,0.4054109386831522,-0.37638266832586376,0.22068433975502846
1761307341279199200,8.49319921875,1.4991729748398064,-0.528432630456984,-0.005194207642227411
1761307341289126100,8.503126220703125,1.6313193455725907,-0.4224564007040113,-0.2673585587769747
1761307341299054000,8.51305419921875,1.9877800831258297,-0.4304967184923589,-0.1812666677325964
1761307341308982000,8.52298193359375,2.136351518958807,-0.6433281527899205,-0.2589335525199771
1761307341318910200,8.53291015625,1.836532706081867,-0.5495061789501459,-0.605368716751784
1761307341328838100,8.542838134765624,1.2622867112159728,-0.5354395135443657,-0.8187341117955744
1761307341338765000,8.55276513671875,0.6621271074146032,-0.5896379540586844,-0.7946858583405614
1761307341348693500,8.562693603515624,0.09117898505032063,-0.5870503852508961,-0.6892028919972479
1761307341358621700,8.57262158203125,-0.48318449871540065,-0.4841210123805329,-0.4074614414721727
1761307341368549600,8.582549560546875,-0.9672744218379259,-0.3441556019272655,-0.09933291928097605
1761307341378477600,8.5924775390625,-1.1504945617258548,-0.22959607008304445,0.037470921868830914
1761307341388404500,8.602404541015625,-1.2014151861459017,-0.14004830296374857,-0.0013806407034397125
1761307341398332700,8.612332763671875,-1.1641770501196385,-0.11145086177177727,-0.06411474477499723
1761307341408260600,8.622260498046876,-1.1167863533914089,-0.09190404792185872,-0.14815744820460677
1761307341418188500,8.6321884765625,-1.1844330716848372,0.04793474047705531,-0.22095716534703969
1761307341428116500,8.642116455078124,-1.218022622075677,0.11586663238741457,-0.19251345341205595
1761307341438044700,8.652044677734375,-1.2414496748924255,0.078795085099712,-0.055186903562396764
1761307341447971600,8.6619716796875,-1.2497978165209294,0.16672920647729186,0.06418357222750783
1761307341457899500,8.6718994140625,-1.1670838774770498,0.20475319565162062,0.21154738583639263
1761307341467827500,8.681827392578125,-0.891681712976098,0.2708685396593064,0.21193448545783758
1761307341477755600,8.691755615234374,-0.47060675669312474,0.3852112504150718,0.17953027239404618
1761307341487683600,8.70168359375,-0.07639467289447784,0.4296770726725459,0.31139249242320655
1761307341497610500,8.711610595703124,0.34153438657820223,0.33800182853788135,0.47378860159963365
1761307341507538400,8.721538330078126,0.7416063023209571,0.2514706692934036,0.4854211717262864
1761307341517466600,8.731466552734375,0.9041922349810599,0.18614815616384148,0.4376154644563794
1761307341527394600,8.74139453125,0.8838783457487821,0.09325352630205452,0.35698315399214625
1761307341537322500,8.751322509765625,0.9214736246496439,-0.04603058735616505,0.11642835792340338
1761307341547249700,8.761249755859374,0.9259931479007005,-0.07653700397461652,-0.12982399219982324
1761307341557177600,8.771177490234376,0.7658335656046867,-0.12059892160631716,-0.15696787358261644
1761307341567105500,8.78110546875,0.5516074620783329,-0.21759075765386224,-0.021899916314706204
1761307341577033500,8.791033447265624,0.41928515025675295,-0.24647256874516604,0.1614650388713926
1761307341586961400,8.80096142578125,0.3648749301552772,-0.24928207320794463,0.3241634919952601
1761307341596888600,8.810888671875,0.37229426650106906,-0.27427111464440823,0.4745807018253952
1761307341606816500,8.82081640625,0.41139878092110155,-0.3117965431794524,0.5581614868316799
1761307341616744400,8.830744384765625,0.39074937612414357,-0.3105395288556814,0.557005375599116
1761307341626672400,8.84067236328125,0.34150632952749727,-0.2779704806189984,0.4960342626120895
1761307341636600600,8.8506005859375,0.33697570036053653,-0.31576953846365213,0.3771983320903033
1761307341646527500,8.860527587890624,0.2627969499498606,-0.38192455689460036,0.2614289495322853
1761307341656455400,8.870455322265625,0.060496846538782116,-0.45815483300760385,0.24015512922666965
1761307341666383600,8.880383544921875,-0.1713490848302841,-0.5230336940228939,0.27763788766376674
1761307341676311600,8.8903115234375,-0.3967442326247692,-0.5867562246099114,0.261569892372936
1761307341686239500,8.900239501953125,-0.6628472383826971,-0.6292740546047687,0.20041662775203584
1761307341696166400,8.91016650390625,-0.8527063778936862,-0.6755838972937316,0.15955745168440044
1761307341706094600,8.920094482421876,-0.8008113554835319,-0.6678172818802297,0.13608663279116154
1761307341716022500,8.9300224609375,-0.6628530836015939,-0.6579425882715731,0.1506163856640458
1761307341725950500,8.939950439453124,-0.626103023353219,-0.683651906806603,0.20433555476143955
1761307341735878400,8.94987841796875,-0.6142734693497419,-0.6750619192462414,0.23363427609056234
1761307341745805600,8.9598056640625,-0.6130605864286423,-0.6044935413524508,0.12908091874755917
1761307341755733500,8.9697333984375,-0.7232868017762899,-0.5198522875078022,0.01274528060890734
1761307341765661400,8.979661376953125,-0.8275269284516572,-0.45865905620269476,0.06030468496754765
1761307341775589400,8.98958935546875,-0.8379039455592632,-0.38704555317014455,0.17905366785824298
1761307341785517600,8.999517578125,-0.7305483172118663,-0.26349516134709117,0.21274514425359664
1761307341795444500,9.009444580078124,-0.6763824272602796,-0.22384499574303626,0.2803685547366738
1761307341805372400,9.019372314453125,-0.6280886442124843,-0.23540786163434385,0.3534164744865149
1761307341815300400,9.02930029296875,-0.36081601015329356,-0.25778423635438086,0.3801169960159808
1761307341825228800,9.039228759765624,-0.24148060567677018,-0.27539164310693737,0.44255138648860154
1761307341835156700,9.04915673828125,-0.26356501171290875,-0.26345775194615123,0.508817025687173
1761307341845084700,9.059084716796875,-0.31032851645350457,-0.19233736619278788,0.5191542953062802
1761307341855011600,9.069011474609376,-0.49888358762860296,-0.15942176954075693,0.5319472875144332
1761307341864939800,9.078939697265625,-0.770536628729105,-0.18982173011004924,0.4478507350057363
1761307341874867700,9.08886767578125,-1.0229571460932492,-0.2783316420815885,0.2763957786481827
1761307341884795600,9.098795654296875,-1.0909078157693146,-0.3349062006101012,0.03903663681559264
1761307341894723600,9.1087236328125,-0.891221109727025,-0.27629809042736886,-0.2457154667675495
1761307341904650800,9.118650634765626,-0.5882061311572789,-0.21374474975019692,-0.41602943639643486
1761307341914578700,9.12857861328125,-0.2877250549793243,-0.10950184659585356,-0.37340690391808745
1761307341924506600,9.138506591796874,0.0496703320980072,0.0557974366761744,-0.21539142097868025
1761307341934434600,9.1484345703125,0.3918511998862028,0.2407473229661584,0.029472178199887275
1761307341944362800,9.15836279296875,0.7275836221873759,0.3913474881477654,0.31468130483552814
1761307341954289700,9.16828955078125,0.9460855033367872,0.6071401103384793,0.41079321624338627
1761307341964217600,9.178217529296875,0.9489309558957815,0.8061315275929868,0.18922179145552218
1761307341974145500,9.1881455078125,0.9296037396132946,0.7963700120352208,-0.2575457879560068
1761307341984073700,9.19807373046875,1.0343272658914326,0.7587852545283734,-0.7949556151926517
1761307341994001700,9.208001708984375,1.0984124923110008,0.7383171976476908,-1.2302264162190257
1761307342003928600,9.217928466796875,1.2807622791051865,0.6634165627032518,-1.5174370919354259
1761307342013856800,9.227856689453125,1.753228399929404,0.4374428843684494,-1.494101078402996
1761307342023784700,9.23778466796875,2.224776821386814,0.08576280522048473,-1.0540214157901704
1761307342033712600,9.247712646484375,2.734574017217755,-0.14124460007622838,-0.500067828977108
1761307342043640600,9.257640625,3.252852041146159,-0.12219810043126345,-0.12242036487981676
1761307342053567700,9.267567626953126,3.658419631695747,0.26734642994776364,-0.05122815599925816
1761307342063495700,9.27749560546875,3.729474112606048,0.9104597709432244,-0.18778510971590875
1761307342073423600,9.287423583984374,3.272007407993078,1.4602724585592746,-0.37706352672949434
1761307342083351600,9.2973515625,2.7022160544484852,1.7894794246144592,-0.642472266612947
1761307342093279500,9.307279541015625,2.377358661904931,1.8323036902099847,-0.8197276528775691
1761307342103206700,9.31720654296875,2.0206395656764506,1.507948986491561,-0.7744979335755109
1761307342113134600,9.327134521484375,2.1859312501639128,0.9125520670473575,-0.6205996036313474
1761307342123062500,9.3370625,2.815623822441697,0.48556277215406296,-0.7118212587796151
1761307342132990700,9.34699072265625,3.951682447057962,0.39489173662587995,-0.8782036611132323
1761307342142918700,9.356918701171875,4.715987487921119,0.4364629334203899,-0.8682191504545509
1761307342152845600,9.366845458984375,4.593014019203186,0.41710444521680473,-0.5213426721960306
1761307342162773500,9.3767734375,4.312921066537499,0.13875380617380143,-0.3352577905267477
1761307342172701700,9.38670166015625,3.825084358102083,0.02080854088142514,-0.4729945286124944
1761307342182629600,9.396629638671875,2.7176205443292853,0.2932281824402511,-0.843510387264192
1761307342192557600,9.4065576171875,1.1675380509853361,0.4987785198189318,-0.9676119832292198
1761307342202484500,9.416484375,-0.2647597744554281,0.8136164765208959,-0.8501151923567056
1761307342212412700,9.42641259765625,-1.5956518198639154,1.5282624373324214,-0.5578206375047564
1761307342222340600,9.436340576171874,-2.779373528409004,2.106445917777717,0.04330547324120998
1761307342232268500,9.4462685546875,-3.3626457102954386,2.1926006449252364,0.7608990318119525
1761307342242196500,9.456196533203125,-3.376565514576435,2.1010995883136987,1.2886482100494205
1761307342252123600,9.46612353515625,-3.322492563605308,1.8060535427965223,1.3787972675301134
1761307342262051600,9.476051513671875,-2.9063416197210548,1.2498258735716343,1.0737274022571741
1761307342271979500,9.4859794921875,-2.3948604163259266,0.7933079941160976,0.5125625688910485
1761307342281907500,9.495907470703125,-1.9671534746825694,0.3770027364529669,-0.15063509036451578
1761307342291835600,9.505835693359375,-1.5391098484307526,-0.0344086116887629,-0.7572938469268381
1761307342301762600,9.515762451171875,-1.2552490676641463,-0.36645255473554134,-0.9680908527873456
1761307342311690500,9.5256904296875,-1.1807236957728862,-0.7047651297230273,-0.7445790345214307
1761307342321618400,9.535618408203124,-1.1413421179771424,-0.9440095738455653,-0.4987905025176704
1761307342331546600,9.545546630859375,-1.11693365290761,-0.9182534935593605,-0.4752331013195216
1761307342341473500,9.5554736328125,-1.2259323722869158,-0.58499169915542,-0.5917223225846886
1761307342351400700,9.565400634765625,-1.4551725050717592,-0.21028722970746455,-0.46574645718038077
1761307342361328600,9.57532861328125,-1.6351654996067284,-0.016278496236354113,-0.0577909485809505
1761307342371256600,9.585256591796876,-1.7135551457107066,0.02960005149641074,0.43648982142731546
1761307342381184500,9.5951845703125,-1.7611393191844225,0.029425873106438665,0.8839536029420793
1761307342391111700,9.605111572265624,-1.7580208949029446,-0.01765849761897698,1.2033663202136755
1761307342401039600,9.61503955078125,-1.751487109220028,-0.1736214136764407,1.3604317358866334
1761307342410967600,9.624967529296875,-1.7079677009671925,-0.39389783021770414,1.3514983417160809
1761307342420895500,9.6348955078125,-1.4756214188605545,-0.594212239704281,1.145867194186151
1761307342430823700,9.64482373046875,-1.2236357857823372,-0.7570535353649407,0.8740456646509468
1761307342440750600,9.65475048828125,-1.0526683937460184,-0.9331466729171574,0.6402509373016655
1761307342450678500,9.664678466796875,-0.8859925614237785,-1.0408152396712451,0.4176891132369637
1761307342460606500,9.6746064453125,-0.7519540933340787,-1.0654866665259004,0.18966668567880987
1761307342470534700,9.68453466796875,-0.6886106251925229,-1.0580538131114094,0.05140051689147949
1761307342480462600,9.694462646484375,-0.8238485321998595,-1.0109567655675114,0.0378178356103599
1761307342490389500,9.704389404296874,-1.056872859698534,-0.8835936105232686,0.03651844344958663
1761307342500317700,9.714317626953125,-1.3478700682163238,-0.6621480771373957,0.01410699741616845
1761307342510245600,9.72424560546875,-1.6595844860702753,-0.3679454967070371,0.0626090163871646
1761307342520173600,9.734173583984376,-1.813800065270066,-0.11428708984469994,0.12067936643138527
1761307342530101500,9.7441015625,-1.8353554789960382,0.08108005423173308,0.17097206821143626
1761307342540028700,9.754028564453124,-1.6264894411981106,0.20576942348945884,0.3000689882457256
1761307342549956600,9.76395654296875,-1.3080711417913435,0.2536762347799726,0.44515535844191906
1761307342559884500,9.773884521484375,-0.9678776484280824,0.2411484511129558,0.5368950461149216
1761307342569812500,9.7838125,-0.6927233212083578,0.2060627438802272,0.4812886019662022
1761307342579740400,9.793740478515625,-0.4338438369631767,0.149744826993905,0.2782387031011283
1761307342589667600,9.80366748046875,-0.1326291858136654,0.07405727945547551,0.03835705705359578
1761307342599595500,9.813595458984375,0.16249357820153235,-0.004544365431368351,-0.15161796392202376
1761307342609523500,9.8235234375,0.39263387469649313,-0.03480601350851357,-0.23002485342174767
1761307342619451600,9.83345166015625,0.5289069699704647,-0.021486440142989158,-0.1766093434460461
1761307342629379600,9.843379638671875,0.5837935754120349,-0.005972498538345098,-0.05551788908243179
1761307342639306500,9.853306396484374,0.6082073011785746,0.052145197778940194,0.08508154495805502
1761307342649234400,9.863234375,0.5455559069544077,0.11849084341116249,0.28106252835020423
1761307342659162600,9.87316259765625,0.5268190577805042,0.1525963805001229,0.4072540823318064
1761307342669090600,9.883090576171876,0.6834142255932092,0.20271102229952812,0.43496480381712316
1761307342679018800,9.893018798828125,0.7941933986485004,0.26298282791078087,0.3710091951265931
1761307342688945400,9.9029453125,0.9249451001524924,0.2698750716425478,0.27148265296965834
1761307342698873600,9.91287353515625,1.1614257055848836,0.18513138033673165,0.16677227843403816
1761307342708801500,9.922801513671875,1.2194587923586369,0.10066665210276841,0.10511515594422817
1761307342718729700,9.932729736328126,1.0451035114496945,0.10534333867691456,0.17641177504733205
1761307342728656600,9.94265673828125,0.757664287674427,0.16812369304299354,0.26485855865478514
1761307342738584600,9.95258447265625,0.4206809885293245,0.244294347923249,0.2589275611706078
1761307342748512500,9.962512451171875,0.1443745686650276,0.34192323976531624,0.255999106503278
1761307342758440700,9.972440673828125,0.16189385874271392,0.41492885474339125,0.18770517634749412
1761307342768368600,9.98236865234375,0.49393385626673697,0.37352147020846604,0.025411796893179416
1761307342778295600,9.992295654296875,0.881694571968913,0.2952800004035234,-0.1320358230303973
1761307342788223500,10.002223388671876,1.1067132876664398,0.19194266778677702,-0.30503917787373064
1761307342798151700,10.012151611328125,1.0180874942302702,0.1173681960567832,-0.3495786498893052
1761307342808079600,10.02207958984375,0.36924306223690506,0.1321953244410455,-0.10172368687503039
1761307342818007800,10.0320078125,-0.19363164378702638,0.002221475441753864,0.2618833422362804
1761307342827934500,10.0419345703125,-0.21971417954862116,-0.04155453792065382,0.4796889116846025
1761307342837862700,10.051862548828124,-0.335745866304636,0.15470365497767924,0.6126194185324013
1761307342847790600,10.06179052734375,-0.37690029899179933,0.2780091321289539,0.6590152590043843
1761307342857718800,10.07171875,0.007712181812524795,0.224155084605515,0.4943845226436853
1761307342867646700,10.081646728515626,0.4176350449621677,0.07036196860149502,0.13948168205693362
1761307342877573600,10.09157373046875,0.6588666443139314,-0.06811185158714651,-0.18445676901079713
1761307342887501800,10.101501708984374,0.8449024261444806,-0.2009422590613365,-0.3238015268150717
1761307342897429800,10.1114296875,0.7978875769913196,-0.3280012435272336,-0.3066024086024612
1761307342907357700,10.121357666015625,0.523850271102786,-0.3999930052876472,-0.3071376845229417
1761307342917284600,10.13128466796875,0.2353717674076557,-0.2544904555059969,-0.3113274643629789
1761307342927212800,10.141212890625,0.05274900889098644,-0.15386325863078235,-0.28747297991439696
1761307342937140700,10.151140625,0.007640285620093345,-0.18903949369117617,-0.2028540109667927
1761307342947068700,10.161068603515625,0.11022270821630954,-0.14491086749881504,-0.13205562370941043
1761307342956996600,10.17099658203125,0.14867431168556214,0.03838774445280432,0.026324162497743962
1761307342966923800,10.180923828125,0.12556290068924425,0.14044029795601964,0.38076742274872954
1761307342976851700,10.190851806640625,0.23550971457362174,0.14392127193957566,0.6374472780577838
1761307342986779600,10.200779541015624,0.2772656202852726,0.17011603590399027,0.588719049115479
1761307342996707600,10.21070751953125,0.2056260329633951,0.12909955038279294,0.3148150142177939
1761307343006635800,10.2206357421875,0.11299801814854145,0.0014949147328734396,-0.01956117116883397
1761307343016562700,10.230562744140625,0.07900807026326656,-0.10110431286767124,-0.42623854959122837
1761307343026490600,10.24049072265625,0.14704700274467467,-0.1744867983341217,-0.7476205941744148
1761307343036418600,10.25041845703125,0.23488953684866426,-0.2579147308662534,-0.867637258913368
1761307343046346800,10.2603466796875,0.2810240960359573,-0.2875685492433607,-0.844437438981235
1761307343056273700,10.270273681640624,0.1456605168223381,-0.23559900029227135,-0.6702841834504157
1761307343066201600,10.28020166015625,-0.1373597214668989,-0.10560118589550256,-0.34246633366607127
1761307343076129800,10.2901298828125,-0.1718026738166809,-0.08493526835516095,-0.060741468949615955
1761307343086057700,10.3000576171875,-0.02299509114027023,-0.027165947084128856,0.17268793221861123
1761307343095985700,10.309985595703125,0.07931026808023452,0.060085635389387604,0.2786008874770254
1761307343105912600,10.31991259765625,0.16307985365688799,0.057926996050775045,0.2691504106298089
1761307343115840800,10.3298408203125,0.2555015322446823,-0.006292962664365768,0.08578662448748946
1761307343125768700,10.339768798828125,0.21762159118354318,-0.05804390042871237,-0.20810104477480051
1761307343135696600,10.349696533203126,0.11653554462492466,-0.125882341901958,-0.4186035977333784
1761307343145624600,10.35962451171875,0.06734042882323264,-0.20040639861896634,-0.6132477795638144
1761307343155551700,10.3695517578125,-0.003664367726445198,-0.24368045380860565,-0.700681002214551
1761307343165479700,10.379479736328125,-0.07700374470353126,-0.2302477023921907,-0.6633982233289629
1761307343175407600,10.38940771484375,-0.10960954475402832,-0.20275661500692366,-0.5213854884244501
1761307343185335600,10.39933544921875,-0.07427578104436397,-0.1688403168797493,-0.3639506549172103
1761307343195262700,10.4092626953125,-0.10455810658335685,-0.10350655170381069,-0.23636530848965048
1761307343205190700,10.419190673828124,-0.14089666342139243,-0.05291106758490204,-0.18597038844414054
1761307343215118600,10.42911865234375,-0.12846972804665566,-0.056245472704619166,-0.16758699235040694
1761307343225046500,10.439046630859375,-0.11717033539712428,-0.020364888767153023,-0.11830788805969059
1761307343234974700,10.448974609375,-0.02999649433493614,-0.016261983492970467,-0.05881853806301951
1761307343244901600,10.458901611328125,-0.030071897658705708,-0.023775573993474245,-0.08950973666384815
1761307343254829600,10.46882958984375,-0.1166384204775095,-0.05355725653395056,-0.12086816700175404
1761307343264757800,10.4787578125,-0.16020692856907845,-0.09761968562230468,-0.16241401015929877
1761307343274685700,10.488685791015625,-0.16445932531654833,-0.12258797653168439,-0.2832941598597914
1761307343284613600,10.498613525390626,-0.1352823306709528,-0.1106996780782938,-0.3641542146652937
1761307343294540500,10.50854052734375,-0.1577852543801069,-0.11843582528829574,-0.32941074499897655
1761307343304468700,10.51846875,-0.13430091841816902,-0.1035593048043549,-0.218828628885746
1761307343314396700,10.528396728515625,-0.14508300919532774,-0.06459171463698149,-0.07996748987995088
1761307343324324600,10.53832470703125,-0.09899696532487869,-0.045929830395430325,0.0005053191736340523
1761307343334252500,10.54825244140625,-0.0746715023636818,-0.05229454312175512,0.007425546890869736
1761307343344180200,10.55818017578125,-0.1090174240797758,-0.0629419016033411,0.03324468247592449
1761307343354108200,10.568108154296874,-0.1493032572388649,-0.0763207308754325,0.049202056999132035
1761307343364036000,10.5780361328125,-0.19376374573409555,-0.08404182664677501,0.017377616584673523
1761307343373964000,10.587964111328125,-0.2253285122990608,-0.05658771027103066,0.010753887595981358
1761307343383891200,10.59789111328125,-0.17574352039694785,-0.02146189022362232,0.033723478968814016
1761307343393819100,10.607819091796875,-0.09457973340451717,-0.009609393735975027,0.025063933303579686
1761307343403747000,10.6177470703125,0.014486205992102623,-0.02152750280573964,-0.0003606500059366226
1761307343413675000,10.627675048828126,0.12064707159698008,-0.046900136732310055,-0.08905322506800294
1761307343423603000,10.63760302734375,0.19723288314938545,-0.07363558344468474,-0.16825776775144038
1761307343433530000,10.647530029296876,0.20250293250679968,-0.08626637082844972,-0.17263700574897228
1761307343443458000,10.6574580078125,0.20266542959213255,-0.09891454773843288,-0.1518274419542402
1761307343453386000,10.667385986328124,0.1625660589158535,-0.06426862016245723,-0.11314239505529403
1761307343463314200,10.677314208984376,0.1866694035589695,-0.06730243490040302,-0.16702954113073645
1761307343473242000,10.6872421875,0.16664660622775554,-0.04469502790346742,-0.2264856464449316
1761307343483169000,10.6971689453125,0.1442711082905531,0.008461977266520261,-0.20152838838621973
1761307343493097000,10.707096923828125,0.32334640345871446,0.4307549310371279,-0.16645707500502466
1761307343503025200,10.717025146484374,-1.2186071439653634,0.2370189500927925,0.4312157534819096
1761307343512953000,10.726953125,-1.4222072240591048,-0.13995704448372126,0.9213651227738707
1761307343522880000,10.7368798828125,-0.43314357973933215,0.09133388335108757,0.4818991350799799
1761307343532808200,10.74680810546875,0.1073141272932291,0.34959114404469727,0.12223507144078612
1761307343542736100,10.756736083984375,0.5251303740411997,0.09380860290154815,0.10271014062911271
1761307343552664000,10.7666640625,0.9190361683696507,-0.04642082878276706,0.08382124269865453
1761307343562592000,10.776592041015626,1.2772300133258103,-0.010536153192073107,0.05311652702912688
1761307343572519200,10.786519287109375,1.44543553943336,-0.03296878814399242,0.08754683909304439
1761307343582447000,10.796447021484376,1.430125742098689,-0.14755305257067083,-0.08051007232405245
1761307343592375000,10.806375,1.213150632125139,-0.1483177533328533,-0.3742198277361691
1761307343602303000,10.816302978515624,0.8682938231259584,-0.11841522089168428,-0.45505672086179255
1761307343612231000,10.82623095703125,0.4267927494078874,-0.1870731620542705,-0.3291716024808585
