time,seconds_elapsed,z,y,x
1761307332867906300,0.08190625,-0.03256753087043762,0.023060046136379242,0.040115196257829666
1761307332877834200,0.091834228515625,-0.03797055035829544,0.04675205796957016,0.01395895890891552
1761307332887762400,0.101762451171875,-0.043541084975004196,0.06890396773815155,-0.012349876575171947
1761307332897690400,0.1116904296875,-0.046120624989271164,0.07858056575059891,-0.030297452583909035
1761307332907617300,0.1216171875,-0.04025154933333397,0.07530034333467484,-0.039024364203214645
1761307332917545200,0.131545166015625,-0.023017967119812965,0.06277656555175781,-0.03978576138615608
1761307332927473400,0.141473388671875,-0.01882561855018139,0.03176005929708481,-0.032816268503665924
1761307332937400300,0.151400390625,-0.01467854529619217,0.0060328589752316475,-0.012572516687214375
1761307332947328300,0.161328369140625,-0.011187140829861164,-0.020472517237067223,0.014768293127417564
1761307332957256200,0.171256103515625,-0.019111376255750656,-0.026745060458779335,0.044439103454351425
1761307332967184400,0.181184326171875,-0.027232153341174126,-0.027515780180692673,0.0615142285823822
1761307332977111300,0.191111328125,-0.03020770289003849,-0.03448580577969551,0.05224962159991264
1761307332987039200,0.201039306640625,-0.02599351666867733,-0.0448838509619236,0.030405841767787933
1761307332996967400,0.210967529296875,-0.029030319303274155,-0.036488234996795654,0.009352489374577999
1761307333006894300,0.220894287109375,-0.03255155310034752,-0.010672084987163544,-0.0065353973768651485
1761307333016822300,0.230822265625,-0.03453800454735756,0.021158548071980476,-0.016388559713959694
1761307333026750200,0.240750244140625,-0.030157901346683502,0.053883470594882965,-0.011807656846940517
1761307333036678400,0.250678466796875,-0.019103121012449265,0.08101709187030792,0.002427737694233656
1761307333046605300,0.260605224609375,0.0014285196084529161,0.09278825670480728,0.01194001641124487
1761307333056533200,0.270533203125,0.012660135515034199,0.09030672907829285,0.026699254289269447
1761307333066461400,0.28046142578125,0.016335297375917435,0.08136622607707977,0.03875591605901718
1761307333076388400,0.290388427734375,0.012376775033771992,0.07478369027376175,0.05547497794032097
1761307333086316300,0.30031640625,0.011334147304296494,0.06094857305288315,0.06557581573724747
1761307333096244200,0.310244140625,0.007677360903471708,0.04248620569705963,0.06741020083427429
1761307333106172400,0.32017236328125,0.002907106652855873,0.03798519819974899,0.07088695466518402
1761307333116099300,0.330099365234375,-0.0009763148264028132,0.05760790407657623,0.08565658330917358
1761307333126027300,0.34002734375,0.003861317178234458,0.09607993066310883,0.10200253129005432
1761307333135955500,0.34995556640625,0.009151420556008816,0.12208250164985657,0.1100040003657341
1761307333145882400,0.35988232421875,0.007871771231293678,0.11902519315481186,0.1040763333439827
1761307333155810300,0.369810302734375,0.0075577846728265285,0.11086393147706985,0.08896875381469727
1761307333165738200,0.37973828125,0.004277835600078106,0.08662064373493195,0.05963323637843132
1761307333175665400,0.38966552734375,-0.005830192007124424,0.059180233627557755,0.030526483431458473
1761307333185593300,0.39959326171875,-0.02076679654419422,0.029834860935807228,0.015728363767266273
1761307333195521300,0.409521240234375,-0.03369724377989769,-0.001874066423624754,-0.0005131911602802575
1761307333205449200,0.41944921875,-0.03959134966135025,-0.03738225996494293,-0.006298908498138189
1761307333215376400,0.42937646484375,-0.0344112366437912,-0.04987887665629387,0.0027206854429095984
1761307333225304300,0.43930419921875,-0.018514029681682587,-0.04404282569885254,0.017059676349163055
1761307333235232300,0.449232177734375,-0.0035057852510362864,-0.022351911291480064,0.03829013183712959
1761307333245159400,0.459159423828125,0.010220679454505444,0.004316185135394335,0.05792748183012009
1761307333255087400,0.46908740234375,0.011285677552223206,0.039092276245355606,0.07999683171510696
1761307333265015300,0.479015380859375,0.006155630573630333,0.06859584152698517,0.09523410350084305
1761307333274943200,0.488943115234375,0.0016556872287765145,0.08544885367155075,0.10000329464673996
1761307333284870400,0.498870361328125,0.006443251855671406,0.08206503838300705,0.09176746755838394
1761307333294798300,0.50879833984375,0.019055450335144997,0.05904547497630119,0.08777512609958649
1761307333304726300,0.518726318359375,0.039928507059812546,0.026914704591035843,0.08283069729804993
1761307333314653400,0.5286533203125,0.05511225387454033,-0.010952782817184925,0.07786763459444046
1761307333324581400,0.538581298828125,0.06381093710660934,-0.03727094084024429,0.07359352707862854
1761307333334509800,0.548509765625,0.07141825556755066,-0.05353299900889397,0.06680939346551895
1761307333344437800,0.558437744140625,0.06926508992910385,-0.07340790331363678,0.06065216287970543
1761307333354365000,0.568364990234375,0.06077706441283226,-0.0858459323644638,0.056644637137651443
1761307333364292900,0.57829296875,0.04265531897544861,-0.07642659544944763,0.062016233801841736
1761307333374220800,0.588220703125,0.01811695285141468,-0.06641817092895508,0.06878571957349777
1761307333384148000,0.59814794921875,0.0030565098859369755,-0.05447602644562721,0.06971357017755508
1761307333394076000,0.608075927734375,0.0014000238152220845,-0.0339912548661232,0.056943975389003754
1761307333404003800,0.61800390625,-0.009878729470074177,-0.01068034116178751,0.03520379215478897
1761307333413931800,0.627931884765625,-0.024153806269168854,0.013033510185778141,0.018191786482930183
1761307333423859000,0.63785888671875,-0.03614388778805733,0.026273949071764946,0.004224838688969612
1761307333433787000,0.647786865234375,-0.05253857374191284,0.01962004043161869,0.00045060686534270644
1761307333443714800,0.65771484375,-0.06499471515417099,0.015780827030539513,0.009893910028040409
1761307333453642000,0.66764208984375,-0.07091811299324036,-0.004181695636361837,0.030530212447047234
1761307333463570000,0.67756982421875,-0.0705932080745697,-0.02991528809070587,0.054122090339660645
1761307333473497900,0.687497802734375,-0.06407459080219269,-0.032698024064302444,0.07264064997434616
1761307333483425800,0.69742578125,-0.05775091424584389,-0.01985386572778225,0.08279048651456833
1761307333493353000,0.70735302734375,-0.053705837577581406,0.003772101365029812,0.0771067664027214
1761307333503281000,0.717281005859375,-0.056406550109386444,0.025537850335240364,0.06433212012052536
1761307333513208800,0.727208740234375,-0.056838516145944595,0.05114840343594551,0.054424893110990524
1761307333523136000,0.737135986328125,-0.0615437887609005,0.05784119665622711,0.051601141691207886
1761307333533064000,0.74706396484375,-0.06474997103214264,0.05799006670713425,0.051529236137866974
1761307333542992000,0.756991943359375,-0.06566715985536575,0.05366243049502373,0.06246524304151535
1761307333552919800,0.766919921875,-0.062017831951379776,0.047391485422849655,0.07971373945474625
1761307333562847000,0.776846923828125,-0.05158436298370361,0.021529527381062508,0.09798754751682281
1761307333572775000,0.78677490234375,-0.04507692903280258,-0.006767092272639275,0.11515508592128754
1761307333582702800,0.796702880859375,-0.03791835531592369,-0.035232022404670715,0.12825171649456024
1761307333592630000,0.806630126953125,-0.03662645444273949,-0.04356052726507187,0.13070209324359894
1761307333602558000,0.816557861328125,-0.03591938316822052,-0.029140841215848923,0.12473367899656296
1761307333612486000,0.82648583984375,-0.03364744037389755,-0.001930791768245399,0.11946381628513336
1761307333622413800,0.836413818359375,-0.02245204523205757,0.028565865010023117,0.11482059210538864
1761307333632341000,0.846341064453125,-0.004559864290058613,0.057981811463832855,0.11426053196191788
1761307333642269000,0.85626904296875,0.015143000520765781,0.08354096859693527,0.12249315530061722
1761307333652196900,0.86619677734375,0.031032484024763107,0.09513690322637558,0.13050314784049988
1761307333662124000,0.8761240234375,0.04739467799663544,0.08658016473054886,0.13958585262298584
1761307333672052000,0.886052001953125,0.05630321800708771,0.059306733310222626,0.1346699297428131
1761307333681980000,0.89597998046875,0.061756573617458344,0.014913968741893768,0.12842188775539398
1761307333691907800,0.905907958984375,0.0533636212348938,-0.024960743263363838,0.11297555267810822
1761307333701835000,0.9158349609375,0.03822648152709007,-0.04072052985429764,0.10674002766609192
1761307333711763000,0.925762939453125,0.022612368687987328,-0.032164063304662704,0.1045418530702591
1761307333721691000,0.93569091796875,0.014826616272330284,-0.00945235788822174,0.10131623595952988
1761307333731618000,0.9456181640625,0.017546502873301506,0.01519679557532072,0.0957784578204155
1761307333741546000,0.9555458984375,0.027452129870653152,0.02544410713016987,0.07696428894996643
1761307333751474000,0.965473876953125,0.033226128667593,0.027165841311216354,0.05396842584013939
1761307333761401900,0.97540185546875,0.03990693762898445,0.029621807858347893,0.04073145240545273
1761307333771329000,0.9853291015625,0.04667802155017853,0.024936508387327194,0.046843938529491425
1761307333781257000,0.995257080078125,0.05251780152320862,0.0036402747500687838,0.05480172857642174
1761307333791185000,1.005184814453125,0.07426916807889938,-0.0280968826264143,0.07087310403585434
1761307333801112800,1.01511279296875,0.09455127269029617,-0.06359575688838959,0.0919158086180687
1761307333811040000,1.0250400390625,0.1130722239613533,-0.0769357904791832,0.1201770082116127
1761307333820968000,1.034968017578125,0.12406841665506363,-0.08530877530574799,0.157038614153862
1761307333830895900,1.044895751953125,0.13431866466999054,-0.06848745048046112,0.1819993555545807
1761307333840823000,1.054822998046875,0.14292332530021667,-0.02502519264817238,0.19684141874313354
1761307333850751000,1.0647509765625,0.15343189239501953,0.008904545567929745,0.18320044875144958
1761307333860679000,1.074678955078125,0.16097210347652435,0.02346138283610344,0.15183080732822418
1761307333870606800,1.08460693359375,0.16798953711986542,0.01924719847738743,0.11861160397529602
1761307333880534000,1.094533935546875,0.16767820715904236,0.004984638653695583,0.09171047806739807
1761307333890462000,1.1044619140625,0.1620219200849533,-0.009109076112508774,0.07738560438156128
1761307333900390000,1.114389892578125,0.15056447684764862,-0.033718280494213104,0.05908649042248726
1761307333910317800,1.12431787109375,0.1411411464214325,-0.05481238290667534,0.05362674221396446
1761307333920245000,1.134244873046875,0.1281377226114273,-0.07066218554973602,0.0634993463754654
1761307333930173000,1.1441728515625,0.11867578327655792,-0.07430139183998108,0.08876103162765503
1761307333940100900,1.154100830078125,0.11380273103713989,-0.07220815122127533,0.11337129771709442
1761307333950028000,1.164028076171875,0.11841639131307602,-0.060382384806871414,0.13723136484622955
1761307333959956000,1.1739560546875,0.12469266355037689,-0.04927300661802292,0.14306049048900604
1761307333969884000,1.1838837890625,0.1283515840768814,-0.05700309947133064,0.1273299902677536
1761307333979811800,1.193811767578125,0.12954840064048767,-0.06436620652675629,0.11614098399877548
1761307333989739000,1.203739013671875,0.11998925358057022,-0.05212658271193504,0.1078668087720871
1761307333999667000,1.2136669921875,0.10648809373378754,-0.02959331125020981,0.11312922090291977
1761307334009595000,1.223594970703125,0.09563358128070831,0.020261595025658607,0.12091310322284698
1761307334019522800,1.233522705078125,0.10158973932266235,0.05607977882027626,0.10795655846595764
1761307334029450000,1.243449951171875,0.10915471613407135,0.0649169459939003,0.08567681908607483
1761307334039378000,1.2533779296875,0.12162390351295471,0.05091617628931999,0.06674467772245407
1761307334049305900,1.263305908203125,0.12708178162574768,0.03960972651839256,0.05964202433824539
1761307334059233000,1.27323291015625,0.12294669449329376,0.017737451940774918,0.0534544363617897
1761307334069161000,1.283160888671875,0.10772033780813217,-0.021028585731983185,0.03286980092525482
1761307334079089000,1.2930888671875,0.09684398770332336,-0.06329774856567383,0.008875517174601555
1761307334089016800,1.303016845703125,0.07545054703950882,-0.08275692909955978,-0.008343949913978577
1761307334098944000,1.312944091796875,0.05861084908246994,-0.10049491375684738,-0.006499977316707373
1761307334108872000,1.322871826171875,0.03628131002187729,-0.09153364598751068,0.026198847219347954
1761307334118800000,1.3327998046875,0.03001915104687214,-0.044258806854486465,0.06889810413122177
1761307334128727800,1.342727783203125,0.03363971784710884,0.028195418417453766,0.09918224066495895
1761307334138655000,1.352655029296875,0.06000448018312454,0.07719199359416962,0.10081049799919128
1761307334148583000,1.3625830078125,0.10227230936288834,0.09082391113042831,0.07656801491975784
1761307334158510800,1.3725107421875,0.14697346091270447,0.08089591562747955,0.04321271926164627
1761307334168438000,1.38243798828125,0.18726949393749237,0.038063228130340576,0.001614940818399191
1761307334178366000,1.392365966796875,0.2068655639886856,-0.01528947427868843,-0.03033553436398506
1761307334188294000,1.4022939453125,0.20704026520252228,-0.04478504881262779,-0.04259646311402321
1761307334198221800,1.412221923828125,0.18934649229049683,-0.05415910854935646,-0.03687652572989464
1761307334208149000,1.42214892578125,0.164750337600708,-0.04873478412628174,-0.03189028799533844
1761307334218077000,1.432076904296875,0.1377355009317398,-0.0474705807864666,-0.02135349251329899
1761307334228004900,1.4420048828125,0.10640820115804672,-0.008492288179695606,0.009353553876280785
1761307334237932800,1.451932861328125,0.08775914460420609,0.055154599249362946,0.0549364872276783
1761307334247860000,1.46185986328125,0.09027343988418579,0.13333702087402344,0.09918517619371414
1761307334257788000,1.471787841796875,0.11178884655237198,0.20004041492938995,0.15328063070774078
1761307334267715800,1.4817158203125,0.1651575267314911,0.2461429238319397,0.20759554207324982
1761307334277643000,1.49164306640625,0.23780110478401184,0.255646675825119,0.2464667707681656
1761307334287571000,1.501571044921875,0.32696640491485596,0.22373536229133606,0.24974165856838226
1761307334297499000,1.511498779296875,0.39973515272140503,0.18980935215950012,0.220454603433609
1761307334307426800,1.5214267578125,0.4471721649169922,0.1710178107023239,0.16504088044166565
1761307334317354000,1.53135400390625,0.4788707196712494,0.18170508742332458,0.10137855261564255
1761307334327282000,1.541281982421875,0.4981083273887634,0.22860094904899597,0.047749411314725876
1761307334337209000,1.551208984375,0.4950147867202759,0.2861529290676117,0.005411543417721987
1761307334347137000,1.561136962890625,0.4792102575302124,0.35664281249046326,-0.01841815561056137
1761307334357064000,1.57106396484375,0.450251042842865,0.4094250500202179,-0.046915844082832336
1761307334366992000,1.580991943359375,0.4266466498374939,0.42107880115509033,-0.06971729546785355
1761307334376920000,1.590920166015625,0.4138541519641876,0.3739067614078522,-0.0857364758849144
1761307334386848000,1.600847900390625,0.4139425754547119,0.2927146852016449,-0.07523483037948608
1761307334396775000,1.61077490234375,0.455031156539917,0.23457787930965424,-0.027517378330230713
1761307334406703000,1.620703125,0.537138044834137,0.22575590014457703,0.033539317548274994
1761307334416631000,1.630631103515625,0.6789057850837708,0.26788631081581116,0.09290650486946106
1761307334426558000,1.640557861328125,0.8153272867202759,0.35131409764289856,0.09641388803720474
1761307334436486000,1.65048583984375,0.9089845418930054,0.3929145336151123,0.05606167018413544
1761307334446414000,1.6604140625,0.9234747886657715,0.41889819502830505,0.04205051437020302
1761307334456342000,1.670342041015625,0.840048611164093,0.5055856704711914,0.06346099823713303
1761307334466269000,1.68026904296875,0.6685365438461304,0.6769691705703735,0.10371360927820206
1761307334476197000,1.690197021484375,0.43449312448501587,0.8546579480171204,0.12815344333648682
1761307334486125000,1.700125,0.1833605021238327,0.9716199636459351,0.12531930208206177
1761307334496053000,1.710052978515625,0.006444850005209446,1.1014578342437744,0.06233714520931244
1761307334505980000,1.71997998046875,-0.08645739406347275,1.1542736291885376,-0.09299305826425552
1761307334515908000,1.729908203125,-0.08724169433116913,1.0395615100860596,-0.2960923910140991
1761307334525836000,1.7398359375,-0.07415226101875305,0.873680591583252,-0.5843721032142639
1761307334535764000,1.749763916015625,-0.10995952039957047,0.8138332366943359,-1.0339512825012207
1761307334545691100,1.759691162109375,-0.24231356382369995,0.3986043632030487,-1.446087121963501
1761307334555619000,1.769619140625,-0.22501979768276215,-0.12891803681850433,-1.6658570766448975
1761307334565547000,1.779547119140625,0.05085518956184387,-0.24399828910827637,-1.6216259002685547
1761307334575474000,1.789473876953125,0.4672497510910034,0.24260491132736206,-1.2170765399932861
1761307334585402000,1.799402099609375,0.9412620663642883,1.0500383377075195,-0.5286664962768555
1761307334595330000,1.809330078125,1.28879714012146,1.5371571779251099,0.14504027366638184
1761307334605258000,1.819258056640625,1.3978266716003418,1.63527512550354,0.5032932162284851
1761307334615185000,1.829184814453125,1.1240766048431396,1.557701826095581,0.49094414710998535
1761307334625113000,1.839113037109375,0.46607184410095215,1.4098715782165527,0.16909022629261017
1761307334635041000,1.849041015625,-0.35726413130760193,1.2450525760650635,-0.16534528136253357
1761307334644969000,1.858968994140625,-1.073926568031311,1.272454857826233,-0.3919033408164978
1761307334654896000,1.868896240234375,-1.4278967380523682,1.6343704462051392,-0.5786651968955994
1761307334664824000,1.878823974609375,-1.4172121286392212,2.0515248775482178,-0.7570786476135254
1761307334674752000,1.888751953125,-0.9927241802215576,1.8537598848342896,-0.8292202353477478
1761307334684680000,1.898679931640625,-0.42223966121673584,3.090265989303589,-1.1355769634246826
1761307334694607000,1.908607177734375,-0.006939132697880268,3.8677351474761963,-1.5701632499694824
1761307334704535000,1.91853515625,0.01338584627956152,4.275001049041748,-2.3202483654022217
1761307334714463000,1.928462890625,-0.3214033246040344,3.837212324142456,-3.187739849090576
1761307334724390100,1.93839013671875,-0.6638898253440857,2.640228509902954,-3.454774856567383
1761307334734318000,1.948318115234375,-0.8528357744216919,0.8441197872161865,-2.969804286956787
1761307334744246000,1.95824609375,-0.9939369559288025,-1.2607377767562866,-1.9705146551132202
1761307334754174000,1.968174072265625,-1.2025591135025024,-3.242011070251465,-0.8484743237495422
1761307334764101000,1.97810107421875,-1.4289188385009766,-4.770380020141602,0.03569594398140907
1761307334774029000,1.988029052734375,-1.571596384048462,-5.475971221923828,0.3678842782974243
1761307334783957000,1.99795703125,-1.7247153520584106,-5.111976146697998,0.2986980080604553
1761307334793885000,2.007885009765625,-1.903037428855896,-3.6363470554351807,0.04132373631000519
1761307334803812000,2.01781201171875,-1.9311257600784302,-2.136387348175049,-0.21369977295398712
1761307334813740000,2.027739990234375,-1.8265516757965088,-1.063737154006958,-0.3785023093223572
1761307334823668000,2.03766796875,-1.6431437730789185,-0.5665976405143738,-0.42483383417129517
1761307334833596000,2.047595947265625,-1.4072548151016235,-0.39783337712287903,-0.333572119474411
1761307334843523000,2.057523193359375,-1.1595286130905151,-0.06039729714393616,-0.11784914135932922
1761307334853451000,2.067450927734375,-0.9438285231590271,0.4480387568473816,0.09542745351791382
1761307334863379000,2.07737890625,-0.7440182566642761,0.9877885580062866,0.22836899757385254
1761307334873306000,2.08730615234375,-0.5271183848381042,1.2681901454925537,0.2775426506996155
1761307334883234000,2.097234130859375,-0.27281156182289124,0.9938525557518005,0.23824772238731384
1761307334893162000,2.107161865234375,-0.044434841722249985,0.3794461190700531,0.17104311287403107
1761307334903090000,2.11708984375,0.05997705087065697,-0.2733686864376068,0.10755734890699387
1761307334913017000,2.12701708984375,-0.06006626784801483,-0.6159138083457947,0.11018722504377365
1761307334922945000,2.136945068359375,-0.2620105743408203,-0.5955379605293274,0.17458325624465942
1761307334932873000,2.146873046875,-0.4139532446861267,-0.3876310884952545,0.27166667580604553
1761307334942801000,2.15680078125,-0.4715006947517395,-0.03308524936437607,0.3335454761981964
1761307334952728000,2.16672802734375,-0.45483407378196716,0.3103565275669098,0.3200365900993347
1761307334962656000,2.176656005859375,-0.4012174606323242,0.5463179349899292,0.2411596179008484
1761307334972584000,2.186583984375,-0.33908671140670776,0.6217679381370544,0.12907595932483673
1761307334982511900,2.196511962890625,-0.2774507701396942,0.5258158445358276,0.00948085356503725
1761307334992439000,2.20643896484375,-0.20376910269260406,0.25144580006599426,-0.08119605481624603
1761307335002367000,2.216366943359375,-0.105929896235466,-0.07053887844085693,-0.09143111109733582
1761307335012295000,2.226294921875,0.0022801985032856464,-0.31360960006713867,-0.004577441141009331
1761307335022222000,2.23622216796875,0.05553330108523369,-0.4448387026786804,0.16409173607826233
1761307335032150000,2.24614990234375,0.03554734215140343,-0.4863470196723938,0.38521212339401245
1761307335042078000,2.256077880859375,-0.056161537766456604,-0.44948431849479675,0.629794180393219
1761307335052006000,2.266005859375,-0.17053471505641937,-0.4485892355442047,0.8629128932952881
1761307335061933000,2.27593310546875,-0.2656354010105133,-0.5368906259536743,1.0221614837646484
1761307335071861000,2.285861083984375,-0.3393216133117676,-0.6757824420928955,1.1113547086715698
1761307335081789000,2.295788818359375,-0.3909648358821869,-0.7918416857719421,1.133826494216919
1761307335091717000,2.305717041015625,-0.4093339741230011,-0.8647345304489136,1.1161848306655884
1761307335101644000,2.31564404296875,-0.3927353024482727,-0.9259060025215149,1.0837424993515015
1761307335111572000,2.325572021484375,-0.3631869852542877,-0.9783870577812195,1.0460158586502075
1761307335121500000,2.3355,-0.3577006161212921,-0.9626850485801697,0.9667429327964783
1761307335131428000,2.345427978515625,-0.37702611088752747,-0.8998400568962097,0.8194573521614075
1761307335141355000,2.35535498046875,-0.420585036277771,-0.7553619742393494,0.6338094472885132
1761307335151283000,2.365282958984375,-0.4817221760749817,-0.45693477988243103,0.4435393512248993
1761307335161211100,2.375211181640625,-0.5242671966552734,-0.11944037675857544,0.2493365854024887
1761307335171138000,2.385137939453125,-0.5211910009384155,0.07020571827888489,0.07479541003704071
1761307335181066000,2.39506591796875,-0.45152243971824646,0.09167665988206863,-0.03964008763432503
1761307335190994000,2.404993896484375,-0.33584484457969666,0.030195452272892,-0.06129877641797066
1761307335200922000,2.414922119140625,-0.22196249663829803,-0.014508634805679321,0.0003936151915695518
1761307335210849000,2.42484912109375,-0.13696956634521484,-0.046246323734521866,0.13386406004428864
1761307335220777000,2.43477685546875,-0.0974610447883606,-0.10584760457277298,0.29289737343788147
1761307335230705000,2.444704833984375,-0.10129812359809875,-0.174332395195961,0.44133105874061584
1761307335240633000,2.454633056640625,-0.1438479870557785,-0.2385830134153366,0.5448140501976013
1761307335250560000,2.46456005859375,-0.21198949217796326,-0.2921524941921234,0.5948767066001892
1761307335260488000,2.474488037109375,-0.30352526903152466,-0.34114640951156616,0.6029796004295349
1761307335270416100,2.484416015625,-0.3990805447101593,-0.3653963506221771,0.5709013342857361
1761307335280343000,2.494343017578125,-0.4578586518764496,-0.33414310216903687,0.5123645067214966
1761307335290271000,2.50427099609375,-0.4468182325363159,-0.28806960582733154,0.4395126700401306
1761307335300199000,2.514198974609375,-0.3602902591228485,-0.269503653049469,0.36439794301986694
1761307335310127000,2.524127197265625,-0.2304699569940567,-0.24181848764419556,0.30203282833099365
1761307335320054000,2.534053955078125,-0.1049375981092453,-0.20895454287528992,0.25194621086120605
1761307335329982000,2.54398193359375,-0.010704842396080494,-0.15964558720588684,0.23044732213020325
1761307335339910400,2.553910400390625,0.048581916838884354,-0.11477052420377731,0.2250504195690155
1761307335349838600,2.563838623046875,0.0729205459356308,-0.07497543841600418,0.21224941313266754
1761307335359765500,2.573765625,0.06707543879747391,-0.06765308231115341,0.19898127019405365
1761307335369693400,2.583693359375,0.0306876040995121,-0.08458226174116135,0.20144842565059662
1761307335379621600,2.59362158203125,-0.027838822454214096,-0.11232174932956696,0.21113914251327515
1761307335389549600,2.603549560546875,-0.10078466683626175,-0.1383458971977234,0.22038163244724274
1761307335399476500,2.6134765625,-0.16193057596683502,-0.1661066859960556,0.23762241005897522
1761307335409404400,2.623404296875,-0.19101309776306152,-0.18334132432937622,0.2510599195957184
1761307335419332600,2.63333251953125,-0.19589920341968536,-0.17329882085323334,0.25763818621635437
1761307335429259500,2.643259521484375,-0.18261055648326874,-0.16468216478824615,0.22731252014636993
1761307335439187500,2.6531875,-0.16048821806907654,-0.1553530991077423,0.1818973571062088
1761307335449115400,2.663115478515625,-0.14151957631111145,-0.14302213490009308,0.12974095344543457
1761307335459043600,2.673043701171875,-0.12420663982629776,-0.11205250024795532,0.08518413454294205
1761307335468970500,2.682970458984375,-0.09831245243549347,-0.07545028626918793,0.05654396861791611
1761307335478898400,2.6928984375,-0.07090586423873901,-0.036622725427150726,0.048111069947481155
1761307335488826600,2.70282666015625,-0.04747617244720459,0.011914183385670185,0.05727927014231682
1761307335498754600,2.712754638671875,-0.03716734051704407,0.05156518891453743,0.08940871059894562
1761307335508681500,2.722681396484375,-0.05392048880457878,0.041794583201408386,0.13168692588806152
1761307335518609400,2.732609375,-0.08809071034193039,-0.007866711355745792,0.16640496253967285
1761307335528537600,2.74253759765625,-0.12922403216362,-0.06594226509332657,0.1979687362909317
1761307335538464500,2.752464599609375,-0.1693299114704132,-0.10872940719127655,0.22162772715091705
1761307335548392400,2.762392333984375,-0.19574473798274994,-0.11736897379159927,0.2367933690547943
1761307335558320600,2.772320556640625,-0.19440916180610657,-0.0813332051038742,0.23524847626686096
1761307335568248600,2.78224853515625,-0.16907396912574768,-0.03927230462431908,0.2270515263080597
1761307335578175500,2.792175537109375,-0.10822553932666779,-0.010099772363901138,0.20569829642772675
1761307335588103400,2.802103515625,-0.04999126121401787,0.022912772372364998,0.17963634431362152
1761307335598031600,2.812031494140625,-0.022670425474643707,0.03148788586258888,0.15396639704704285
1761307335607959600,2.82195947265625,-0.03761981427669525,0.01780136674642563,0.13028796017169952
1761307335617886500,2.831886474609375,-0.08006953448057175,-0.005113801918923855,0.10327871888875961
1761307335627814700,2.841814697265625,-0.1071176677942276,-0.028205271810293198,0.07652833312749863
1761307335637742600,2.85174267578125,-0.10236045718193054,-0.024748755618929863,0.05951685458421707
1761307335647670500,2.86167041015625,-0.0671960785984993,-0.0014322480419650674,0.05940979719161987
1761307335657597400,2.871597412109375,-0.022160163149237633,0.026753317564725876,0.06635585427284241
1761307335667525600,2.881525634765625,0.014458567835390568,0.04975983127951622,0.07039213925600052
1761307335677453600,2.89145361328125,0.0446966327726841,0.04538372531533241,0.05968543514609337
1761307335687380500,2.90138037109375,0.06734335422515869,0.020610203966498375,0.03431003540754318
1761307335697308400,2.911308349609375,0.08454231172800064,-0.0013273194199427962,0.005863481666892767
1761307335707236600,2.921236572265625,0.09247826784849167,0.008962602354586124,-0.01882801577448845
1761307335717164500,2.93116455078125,0.08754849433898926,0.03268657252192497,-0.03356701508164406
1761307335727091500,2.941091552734375,0.08357931673526764,0.05022988095879555,-0.03239096328616142
1761307335737019600,2.95101953125,0.09040313214063644,0.07181799411773682,-0.011921906843781471
1761307335746947600,2.960947509765625,0.10738424956798553,0.09896679222583771,0.011452391743659973
1761307335756875500,2.97087548828125,0.13267575204372406,0.10411068797111511,0.035782232880592346
1761307335766802400,2.980802490234375,0.1656704545021057,0.09625808894634247,0.05410930886864662
1761307335776730600,2.990730712890625,0.20174217224121094,0.08555778115987778,0.07057935744524002
1761307335786658600,3.000658447265625,0.22013209760189056,0.08722038567066193,0.0894438624382019
1761307335796585500,3.01058544921875,0.23591531813144684,0.08558307588100433,0.09772975742816925
1761307335806513700,3.020513671875,0.2340463250875473,0.06376166641712189,0.09775931388139725
1761307335816441600,3.030441650390625,0.2249433696269989,0.02827318385243416,0.0813198909163475
1761307335826369500,3.04036962890625,0.19970804452896118,-0.008066448383033276,0.05053028464317322
1761307335836296400,3.05029638671875,0.15986822545528412,-0.0403658002614975,0.0068033114075660706
1761307335846224600,3.060224609375,0.12546683847904205,-0.06034083664417267,-0.038245122879743576
1761307335856152600,3.070152587890625,0.10423026233911514,-0.053458962589502335,-0.07643858343362808
1761307335866079500,3.08007958984375,0.10180279612541199,-0.013739780522882938,-0.09968771040439606
1761307335876007700,3.090007568359375,0.11541873961687088,0.03027188591659069,-0.11970562487840652
1761307335885935600,3.099935546875,0.14100931584835052,0.07296235859394073,-0.11336677521467209
1761307335895863600,3.109863525390625,0.16728779673576355,0.10005789250135422,-0.09612280130386353
1761307335905790500,3.11979052734375,0.19763398170471191,0.10599620640277863,-0.07037509977817535
1761307335915718700,3.12971875,0.22073744237422943,0.09132698178291321,-0.045410625636577606
1761307335925646600,3.139646484375,0.22731970250606537,0.05103309080004692,-0.03265834599733353
1761307335935574500,3.149574462890625,0.22050388157367706,0.004051733296364546,-0.029320338740944862
1761307335945501400,3.15950146484375,0.1889488846063614,-0.050566237419843674,-0.03766082599759102
1761307335955429600,3.1694296875,0.16052202880382538,-0.0838371068239212,-0.05873894691467285
1761307335965357600,3.179357666015625,0.126963272690773,-0.09122258424758911,-0.0810551717877388
1761307335975285500,3.189285400390625,0.09495767205953598,-0.08445602655410767,-0.08734901994466782
1761307335985212700,3.199212646484375,0.0720001608133316,-0.05946865305304527,-0.06661152094602585
1761307335995140600,3.209140625,0.06490682810544968,0.0007866977830417454,-0.030826622620224953
1761307336005068500,3.219068603515625,0.0749908909201622,0.04518132656812668,-0.007165235001593828
1761307336014995500,3.228995361328125,0.1003899872303009,0.07839547097682953,-0.0075572519563138485
1761307336024923600,3.238923583984375,0.12141537666320801,0.1061091274023056,-0.023330356925725937
1761307336034851600,3.2488515625,0.13830141723155975,0.12161272019147873,-0.052687179297208786
1761307336044779500,3.258779541015625,0.14747200906276703,0.11186394840478897,-0.08610053360462189
1761307336054706700,3.268706787109375,0.1598927229642868,0.0857231616973877,-0.12012241035699844
1761307336064634600,3.278634521484375,0.16938023269176483,0.040587373077869415,-0.14861291646957397
1761307336074562600,3.2885625,0.1636003851890564,0.007154315710067749,-0.16158942878246307
1761307336084489500,3.298489501953125,0.1503620743751526,0.0036549223586916924,-0.14403413236141205
1761307336094417700,3.308417724609375,0.13949185609817505,0.030918767675757408,-0.11455321311950684
1761307336104345600,3.318345703125,0.12859366834163666,0.06462453305721283,-0.08014223724603653
1761307336114273500,3.3282734375,0.12822720408439636,0.1086825355887413,-0.050398990511894226
1761307336124200700,3.33820068359375,0.12925519049167633,0.16154229640960693,-0.033911362290382385
1761307336134128600,3.348128662109375,0.13283075392246246,0.21985620260238647,-0.029676401987671852
1761307336144056600,3.358056640625,0.14161013066768646,0.28915590047836304,-0.04536881297826767
1761307336153984500,3.367984619140625,0.1604733020067215,0.3272228538990021,-0.06982435286045074
1761307336163911700,3.37791162109375,0.18716242909431458,0.3149971067905426,-0.09075333923101425
1761307336173839600,3.387839599609375,0.21566890180110931,0.284745991230011,-0.10588382184505463
1761307336183767600,3.397767578125,0.23867063224315643,0.25262266397476196,-0.10795363038778305
1761307336193694500,3.407694580078125,0.2658873498439789,0.20874015986919403,-0.10742632299661636
1761307336203622700,3.41762255859375,0.28907760977745056,0.13709713518619537,-0.10488593578338623
1761307336213550600,3.427550537109375,0.3045404553413391,0.06359895318746567,-0.09274298697710037
1761307336223478500,3.437478515625,0.31008437275886536,-0.02135828509926796,-0.06769914925098419
1761307336233405700,3.44740576171875,0.3012186884880066,-0.11816126108169556,-0.030297985300421715
1761307336243333600,3.457333740234375,0.2753570079803467,-0.21445290744304657,0.020320450887084007
1761307336253261600,3.467261474609375,0.24766811728477478,-0.26928287744522095,0.08091188967227936
1761307336263189500,3.477189453125,0.2194386124610901,-0.27596980333328247,0.13267868757247925
1761307336273116700,3.48711669921875,0.20880061388015747,-0.24284540116786957,0.16624543070793152
1761307336283044600,3.497044677734375,0.2280488759279251,-0.17760728299617767,0.18343454599380493
1761307336292972500,3.50697265625,0.28301918506622314,-0.05965214595198631,0.17082953453063965
1761307336302899700,3.516899658203125,0.3469366431236267,0.07673419266939163,0.11855034530162811
1761307336312827600,3.52682763671875,0.3953411877155304,0.1962323635816574,0.03544853627681732
1761307336322755600,3.536755615234375,0.41416096687316895,0.25477877259254456,-0.06802912056446075
1761307336332683500,3.54668359375,0.4001127779483795,0.22779615223407745,-0.17350921034812927
1761307336342610700,3.556610595703125,0.34962138533592224,0.1639215648174286,-0.27357587218284607
1761307336352538600,3.56653857421875,0.2873481512069702,0.11702169477939606,-0.35317936539649963
1761307336362466600,3.576466552734375,0.23575420677661896,0.12435311079025269,-0.41422781348228455
1761307336372394500,3.58639453125,0.24825482070446014,0.17454224824905396,-0.4588192403316498
1761307336382321700,3.59632177734375,0.3488253653049469,0.21006454527378082,-0.47253450751304626
1761307336392249600,3.60624951171875,0.49426379799842834,0.2959970235824585,-0.44881296157836914
1761307336402177500,3.616177490234375,0.6332882642745972,0.4248173236846924,-0.39830636978149414
1761307336412104700,3.626104736328125,0.7341892719268799,0.481812983751297,-0.3465560972690582
1761307336422032600,3.63603271484375,0.7706761956214905,0.4771551191806793,-0.3199702799320221
1761307336431960600,3.645960693359375,0.7307620644569397,0.39629673957824707,-0.3114955723285675
1761307336441888500,3.655888427734375,0.6408292651176453,0.3230299949645996,-0.32845085859298706
1761307336451815700,3.665815673828125,0.4946590065956116,0.14619742333889008,-0.3396923243999481
1761307336461743600,3.67574365234375,0.30644407868385315,0.013227121904492378,-0.3152242600917816
1761307336471671600,3.685671630859375,0.10943008959293365,-0.13305285573005676,-0.23236799240112305
1761307336481599500,3.695599609375,-0.04531341791152954,-0.26026061177253723,-0.10821142792701721
1761307336491526700,3.705526611328125,-0.11591115593910217,-0.37938860058784485,0.03573669120669365
1761307336501454600,3.71545458984375,-0.11973172426223755,-0.5159083604812622,0.1810307651758194
1761307336511382500,3.725382568359375,-0.09877052158117294,-0.6624668836593628,0.2977001368999481
1761307336521309700,3.735309814453125,-0.07274743914604187,-0.7865491509437561,0.38781270384788513
1761307336531237600,3.745237548828125,-0.04270352050662041,-0.7943687438964844,0.46459510922431946
1761307336541165600,3.75516552734375,-0.0041068606078624725,-0.6815252900123596,0.5238602757453918
1761307336551093500,3.765093505859375,0.04595683887600899,-0.5051896572113037,0.5373731851577759
1761307336561020700,3.775020751953125,0.09788262099027634,-0.2853134870529175,0.5071313977241516
1761307336570948600,3.784948486328125,0.12479066848754883,-0.06156429275870323,0.42963606119155884
1761307336580876500,3.79487646484375,0.12359144538640976,0.0732467845082283,0.32012102007865906
1761307336590804500,3.804804443359375,0.12065238505601883,0.09254724532365799,0.21596930921077728
1761307336600731600,3.814731689453125,0.09789939969778061,0.035652536898851395,0.14326554536819458
1761307336610659600,3.82465966796875,0.053824882954359055,-0.09478909522294998,0.10445849597454071
1761307336620587500,3.83458740234375,-0.011364241130650043,-0.20615875720977783,0.10480684041976929
1761307336630515500,3.844515380859375,-0.05540866404771805,-0.15155543386936188,0.14178216457366943
1761307336640442600,3.854442626953125,-0.0455017052590847,0.0882403776049614,0.1904889941215515
1761307336650370600,3.86437060546875,0.008533833548426628,0.39789649844169617,0.21183155477046967
1761307336660298500,3.874298583984375,0.10002300143241882,0.7034382820129395,0.19491329789161682
1761307336670225400,3.884225341796875,0.23889726400375366,0.9166725277900696,0.14827655255794525
1761307336680153600,3.894153564453125,0.38532984256744385,0.9160155653953552,0.08568481355905533
1761307336690081500,3.90408154296875,0.5002828240394592,0.8129083514213562,0.012801283039152622
1761307336700009500,3.914009521484375,0.5935829281806946,0.4906240403652191,-0.012169847264885902
1761307336709936400,3.923936279296875,0.5947200655937195,0.235712930560112,0.07853981852531433
1761307336719864600,3.933864501953125,0.407282292842865,0.22783182561397552,0.2530660927295685
1761307336729792500,3.94379248046875,0.0898531898856163,0.39784911274909973,0.4199642539024353
1761307336739720700,3.953720703125,-0.22702009975910187,0.6755600571632385,0.47925686836242676
1761307336749647400,3.9636474609375,-0.4631652534008026,1.0981544256210327,0.37517866492271423
1761307336759575600,3.973575439453125,-0.6370590329170227,1.527970314025879,0.012591691687703133
1761307336769503500,3.98350341796875,-0.8847686648368835,1.7414926290512085,-0.5112971067428589
1761307336779431700,3.993431640625,-1.1436647176742554,1.6475507020950317,-1.0790274143218994
1761307336789358300,4.0033583984375,-1.1522136926651,1.3211673498153687,-1.4671224355697632
1761307336799286500,4.01328662109375,-0.7586163282394409,0.8612042665481567,-1.528808355331421
1761307336809214500,4.02321435546875,-0.001933987601660192,0.12818220257759094,-1.3747615814208984
1761307336819141400,4.033141357421875,0.8909810185432434,-0.7590632438659668,-1.0760408639907837
1761307336829069600,4.043069580078125,1.5749194622039795,-1.423071026802063,-0.6969695091247559
1761307336838997500,4.05299755859375,1.8350210189819336,-1.6890993118286133,-0.42908531427383423
1761307336848925700,4.06292578125,1.6720118522644043,-1.5324046611785889,-0.35075509548187256
1761307336858852400,4.072852294921875,1.2018928527832031,-1.1511425971984863,-0.4233379364013672
1761307336868780500,4.082780517578125,0.5789307355880737,-0.7096778154373169,-0.5555759072303772
1761307336878708500,4.09270849609375,-0.04418050870299339,-0.31927838921546936,-0.6963692307472229
1761307336888636700,4.10263671875,-0.5752816796302795,-0.027124028652906418,-0.8944543600082397
1761307336898563300,4.112563232421875,-0.9877709746360779,0.2398727834224701,-1.1675788164138794
1761307336908491500,4.122491455078125,-1.2602118253707886,0.5494367480278015,-1.4760987758636475
1761307336918419700,4.132419677734375,-1.383980393409729,0.8186227083206177,-1.71693754196167
1761307336928347600,4.14234765625,-1.3100388050079346,1.0335227251052856,-1.8158098459243774
1761307336938274300,4.1522744140625,-1.0533217191696167,1.0857806205749512,-1.7569323778152466
1761307336948202500,4.162202392578125,-0.7517011761665344,0.9143561124801636,-1.5569838285446167
1761307336958130700,4.172130615234375,-0.40186968445777893,0.7586437463760376,-1.170291781425476
1761307336968057300,4.182057373046875,-0.05122377350926399,0.6692204475402832,-0.6404721140861511
1761307336977985300,4.1919853515625,0.18950441479682922,0.4818587899208069,-0.13506753742694855
1761307336987913700,4.201913818359375,0.2603043019771576,0.20736996829509735,0.24393996596336365
1761307336997841700,4.211841552734375,0.199908047914505,0.002552639925852418,0.5157403349876404
1761307337007768300,4.221768310546875,0.062123291194438934,-0.12423539906740189,0.6974693536758423
1761307337017696300,4.2316962890625,-0.11800253391265869,-0.1324310153722763,0.7962862253189087
1761307337027624700,4.241624755859375,-0.3360895812511444,-0.07398634403944016,0.816202700138092
1761307337037552600,4.251552734375,-0.5756073594093323,-0.05342381075024605,0.7440299391746521
1761307337047479300,4.261479248046875,-0.7783432006835938,-0.13470667600631714,0.6055583357810974
1761307337057407500,4.271407470703125,-0.8506256341934204,-0.32214421033859253,0.46072953939437866
1761307337067335700,4.281335693359375,-0.7795131206512451,-0.5914025902748108,0.37326493859291077
1761307337077263600,4.291263671875,-0.6075160503387451,-0.829352855682373,0.3922588527202606
1761307337087190300,4.301190185546875,-0.3724856972694397,-0.9066516160964966,0.4929407238960266
1761307337097118500,4.311118408203125,-0.15826314687728882,-0.7787461280822754,0.6241562962532043
1761307337107046700,4.321046630859375,-0.021157748997211456,-0.5435189604759216,0.739702582359314
1761307337116974600,4.330974609375,0.09795505553483963,-0.34003347158432007,0.826680600643158
1761307337126901500,4.340901611328125,0.17423970997333527,-0.23631027340888977,0.8527833223342896
1761307337136829400,4.350829345703125,0.14801077544689178,-0.2626694440841675,0.8173190951347351
1761307337146757600,4.360757568359375,0.044491566717624664,-0.36640700697898865,0.7242610454559326
1761307337156684300,4.370684326171875,-0.03441523015499115,-0.43063393235206604,0.6316485404968262
1761307337166612500,4.380612548828125,-0.03874339908361435,-0.42832550406455994,0.5715370178222656
1761307337176540700,4.390540771484375,0.004507666453719139,-0.39389005303382874,0.5327222347259521
1761307337186468600,4.400468505859375,0.08216065168380737,-0.3503588140010834,0.5013941526412964
1761307337196395500,4.4103955078125,0.1567286252975464,-0.19886276125907898,0.5135690569877625
1761307337206323500,4.420323486328125,0.25393426418304443,-0.15402498841285706,0.49498817324638367
1761307337216251600,4.430251708984375,0.34559735655784607,-0.13269253075122833,0.4660547971725464
1761307337226179600,4.4401796875,0.42052486538887024,-0.06629619747400284,0.4442506730556488
1761307337236106500,4.4501064453125,0.434406042098999,-0.11133584380149841,0.4434938132762909
1761307337246034400,4.460034423828125,0.3966783881187439,-0.2776670455932617,0.42827412486076355
1761307337255962600,4.469962646484375,0.33156701922416687,-0.4767521619796753,0.42617449164390564
1761307337265890600,4.479890625,0.24039316177368164,-0.6061083078384399,0.4522708058357239
1761307337275817500,4.4898173828125,0.12087422609329224,-0.6625361442565918,0.49405500292778015
1761307337285745400,4.499745361328125,-0.009549030102789402,-0.6751030683517456,0.5328945517539978
1761307337295673600,4.509673583984375,-0.11178698390722275,-0.6060323715209961,0.5346192121505737
1761307337305601500,4.5196015625,-0.16964203119277954,-0.5052759647369385,0.4870050847530365
1761307337315528400,4.529528564453125,-0.17025135457515717,-0.4310656487941742,0.3864086866378784
1761307337325456400,4.539456298828125,-0.13383768498897552,-0.37874889373779297,0.24751338362693787
1761307337335384000,4.549384033203125,-0.07726948708295822,-0.3311994969844818,0.10182543098926544
1761307337345311200,4.559311279296875,-0.0012207929976284504,-0.2873755991458893,-0.013130716048181057
1761307337355239200,4.5692392578125,0.09430093318223953,-0.23866823315620422,-0.07826950401067734
1761307337365167000,4.5791669921875,0.20641468465328217,-0.17431481182575226,-0.10136231034994125
1761307337375095000,4.589094970703125,0.32999762892723083,-0.10396022349596024,-0.09343460947275162
1761307337385022200,4.599022216796875,0.4352174997329712,-0.01859365776181221,-0.06780408322811127
1761307337394950100,4.6089501953125,0.509054958820343,0.08222616463899612,-0.04300712049007416
1761307337404878000,4.618878173828125,0.5461152791976929,0.1535264402627945,-0.016534501686692238
1761307337414806000,4.628805908203125,0.5455565452575684,0.1810736507177353,0.0015638081822544336
1761307337424733200,4.638733154296875,0.5105857849121094,0.16789180040359497,-0.004437092691659927
1761307337434661000,4.6486611328125,0.45486631989479065,0.08731786161661148,-0.034202177077531815
1761307337444589000,4.658589111328125,0.38711151480674744,-0.011659053154289722,-0.0741591826081276
1761307337454517200,4.668517333984375,0.33975863456726074,-0.08917701244354248,-0.10860130935907364
1761307337464444200,4.678444091796875,0.3124077022075653,-0.12755316495895386,-0.12196265906095505
1761307337474372000,4.6883720703125,0.30423420667648315,-0.14636759459972382,-0.10900131613016129
1761307337484300000,4.698300048828125,0.3124585747718811,-0.1426871120929718,-0.0690230131149292
1761307337494228200,4.708228271484375,0.3237655460834503,-0.12174960225820541,-0.022186528891324997
1761307337504155100,4.718155029296875,0.3321790099143982,-0.06967175751924515,0.024094151332974434
1761307337514083000,4.7280830078125,0.3361271321773529,0.007794806268066168,0.06352145224809647
1761307337524011000,4.738010986328125,0.3333449363708496,0.08072920143604279,0.08604779839515686
1761307337533939200,4.747939208984375,0.32166725397109985,0.1284237504005432,0.09453955292701721
1761307337543866000,4.7578662109375,0.3123016953468323,0.15636350214481354,0.09131792932748795
1761307337553794000,4.7677939453125,0.29652169346809387,0.15759362280368805,0.08173880726099014
1761307337563722200,4.77772216796875,0.27946946024894714,0.1289507895708084,0.06549005955457687
1761307337573650200,4.787650146484375,0.26042625308036804,0.10329363495111465,0.0557042732834816
1761307337583577000,4.7975771484375,0.25170227885246277,0.1084175556898117,0.05495272949337959
1761307337593505000,4.807505126953125,0.2591271698474884,0.16551199555397034,0.05699697136878967
1761307337603433200,4.81743310546875,0.2871268391609192,0.24078863859176636,0.0765158161520958
1761307337613361200,4.827361083984375,0.332825630903244,0.31024283170700073,0.10189840197563171
1761307337623288000,4.8372880859375,0.38227999210357666,0.3621331751346588,0.13268454372882843
1761307337633216300,4.84721630859375,0.429657906293869,0.39770209789276123,0.15914730727672577
1761307337643144200,4.857144287109375,0.451405793428421,0.4093893766403198,0.17711912095546722
1761307337653072100,4.867072021484375,0.4465346038341522,0.4185916483402252,0.18166327476501465
1761307337662999000,4.8769990234375,0.41392606496810913,0.4240865707397461,0.17988401651382446
1761307337672927200,4.88692724609375,0.3598737418651581,0.4141732156276703,0.17088013887405396
1761307337682855200,4.896855224609375,0.2966146171092987,0.36861851811408997,0.16265203058719635
1761307337692782000,4.906781982421875,0.23037302494049072,0.2694200277328491,0.16159768402576447
1761307337702710300,4.916710205078125,0.1511133462190628,0.14070677757263184,0.16709551215171814
1761307337712638200,4.92663818359375,0.0694911926984787,0.015081481076776981,0.17466793954372406
1761307337722566100,4.936566162109375,-0.006135124247521162,-0.0864265039563179,0.18287713825702667
1761307337732494000,4.946494140625,-0.05119021609425545,-0.15887486934661865,0.1861696094274521
1761307337742421200,4.956421142578125,-0.07660369575023651,-0.20669777691364288,0.18051810562610626
1761307337752349200,4.96634912109375,-0.08321419358253479,-0.2285170555114746,0.18056631088256836
1761307337762277000,4.976277099609375,-0.07817842811346054,-0.2290467619895935,0.18407289683818817
1761307337772205000,4.986205078125,-0.06565278023481369,-0.21431602537631989,0.18843701481819153
1761307337782132200,4.99613232421875,-0.043831370770931244,-0.1893153339624405,0.1858191341161728
1761307337792060200,5.00606005859375,-0.026140524074435234,-0.15124943852424622,0.18273518979549408
1761307337801988000,5.015988037109375,-0.008762865327298641,-0.12395736575126648,0.1705661416053772
1761307337811916000,5.025916015625,-0.005381449591368437,-0.11262055486440659,0.16177397966384888
1761307337821843200,5.03584326171875,-0.006776413414627314,-0.08528213948011398,0.15269127488136292
1761307337831771100,5.045771240234375,-0.017665812745690346,-0.06029875949025154,0.12416775524616241
1761307337841699000,5.055698974609375,-0.03533215820789337,-0.056301090866327286,0.07202093303203583
1761307337851627000,5.065626953125,-0.04746898263692856,-0.07922318577766418,0.01549267303198576
1761307337861554200,5.07555419921875,-0.06604612618684769,-0.1298791766166687,-0.032464466989040375
1761307337871482000,5.085482177734375,-0.07450859248638153,-0.1993780881166458,-0.06041593849658966
1761307337881410000,5.09541015625,-0.07585322111845016,-0.27708354592323303,-0.05849526822566986
1761307337891338000,5.105337890625,-0.0846983790397644,-0.3245602250099182,-0.02636769227683544
1761307337901265200,5.11526513671875,-0.09542638808488846,-0.32693418860435486,0.03400164097547531
1761307337911193000,5.125193115234375,-0.09542185813188553,-0.2803192734718323,0.10618103295564651
1761307337921121000,5.13512109375,-0.08471541851758957,-0.17483413219451904,0.16500253975391388
1761307337931049200,5.14504931640625,-0.06908000260591507,-0.0761304572224617,0.17890317738056183
1761307337940976000,5.15497607421875,-0.04841972887516022,-0.03153768554329872,0.13403981924057007
1761307337950904000,5.164904052734375,-0.02893657609820366,-0.036803554743528366,0.05157584324479103
1761307337960832000,5.17483203125,-0.014505173079669476,-0.060572002083063126,-0.03259442746639252
1761307337970760200,5.18476025390625,-0.003972637467086315,-0.08737858384847641,-0.09247507154941559
1761307337980687000,5.19468701171875,0.008021707646548748,-0.11424241960048676,-0.11553112417459488
1761307337990615000,5.204614990234375,0.018726550042629242,-0.13961701095104218,-0.10971291363239288
1761307338000543200,5.214543212890625,0.023930633440613747,-0.13529257476329803,-0.07620368897914886
1761307338010471200,5.22447119140625,0.02857412025332451,-0.10347099602222443,-0.022723687812685966
1761307338020399000,5.234399169921875,0.030796794220805168,-0.04301884025335312,0.03190973028540611
1761307338030326000,5.244325927734375,0.025293638929724693,0.0327499583363533,0.06609566509723663
1761307338040254200,5.254254150390625,0.0173808541148901,0.07362734526395798,0.0632639229297638
1761307338050182100,5.26418212890625,0.007226487621665001,0.06301305443048477,0.03353479132056236
1761307338060110000,5.274110107421875,-0.0030162963084876537,0.014858840964734554,-0.017356619238853455
1761307338070037200,5.284037353515625,-0.012738698162138462,-0.028011661022901535,-0.07084887474775314
1761307338079965200,5.293965087890625,-0.0073439329862594604,-0.060024455189704895,-0.11426132917404175
1761307338089893000,5.30389306640625,0.007663512136787176,-0.06776679307222366,-0.12028193473815918
1761307338099821000,5.313821044921875,0.03994714841246605,-0.036201413720846176,-0.10414451360702515
1761307338109748200,5.323748291015625,0.06761659681797028,-0.014915565960109234,-0.08882015198469162
1761307338119676200,5.33367626953125,0.07871318608522415,-0.009619603864848614,-0.10447048395872116
1761307338129604000,5.34360400390625,0.06738702952861786,0.02611495740711689,-0.14447541534900665
1761307338139532000,5.353531982421875,0.03843926638364792,0.061170678585767746,-0.21532535552978516
1761307338149460200,5.363460205078125,0.009238772094249725,0.06658142060041428,-0.29354825615882874
1761307338159387100,5.37338720703125,0.0007147924043238163,0.057920556515455246,-0.36709144711494446
1761307338169315000,5.383315185546875,0.022104503586888313,0.05841377377510071,-0.42065906524658203
1761307338179243000,5.393242919921875,0.053705573081970215,0.06010568141937256,-0.46200278401374817
1761307338189171200,5.403171142578125,0.07462417334318161,0.07677493989467621,-0.498850554227829
1761307338199098000,5.41309814453125,0.08148740231990814,0.11680944263935089,-0.5332455635070801
1761307338209026000,5.423026123046875,0.08239846676588058,0.17949305474758148,-0.5467647910118103
1761307338218954000,5.4329541015625,0.10820556432008743,0.2762209475040436,-0.5202059149742126
1761307338228882400,5.44288232421875,0.16994695365428925,0.37763118743896484,-0.45587751269340515
1761307338238809000,5.45280908203125,0.2484031468629837,0.39738890528678894,-0.38293352723121643
1761307338248737000,5.462737060546875,0.31777051091194153,0.2575646936893463,-0.32228749990463257
1761307338258665000,5.4726650390625,0.35193967819213867,-0.013889450579881668,-0.3032134175300598
1761307338268593400,5.482593505859375,0.3392808735370636,-0.3289155662059784,-0.33796021342277527
1761307338278521300,5.492521240234375,0.2786446809768677,-0.5837516188621521,-0.41318783164024353
1761307338288448000,5.502447998046875,0.17071688175201416,-0.692620038986206,-0.5034493207931519
1761307338298376400,5.51237646484375,-0.004681038204580545,-0.6495841145515442,-0.5894187688827515
1761307338308304400,5.522304443359375,-0.2066815346479416,-0.44573432207107544,-0.6390907168388367
1761307338318232300,5.532232421875,-0.38052868843078613,-0.17106442153453827,-0.6685314774513245
1761307338328160300,5.54216015625,-0.4753771722316742,0.07114554941654205,-0.6860337257385254
1761307338338088000,5.552087890625,-0.4783836305141449,0.2427798956632614,-0.692705512046814
1761307338348016000,5.56201611328125,-0.38586753606796265,0.35847026109695435,-0.67110675573349
1761307338357944000,5.571944091796875,-0.21290534734725952,0.40239325165748596,-0.5837103128433228
1761307338367872000,5.5818720703125,0.0046940878964960575,0.4019958972930908,-0.435867577791214
1761307338377799000,5.591798828125,0.22070521116256714,0.3667958378791809,-0.24140489101409912
1761307338387727000,5.60172705078125,0.38769394159317017,0.3528968095779419,-0.03516091778874397
1761307338397655000,5.611655029296875,0.4555342197418213,0.3900092840194702,0.14189109206199646
1761307338407583000,5.6215830078125,0.40352749824523926,0.4858021140098572,0.28220880031585693
1761307338417511000,5.631510986328125,0.2585335373878479,0.6039606928825378,0.3856462240219116
1761307338427438000,5.64143798828125,0.07385797798633575,0.7168537378311157,0.45396724343299866
1761307338437366000,5.651365966796875,-0.1262838989496231,0.760176956653595,0.4865424931049347
1761307338447294000,5.6612939453125,-0.3132609724998474,0.7036615014076233,0.475238174200058
1761307338457222000,5.671221923828125,-0.4754437506198883,0.551419198513031,0.45212990045547485
1761307338467149000,5.681149169921875,-0.6218560934066772,0.3339308500289917,0.4298033118247986
1761307338477077000,5.691076904296875,-0.7375448942184448,0.15309900045394897,0.4356340169906616
1761307338487005000,5.7010048828125,-0.7507006525993347,0.12746767699718475,0.49684837460517883
1761307338496932900,5.710932861328125,-0.5901389122009277,0.31704479455947876,0.6106212735176086
1761307338506861000,5.720861083984375,-0.32392561435699463,0.6908183693885803,0.7746685743331909
1761307338516788000,5.7307880859375,-0.12846769392490387,1.1377698183059692,0.9210606217384338
1761307338526716000,5.7407158203125,-0.12258850038051605,1.4242377281188965,0.9624285697937012
1761307338536644000,5.75064404296875,-0.324573278427124,1.4825594425201416,0.8367828130722046
1761307338546572000,5.760572021484375,-0.6838464736938477,1.4461572170257568,0.5523968935012817
1761307338556500200,5.770500244140625,-1.1269989013671875,1.390859842300415,0.17832207679748535
1761307338566427000,5.780427001953125,-1.5007256269454956,1.365172028541565,-0.21193702518939972
1761307338576355000,5.79035498046875,-1.5639046430587769,1.3722493648529053,-0.44209352135658264
1761307338586283000,5.800282958984375,-1.3062059879302979,1.2031344175338745,-0.4761044979095459
1761307338596211200,5.810211181640625,-0.7876093983650208,0.8697071671485901,-0.31663069128990173
1761307338606139100,5.82013916015625,-0.15375813841819763,0.39937615394592285,-0.031743280589580536
1761307338616066000,5.830066162109375,0.486039936542511,-0.2816822826862335,0.21472801268100739
1761307338625994000,5.839993896484375,0.8945017457008362,-0.8834443092346191,0.272831529378891
1761307338635922200,5.849922119140625,0.9358089566230774,-1.0865508317947388,0.13431839644908905
1761307338645850000,5.85985009765625,0.6362947225570679,-0.6714436411857605,-0.1393938511610031
1761307338655777000,5.869777099609375,0.0666317567229271,0.08609680086374283,-0.5035821795463562
1761307338665705000,5.879705078125,-0.7045096755027771,0.5665355920791626,-0.892052412033081
1761307338675633200,5.889633056640625,-1.460500955581665,0.4354843497276306,-1.1889946460723877
1761307338685561000,5.89956103515625,-1.9025495052337646,-0.25614815950393677,-1.4292192459106445
1761307338695489300,5.9094892578125,-1.9986746311187744,-1.308681845664978,-1.7127529382705688
1761307338705416000,5.919416015625,-1.802406668663025,-2.2677204608917236,-1.9171385765075684
1761307338715344100,5.92934423828125,-1.3663973808288574,-2.590994119644165,-1.892317295074463
1761307338725272000,5.93927197265625,-0.7601016163825989,-2.234490394592285,-1.6789406538009644
1761307338735200300,5.9492001953125,-0.07271095365285873,-1.344527244567871,-1.4047328233718872
1761307338745128200,5.959128173828125,0.52839595079422,-0.30206719040870667,-1.1942213773727417
1761307338755055000,5.96905517578125,0.8419826030731201,0.6969018578529358,-1.1603267192840576
1761307338764983300,5.9789833984375,0.8288268446922302,1.5487797260284424,-1.2629148960113525
1761307338774911200,5.9889111328125,0.5836445093154907,2.0750136375427246,-1.4726399183273315
1761307338784839200,5.998839111328125,0.23303671181201935,2.1365060806274414,-1.7015691995620728
1761307338794767000,6.00876708984375,-0.15839417278766632,1.6189931631088257,-1.816218376159668
1761307338804694300,6.0186943359375,-0.49553170800209045,0.5642513632774353,-1.6713194847106934
1761307338814622200,6.028622314453125,-0.7124810814857483,-0.764141857624054,-1.2495828866958618
1761307338824550100,6.038550048828125,-0.8130084872245789,-2.081165075302124,-0.5976276993751526
1761307338834478000,6.04847802734375,-0.8107783198356628,-3.02531099319458,0.19258622825145721
1761307338844406000,6.058406005859375,-0.7040811777114868,-3.3423643112182617,0.9938904047012329
1761307338854333200,6.068333251953125,-0.49873098731040955,-3.06642484664917,1.6640050411224365
1761307338864261000,6.07826123046875,-0.2012162059545517,-2.4338326454162598,2.0901596546173096
1761307338874189000,6.08818896484375,0.1300876885652542,-1.703407883644104,2.1839706897735596
1761307338884117200,6.0981171875,0.42046013474464417,-1.0021214485168457,1.9650390148162842
1761307338894045200,6.108045166015625,0.6289891004562378,-0.3404558598995209,1.5014278888702393
1761307338903972000,6.11797216796875,0.7150230407714844,0.1890045404434204,0.8915128707885742
1761307338913900000,6.127900146484375,0.6731392741203308,0.5586092472076416,0.24532879889011383
1761307338923828200,6.137828125,0.5371170043945312,0.8163105249404907,-0.25960788130760193
1761307338933756200,6.147756103515625,0.33957675099372864,0.9495141506195068,-0.5336759090423584
1761307338943684000,6.15768408203125,0.1276399791240692,0.9391789436340332,-0.5918793082237244
1761307338953611000,6.167611083984375,-0.05451064556837082,0.8285674452781677,-0.4908203184604645
1761307338963539200,6.177539306640625,-0.18655763566493988,0.6910578012466431,-0.2663741707801819
1761307338973467100,6.187467041015625,-0.2775391936302185,0.5596129894256592,0.023072030395269394
1761307338983395000,6.19739501953125,-0.3224600553512573,0.4088359773159027,0.30907928943634033
1761307338993323000,6.207322998046875,-0.3240598440170288,0.22914397716522217,0.5379881262779236
1761307339003250200,6.217250244140625,-0.277686208486557,0.05257905647158623,0.686130702495575
1761307339013178000,6.22717822265625,-0.19060350954532623,-0.07654564082622528,0.7589406967163086
1761307339023106000,6.23710595703125,-0.08327411860227585,-0.13983459770679474,0.7626947164535522
1761307339033034000,6.247033935546875,0.02424621768295765,-0.13258840143680573,0.709218442440033
1761307339042962200,6.256962158203125,0.11896393448114395,-0.066396065056324,0.6270625591278076
1761307339052889000,6.26688916015625,0.18296343088150024,0.04782131686806679,0.5240078568458557
1761307339062817000,6.276817138671875,0.211488276720047,0.19215506315231323,0.41419824957847595
1761307339072745000,6.286744873046875,0.2179698795080185,0.32219961285591125,0.29277274012565613
1761307339082673200,6.296673095703125,0.20017170906066895,0.3963654637336731,0.16949023306369781
1761307339092601000,6.30660107421875,0.1743941754102707,0.42865628004074097,0.06535423547029495
1761307339102528000,6.316528076171875,0.14443227648735046,0.42088809609413147,0.007266168482601643
1761307339112456200,6.326456298828125,0.12456855922937393,0.3349151313304901,-0.00643899105489254
1761307339122384100,6.336384033203125,0.12074559181928635,0.1921643763780594,0.02076147124171257
1761307339132312000,6.34631201171875,0.12941071391105652,0.0576329343020916,0.10832381248474121
1761307339142240000,6.356239990234375,0.1254069209098816,-0.05576952174305916,0.23506763577461243
1761307339152167200,6.366167236328125,0.1219237744808197,-0.15316185355186462,0.3648216426372528
1761307339162095000,6.37609521484375,0.1263403594493866,-0.2382756769657135,0.4516145884990692
1761307339172023000,6.38602294921875,0.15157008171081543,-0.2833139896392822,0.48982322216033936
1761307339181951000,6.395950927734375,0.19754396378993988,-0.286950021982193,0.46737465262413025
1761307339191879000,6.40587890625,0.25008708238601685,-0.2628374993801117,0.38746729493141174
1761307339201806000,6.41580615234375,0.30350103974342346,-0.2259758710861206,0.27189597487449646
1761307339211734000,6.425734130859375,0.35460415482521057,-0.17178986966609955,0.14546851813793182
1761307339221662000,6.435661865234375,0.3992190361022949,-0.11658919602632523,0.038660310208797455
1761307339231590100,6.445590087890625,0.42683175206184387,-0.08748137950897217,-0.03825417906045914
1761307339241518000,6.45551806640625,0.42902353405952454,-0.08263708651065826,-0.07301056385040283
1761307339251446000,6.465446044921875,0.41202884912490845,-0.09785146266222,-0.06695906072854996
1761307339261373000,6.475373046875,0.3846302330493927,-0.12024225294589996,-0.025012142956256866
1761307339271301000,6.485301025390625,0.34174400568008423,-0.13550004363059998,0.034323353320360184
1761307339281229000,6.49522900390625,0.2788657248020172,-0.14075657725334167,0.10488779842853546
1761307339291157000,6.505156982421875,0.22014860808849335,-0.15219007432460785,0.15991270542144775
1761307339301085000,6.5150849609375,0.19592849910259247,-0.18517224490642548,0.18996833264827728
1761307339311012000,6.52501220703125,0.20413236320018768,-0.21425290405750275,0.19515244662761688
1761307339320940000,6.53493994140625,0.24006159603595734,-0.22748029232025146,0.19147862493991852
1761307339330868000,6.544867919921875,0.29552459716796875,-0.21488353610038757,0.18256022036075592
1761307339340795400,6.55479541015625,0.3421437740325928,-0.1681155115365982,0.18821091949939728
1761307339350723300,6.564723388671875,0.3669354021549225,-0.09660883247852325,0.20330145955085754
1761307339360650200,6.574650146484375,0.36320748925209045,-0.020917799323797226,0.22181548178195953
1761307339370578200,6.584578125,0.3373985290527344,0.049737729132175446,0.23732680082321167
1761307339380506400,6.59450634765625,0.30243203043937683,0.09363967180252075,0.23112057149410248
1761307339390434300,6.604434326171875,0.24893684685230255,0.102773517370224,0.2176673412322998
1761307339400362200,6.6143623046875,0.18845432996749878,0.08168767392635345,0.1837565153837204
1761307339410289400,6.624289306640625,0.1227102056145668,0.03554441034793854,0.14360164105892181
1761307339420217300,6.63421728515625,0.07527530938386917,-0.03274010494351387,0.09587326645851135
1761307339430145300,6.644145263671875,0.068356953561306,-0.09584769606590271,0.07185234874486923
1761307339440073200,6.6540732421875,0.0876438319683075,-0.12729111313819885,0.06040182337164879
1761307339450001400,6.66400146484375,0.11959004402160645,-0.14101864397525787,0.05085412412881851
1761307339459928300,6.67392822265625,0.14983557164669037,-0.1560244858264923,0.025052888318896294
1761307339469856300,6.683856201171875,0.17482826113700867,-0.17386792600154877,-0.016352608799934387
1761307339479784400,6.693784423828125,0.19286079704761505,-0.17189639806747437,-0.06639286875724792
1761307339489712400,6.70371240234375,0.20528072118759155,-0.15572834014892578,-0.11359979957342148
1761307339499640600,6.713640625,0.20661921799182892,-0.1567017287015915,-0.18686309456825256
1761307339509567200,6.723567138671875,0.19295160472393036,-0.19525764882564545,-0.2944318950176239
1761307339519495400,6.733495361328125,0.17168067395687103,-0.2765018939971924,-0.4306456744670868
1761307339529423400,6.74342333984375,0.14032888412475586,-0.3464761972427368,-0.5563175678253174
1761307339539351600,6.7533515625,0.09963817894458771,-0.3565453290939331,-0.6279784440994263
1761307339549279500,6.763279541015625,0.06181143596768379,-0.3189697265625,-0.6432362198829651
1761307339559207400,6.77320751953125,0.03772420808672905,-0.2623019218444824,-0.61371910572052
1761307339569134600,6.783134521484375,0.02539324015378952,-0.1709408462047577,-0.530561089515686
1761307339579062500,6.7930625,0.03611805662512779,-0.07246062159538269,-0.3811771869659424
1761307339588990500,6.802990478515625,0.07039613276720047,0.014696920290589333,-0.18460074067115784
1761307339598918400,6.81291845703125,0.12405430525541306,0.08265653252601624,0.01264175958931446
1761307339608846300,6.822846435546875,0.16325443983078003,0.0969473198056221,0.1457952857017517
1761307339618773500,6.8327734375,0.17739182710647583,0.04705645889043808,0.195331409573555
1761307339628701400,6.842701416015625,0.16668298840522766,-0.055441953241825104,0.20225563645362854
1761307339638629400,6.85262939453125,0.12409451603889465,-0.16460493206977844,0.20445193350315094
1761307339648557300,6.862557373046875,0.06368549913167953,-0.22519822418689728,0.231510728597641
1761307339658485500,6.872485595703125,-0.0017646105261519551,-0.19860602915287018,0.29569903016090393
1761307339668412400,6.882412353515625,-0.06124578043818474,-0.09770525246858597,0.3851034641265869
1761307339678340400,6.89234033203125,-0.10135671496391296,0.011182347312569618,0.4804624915122986
1761307339688268500,6.9022685546875,-0.1314118206501007,0.05180647224187851,0.5512335896492004
1761307339698196500,6.912196533203125,-0.1452924758195877,0.02148478478193283,0.5878781676292419
1761307339708124400,6.92212451171875,-0.1472935825586319,-0.09180714935064316,0.576221764087677
1761307339718052400,6.93205224609375,-0.13684573769569397,-0.28910183906555176,0.5149543881416321
1761307339727979500,6.9419794921875,-0.11741451174020767,-0.5079470872879028,0.43038254976272583
1761307339737907500,6.951907470703125,-0.11875887215137482,-0.6481817364692688,0.37529876828193665
1761307339747835400,6.96183544921875,-0.18391603231430054,-0.6468221545219421,0.3604191839694977
1761307339757763300,6.971763427734375,-0.3082185387611389,-0.4505738317966461,0.4153612554073334
1761307339767691300,6.981691162109375,-0.47781795263290405,-0.06034643203020096,0.5431455969810486
1761307339777618400,6.991618408203125,-0.6574300527572632,0.4450424313545227,0.688225269317627
1761307339787546400,7.00154638671875,-0.7780622243881226,0.8956796526908875,0.7623250484466553
1761307339797474300,7.011474365234375,-0.8001003861427307,1.1065924167633057,0.7105662822723389
1761307339807402500,7.021402587890625,-0.7378122806549072,1.070783257484436,0.5322471261024475
1761307339817330400,7.031330322265625,-0.6078596115112305,0.8745160698890686,0.24796612560749054
1761307339827257300,7.04125732421875,-0.4659631848335266,0.679776132106781,-0.08443312346935272
1761307339837185300,7.051185302734375,-0.37270647287368774,0.6237668991088867,-0.36811012029647827
1761307339847113500,7.061113525390625,-0.3643665015697479,0.7249633073806763,-0.5322703123092651
1761307339857041400,7.07104150390625,-0.43133994936943054,0.9501069188117981,-0.5354974865913391
1761307339866969300,7.08096923828125,-0.5331810712814331,1.1597884893417358,-0.4092106819152832
1761307339876897300,7.090897216796875,-0.6622346639633179,1.2329127788543701,-0.2527278661727905
1761307339886824400,7.100824462890625,-0.7924816608428955,1.167624831199646,-0.17371639609336853
1761307339896752400,7.11075244140625,-0.8599070310592651,0.9589350819587708,-0.21915365755558014
1761307339906680300,7.120680419921875,-0.866875946521759,0.6361053586006165,-0.3821257948875427
1761307339916608300,7.130608154296875,-0.8011651635169983,0.28660833835601807,-0.6290527582168579
1761307339926536400,7.140536376953125,-0.6935939192771912,-0.057730939239263535,-0.9125992655754089
1761307339936463400,7.15046337890625,-0.5701223015785217,-0.36412763595581055,-1.1835026741027832
1761307339946391300,7.160391357421875,-0.43330907821655273,-0.5823600888252258,-1.416491150856018
1761307339956319200,7.1703193359375,-0.3017561137676239,-0.6911419630050659,-1.5987621545791626
1761307339966247400,7.180247314453125,-0.1823066920042038,-0.6883648037910461,-1.6807917356491089
1761307339976175400,7.19017529296875,-0.06964033097028732,-0.5950497984886169,-1.6178340911865234
1761307339986103300,7.200103271484375,0.08829604089260101,-0.41123467683792114,-1.378988265991211
1761307339996030200,7.2100302734375,0.29711049795150757,-0.12934041023254395,-0.9774459004402161
1761307340005958400,7.21995849609375,0.5133607983589172,0.11294519156217575,-0.544232964515686
1761307340015886300,7.22988623046875,0.704584002494812,0.24525050818920135,-0.153785839676857
1761307340025814300,7.239814208984375,0.8425405621528625,0.2862296402454376,0.14960360527038574
1761307340035742200,7.2497421875,0.892498791217804,0.23216159641742706,0.3408223092556
1761307340045669400,7.25966943359375,0.8552441000938416,0.061155498027801514,0.4403579533100128
1761307340055597300,7.269597412109375,0.7883923649787903,-0.15231522917747498,0.45557498931884766
1761307340065525200,7.279525146484375,0.7224990725517273,-0.34212830662727356,0.40450114011764526
1761307340075453200,7.289453125,0.6500653624534607,-0.40721970796585083,0.30822867155075073
1761307340085381400,7.29938134765625,0.5767778158187866,-0.33535268902778625,0.18684685230255127
1761307340095309300,7.309309326171875,0.503600537776947,-0.18279138207435608,0.06519178301095963
1761307340105236200,7.319236328125,0.4437697231769562,0.06976150721311569,-0.03683790937066078
1761307340115164200,7.3291640625,0.37605246901512146,0.35756558179855347,-0.15080656111240387
1761307340125092400,7.33909228515625,0.29797977209091187,0.48105743527412415,-0.25976285338401794
1761307340135020300,7.349020263671875,0.2406299114227295,0.3981412351131439,-0.3014301657676697
1761307340144948500,7.358948486328125,0.2475549429655075,0.23088887333869934,-0.22311031818389893
1761307340154875400,7.36887548828125,0.27840977907180786,0.07918643206357956,-0.037878938019275665
1761307340164803300,7.37880322265625,0.27087756991386414,-0.036306608468294144,0.2148369401693344
1761307340174731300,7.388731201171875,0.2104288786649704,-0.1144874319434166,0.479573518037796
1761307340184659500,7.398659423828125,0.10216072201728821,-0.13971848785877228,0.7151088118553162
1761307340194587400,7.40858740234375,-0.01997264288365841,-0.20690417289733887,0.8788428902626038
1761307340204515600,7.418515625,-0.14066630601882935,-0.35737624764442444,0.9387264847755432
1761307340214442200,7.428442138671875,-0.24813470244407654,-0.5287426710128784,0.8749946355819702
1761307340224370400,7.438370361328125,-0.34724104404449463,-0.7526780366897583,0.6552683711051941
1761307340234298400,7.44829833984375,-0.46398311853408813,-1.1129885911941528,0.3186597526073456
1761307340244226600,7.4582265625,-0.5837877988815308,-1.3522895574569702,0.017654094845056534
1761307340254154500,7.468154541015625,-0.6496145129203796,-1.1179633140563965,-0.1357751488685608
1761307340264081400,7.478081298828125,-0.6179721355438232,-0.49278226494789124,-0.20081885159015656
1761307340274009300,7.48800927734375,-0.5398845076560974,0.1322464495897293,-0.24363157153129578
1761307340283937500,7.4979375,-0.45477843284606934,0.40084540843963623,-0.329618901014328
1761307340293865500,7.507865478515625,-0.34381887316703796,0.4109763503074646,-0.3936050832271576
1761307340303793400,7.51779345703125,-0.22309885919094086,0.307839035987854,-0.37902000546455383
1761307340313720600,7.527720458984375,-0.14140452444553375,0.17622509598731995,-0.27702760696411133
1761307340323648500,7.5376484375,-0.1104908213019371,0.03868720680475235,-0.10345049202442169
1761307340333576400,7.547576416015625,-0.12874066829681396,-0.07556506246328354,0.10929852724075317
1761307340343504100,7.557504150390625,-0.16832377016544342,-0.18225449323654175,0.33223041892051697
1761307340353432000,7.56743212890625,-0.22689786553382874,-0.3025191128253937,0.5406309962272644
1761307340363360300,7.5773603515625,-0.2509206533432007,-0.2797163426876068,0.683738112449646
1761307340373287000,7.587286865234375,-0.22737829387187958,-0.07749425619840622,0.7346969246864319
1761307340383215000,7.597215087890625,-0.19127674400806427,0.19224347174167633,0.6783689260482788
1761307340393143300,7.607143310546875,-0.13761991262435913,0.2923668920993805,0.5413002967834473
1761307340403071200,7.6170712890625,-0.0733780786395073,0.2843736708164215,0.38215723633766174
1761307340412999200,7.626999267578125,-0.021264808252453804,0.2745159864425659,0.2479240447282791
1761307340422926000,7.636926025390625,0.005378253757953644,0.23698511719703674,0.1731262356042862
1761307340432854300,7.646854248046875,0.03821929171681404,0.15787005424499512,0.1668960452079773
1761307340442782200,7.6567822265625,0.07937471568584442,-0.0029579729307442904,0.1997101753950119
1761307340452710100,7.666710205078125,0.11241495609283447,-0.13514797389507294,0.25846296548843384
1761307340462638000,7.67663818359375,0.10893021523952484,-0.19022613763809204,0.3177185654640198
1761307340472566000,7.68656591796875,0.05763187259435654,-0.19873866438865662,0.34965628385543823
1761307340482493200,7.6964931640625,-0.019894346594810486,-0.2232876867055893,0.33741557598114014
1761307340492421000,7.706421142578125,-0.09578485041856766,-0.2792856991291046,0.3050405979156494
1761307340502349000,7.71634912109375,-0.14897270500659943,-0.3286178410053253,0.3032131493091583
1761307340512277200,7.72627734375,-0.13311678171157837,-0.3244052529335022,0.33723822236061096
1761307340522205200,7.736205078125,-0.0717034786939621,-0.34390944242477417,0.388714998960495
1761307340532132000,7.746132080078125,0.005656288005411625,-0.36881425976753235,0.4283284544944763
1761307340542060000,7.75606005859375,0.06650073081254959,-0.36248844861984253,0.45356908440589905
1761307340551988200,7.76598828125,0.0942588597536087,-0.25944408774375916,0.4744219183921814
1761307340561916200,7.775916259765625,0.10143421590328217,-0.09276961535215378,0.46975311636924744
1761307340571844000,7.785843994140625,0.08495936542749405,0.0582856759428978,0.43944260478019714
1761307340581772000,7.79577197265625,0.054363105446100235,0.18988950550556183,0.3767600655555725
1761307340591699200,7.80569921875,0.03237152099609375,0.2965776026248932,0.2824639081954956
1761307340601627100,7.815627197265625,0.030590666458010674,0.3508560359477997,0.17747491598129272
1761307340611555000,7.82555517578125,0.03297499567270279,0.29233598709106445,0.07853875309228897
1761307340621483000,7.83548291015625,0.031269773840904236,0.1351058930158615,0.017582722008228302
1761307340631411200,7.8454111328125,0.04760400578379631,-0.06162874400615692,0.01122442539781332
1761307340641338000,7.855338134765625,0.08985638618469238,-0.2437088042497635,0.045213017612695694
1761307340651266000,7.86526611328125,0.16379159688949585,-0.3476139008998871,0.11265890300273895
1761307340661194000,7.875194091796875,0.2660183608531952,-0.33523792028427124,0.1866641491651535
1761307340671122200,7.8851220703125,0.3885408043861389,-0.21999521553516388,0.22140935063362122
1761307340681050000,7.895050048828125,0.5150883793830872,-0.06006626784801483,0.18915048241615295
1761307340690978000,7.90497802734375,0.618288516998291,0.06873086094856262,0.08615006506443024
1761307340700905000,7.914905029296875,0.6650751829147339,0.08256065845489502,-0.073222815990448
1761307340710833200,7.924833251953125,0.6766170859336853,0.048654619604349136,-0.2354029268026352
1761307340720761000,7.934760986328125,0.6643244624137878,0.0428025908768177,-0.3669694662094116
1761307340730689000,7.94468896484375,0.6146160364151001,0.041186850517988205,-0.4725283980369568
1761307340740617000,7.954616943359375,0.522487461566925,0.011078483425080776,-0.5694325566291809
1761307340750544100,7.964544189453125,0.41300034523010254,-0.06365381181240082,-0.6539576053619385
1761307340760472000,7.97447216796875,0.2960748076438904,-0.16265761852264404,-0.7136771082878113
1761307340770400000,7.98439990234375,0.19478173553943634,-0.2701885998249054,-0.7094528079032898
1761307340780328000,7.994327880859375,0.13520842790603638,-0.38579457998275757,-0.6151105761528015
1761307340790256000,8.004256103515624,0.12721441686153412,-0.5093993544578552,-0.44024449586868286
1761307340800183000,8.01418310546875,0.1692473441362381,-0.6563190221786499,-0.23334483802318573
1761307340810111000,8.024111083984375,0.23466123640537262,-0.7715222835540771,-0.04822052642703056
1761307340820039000,8.034038818359376,0.3030581474304199,-0.8673627972602844,0.07621168345212936
1761307340829967000,8.043967041015625,0.3485579788684845,-0.92716383934021,0.11389807611703873
1761307340839895000,8.05389501953125,0.34292274713516235,-0.9109731316566467,0.0874243900179863
1761307340849823000,8.063822998046875,0.28845974802970886,-0.7891220450401306,0.05438228324055672
1761307340859750100,8.073750244140625,0.20180661976337433,-0.5631813406944275,0.023370303213596344
1761307340869678000,8.083677978515626,0.11965343356132507,-0.2439972162246704,-0.005709018558263779
1761307340879606000,8.09360595703125,0.039556197822093964,0.15495336055755615,-0.04743622615933418
1761307340889534000,8.103533935546874,-0.0390121154487133,0.5960902571678162,-0.12406282871961594
1761307340899462000,8.1134619140625,-0.1016712337732315,1.1090315580368042,-0.219612255692482
1761307340909389000,8.12338916015625,-0.13394448161125183,1.6297171115875244,-0.31615957617759705
1761307340919317000,8.13331689453125,-0.1794712245464325,1.9327102899551392,-0.40334558486938477
1761307340929245000,8.143244873046875,-0.2510681748390198,1.9026027917861938,-0.4465591013431549
1761307340939172900,8.1531728515625,-0.3875706195831299,1.6451621055603027,-0.4394141137599945
1761307340949101000,8.16310107421875,-0.5889306664466858,1.3797105550765991,-0.32069411873817444
1761307340959029200,8.173029296875,-0.8073921203613281,1.2834713459014893,-0.08150577545166016
1761307340968956000,8.182955810546876,-0.9338275790214539,1.3381835222244263,0.18294239044189453
1761307340978884000,8.192884033203125,-0.8637028336524963,1.5228838920593262,0.39449459314346313
1761307340988812000,8.20281201171875,-0.6155824661254883,1.9238430261611938,0.605508029460907
1761307340998740200,8.212740234375,-0.3474908471107483,2.381906747817993,0.7736682891845703
1761307341008668200,8.222668212890625,-0.15719841420650482,2.703864336013794,0.7206612229347229
1761307341018595000,8.232594970703126,-0.05609176307916641,2.5988423824310303,0.4833408296108246
1761307341028523000,8.24252294921875,-0.07567957788705826,1.9703450202941895,0.11639292538166046
1761307341038451200,8.252451171875,-0.19465497136116028,1.0847417116165161,-0.23854438960552216
1761307341048379100,8.262379150390625,-0.39914339780807495,0.2313581258058548,-0.4684220552444458
1761307341058307000,8.27230712890625,-0.6670201420783997,-0.6113704442977905,-0.5983278751373291
1761307341068234000,8.28223388671875,-0.9621050357818604,-1.4060262441635132,-0.701226532459259
1761307341078162200,8.292162109375,-1.2204824686050415,-1.9432390928268433,-0.8194893002510071
1761307341088090000,8.302090087890624,-1.2981147766113281,-2.0507335662841797,-0.9111342430114746
1761307341098018000,8.31201806640625,-1.0066146850585938,-1.7457252740859985,-0.9565325975418091
1761307341107946200,8.3219462890625,-0.42898890376091003,-1.207276463508606,-0.9925311207771301
1761307341117874200,8.331874267578126,0.15766872465610504,-0.5135259032249451,-1.0288970470428467
1761307341127801000,8.341801025390625,0.5978711247444153,0.23591932654380798,-1.0713191032409668
1761307341137729300,8.351729248046874,0.8079127669334412,0.7660007476806641,-1.1722757816314697
1761307341147657200,8.3616572265625,0.7069401144981384,0.6501463055610657,-1.4511562585830688
1761307341157585200,8.371585205078125,0.39492255449295044,-0.20046599209308624,-1.8855265378952026
1761307341167513000,8.38151318359375,0.0617898628115654,-1.231791377067566,-2.229681968688965
1761307341177440300,8.391440185546875,-0.2338590919971466,-1.833662509918213,-2.2974677085876465
1761307341187368200,8.4013681640625,-0.432720810174942,-1.887589693069458,-2.023347854614258
1761307341197296000,8.411296142578125,-0.4724482297897339,-1.6022450923919678,-1.4146748781204224
1761307341207224000,8.42122412109375,-0.3545583486557007,-1.019363284111023,-0.5716467499732971
1761307341217152000,8.431152099609376,-0.11478357017040253,-0.3875613212585449,0.29574644565582275
1761307341227080200,8.441080078125,0.23783360421657562,0.2399425506591797,1.0315754413604736
1761307341237007000,8.451007080078124,0.5605570673942566,0.8062472343444824,1.5512726306915283
1761307341246935000,8.46093505859375,0.7550426721572876,1.0622262954711914,1.755784034729004
1761307341256863200,8.47086328125,0.7529094815254211,0.9315716028213501,1.6430861949920654
1761307341266791200,8.480791259765626,0.5443205833435059,0.75015789270401,1.339532494544983
1761307341276719000,8.490718994140625,0.27756449580192566,0.43273305892944336,1.0751343965530396
1761307341286646000,8.50064599609375,0.06773030757904053,-0.05837515741586685,0.8096121549606323
1761307341296574200,8.51057421875,-0.02485821209847927,-0.3823375105857849,0.5801935791969299
1761307341306502100,8.520502197265625,0.001520665013231337,-0.4804086983203888,0.4422130882740021
1761307341316430000,8.53043017578125,0.04897233471274376,-0.48098206520080566,0.36595454812049866
1761307341326358000,8.54035791015625,0.0771041065454483,-0.3786469101905823,0.3499188721179962
1761307341336285200,8.55028515625,0.08769922703504562,-0.1896761953830719,0.37889644503593445
1761307341346213600,8.560213623046875,0.08571996539831161,-0.011891546659171581,0.4534173011779785
1761307341356141600,8.5701416015625,0.06475768983364105,-0.007213970646262169,0.5369446873664856
1761307341366069500,8.580069580078124,0.013705425895750523,-0.18599703907966614,0.6177769303321838
1761307341375997400,8.58999755859375,-0.07332241535186768,-0.47055312991142273,0.6577259302139282
1761307341385924600,8.599924560546874,-0.18521539866924286,-0.8016991019248962,0.6350270509719849
1761307341395852500,8.6098525390625,-0.30287331342697144,-1.0833581686019897,0.5785754919052124
1761307341405780500,8.619780517578125,-0.41735222935676575,-1.2609807252883911,0.49865561723709106
1761307341415708400,8.62970849609375,-0.5068445801734924,-1.3249233961105347,0.4173399806022644
1761307341425636600,8.63963671875,-0.5536887645721436,-1.2887356281280518,0.3636024594306946
1761307341435564500,8.649564453125,-0.5493363738059998,-1.1560885906219482,0.34815797209739685
1761307341445491500,8.659491455078125,-0.5083343386650085,-0.952046811580658,0.37285053730010986
1761307341455419600,8.669419677734375,-0.4270104467868805,-0.662661612033844,0.4324515461921692
1761307341465347600,8.67934765625,-0.30339741706848145,-0.34070244431495667,0.5038034915924072
1761307341475275500,8.689275634765625,-0.16460439562797546,-0.05516551807522774,0.5396240949630737
1761307341485203500,8.699203369140625,-0.041603103280067444,0.125621035695076,0.5235694646835327
1761307341495130600,8.709130615234375,0.06061461195349693,0.2109212875366211,0.46535569429397583
1761307341505058600,8.71905859375,0.12307239323854446,0.2101345956325531,0.3798554539680481
1761307341514986500,8.728986572265624,0.12991859018802643,0.10741141438484192,0.29412350058555603
1761307341524914400,8.73891455078125,0.09641095995903015,-0.011403655633330345,0.22660411894321442
1761307341534842400,8.74884228515625,0.0566243976354599,-0.061528872698545456,0.19205546379089355
1761307341544769500,8.75876953125,0.021986525505781174,-0.07657040655612946,0.17926935851573944
1761307341554697500,8.768697509765625,0.009169263765215874,-0.07998032122850418,0.17314967513084412
1761307341564625400,8.77862548828125,0.01642264984548092,-0.08322697877883911,0.17864485085010529
1761307341574553600,8.7885537109375,0.02474129945039749,-0.04833477735519409,0.20380187034606934
1761307341584481500,8.7984814453125,0.047562990337610245,0.014166419394314289,0.24201849102973938
1761307341594408400,8.808408447265625,0.07966979593038559,0.09164416790008545,0.26124224066734314
1761307341604336400,8.81833642578125,0.1255696415901184,0.16260702908039093,0.2568128705024719
1761307341614264600,8.8282646484375,0.1598530411720276,0.20738594233989716,0.22496306896209717
1761307341624192500,8.838192626953125,0.1771521419286728,0.21630859375,0.1766461431980133
1761307341634120400,8.848120361328125,0.1789284646511078,0.15910470485687256,0.11670318245887756
1761307341644047600,8.858047607421875,0.16362647712230682,0.039208654314279556,0.0597970224916935
1761307341653975600,8.8679755859375,0.13064749538898468,-0.09962033480405807,0.03760383278131485
1761307341663903500,8.877903564453124,0.10464039444923401,-0.20268332958221436,0.05235934630036354
1761307341673831400,8.88783154296875,0.08931603282690048,-0.24445287883281708,0.08930111676454544
1761307341683759600,8.897759521484375,0.08694102615118027,-0.24721218645572662,0.13006798923015594
1761307341693686500,8.9076865234375,0.0769810676574707,-0.2001408189535141,0.17488792538642883
1761307341703614500,8.917614501953125,0.07333546876907349,-0.11629997938871384,0.19697564840316772
1761307341713542400,8.92754248046875,0.08551889657974243,-0.0634215846657753,0.1684771627187729
1761307341723470600,8.937470703125,0.10639168322086334,-0.0691300705075264,0.10524679720401764
1761307341733398800,8.947398681640625,0.12319916486740112,-0.08564459532499313,0.04881307855248451
1761307341743325400,8.957325439453125,0.11828456819057465,-0.10922369360923767,0.01516111008822918
1761307341753253400,8.96725341796875,0.09929542988538742,-0.11227354407310486,-0.0024202808272093534
1761307341763181600,8.977181640625,0.09609750658273697,-0.06406579911708832,-0.021149227395653725
1761307341773109800,8.98710986328125,0.11751757562160492,0.017170464619994164,-0.02063390612602234
1761307341783037700,8.99703759765625,0.1633010357618332,0.0845646858215332,-0.003337473375722766
1761307341792964600,9.006964599609375,0.21223609149456024,0.1470983773469925,0.01617817021906376
1761307341802892800,9.016892822265625,0.2443583458662033,0.215128555893898,0.0463230237364769
1761307341812820700,9.02682080078125,0.2774595618247986,0.2993105351924896,0.06361252814531326
1761307341822748700,9.036748779296875,0.31206014752388,0.31251344084739685,0.052086371928453445
1761307341832676600,9.046676513671875,0.346350759267807,0.30876848101615906,0.017612282186746597
1761307341842604500,9.0566044921875,0.3920620381832123,0.26680293679237366,0.002840527566149831
1761307341852531700,9.06653173828125,0.45597073435783386,0.15541568398475647,0.01943175494670868
1761307341862459600,9.076459716796874,0.5079396367073059,0.02533438429236412,0.07975848019123077
1761307341872387600,9.0863876953125,0.5104853510856628,-0.07642792910337448,0.186324343085289
1761307341882315500,9.0963154296875,0.45989009737968445,-0.12739551067352295,0.320727676153183
1761307341892243700,9.10624365234375,0.3782133460044861,-0.15857739746570587,0.433357298374176
1761307341902170600,9.116170654296875,0.28912368416786194,-0.18614883720874786,0.4867004156112671
1761307341912098600,9.1260986328125,0.20717795193195343,-0.20289719104766846,0.4715092182159424
1761307341922026800,9.13602685546875,0.16650696098804474,-0.18548570573329926,0.42691323161125183
1761307341931954700,9.14595458984375,0.19558121263980865,-0.13623347878456116,0.36028149724006653
1761307341941882600,9.155882568359376,0.2778174877166748,-0.09097731113433838,0.29558050632476807
1761307341951809500,9.1658095703125,0.36238086223602295,-0.0842653438448906,0.2259729504585266
1761307341961737700,9.17573779296875,0.3970150053501129,-0.12088194489479065,0.16066370904445648
1761307341971665700,9.185665771484375,0.38003042340278625,-0.12984535098075867,0.12322020530700684
1761307341981593600,9.195593505859375,0.3168434500694275,-0.06629646569490433,0.1274074912071228
1761307341991521500,9.205521484375,0.21331733465194702,0.06866268068552017,0.15255358815193176
1761307342001448700,9.21544873046875,0.09320317953824997,0.35014790296554565,0.2163008749485016
1761307342011376600,9.225376708984374,-0.02419588342308998,0.7617543339729309,0.31804826855659485
1761307342021304600,9.2353046875,-0.1412157118320465,1.1848169565200806,0.40017056465148926
1761307342031232500,9.245232421875,-0.28456035256385803,1.4779231548309326,0.41333749890327454
1761307342041160700,9.25516064453125,-0.468519002199173,1.5512865781784058,0.33940842747688293
1761307342051087600,9.265087646484375,-0.6549283266067505,1.3472859859466553,0.1679738312959671
1761307342061015600,9.275015625,-0.7990889549255371,0.8888071179389954,-0.05405125021934509
1761307342070943500,9.284943603515625,-0.8592883348464966,0.34437334537506104,-0.2447836548089981
1761307342080871700,9.29487158203125,-0.8382992148399353,-0.014722220599651337,-0.28064578771591187
1761307342090799600,9.304799560546876,-0.746349036693573,-0.1401350051164627,-0.14983636140823364
1761307342100726500,9.3147265625,-0.6089214086532593,-0.041128795593976974,0.12552782893180847
1761307342110654700,9.32465478515625,-0.454772025346756,0.4956821799278259,0.5591825842857361
1761307342120582700,9.334582763671875,-0.3723256289958954,1.2622605562210083,0.8518027663230896
1761307342130510600,9.344510498046875,-0.3618732690811157,1.949988603591919,0.852066159248352
1761307342140438500,9.3544384765625,-0.41618362069129944,2.2226204872131348,0.5496397018432617
1761307342150365700,9.36436572265625,-0.5143951773643494,2.007582426071167,0.05908835306763649
1761307342160293600,9.374293701171876,-0.6040328741073608,1.5875135660171509,-0.40943092107772827
1761307342170221600,9.3842216796875,-0.6878620386123657,1.1059266328811646,-0.7805309891700745
1761307342180149500,9.3941494140625,-0.8240310549736023,0.596245288848877,-1.0334583520889282
1761307342190077400,9.404077392578126,-0.9862945079803467,0.1412402093410492,-1.1491252183914185
1761307342200004600,9.414004638671875,-1.1387580633163452,-0.12086783349514008,-1.1334033012390137
1761307342209932500,9.4239326171875,-1.2489900588989258,-0.32797467708587646,-1.0250000953674316
1761307342219860500,9.433860595703125,-1.2111369371414185,-0.5339161157608032,-0.8617799878120422
1761307342229788400,9.443788330078124,-0.9198278784751892,-0.5951430201530457,-0.6702390909194946
1761307342239716600,9.453716552734376,-0.449426531791687,-0.49344831705093384,-0.5032450556755066
1761307342249643500,9.4636435546875,0.09425725787878036,-0.32905805110931396,-0.36971867084503174
1761307342259571500,9.473571533203126,0.5693619847297668,-0.11705418676137924,-0.2965664267539978
1761307342269499600,9.483499755859375,0.8771344423294067,-0.004022971261292696,-0.3218161165714264
1761307342279427600,9.493427490234374,1.0004785060882568,-0.06392119079828262,-0.4445124864578247
1761307342289355500,9.50335546875,0.9362654089927673,-0.22061705589294434,-0.626654326915741
1761307342299282400,9.513282470703125,0.730875551700592,-0.47652581334114075,-0.8207180500030518
1761307342309210600,9.523210693359376,0.4473450183868408,-0.8032538294792175,-0.9803529977798462
1761307342319138600,9.533138671875,0.16244110465049744,-1.063584804534912,-1.0959397554397583
1761307342329066500,9.54306640625,-0.10634641349315643,-1.1016850471496582,-1.1480573415756226
1761307342338993700,9.55299365234375,-0.34765756130218506,-0.9088940024375916,-1.1349716186523438
1761307342348920600,9.562920654296875,-0.5047031044960022,-0.598336935043335,-1.0681602954864502
1761307342358848500,9.5728486328125,-0.5173637866973877,-0.27712321281433105,-0.9634214043617249
1761307342368776400,9.5827763671875,-0.40388888120651245,0.017962755635380745,-0.836530327796936
1761307342378704600,9.59270458984375,-0.22138485312461853,0.2571002244949341,-0.7044183611869812
1761307342388631600,9.602631591796875,-0.018187260255217552,0.4134674668312073,-0.55485600233078
1761307342398559500,9.6125595703125,0.166695237159729,0.4941173195838928,-0.3967233896255493
1761307342408487700,9.62248779296875,0.3330056667327881,0.520554780960083,-0.2344316840171814
1761307342418415600,9.63241552734375,0.4573427736759186,0.5367515683174133,-0.07007522135972977
1761307342428343600,9.642343505859374,0.5284484028816223,0.5139554738998413,0.06981130689382553
1761307342438270500,9.6522705078125,0.5416851043701172,0.4465135633945465,0.1749584972858429
1761307342448198700,9.66219873046875,0.4930637776851654,0.3370225131511688,0.2533624768257141
1761307342458126600,9.672126708984376,0.38169968128204346,0.18724499642848969,0.2987677752971649
1761307342468054500,9.682054443359375,0.23080658912658691,-0.027421237900853157,0.2964465916156769
1761307342477982500,9.691982421875,0.05217958241701126,-0.30436787009239197,0.2677062749862671
1761307342487909600,9.70190966796875,-0.12545032799243927,-0.5628332495689392,0.23818859457969666
1761307342497837600,9.711837646484375,-0.27717193961143494,-0.7640672922134399,0.2395460158586502
1761307342507765500,9.721765625,-0.378633052110672,-0.8965108394622803,0.2655176818370819
1761307342517693400,9.731693359375,-0.41288185119628906,-0.9272937774658203,0.3286244869232178
1761307342527621600,9.74162158203125,-0.36575692892074585,-0.8647379875183105,0.41745448112487793
1761307342537548500,9.751548583984375,-0.24437059462070465,-0.7344100475311279,0.5039800405502319
1761307342547476500,9.7614765625,-0.0660645067691803,-0.5783812999725342,0.5692762732505798
1761307342557404400,9.771404296875,0.1167050451040268,-0.4429585337638855,0.6125579476356506
1761307342567332600,9.78133251953125,0.2437056005001068,-0.3411847651004791,0.6290671229362488
1761307342577260800,9.7912607421875,0.2889913320541382,-0.24056653678417206,0.6255256533622742
1761307342587187500,9.8011875,0.2860671877861023,-0.13540735840797424,0.6077288389205933
1761307342597115400,9.811115478515624,0.24761752784252167,-0.017787253484129906,0.5708839893341064
1761307342607043600,9.821043701171876,0.19207090139389038,0.07529795169830322,0.5230725407600403
1761307342616971800,9.8309716796875,0.1330810934305191,0.11433430016040802,0.476589173078537
1761307342626899700,9.840899658203124,0.0836259201169014,0.08513433486223221,0.4505282938480377
1761307342636826600,9.85082666015625,0.0553056001663208,0.012782108038663864,0.4579039216041565
1761307342646754600,9.860754638671875,0.03911970555782318,-0.09091313183307648,0.49003493785858154
1761307342656682800,9.870682861328126,0.03881717100739479,-0.1738245189189911,0.5482566952705383
1761307342666610700,9.880610595703125,0.04915476217865944,-0.1923539936542511,0.6054449081420898
1761307342676538600,9.89053857421875,0.05895066633820534,-0.19679561257362366,0.6338251233100891
1761307342686465500,9.900465576171875,0.07532138377428055,-0.1994483917951584,0.6280314326286316
1761307342696393700,9.910393798828125,0.08008045703172684,-0.1804209053516388,0.5838759541511536
1761307342706321700,9.92032177734375,0.06633295118808746,-0.17598648369312286,0.5211672782897949
1761307342716249600,9.93024951171875,0.007668039761483669,-0.22851093113422394,0.44810906052589417
1761307342726176800,9.9401767578125,-0.0696704238653183,-0.29767322540283203,0.39490124583244324
1761307342736104700,9.950104736328125,-0.1243501827120781,-0.3619385063648224,0.37254559993743896
1761307342746032600,9.96003271484375,-0.1449044644832611,-0.42016905546188354,0.38305577635765076
1761307342755960600,9.969960693359376,-0.12850578129291534,-0.41212019324302673,0.4007175862789154
1761307342765888800,9.979888671875,-0.07076658308506012,-0.30763745307922363,0.40146008133888245
1761307342775815700,9.989815673828126,-0.0013480921043083072,-0.18342441320419312,0.3504458963871002
1761307342785743600,9.99974365234375,0.0701250284910202,-0.0991167277097702,0.2675930857658386
1761307342795671800,10.009671875,0.09554889053106308,-0.13557061553001404,0.1665346473455429
1761307342805599700,10.019599853515626,0.05627445876598358,-0.3286500573158264,0.090166375041008
1761307342815527700,10.029527587890625,0.00788748450577259,-0.49182698130607605,0.10081023722887039
1761307342825454600,10.03945458984375,-0.006883472204208374,-0.47710129618644714,0.1918591856956482
1761307342835382800,10.0493828125,0.01576032117009163,-0.44125810265541077,0.3007845878601074
1761307342845310700,10.059310791015625,0.11556494235992432,-0.451634019613266,0.37726128101348877
1761307342855238700,10.06923876953125,0.27298760414123535,-0.43062010407447815,0.4136544167995453
1761307342865166600,10.07916650390625,0.41026395559310913,-0.32517915964126587,0.40698108077049255
1761307342875093800,10.08909375,0.4870151877403259,-0.1956520527601242,0.3596274256706238
1761307342885021700,10.099021728515625,0.48292484879493713,-0.10764870047569275,0.25565919280052185
1761307342894949600,10.10894970703125,0.4124610722064972,-0.1050097718834877,0.12461596727371216
1761307342904877600,10.118877685546876,0.2854653000831604,-0.1715051829814911,0.004495948553085327
1761307342914804700,10.1288046875,0.12534406781196594,-0.2104720175266266,-0.08244401216506958
1761307342924732700,10.138732666015626,-0.005586512852460146,-0.20789647102355957,-0.11664112657308578
1761307342934660600,10.14866064453125,-0.06556649506092072,-0.12644635140895844,-0.09567645937204361
1761307342944588500,10.158588623046874,-0.0692211464047432,0.007833688519895077,-0.07347315549850464
1761307342954516700,10.168516845703126,-0.015338209457695484,0.09256588667631149,-0.06603201478719711
1761307342964443600,10.178443603515625,0.08971656858921051,0.08449437469244003,-0.07582925260066986
1761307342974371600,10.18837158203125,0.22506773471832275,0.033186182379722595,-0.0827617272734642
1761307342984299800,10.1982998046875,0.3363226354122162,-0.026750653982162476,-0.09514382481575012
1761307342994227700,10.208227783203125,0.3804778456687927,-0.058045193552970886,-0.12050005048513412
1761307343004155600,10.21815576171875,0.3698510229587555,-0.0629802942276001,-0.13682416081428528
1761307343014082600,10.22808251953125,0.31353074312210083,-0.03314916417002678,-0.14275874197483063
1761307343024010800,10.2380107421875,0.23428574204444885,0.027117637917399406,-0.139611154794693
1761307343033938700,10.247938720703125,0.15550597012043,0.08279474824666977,-0.1417936235666275
1761307343043866600,10.25786669921875,0.08506882190704346,0.10820050537586212,-0.1529405415058136
1761307343053793800,10.267793701171875,0.009514675475656986,0.07578184455633163,-0.16792215406894684
1761307343063721700,10.2777216796875,-0.06967788189649582,-0.0021518340799957514,-0.15255998075008392
1761307343073649700,10.287649658203126,-0.10876323282718658,-0.043288085609674454,-0.10417726635932922
1761307343083577600,10.29757763671875,-0.07798480987548828,-0.06857293844223022,-0.05848701298236847
1761307343093505500,10.307505615234374,-0.003102316288277507,-0.0896819457411766,-0.03985580429434776
1761307343103432700,10.3174326171875,0.10590139776468277,-0.09362475574016571,-0.029931267723441124
1761307343113360600,10.327360595703125,0.20162126421928406,-0.056053683161735535,-0.022939404472708702
1761307343123288600,10.33728857421875,0.25263944268226624,0.002079662401229143,-0.012941897846758366
1761307343133216500,10.347216552734375,0.24625638127326965,0.028381040319800377,-0.0028655612841248512
1761307343143144700,10.357144775390625,0.19608882069587708,-0.0015427692560479045,-0.00893623661249876
1761307343153071600,10.367071533203125,0.1017250269651413,-0.05428560823202133,-0.02075108513236046
1761307343162999600,10.37699951171875,-0.007302387617528439,-0.12101563811302185,-0.0374445766210556
1761307343172927700,10.386927734375,-0.09303167462348938,-0.15688681602478027,-0.05548003688454628
1761307343182855700,10.396855712890625,-0.13796105980873108,-0.1808597892522812,-0.07837789505720139
1761307343192782600,10.406782470703124,-0.14405304193496704,-0.21156445145606995,-0.11152439564466476
1761307343202710500,10.41671044921875,-0.12805916368961334,-0.20879581570625305,-0.12761680781841278
1761307343212638700,10.426638671875,-0.0994189977645874,-0.18722768127918243,-0.12588949501514435
1761307343222566700,10.436566650390626,-0.05337294191122055,-0.16401369869709015,-0.12368572503328323
1761307343232494600,10.44649462890625,-0.004604605492204428,-0.11818443238735199,-0.12043586373329163
1761307343242421500,10.45642138671875,0.032346755266189575,-0.05823054909706116,-0.10840477049350739
1761307343252349700,10.466349609375,0.04899497330188751,-0.02875628136098385,-0.09709671884775162
1761307343262277600,10.476277587890625,0.03822914510965347,-0.006291984114795923,-0.07996513694524765
1761307343272205600,10.48620556640625,-0.00022157499915920198,0.029517412185668945,-0.06844989955425262
1761307343282133500,10.496133544921875,-0.04622422158718109,0.0638602077960968,-0.0697748214006424
1761307343292060700,10.506060791015624,-0.09159249812364578,0.09003721177577972,-0.07827962189912796
1761307343301988600,10.515988525390625,-0.11466532945632935,0.09974443912506104,-0.08692903816699982
1761307343311916500,10.52591650390625,-0.12226119637489319,0.10948628187179565,-0.09091339260339737
1761307343321844500,10.535844482421876,-0.10115271806716919,0.12375656515359879,-0.08552608639001846
1761307343331772700,10.545772705078125,-0.07012342661619186,0.14557823538780212,-0.07132504880428314
1761307343341700000,10.5557001953125,-0.033125996589660645,0.15766818821430206,-0.053713828325271606
1761307343351628000,10.5656279296875,-0.01130964607000351,0.15418636798858643,-0.031097732484340668
1761307343361556000,10.575555908203125,-0.0041468082927167416,0.14769119024276733,-0.008130097761750221
1761307343371484200,10.585484130859374,-0.01834678277373314,0.13583266735076904,0.027756264433264732
1761307343381411000,10.5954111328125,-0.030706247314810753,0.1304059475660324,0.05606380105018616
1761307343391339000,10.605339111328124,-0.028933648020029068,0.11343761533498764,0.07127178460359573
1761307343401267000,10.615266845703125,-0.022218752652406693,0.08688855916261673,0.07288672029972076
1761307343411195100,10.625195068359375,-0.024812938645482063,0.07418821007013321,0.0585397407412529
1761307343421123000,10.635123046875,-0.045825280249118805,0.0661555826663971,0.03730209916830063
1761307343431050000,10.645050048828125,-0.06919372081756592,0.07055246084928513,0.0073133064433932304
1761307343440978200,10.654978271484374,-0.08687923848628998,0.09049820899963379,-0.02329307235777378
1761307343450906000,10.664906005859375,-0.07776377350091934,0.13466034829616547,-0.0409996323287487
1761307343460834000,10.674833984375,-0.04766472429037094,0.22348955273628235,-0.06318376213312149
1761307343470762000,10.684761962890626,0.0063095614314079285,0.33163198828697205,-0.09815772622823715
1761307343480689200,10.694689208984375,0.0770588293671608,0.4952382445335388,-0.13203845918178558
1761307343490617000,10.7046171875,0.06962967664003372,0.8309099674224854,0.22872371971607208
1761307343500545000,10.714544921875,0.0646253302693367,0.5499491691589355,0.5933927893638611
1761307343510473000,10.724472900390625,0.07809852808713913,0.17641125619411469,0.744637668132782
1761307343520400100,10.734400146484376,0.04905462637543678,-0.10895577818155289,0.7184372544288635
1761307343530328000,10.744328125,-0.005887982901185751,-0.31173792481422424,0.6349471211433411
1761307343540256000,10.754256103515624,-0.03744804114103317,-0.40917977690696716,0.5097492933273315
1761307343550184000,10.764183837890625,-0.05307547003030777,-0.3983082175254822,0.31860247254371643
1761307343560111900,10.77411181640625,-0.02640737220644951,-0.3202997148036957,0.0830615982413292
1761307343570039000,10.7840390625,0.038721296936273575,-0.2434411495923996,-0.18531206250190735
1761307343579967000,10.793967041015625,0.07022169977426529,-0.14084899425506592,-0.44951334595680237
1761307343589895000,10.80389501953125,0.030887076631188393,-0.003820038167759776,-0.6519266366958618
1761307343599823000,10.813822998046875,-0.04398396983742714,0.1431014984846115,-0.7470254898071289
1761307343609751000,10.8237509765625,-0.09347482025623322,0.2467687726020813,-0.7176430821418762
