time,seconds_elapsed,z,y,x
1761838400490832600,0.06283251953125,-0.978759765625,-0.1177825927734375,-0.0726776123046875
1761838400500901600,0.072901611328125,-0.9830169677734375,-0.114349365234375,-0.0764312744140625
1761838400510972000,0.082971923828125,-0.98797607421875,-0.10845947265625,-0.0808868408203125
1761838400521040600,0.09304052734375,-0.9868011474609375,-0.1023406982421875,-0.0728607177734375
1761838400531110700,0.103110595703125,-0.98675537109375,-0.1006622314453125,-0.0705718994140625
1761838400541179600,0.1131796875,-0.98626708984375,-0.111297607421875,-0.070404052734375
1761838400551249700,0.123249755859375,-0.98681640625,-0.113739013671875,-0.069549560546875
1761838400561318700,0.133318603515625,-0.9891357421875,-0.1107177734375,-0.074493408203125
1761838400571387600,0.1433876953125,-0.986724853515625,-0.1118011474609375,-0.0818634033203125
1761838400581457700,0.153457763671875,-0.984954833984375,-0.1112823486328125,-0.0902252197265625
1761838400591526700,0.163526611328125,-0.975006103515625,-0.1136322021484375,-0.0912322998046875
1761838400601596700,0.1735966796875,-0.9574127197265625,-0.1131134033203125,-0.0870208740234375
1761838400611665700,0.183665771484375,-1.001861572265625,-0.1088409423828125,-0.0883331298828125
1761838400621735700,0.193735595703125,-0.9839324951171875,-0.1045684814453125,-0.087646484375
1761838400631804700,0.2038046875,-1.0020599365234375,-0.0791473388671875,-0.0894775390625
1761838400641874400,0.21387451171875,-1.011962890625,-0.0831298828125,-0.08056640625
1761838400651943700,0.223943603515625,-1.01983642578125,-0.0919647216796875,-0.0766754150390625
1761838400662012700,0.2340126953125,-1.02142333984375,-0.0909423828125,-0.077789306640625
1761838400672082700,0.244082763671875,-1.006195068359375,-0.088104248046875,-0.0803070068359375
1761838400682151700,0.254151611328125,-0.9997406005859375,-0.082122802734375,-0.0798492431640625
1761838400692221700,0.2642216796875,-1.0028228759765625,-0.08782958984375,-0.073944091796875
1761838400702290700,0.274290771484375,-1.0017852783203125,-0.0976409912109375,-0.0748443603515625
1761838400712360700,0.284360595703125,-1.00946044921875,-0.0878448486328125,-0.076141357421875
1761838400722429700,0.2944296875,-1.0089263916015625,-0.0897216796875,-0.07171630859375
1761838400732499700,0.304499755859375,-1.0111846923828125,-0.0880889892578125,-0.06549072265625
1761838400742568700,0.314568603515625,-1.00634765625,-0.0921173095703125,-0.0735626220703125
1761838400752638500,0.324638427734375,-0.993560791015625,-0.10791015625,-0.0759429931640625
1761838400762707700,0.334707763671875,-0.998077392578125,-0.1172027587890625,-0.0760040283203125
1761838400772777000,0.34477685546875,-1.0036163330078125,-0.1145477294921875,-0.0692901611328125
1761838400782846000,0.354845947265625,-1.0137786865234375,-0.104522705078125,-0.062042236328125
1761838400792915200,0.364915283203125,-1.0092620849609375,-0.08966064453125,-0.060577392578125
1761838400802985200,0.374985107421875,-1.0184478759765625,-0.0843658447265625,-0.055633544921875
1761838400813054200,0.38505419921875,-1.0171661376953125,-0.0903778076171875,-0.0582427978515625
1761838400823124200,0.395124267578125,-1.0161895751953125,-0.1067657470703125,-0.0605010986328125
1761838400833193000,0.40519287109375,-1.00738525390625,-0.1111907958984375,-0.0665130615234375
1761838400843263200,0.41526318359375,-0.993255615234375,-0.1110992431640625,-0.0756988525390625
1761838400853332000,0.42533203125,-0.978912353515625,-0.1079559326171875,-0.084075927734375
1761838400863402200,0.43540234375,-0.9694976806640625,-0.112548828125,-0.0908050537109375
1761838400873471000,0.445470947265625,-0.961151123046875,-0.1128387451171875,-0.092071533203125
1761838400883541000,0.455541015625,-0.9543914794921875,-0.1090850830078125,-0.0954437255859375
1761838400893610000,0.46560986328125,-0.9491424560546875,-0.1187286376953125,-0.09637451171875
1761838400903679200,0.47567919921875,-0.947479248046875,-0.1193084716796875,-0.0990447998046875
1761838400913749000,0.4857490234375,-0.9481353759765625,-0.1122894287109375,-0.0997772216796875
1761838400923818000,0.49581787109375,-0.9512939453125,-0.1075286865234375,-0.09466552734375
1761838400933888300,0.50588818359375,-0.9595794677734375,-0.101043701171875,-0.08837890625
1761838400943957000,0.51595703125,-0.96990966796875,-0.0962066650390625,-0.084503173828125
1761838400954027300,0.52602734375,-0.975067138671875,-0.09844970703125,-0.0842742919921875
1761838400964096000,0.536095947265625,-0.9823150634765625,-0.099700927734375,-0.08697509765625
1761838400974166300,0.546166259765625,-0.99005126953125,-0.0976409912109375,-0.08807373046875
1761838400984235000,0.556235107421875,-0.998870849609375,-0.0973968505859375,-0.0856475830078125
1761838400994305000,0.566304931640625,-1.006439208984375,-0.0986480712890625,-0.085357666015625
1761838401004374000,0.5763740234375,-1.0124664306640625,-0.1016845703125,-0.0855712890625
1761838401014443300,0.586443359375,-1.014190673828125,-0.1033172607421875,-0.0845947265625
1761838401024513000,0.596512939453125,-1.009979248046875,-0.1010284423828125,-0.0850067138671875
1761838401034582000,0.60658203125,-1.0088958740234375,-0.0992431640625,-0.08331298828125
1761838401044652000,0.616652099609375,-1.0070037841796875,-0.0979766845703125,-0.080780029296875
1761838401054721000,0.626720947265625,-1.004364013671875,-0.09576416015625,-0.08026123046875
1761838401064791300,0.636791259765625,-1.0043487548828125,-0.096832275390625,-0.079193115234375
1761838401074860000,0.646860107421875,-1.001617431640625,-0.096649169921875,-0.076934814453125
1761838401084930300,0.656930419921875,-0.998870849609375,-0.0988922119140625,-0.0745697021484375
1761838401094999000,0.6669990234375,-0.9940032958984375,-0.1010894775390625,-0.0750274658203125
1761838401105069000,0.677069091796875,-0.9869537353515625,-0.1022491455078125,-0.0742645263671875
1761838401115138000,0.687137939453125,-0.978485107421875,-0.1066436767578125,-0.077301025390625
1761838401125208000,0.6972080078125,-0.9727783203125,-0.1068878173828125,-0.0770416259765625
1761838401135277000,0.707277099609375,-0.970428466796875,-0.1075592041015625,-0.0767059326171875
1761838401145346000,0.717345947265625,-0.9725341796875,-0.1092071533203125,-0.072418212890625
1761838401155416000,0.727416015625,-0.9888153076171875,-0.112762451171875,-0.07073974609375
1761838401165485000,0.737485107421875,-0.995208740234375,-0.1050872802734375,-0.0736236572265625
1761838401175555000,0.74755517578125,-1.0011749267578125,-0.097869873046875,-0.074798583984375
1761838401185624000,0.7576240234375,-1.01043701171875,-0.0958099365234375,-0.0721282958984375
1761838401195694000,0.767694091796875,-1.01324462890625,-0.09796142578125,-0.073455810546875
1761838401205763000,0.77776318359375,-1.01068115234375,-0.1049346923828125,-0.0751800537109375
1761838401215833000,0.7878330078125,-1.0095977783203125,-0.109710693359375,-0.075927734375
1761838401225902000,0.797902099609375,-1.005889892578125,-0.1165618896484375,-0.0760955810546875
1761838401235972000,0.80797216796875,-1.0020904541015625,-0.1208953857421875,-0.0772857666015625
1761838401246041000,0.818041015625,-0.9992828369140625,-0.1220703125,-0.0804443359375
1761838401256111000,0.828111083984375,-0.99298095703125,-0.1230621337890625,-0.07989501953125
1761838401266180000,0.83818017578125,-0.993408203125,-0.120574951171875,-0.079254150390625
1761838401276249000,0.8482490234375,-0.9914398193359375,-0.1201171875,-0.075531005859375
1761838401286319000,0.858319091796875,-0.98974609375,-0.120941162109375,-0.07025146484375
1761838401296388000,0.86838818359375,-0.9900054931640625,-0.120208740234375,-0.069610595703125
1761838401306458000,0.8784580078125,-0.982940673828125,-0.1163787841796875,-0.0709075927734375
1761838401316527000,0.888527099609375,-0.983184814453125,-0.1148223876953125,-0.0700225830078125
1761838401326596900,0.898596923828125,-0.9855804443359375,-0.11016845703125,-0.0686187744140625
1761838401336666000,0.908666015625,-0.9866790771484375,-0.109954833984375,-0.069671630859375
1761838401346736000,0.918736083984375,-0.9837493896484375,-0.1090545654296875,-0.0733642578125
1761838401356805000,0.92880517578125,-0.9857025146484375,-0.110687255859375,-0.075958251953125
1761838401366875100,0.938875244140625,-0.9873809814453125,-0.11029052734375,-0.0787506103515625
1761838401376944000,0.948944091796875,-0.985260009765625,-0.1031036376953125,-0.0794525146484375
1761838401387014100,0.95901416015625,-0.9832000732421875,-0.1007843017578125,-0.0801544189453125
1761838401397083100,0.969083251953125,-0.9792327880859375,-0.0985260009765625,-0.0770111083984375
1761838401407153200,0.979153076171875,-0.9761199951171875,-0.1006317138671875,-0.0758514404296875
1761838401417222100,0.98922216796875,-0.9732666015625,-0.102020263671875,-0.07763671875
1761838401427291100,0.999291015625,-0.965728759765625,-0.106597900390625,-0.078155517578125
1761838401437361000,1.00936083984375,-0.969482421875,-0.100433349609375,-0.0691680908203125
1761838401447430100,1.01943017578125,-0.9754180908203125,-0.0909271240234375,-0.0623931884765625
1761838401457500000,1.0295,-0.972015380859375,-0.0996551513671875,-0.068511962890625
1761838401467569200,1.039569091796875,-0.97723388671875,-0.113525390625,-0.067535400390625
1761838401477639200,1.04963916015625,-0.9903717041015625,-0.1169586181640625,-0.067108154296875
1761838401487708200,1.059708251953125,-0.9891204833984375,-0.1192474365234375,-0.0648956298828125
1761838401497778200,1.069778076171875,-0.9898681640625,-0.117462158203125,-0.0650634765625
1761838401507847200,1.07984716796875,-0.99200439453125,-0.1180419921875,-0.060638427734375
1761838401517917200,1.089917236328125,-0.9998931884765625,-0.11846923828125,-0.0564727783203125
1761838401527986200,1.099986083984375,-1.0027618408203125,-0.11968994140625,-0.0558319091796875
1761838401538056200,1.11005615234375,-1.0049591064453125,-0.1168365478515625,-0.0562591552734375
1761838401548125000,1.120125,-1.0066070556640625,-0.113433837890625,-0.0576019287109375
1761838401558195200,1.1301953125,-1.0056304931640625,-0.113311767578125,-0.0606231689453125
1761838401568264000,1.140263916015625,-1.0035552978515625,-0.1119842529296875,-0.064239501953125
1761838401578333200,1.150333251953125,-1.0024261474609375,-0.1123504638671875,-0.0660247802734375
1761838401588403000,1.16040283203125,-1.0040283203125,-0.1131439208984375,-0.0673065185546875
1761838401598472200,1.17047216796875,-1.001922607421875,-0.110626220703125,-0.07012939453125
1761838401608542200,1.180542236328125,-0.999542236328125,-0.1088409423828125,-0.0732574462890625
1761838401618611200,1.190611083984375,-0.9975128173828125,-0.1089630126953125,-0.0778350830078125
1761838401628681200,1.20068115234375,-0.993377685546875,-0.106842041015625,-0.0785064697265625
1761838401638750000,1.21075,-0.9896087646484375,-0.1085968017578125,-0.0815582275390625
1761838401648820200,1.2208203125,-0.9862060546875,-0.1116790771484375,-0.0829010009765625
1761838401658889000,1.230888916015625,-0.9932403564453125,-0.1049346923828125,-0.08074951171875
1761838401668959200,1.240959228515625,-0.993988037109375,-0.1024627685546875,-0.076934814453125
1761838401679028000,1.251028076171875,-0.9957275390625,-0.0973663330078125,-0.07666015625
1761838401689098200,1.26109814453125,-1.0012359619140625,-0.09942626953125,-0.0792999267578125
1761838401699167000,1.2711669921875,-1.0041656494140625,-0.10125732421875,-0.082550048828125
1761838401709237000,1.281237060546875,-1.0064544677734375,-0.0994873046875,-0.07879638671875
1761838401719306000,1.291305908203125,-1.0034942626953125,-0.10784912109375,-0.078033447265625
1761838401729376000,1.3013759765625,-1.0015716552734375,-0.1128082275390625,-0.0767669677734375
1761838401739445000,1.311445068359375,-0.9927825927734375,-0.11114501953125,-0.0741119384765625
1761838401749515000,1.321514892578125,-0.9901123046875,-0.1131744384765625,-0.07037353515625
1761838401759584300,1.331584228515625,-0.993316650390625,-0.1146240234375,-0.063385009765625
1761838401769657000,1.341656982421875,-0.9962158203125,-0.107391357421875,-0.0570068359375
1761838401779727000,1.35172705078125,-0.9968414306640625,-0.1077423095703125,-0.0566253662109375
1761838401789796000,1.361796142578125,-0.9983673095703125,-0.1103363037109375,-0.0584869384765625
1761838401799866000,1.3718662109375,-0.9982452392578125,-0.1098480224609375,-0.059112548828125
1761838401809935000,1.38193505859375,-0.99072265625,-0.1097412109375,-0.059783935546875
1761838401820005000,1.392005126953125,-0.984405517578125,-0.10888671875,-0.05950927734375
1761838401830074400,1.402074462890625,-0.9813385009765625,-0.1047515869140625,-0.056610107421875
1761838401840144100,1.41214404296875,-0.980133056640625,-0.103515625,-0.053924560546875
1761838401850213400,1.42221337890625,-0.9822235107421875,-0.10205078125,-0.0560760498046875
1761838401860283100,1.432283203125,-0.98492431640625,-0.1008453369140625,-0.0624237060546875
1761838401870352400,1.442352294921875,-0.988128662109375,-0.0966339111328125,-0.0683135986328125
1761838401880422100,1.452422119140625,-0.9954376220703125,-0.0928955078125,-0.074859619140625
1761838401890491100,1.4624912109375,-0.9959869384765625,-0.0900115966796875,-0.0792999267578125
1761838401900561200,1.47256103515625,-0.9952850341796875,-0.087860107421875,-0.0823822021484375
1761838401910630100,1.482630126953125,-0.9965362548828125,-0.088470458984375,-0.084228515625
1761838401920700400,1.492700439453125,-0.9962921142578125,-0.09295654296875,-0.0831298828125
1761838401930769200,1.50276904296875,-0.9957275390625,-0.0968170166015625,-0.0814056396484375
1761838401940839200,1.512839111328125,-0.99639892578125,-0.098846435546875,-0.0762481689453125
1761838401950908200,1.522908203125,-0.9959716796875,-0.0993804931640625,-0.068939208984375
1761838401960977400,1.532977294921875,-0.9992218017578125,-0.09967041015625,-0.0634613037109375
1761838401971047200,1.543047119140625,-1.0035400390625,-0.0989227294921875,-0.0592041015625
1761838401981116400,1.553116455078125,-1.0054931640625,-0.0980224609375,-0.058441162109375
1761838401991186200,1.563186279296875,-1.00347900390625,-0.099945068359375,-0.0555877685546875
1761838402001255200,1.573255126953125,-1.0012969970703125,-0.103973388671875,-0.052398681640625
1761838402011325200,1.5833251953125,-0.9967041015625,-0.1052398681640625,-0.0498046875
1761838402021394200,1.593394287109375,-0.990203857421875,-0.1033477783203125,-0.051788330078125
1761838402031464200,1.603464111328125,-0.9783172607421875,-0.100067138671875,-0.054443359375
1761838402041533200,1.613533203125,-0.9738311767578125,-0.100860595703125,-0.05657958984375
1761838402051603200,1.623603271484375,-0.9701080322265625,-0.1067352294921875,-0.062042236328125
1761838402061672200,1.633672119140625,-0.9696197509765625,-0.1055908203125,-0.069061279296875
1761838402071742200,1.6437421875,-0.97076416015625,-0.1037750244140625,-0.0757904052734375
1761838402081811200,1.653811279296875,-0.977081298828125,-0.10052490234375,-0.077117919921875
1761838402091881200,1.663881103515625,-0.98455810546875,-0.0995941162109375,-0.074310302734375
1761838402101950200,1.6739501953125,-0.99188232421875,-0.09930419921875,-0.07135009765625
1761838402112020200,1.684020263671875,-0.9959259033203125,-0.098388671875,-0.06878662109375
1761838402122089200,1.694089111328125,-0.999298095703125,-0.09674072265625,-0.0651397705078125
1761838402132159200,1.7041591796875,-1.0020294189453125,-0.0944671630859375,-0.0618743896484375
1761838402142228200,1.714228271484375,-1.0030975341796875,-0.0934295654296875,-0.060333251953125
1761838402152297200,1.724297119140625,-1.006805419921875,-0.0943756103515625,-0.059783935546875
1761838402162367200,1.7343671875,-1.0098724365234375,-0.093719482421875,-0.0576019287109375
1761838402172436200,1.744436279296875,-1.01141357421875,-0.09039306640625,-0.0563812255859375
1761838402182506200,1.75450634765625,-1.0088958740234375,-0.087005615234375,-0.0589447021484375
1761838402192575200,1.7645751953125,-1.0068511962890625,-0.08526611328125,-0.062286376953125
1761838402202645200,1.774645263671875,-1.0010833740234375,-0.0843658447265625,-0.06414794921875
1761838402212714200,1.78471435546875,-0.9933319091796875,-0.0858917236328125,-0.0651702880859375
1761838402222784300,1.7947841796875,-0.9843902587890625,-0.092071533203125,-0.0625152587890625
1761838402232853200,1.804853271484375,-0.977386474609375,-0.1002197265625,-0.0641937255859375
1761838402242923300,1.81492333984375,-0.9770660400390625,-0.1082763671875,-0.0627288818359375
1761838402252992300,1.8249921875,-0.9764404296875,-0.1044921875,-0.05999755859375
1761838402263062300,1.835062255859375,-0.97613525390625,-0.0968170166015625,-0.0611724853515625
1761838402273131000,1.845131103515625,-0.9824066162109375,-0.0961761474609375,-0.06182861328125
1761838402283201300,1.855201171875,-0.9900665283203125,-0.1007537841796875,-0.064178466796875
1761838402293270000,1.86527001953125,-0.996429443359375,-0.1017913818359375,-0.0637054443359375
1761838402303340300,1.87534033203125,-1.0032196044921875,-0.10211181640625,-0.0638885498046875
1761838402313409300,1.8854091796875,-1.0034332275390625,-0.1002349853515625,-0.064605712890625
1761838402323479300,1.895479248046875,-1.0098419189453125,-0.0975494384765625,-0.0589752197265625
1761838402333548300,1.90554833984375,-1.00616455078125,-0.096832275390625,-0.055328369140625
1761838402343618000,1.9156181640625,-1.0033416748046875,-0.0976104736328125,-0.05767822265625
1761838402353687300,1.925687255859375,-1.0008697509765625,-0.098907470703125,-0.058380126953125
1761838402363757000,1.935757080078125,-1.0007171630859375,-0.0978546142578125,-0.0537261962890625
1761838402373826300,1.945826416015625,-1.003204345703125,-0.0948944091796875,-0.05078125
1761838402383896000,1.95589599609375,-1.0034332275390625,-0.090087890625,-0.0514678955078125
1761838402393965300,1.96596533203125,-1.0018157958984375,-0.0878448486328125,-0.0551605224609375
1761838402404034000,1.976033935546875,-1.0034637451171875,-0.08770751953125,-0.0561065673828125
1761838402414104300,1.986104248046875,-1.002166748046875,-0.0889129638671875,-0.0604705810546875
1761838402424173000,1.996173095703125,-1.0002899169921875,-0.0902099609375,-0.065216064453125
1761838402434243300,2.006243408203125,-1.00592041015625,-0.0897216796875,-0.0758056640625
1761838402444312000,2.01631201171875,-1.00262451171875,-0.084075927734375,-0.0730438232421875
1761838402454382000,2.026382080078125,-0.9987945556640625,-0.09112548828125,-0.0765533447265625
1761838402464451300,2.036451416015625,-0.99609375,-0.0913848876953125,-0.0785675048828125
1761838402474521000,2.04652099609375,-0.998779296875,-0.0933837890625,-0.07720947265625
1761838402484590300,2.05659033203125,-0.998138427734375,-0.0963287353515625,-0.07159423828125
1761838402494660000,2.06666015625,-0.996063232421875,-0.0978546142578125,-0.0656890869140625
1761838402504729300,2.076729248046875,-0.99420166015625,-0.1016693115234375,-0.060516357421875
1761838402514799000,2.086799072265625,-0.9930877685546875,-0.1059722900390625,-0.056793212890625
1761838402524868400,2.096868408203125,-0.9893341064453125,-0.10601806640625,-0.05548095703125
1761838402534938000,2.106938232421875,-0.9900360107421875,-0.10614013671875,-0.055938720703125
1761838402545007000,2.117007080078125,-0.9881439208984375,-0.1062164306640625,-0.056365966796875
1761838402555077400,2.127077392578125,-0.990142822265625,-0.1056365966796875,-0.0553741455078125
1761838402565146000,2.13714599609375,-0.9926605224609375,-0.10565185546875,-0.0557403564453125
1761838402575216400,2.14721630859375,-0.9909210205078125,-0.1075592041015625,-0.0550689697265625
1761838402585285000,2.15728515625,-0.99151611328125,-0.1097869873046875,-0.0556793212890625
1761838402595355400,2.16735546875,-0.9908447265625,-0.111419677734375,-0.0567474365234375
1761838402605424000,2.177424072265625,-0.9876861572265625,-0.1120147705078125,-0.057281494140625
1761838402615494100,2.187494140625,-0.9869842529296875,-0.1123046875,-0.0562286376953125
1761838402625563100,2.197563232421875,-0.986724853515625,-0.112152099609375,-0.05780029296875
1761838402635633200,2.207633056640625,-0.9879913330078125,-0.108062744140625,-0.0583953857421875
1761838402645702100,2.2177021484375,-0.9932861328125,-0.102630615234375,-0.058990478515625
1761838402655772200,2.227772216796875,-0.9968719482421875,-0.0972747802734375,-0.06085205078125
1761838402665841200,2.237841064453125,-1.002288818359375,-0.09600830078125,-0.06536865234375
1761838402675910100,2.24791015625,-1.008331298828125,-0.0924072265625,-0.072052001953125
1761838402685980400,2.25798046875,-1.007171630859375,-0.0883636474609375,-0.078338623046875
1761838402696049200,2.268049072265625,-1.0079803466796875,-0.0872039794921875,-0.0844573974609375
1761838402706119400,2.278119384765625,-1.006561279296875,-0.0850677490234375,-0.08892822265625
1761838402716188200,2.288188232421875,-1.00372314453125,-0.08160400390625,-0.089508056640625
1761838402726258200,2.298258056640625,-1.0012969970703125,-0.0815887451171875,-0.0872344970703125
1761838402736327200,2.3083271484375,-1.0009307861328125,-0.084991455078125,-0.0839996337890625
1761838402746397200,2.318397216796875,-1.0016937255859375,-0.0884246826171875,-0.0843658447265625
1761838402756466200,2.328466064453125,-0.99810791015625,-0.092315673828125,-0.084564208984375
1761838402766532000,2.338531982421875,-0.9951324462890625,-0.094879150390625,-0.0855865478515625
1761838402776601300,2.348601318359375,-0.9904327392578125,-0.0968017578125,-0.0849456787109375
1761838402786671000,2.358671142578125,-0.9854278564453125,-0.10101318359375,-0.08599853515625
1761838402796740400,2.368740234375,-0.981475830078125,-0.1044921875,-0.0884857177734375
1761838402806810000,2.37881005859375,-0.982879638671875,-0.1061248779296875,-0.087615966796875
1761838402816879400,2.38887939453125,-0.9807281494140625,-0.1064910888671875,-0.0841217041015625
1761838402826949000,2.39894921875,-0.983612060546875,-0.10638427734375,-0.0795745849609375
1761838402837018400,2.409018310546875,-0.981842041015625,-0.107879638671875,-0.0784149169921875
1761838402847088000,2.419088134765625,-0.9831390380859375,-0.11126708984375,-0.0780487060546875
1761838402857157000,2.4291572265625,-0.982879638671875,-0.11444091796875,-0.0771484375
1761838402867227400,2.439227294921875,-0.98272705078125,-0.1177215576171875,-0.079986572265625
1761838402877296000,2.449296142578125,-0.986053466796875,-0.1195831298828125,-0.0863037109375
1761838402887366400,2.459366455078125,-0.9869537353515625,-0.12109375,-0.091552734375
1761838402897435100,2.46943505859375,-0.9913177490234375,-0.11895751953125,-0.094757080078125
1761838402907505200,2.479505126953125,-0.996978759765625,-0.1152191162109375,-0.0977935791015625
1761838402917574100,2.48957421875,-1.0005340576171875,-0.1121826171875,-0.1006317138671875
1761838402927644200,2.49964404296875,-1.00390625,-0.1095733642578125,-0.1007080078125
1761838402937713200,2.509713134765625,-1.0107269287109375,-0.1115570068359375,-0.09613037109375
1761838402947783200,2.519783203125,-0.98614501953125,-0.103179931640625,-0.1043853759765625
1761838402957852200,2.52985205078125,-0.99151611328125,-0.1050567626953125,-0.1023406982421875
1761838402967921200,2.539921142578125,-0.990997314453125,-0.1097564697265625,-0.0983123779296875
1761838402977991200,2.5499912109375,-0.98370361328125,-0.1121368408203125,-0.098052978515625
1761838402988060200,2.56006005859375,-0.9731292724609375,-0.1156158447265625,-0.1007232666015625
1761838402998130400,2.57013037109375,-0.965972900390625,-0.1181488037109375,-0.1023712158203125
1761838403008199200,2.58019921875,-0.9646453857421875,-0.117523193359375,-0.1029205322265625
1761838403018269200,2.590269287109375,-0.9653778076171875,-0.11614990234375,-0.104827880859375
1761838403028338200,2.600338134765625,-0.9678802490234375,-0.1164398193359375,-0.1058197021484375
1761838403038408200,2.610408203125,-0.9731903076171875,-0.1148834228515625,-0.1045379638671875
1761838403048477200,2.620477294921875,-0.9792022705078125,-0.113616943359375,-0.1018829345703125
1761838403058547200,2.630547119140625,-0.98187255859375,-0.11328125,-0.1016082763671875
1761838403068616200,2.6406162109375,-0.983551025390625,-0.114410400390625,-0.1004486083984375
1761838403078686200,2.650686279296875,-0.9856719970703125,-0.116729736328125,-0.0981292724609375
1761838403088755200,2.660755126953125,-0.9868927001953125,-0.1161651611328125,-0.0968170166015625
1761838403098825200,2.6708251953125,-0.9875030517578125,-0.1115875244140625,-0.096405029296875
1761838403108894200,2.680894287109375,-0.9931182861328125,-0.1094512939453125,-0.095947265625
1761838403118964200,2.690964111328125,-0.994720458984375,-0.10980224609375,-0.0953216552734375
1761838403129033200,2.701033203125,-0.9938507080078125,-0.10552978515625,-0.0992584228515625
1761838403139103200,2.711103271484375,-0.995208740234375,-0.103912353515625,-0.1024322509765625
1761838403149172200,2.721172119140625,-0.995635986328125,-0.1078338623046875,-0.104522705078125
1761838403159242200,2.7312421875,-0.9950408935546875,-0.1103668212890625,-0.106048583984375
1761838403169311200,2.741311279296875,-0.994293212890625,-0.1108551025390625,-0.107513427734375
1761838403179381200,2.75138134765625,-0.991790771484375,-0.1136932373046875,-0.107696533203125
1761838403189450200,2.7614501953125,-0.992218017578125,-0.1141204833984375,-0.1063232421875
1761838403199520000,2.77152001953125,-0.990020751953125,-0.114349365234375,-0.10498046875
1761838403209589200,2.78158935546875,-0.98974609375,-0.114349365234375,-0.0995330810546875
1761838403219659300,2.7916591796875,-0.9940032958984375,-0.1127471923828125,-0.095062255859375
1761838403229728300,2.801728271484375,-0.99444580078125,-0.11724853515625,-0.09222412109375
1761838403239798300,2.81179833984375,-0.990234375,-0.1139373779296875,-0.087493896484375
1761838403249867300,2.8218671875,-0.993011474609375,-0.1149444580078125,-0.087158203125
1761838403259937300,2.831937255859375,-0.989959716796875,-0.121612548828125,-0.0831298828125
1761838403270006300,2.84200634765625,-0.98223876953125,-0.1156005859375,-0.0801544189453125
1761838403280076300,2.852076171875,-0.98577880859375,-0.11517333984375,-0.0823974609375
1761838403290145300,2.862145263671875,-0.9850616455078125,-0.1293792724609375,-0.0875701904296875
1761838403300215300,2.87221533203125,-0.982513427734375,-0.124237060546875,-0.0933837890625
1761838403310284000,2.882283935546875,-0.983245849609375,-0.119232177734375,-0.0968780517578125
1761838403320354300,2.892354248046875,-0.9845428466796875,-0.1174163818359375,-0.099761962890625
1761838403330423000,2.902423095703125,-0.9872283935546875,-0.112030029296875,-0.096649169921875
1761838403340493300,2.912493408203125,-0.991180419921875,-0.11517333984375,-0.0998687744140625
1761838403350562000,2.92256201171875,-0.9914093017578125,-0.1174163818359375,-0.10174560546875
1761838403360632000,2.932632080078125,-0.9889373779296875,-0.113037109375,-0.1061553955078125
1761838403370701300,2.942701416015625,-0.9860687255859375,-0.1120452880859375,-0.10595703125
1761838403380770300,2.952770263671875,-0.984954833984375,-0.1126861572265625,-0.10418701171875
1761838403390840300,2.96284033203125,-0.986663818359375,-0.115142822265625,-0.103179931640625
1761838403400909300,2.972909423828125,-0.993194580078125,-0.116729736328125,-0.101959228515625
1761838403410979300,2.982979248046875,-0.9953765869140625,-0.11572265625,-0.0973358154296875
1761838403421048000,2.993048095703125,-0.9971923828125,-0.113677978515625,-0.093994140625
1761838403431118300,3.003118408203125,-1.001708984375,-0.1128692626953125,-0.09429931640625
1761838403441187000,3.01318701171875,-1.0019073486328125,-0.11456298828125,-0.0960693359375
1761838403451257300,3.02325732421875,-1.0027008056640625,-0.114898681640625,-0.096405029296875
1761838403461326000,3.033326171875,-1.004730224609375,-0.1144256591796875,-0.097503662109375
1761838403471396000,3.04339599609375,-1.0020294189453125,-0.1159210205078125,-0.100494384765625
1761838403481465000,3.053465087890625,-0.9932861328125,-0.1157989501953125,-0.1046600341796875
1761838403491535000,3.06353515625,-0.9846343994140625,-0.118255615234375,-0.1070556640625
1761838403501604400,3.073604248046875,-0.9804840087890625,-0.121002197265625,-0.1074981689453125
1761838403511674000,3.083674072265625,-0.9768524169921875,-0.120269775390625,-0.1051177978515625
1761838403521743400,3.093743408203125,-0.9750213623046875,-0.121429443359375,-0.1029205322265625
1761838403531813000,3.103813232421875,-0.977203369140625,-0.1235198974609375,-0.10076904296875
1761838403541882400,3.11388232421875,-0.9792633056640625,-0.1206207275390625,-0.0989532470703125
1761838403551952100,3.1239521484375,-0.9825897216796875,-0.11700439453125,-0.09722900390625
1761838403562021400,3.134021484375,-0.9817657470703125,-0.1140594482421875,-0.0984954833984375
1761838403572091100,3.144091064453125,-0.9812469482421875,-0.115875244140625,-0.0997772216796875
1761838403582160100,3.15416015625,-0.9847869873046875,-0.11859130859375,-0.097991943359375
1761838403592230400,3.16423046875,-0.9849853515625,-0.12127685546875,-0.0988616943359375
1761838403602299100,3.174299072265625,-0.9842681884765625,-0.1239166259765625,-0.10205078125
1761838403612369400,3.184369384765625,-0.9857025146484375,-0.1266937255859375,-0.1072235107421875
1761838403622438100,3.194438232421875,-0.9912109375,-0.1239471435546875,-0.1085205078125
1761838403632508200,3.204508056640625,-0.9917755126953125,-0.1179656982421875,-0.103973388671875
1761838403642577200,3.2145771484375,-0.9950714111328125,-0.1161041259765625,-0.098297119140625
1761838403652647200,3.224647216796875,-1.00177001953125,-0.1154632568359375,-0.095794677734375
1761838403662716200,3.234716064453125,-1.00396728515625,-0.114471435546875,-0.0966644287109375
1761838403672786200,3.2447861328125,-1.001007080078125,-0.1119842529296875,-0.09893798828125
1761838403682855200,3.254855224609375,-0.9977569580078125,-0.108673095703125,-0.0958251953125
1761838403692925200,3.26492529296875,-0.9963226318359375,-0.1095428466796875,-0.0898284912109375
1761838403702994200,3.274994140625,-0.9908447265625,-0.113739013671875,-0.0873260498046875
1761838403713064200,3.285064208984375,-0.983367919921875,-0.1162567138671875,-0.088134765625
1761838403723133400,3.295133544921875,-0.9761199951171875,-0.1178436279296875,-0.0890655517578125
1761838403733203200,3.305203125,-0.9721221923828125,-0.118133544921875,-0.092681884765625
1761838403743272200,3.315272216796875,-0.96881103515625,-0.116485595703125,-0.097381591796875
1761838403753342200,3.32534228515625,-0.9698486328125,-0.1160736083984375,-0.098663330078125
1761838403763411200,3.3354111328125,-0.9709625244140625,-0.1160430908203125,-0.098663330078125
1761838403773481200,3.345481201171875,-0.977264404296875,-0.114990234375,-0.094024658203125
1761838403783550000,3.355550048828125,-0.9863433837890625,-0.116241455078125,-0.0901641845703125
1761838403793620200,3.3656201171875,-0.988800048828125,-0.115203857421875,-0.0882568359375
1761838403803689000,3.37568896484375,-0.991241455078125,-0.111328125,-0.0872650146484375
1761838403813759000,3.385759033203125,-0.9926910400390625,-0.1123046875,-0.0858001708984375
1761838403823828000,3.395827880859375,-0.9925384521484375,-0.1163787841796875,-0.08441162109375
1761838403833897200,3.405897216796875,-0.98883056640625,-0.1200714111328125,-0.0865631103515625
1761838403843967000,3.415967041015625,-0.9868621826171875,-0.1219482421875,-0.08990478515625
1761838403854036000,3.426035888671875,-0.98687744140625,-0.1240386962890625,-0.0904998779296875
1761838403864106000,3.43610595703125,-0.9888458251953125,-0.124298095703125,-0.0932769775390625
1761838403874175000,3.446175048828125,-0.9910888671875,-0.1230621337890625,-0.096038818359375
1761838403884245200,3.456245361328125,-0.9940338134765625,-0.1215057373046875,-0.0968780517578125
1761838403894314000,3.46631396484375,-0.997314453125,-0.1224365234375,-0.097381591796875
1761838403904384300,3.47638427734375,-0.9988861083984375,-0.1215057373046875,-0.0968170166015625
1761838403914453000,3.486452880859375,-0.9970703125,-0.1185455322265625,-0.09619140625
1761838403924523000,3.49652294921875,-0.99493408203125,-0.115386962890625,-0.0923614501953125
1761838403934592000,3.506592041015625,-0.9951934814453125,-0.1135101318359375,-0.08758544921875
1761838403944662000,3.516662109375,-0.9942474365234375,-0.1136474609375,-0.087677001953125
1761838403954731000,3.52673095703125,-0.99261474609375,-0.1160125732421875,-0.08990478515625
1761838403964801000,3.536801025390625,-0.991363525390625,-0.1175994873046875,-0.090057373046875
1761838403974870000,3.5468701171875,-0.9909210205078125,-0.1201934814453125,-0.0900421142578125
1761838403984940000,3.55693994140625,-0.9879302978515625,-0.1215362548828125,-0.0904998779296875
1761838403995009000,3.567009033203125,-0.986846923828125,-0.1237945556640625,-0.0925140380859375
1761838404005079000,3.5770791015625,-0.98333740234375,-0.1240692138671875,-0.0937042236328125
1761838404015148300,3.587148193359375,-0.9802398681640625,-0.1262054443359375,-0.09490966796875
1761838404025218000,3.597218017578125,-0.9792633056640625,-0.1270751953125,-0.0941925048828125
1761838404035287000,3.607287109375,-0.9784088134765625,-0.1280975341796875,-0.0909271240234375
1761838404045357000,3.617357177734375,-0.9858245849609375,-0.1282806396484375,-0.085662841796875
1761838404055426000,3.627426025390625,-0.9844512939453125,-0.12371826171875,-0.084716796875
1761838404065496000,3.63749609375,-0.9824371337890625,-0.1201324462890625,-0.0864105224609375
1761838404075565000,3.64756494140625,-0.989532470703125,-0.120330810546875,-0.0846710205078125
1761838404085635000,3.657635009765625,-0.9925079345703125,-0.122833251953125,-0.0867462158203125
1761838404095704000,3.6677041015625,-0.9916839599609375,-0.1219635009765625,-0.08868408203125
1761838404105773800,3.67777392578125,-0.9924468994140625,-0.1221771240234375,-0.0894622802734375
1761838404115843000,3.687843017578125,-0.9918060302734375,-0.1200408935546875,-0.0908203125
1761838404125913000,3.6979130859375,-0.9980010986328125,-0.1150360107421875,-0.09063720703125
1761838404135982000,3.707982177734375,-1.0047149658203125,-0.114898681640625,-0.0902252197265625
1761838404146052000,3.718052001953125,-1.008392333984375,-0.1189117431640625,-0.0934295654296875
1761838404156121000,3.72812109375,-1.0058746337890625,-0.1183929443359375,-0.0945892333984375
1761838404166191000,3.738191162109375,-0.9998779296875,-0.1142425537109375,-0.0966033935546875
1761838404176260000,3.748260009765625,-0.99560546875,-0.1160736083984375,-0.094573974609375
1761838404186330000,3.758330078125,-0.9906158447265625,-0.1215057373046875,-0.092193603515625
1761838404196398800,3.76839892578125,-0.9832611083984375,-0.1247406005859375,-0.0898895263671875
1761838404206469000,3.77846923828125,-0.9752044677734375,-0.1267547607421875,-0.087982177734375
1761838404216537900,3.788537841796875,-0.9744415283203125,-0.127105712890625,-0.0877532958984375
1761838404226608000,3.798608154296875,-0.9777069091796875,-0.1248016357421875,-0.0859527587890625
1761838404236676900,3.8086767578125,-0.9785308837890625,-0.12469482421875,-0.0866851806640625
1761838404246747100,3.8187470703125,-0.9832763671875,-0.123504638671875,-0.0873870849609375
1761838404256816000,3.828816162109375,-0.9873504638671875,-0.1212005615234375,-0.0861968994140625
1761838404266886000,3.838885986328125,-0.9882354736328125,-0.1202545166015625,-0.0878753662109375
1761838404276955100,3.848955078125,-0.9931640625,-0.1188812255859375,-0.08929443359375
1761838404287025000,3.85902490234375,-0.99273681640625,-0.1197967529296875,-0.09136962890625
1761838404297094100,3.86909423828125,-0.994903564453125,-0.1212615966796875,-0.093475341796875
1761838404307164000,3.879163818359375,-0.997589111328125,-0.1190948486328125,-0.0925750732421875
1761838404317233200,3.889233154296875,-0.9965057373046875,-0.1187896728515625,-0.090362548828125
1761838404327303000,3.899302978515625,-0.9938201904296875,-0.115631103515625,-0.087860107421875
1761838404337372200,3.9093720703125,-0.9925079345703125,-0.115814208984375,-0.0845794677734375
1761838404347442200,3.919442138671875,-0.9896392822265625,-0.1193389892578125,-0.0839691162109375
1761838404357511200,3.92951123046875,-0.98822021484375,-0.121337890625,-0.0855712890625
1761838404367581200,3.939581298828125,-0.984649658203125,-0.1225433349609375,-0.0879058837890625
1761838404377650000,3.94964990234375,-0.982086181640625,-0.1217498779296875,-0.090423583984375
1761838404387720200,3.95972021484375,-0.97900390625,-0.1207122802734375,-0.0928955078125
1761838404397789000,3.969788818359375,-0.97869873046875,-0.12030029296875,-0.095184326171875
1761838404407859200,3.979859130859375,-0.9829559326171875,-0.1222686767578125,-0.0973358154296875
1761838404417928000,3.989927978515625,-0.9857330322265625,-0.1219635009765625,-0.0980072021484375
1761838404427998000,3.999998046875,-0.9896392822265625,-0.12054443359375,-0.097076416015625
1761838404438067000,4.01006689453125,-0.990081787109375,-0.113525390625,-0.0990447998046875
1761838404448135200,4.02013525390625,-0.9906158447265625,-0.11187744140625,-0.0988311767578125
1761838404458204000,4.030203857421875,-0.9928436279296875,-0.1165618896484375,-0.09808349609375
1761838404468273200,4.040273193359375,-0.9944000244140625,-0.1166534423828125,-0.0964508056640625
1761838404478343000,4.050343017578125,-0.9932861328125,-0.11773681640625,-0.09344482421875
1761838404488413200,4.0604130859375,-0.9904937744140625,-0.1194915771484375,-0.090972900390625
1761838404498482000,4.07048193359375,-0.990478515625,-0.1214752197265625,-0.0884857177734375
1761838404508551200,4.08055126953125,-0.9871368408203125,-0.1260986328125,-0.0902252197265625
1761838404518621000,4.090620849609375,-0.9823760986328125,-0.1302642822265625,-0.092132568359375
1761838404528690200,4.100690185546875,-0.9823760986328125,-0.1333770751953125,-0.0897979736328125
1761838404538760000,4.110760009765625,-0.9835968017578125,-0.135406494140625,-0.088531494140625
1761838404548829200,4.1208291015625,-0.9858856201171875,-0.1331329345703125,-0.0846405029296875
1761838404558899000,4.13089892578125,-0.9901123046875,-0.1297760009765625,-0.0819244384765625
1761838404568968000,4.140968017578125,-0.99639892578125,-0.1285552978515625,-0.0805816650390625
1761838404579038200,4.1510380859375,-0.9998626708984375,-0.130218505859375,-0.0828399658203125
1761838404589107000,4.16110693359375,-1.001251220703125,-0.128204345703125,-0.0860748291015625
1761838404599177200,4.17117724609375,-0.9994049072265625,-0.12347412109375,-0.089141845703125
1761838404609246000,4.181245849609375,-0.996429443359375,-0.12322998046875,-0.0925445556640625
1761838404619316200,4.191316162109375,-0.994720458984375,-0.1254119873046875,-0.0947418212890625
1761838404629385000,4.201385009765625,-0.9951629638671875,-0.12567138671875,-0.0955047607421875
1761838404639455000,4.211455078125,-0.9896392822265625,-0.1251678466796875,-0.096221923828125
1761838404649524000,4.22152392578125,-0.989501953125,-0.1233673095703125,-0.0980224609375
1761838404659594000,4.231593994140625,-0.9857940673828125,-0.1237335205078125,-0.099334716796875
1761838404669663000,4.2416630859375,-0.9857025146484375,-0.1252899169921875,-0.0974273681640625
1761838404679733000,4.25173291015625,-0.9824066162109375,-0.126800537109375,-0.095550537109375
1761838404689802000,4.261802001953125,-0.979400634765625,-0.1291656494140625,-0.094757080078125
1761838404699872000,4.2718720703125,-0.978363037109375,-0.130950927734375,-0.09307861328125
1761838404709941200,4.281941162109375,-0.9730072021484375,-0.1284637451171875,-0.0906829833984375
1761838404720011000,4.292010986328125,-0.97198486328125,-0.128692626953125,-0.087127685546875
1761838404730080000,4.302080078125,-0.97198486328125,-0.132537841796875,-0.0853118896484375
1761838404740150000,4.31214990234375,-0.973388671875,-0.1342315673828125,-0.0808563232421875
1761838404750219000,4.322218994140625,-0.9798126220703125,-0.1365966796875,-0.07733154296875
1761838404760289000,4.3322890625,-0.9837188720703125,-0.134979248046875,-0.07562255859375
1761838404770358000,4.34235791015625,-0.987579345703125,-0.1316375732421875,-0.0761871337890625
1761838404780432000,4.352431884765625,-0.992462158203125,-0.135772705078125,-0.0839385986328125
1761838404790500900,4.3625009765625,-0.9955902099609375,-0.1437530517578125,-0.0901031494140625
1761838404800571000,4.37257080078125,-0.99798583984375,-0.142364501953125,-0.0945281982421875
1761838404810640000,4.382639892578125,-0.994781494140625,-0.1385040283203125,-0.0987548828125
1761838404820710000,4.3927099609375,-0.9922027587890625,-0.1363525390625,-0.099578857421875
1761838404830779000,4.40277880859375,-0.9892425537109375,-0.13482666015625,-0.096649169921875
1761838404840849000,4.412848876953125,-0.9908599853515625,-0.1380615234375,-0.0953826904296875
1761838404850918000,4.42291796875,-0.9868621826171875,-0.1416473388671875,-0.09661865234375
1761838404860988000,4.43298779296875,-0.98272705078125,-0.1437530517578125,-0.0950927734375
1761838404871057200,4.44305712890625,-0.979705810546875,-0.1439361572265625,-0.0941619873046875
1761838404881127000,4.453126953125,-0.9743499755859375,-0.1431427001953125,-0.0904541015625
1761838404891196000,4.46319580078125,-0.9749908447265625,-0.141387939453125,-0.085723876953125
1761838404901266000,4.473265869140625,-0.976959228515625,-0.1420135498046875,-0.0844268798828125
1761838404911335000,4.4833349609375,-0.97894287109375,-0.14208984375,-0.0837249755859375
1761838404921405000,4.493405029296875,-0.9832611083984375,-0.14093017578125,-0.082122802734375
1761838404931474000,4.503473876953125,-0.9884490966796875,-0.137298583984375,-0.08203125
1761838404941544000,4.5135439453125,-0.9913787841796875,-0.1348114013671875,-0.084747314453125
1761838404951613000,4.523613037109375,-0.9938201904296875,-0.13421630859375,-0.0845794677734375
1761838404961683000,4.533682861328125,-0.9978790283203125,-0.1355743408203125,-0.084869384765625
1761838404971752000,4.543751953125,-0.9938812255859375,-0.1367950439453125,-0.0872039794921875
1761838404981822000,4.553822021484375,-0.9910125732421875,-0.1379241943359375,-0.0868682861328125
1761838404991891000,4.563890869140625,-0.9887237548828125,-0.1352691650390625,-0.0845489501953125
1761838405001961000,4.5739609375,-0.9846954345703125,-0.13470458984375,-0.08685302734375
1761838405012030000,4.584030029296875,-0.9801177978515625,-0.136016845703125,-0.0897064208984375
1761838405022100000,4.594099853515625,-0.97943115234375,-0.1359405517578125,-0.091552734375
1761838405032169000,4.6041689453125,-0.9780120849609375,-0.13690185546875,-0.0929412841796875
1761838405042239000,4.614239013671875,-0.9700164794921875,-0.1342620849609375,-0.0982666015625
1761838405052308000,4.624307861328125,-0.9828643798828125,-0.134368896484375,-0.0917816162109375
1761838405062378000,4.6343779296875,-0.9810638427734375,-0.131378173828125,-0.0887603759765625
1761838405072448000,4.644447998046875,-0.9795989990234375,-0.1271209716796875,-0.0937652587890625
1761838405082517000,4.65451708984375,-0.983642578125,-0.127471923828125,-0.0963592529296875
1761838405092587000,4.6645869140625,-0.988006591796875,-0.127471923828125,-0.0952911376953125
1761838405102656000,4.674656005859375,-0.9922027587890625,-0.1249237060546875,-0.092559814453125
1761838405112726000,4.68472607421875,-0.99481201171875,-0.1253204345703125,-0.090545654296875
1761838405122794800,4.694794677734375,-0.998260498046875,-0.1277313232421875,-0.089080810546875
1761838405132865000,4.704864990234375,-0.9966888427734375,-0.13116455078125,-0.086822509765625
1761838405142933800,4.714933837890625,-1.0004425048828125,-0.1317138671875,-0.086151123046875
1761838405153004000,4.725004150390625,-1.00640869140625,-0.1304473876953125,-0.078399658203125
1761838405163072800,4.73507275390625,-0.99951171875,-0.1361083984375,-0.0809478759765625
1761838405173142800,4.745142822265625,-0.9976806640625,-0.137786865234375,-0.08367919921875
1761838405183211800,4.755211669921875,-0.99822998046875,-0.13909912109375,-0.0821685791015625
1761838405193281800,4.76528173828125,-0.998748779296875,-0.1373748779296875,-0.08050537109375
1761838405203351000,4.77535107421875,-0.9995880126953125,-0.135772705078125,-0.0820770263671875
1761838405213420800,4.7854208984375,-1.0024871826171875,-0.134429931640625,-0.08319091796875
1761838405223490000,4.795489990234375,-1.0056304931640625,-0.132568359375,-0.0881500244140625
1761838405233559800,4.805559814453125,-0.9945526123046875,-0.1233978271484375,-0.088226318359375
1761838405243629000,4.815629150390625,-0.9979400634765625,-0.1257781982421875,-0.084564208984375
1761838405253698800,4.82569873046875,-0.9954986572265625,-0.1261138916015625,-0.0837860107421875
1761838405263768000,4.83576806640625,-0.9879302978515625,-0.12353515625,-0.0860137939453125
1761838405273837800,4.845837890625,-0.9888458251953125,-0.1183319091796875,-0.0870819091796875
1761838405283906800,4.85590673828125,-0.995758056640625,-0.1154327392578125,-0.085784912109375
1761838405293977000,4.86597705078125,-1.000152587890625,-0.112274169921875,-0.091339111328125
1761838405304045800,4.8760458984375,-1.0016632080078125,-0.10711669921875,-0.0996246337890625
1761838405314116000,4.8861162109375,-0.9968719482421875,-0.10430908203125,-0.10589599609375
1761838405324184800,4.896184814453125,-0.9894256591796875,-0.1043243408203125,-0.109832763671875
1761838405334255000,4.906255126953125,-0.9813232421875,-0.1089630126953125,-0.110443115234375
1761838405344323800,4.91632373046875,-0.969696044921875,-0.1180877685546875,-0.1107025146484375
1761838405354393900,4.926393798828125,-0.9563446044921875,-0.123046875,-0.10772705078125
1761838405364462800,4.936462890625,-0.9502105712890625,-0.127197265625,-0.1008148193359375
1761838405374532900,4.946532958984375,-0.9464569091796875,-0.1285858154296875,-0.0943450927734375
1761838405384601900,4.956601806640625,-0.9476165771484375,-0.1279754638671875,-0.09088134765625
1761838405394671900,4.966671875,-0.9526824951171875,-0.1274261474609375,-0.088897705078125
1761838405404740900,4.976740966796875,-0.9610748291015625,-0.1273956298828125,-0.0884552001953125
1761838405414811000,4.986810791015625,-0.973114013671875,-0.1278076171875,-0.0908050537109375
1761838405424880000,4.996880126953125,-0.97894287109375,-0.12481689453125,-0.09381103515625
1761838405434950000,5.006949951171875,-0.9899139404296875,-0.1229095458984375,-0.0934600830078125
1761838405445019000,5.017018798828125,-0.9952545166015625,-0.1229705810546875,-0.09808349609375
1761838405455089000,5.0270888671875,-0.9979705810546875,-0.1218109130859375,-0.09906005859375
1761838405465158000,5.037157958984375,-1.003143310546875,-0.124786376953125,-0.099029541015625
1761838405475228000,5.047227783203125,-0.9996490478515625,-0.128936767578125,-0.098297119140625
1761838405485297000,5.057296875,-0.9999847412109375,-0.130523681640625,-0.095306396484375
1761838405495367000,5.067366943359375,-0.99957275390625,-0.1311492919921875,-0.09173583984375
1761838405505436000,5.077435791015625,-1,-0.1309967041015625,-0.0893707275390625
1761838405515506000,5.087505859375,-1.003082275390625,-0.1305084228515625,-0.0860137939453125
1761838405525575000,5.097574951171875,-1.006622314453125,-0.1293792724609375,-0.0830841064453125
1761838405535645000,5.10764501953125,-1.0102386474609375,-0.1266326904296875,-0.0800933837890625
1761838405545714000,5.1177138671875,-1.012664794921875,-0.123687744140625,-0.0798492431640625
1761838405555784000,5.127783935546875,-1.0084075927734375,-0.1218719482421875,-0.0840301513671875
1761838405565853000,5.13785302734375,-0.9974212646484375,-0.123779296875,-0.089630126953125
1761838405575923000,5.1479228515625,-0.99005126953125,-0.125946044921875,-0.0919189453125
1761838405585992000,5.157991943359375,-0.9825439453125,-0.129058837890625,-0.0941314697265625
1761838405596062000,5.16806201171875,-0.97552490234375,-0.127593994140625,-0.0942535400390625
1761838405606131000,5.178130859375,-0.9754791259765625,-0.12384033203125,-0.092681884765625
1761838405616201000,5.188200927734375,-0.9786224365234375,-0.11968994140625,-0.091827392578125
1761838405626269700,5.198269775390625,-0.9861907958984375,-0.117218017578125,-0.0920257568359375
1761838405636340000,5.208340087890625,-0.9960784912109375,-0.1134796142578125,-0.091461181640625
1761838405646409000,5.218408935546875,-1.003570556640625,-0.1140289306640625,-0.0923004150390625
1761838405656479000,5.22847900390625,-0.99945068359375,-0.1205291748046875,-0.097686767578125
1761838405666548000,5.2385478515625,-1.00787353515625,-0.1231536865234375,-0.0922698974609375
1761838405676618000,5.248617919921875,-1.0003204345703125,-0.120330810546875,-0.090576171875
1761838405686687000,5.25868701171875,-0.987548828125,-0.1191864013671875,-0.096710205078125
1761838405696756700,5.2687568359375,-0.9791717529296875,-0.1208343505859375,-0.1019134521484375
1761838405706826000,5.278825927734375,-0.9731292724609375,-0.12091064453125,-0.10418701171875
1761838405716895700,5.288895751953125,-0.9688873291015625,-0.122650146484375,-0.1034393310546875
1761838405726965000,5.298965087890625,-0.9680633544921875,-0.1226959228515625,-0.1011199951171875
1761838405737035000,5.309034912109375,-0.9675140380859375,-0.1199493408203125,-0.0973968505859375
1761838405747104800,5.319104736328125,-0.96905517578125,-0.1192779541015625,-0.0985260009765625
1761838405757174000,5.329174072265625,-0.97979736328125,-0.1156768798828125,-0.10687255859375
1761838405767243800,5.339243896484375,-0.9862060546875,-0.1132354736328125,-0.0929107666015625
1761838405777313500,5.3493134765625,-0.9911346435546875,-0.1140289306640625,-0.0923614501953125
1761838405787382300,5.35938232421875,-0.9901275634765625,-0.110443115234375,-0.0972137451171875
1761838405797452500,5.36945263671875,-0.9956512451171875,-0.11700439453125,-0.1010284423828125
1761838405807521300,5.379521240234375,-0.996337890625,-0.116851806640625,-0.103668212890625
1761838405817591600,5.389591552734375,-0.996917724609375,-0.1132354736328125,-0.1044158935546875
1761838405827661600,5.39966162109375,-0.9958953857421875,-0.1138153076171875,-0.1024627685546875
1761838405837730300,5.409730224609375,-0.9942474365234375,-0.11883544921875,-0.10211181640625
1761838405847800600,5.419800537109375,-0.9945220947265625,-0.1194610595703125,-0.097686767578125
1761838405857869300,5.429869384765625,-0.998138427734375,-0.121490478515625,-0.091644287109375
1761838405867939600,5.439939697265625,-0.994964599609375,-0.120880126953125,-0.0888671875
1761838405878008300,5.45000830078125,-0.9924774169921875,-0.12054443359375,-0.08892822265625
1761838405888078300,5.460078369140625,-0.990020751953125,-0.12615966796875,-0.0921478271484375
1761838405898147300,5.470147216796875,-0.9876708984375,-0.1305999755859375,-0.0956268310546875
1761838405908217300,5.48021728515625,-0.9848480224609375,-0.1316986083984375,-0.0985260009765625
1761838405918286300,5.490286376953125,-0.9837188720703125,-0.1302337646484375,-0.0974273681640625
1761838405928356400,5.5003564453125,-0.980499267578125,-0.1281280517578125,-0.0972137451171875
1761838405938425300,5.51042529296875,-0.97967529296875,-0.12506103515625,-0.093841552734375
1761838405948495400,5.520495361328125,-0.98046875,-0.1236572265625,-0.091522216796875
1761838405958564600,5.530564697265625,-0.979949951171875,-0.124786376953125,-0.091705322265625
1761838405968634400,5.54063427734375,-0.981689453125,-0.126953125,-0.0924224853515625
1761838405978703600,5.55070361328125,-0.984466552734375,-0.1261444091796875,-0.0918426513671875
1761838405988773400,5.5607734375,-0.99066162109375,-0.12530517578125,-0.0893402099609375
1761838405998842400,5.57084228515625,-0.9939727783203125,-0.1232147216796875,-0.0890655517578125
1761838406008912400,5.580912353515625,-0.9954833984375,-0.120330810546875,-0.0893402099609375
1761838406018981400,5.5909814453125,-0.997039794921875,-0.1190948486328125,-0.0900115966796875
1761838406029051400,5.601051513671875,-0.9972381591796875,-0.118865966796875,-0.092041015625
1761838406039120400,5.611120361328125,-0.99566650390625,-0.118682861328125,-0.0961761474609375
1761838406049190400,5.6211904296875,-0.99493408203125,-0.12042236328125,-0.0994720458984375
1761838406059259400,5.63125927734375,-0.992919921875,-0.1224517822265625,-0.098388671875
1761838406069329400,5.641329345703125,-0.988037109375,-0.1227264404296875,-0.097137451171875
1761838406079398400,5.6513984375,-0.980865478515625,-0.123138427734375,-0.093719482421875
1761838406089468400,5.661468505859375,-0.9816131591796875,-0.123748779296875,-0.0904388427734375
1761838406099537400,5.671537353515625,-0.9821624755859375,-0.1255035400390625,-0.0856475830078125
1761838406109607400,5.681607421875,-0.98321533203125,-0.1244659423828125,-0.0820159912109375
1761838406119676400,5.691676513671875,-0.9852142333984375,-0.1269073486328125,-0.0811004638671875
1761838406129746400,5.701746337890625,-0.9876861572265625,-0.1263580322265625,-0.0833740234375
1761838406139815400,5.7118154296875,-0.988128662109375,-0.121826171875,-0.0848541259765625
1761838406149885400,5.721885498046875,-0.9893951416015625,-0.1218109130859375,-0.086761474609375
1761838406159954400,5.731954345703125,-0.9931182861328125,-0.1239166259765625,-0.0881805419921875
1761838406170024400,5.7420244140625,-0.9939117431640625,-0.1233367919921875,-0.089019775390625
1761838406180093400,5.752093505859375,-0.9916229248046875,-0.119781494140625,-0.0910186767578125
1761838406190163500,5.76216357421875,-0.9892730712890625,-0.1194305419921875,-0.09454345703125
1761838406200232400,5.772232421875,-0.9864959716796875,-0.121734619140625,-0.0967559814453125
1761838406210302500,5.782302490234375,-0.9850311279296875,-0.12213134765625,-0.0966339111328125
1761838406220371500,5.792371337890625,-0.985443115234375,-0.1222686767578125,-0.0955963134765625
1761838406230441200,5.802441162109375,-0.984893798828125,-0.123291015625,-0.0942230224609375
1761838406240510500,5.812510498046875,-0.985260009765625,-0.1221160888671875,-0.0927734375
1761838406250580200,5.822580322265625,-0.988128662109375,-0.1182403564453125,-0.0901336669921875
1761838406260649500,5.8326494140625,-0.990631103515625,-0.116607666015625,-0.0896148681640625
1761838406270719500,5.842719482421875,-0.9912872314453125,-0.117919921875,-0.0921630859375
1761838406280788500,5.85278857421875,-0.9932403564453125,-0.118927001953125,-0.092742919921875
1761838406290858500,5.8628583984375,-0.995147705078125,-0.1203765869140625,-0.09295654296875
1761838406300927500,5.872927490234375,-0.9963531494140625,-0.1180877685546875,-0.09051513671875
1761838406310997500,5.88299755859375,-0.9935150146484375,-0.1163177490234375,-0.0924530029296875
1761838406321066500,5.89306640625,-0.991485595703125,-0.1181182861328125,-0.092926025390625
1761838406331136500,5.903136474609375,-0.9932403564453125,-0.1221466064453125,-0.093048095703125
1761838406341205200,5.913205322265625,-0.991912841796875,-0.122802734375,-0.090484619140625
1761838406351275500,5.923275634765625,-0.992462158203125,-0.1228790283203125,-0.0895538330078125
1761838406361344300,5.93334423828125,-0.9927215576171875,-0.1205902099609375,-0.0908355712890625
1761838406371414500,5.94341455078125,-0.9882354736328125,-0.11688232421875,-0.09222412109375
1761838406381483300,5.953483154296875,-0.98577880859375,-0.1146392822265625,-0.09405517578125
1761838406391553300,5.96355322265625,-0.9863128662109375,-0.1185760498046875,-0.0953521728515625
1761838406401622500,5.97362255859375,-0.985137939453125,-0.1202392578125,-0.0944366455078125
1761838406411692300,5.9836923828125,-0.985137939453125,-0.1208953857421875,-0.0938873291015625
1761838406421761500,5.993761474609375,-0.9876556396484375,-0.1216583251953125,-0.0926513671875
1761838406431831300,6.003831298828125,-0.9888763427734375,-0.120452880859375,-0.0925140380859375
1761838406441900500,6.013900634765625,-0.9881439208984375,-0.1200714111328125,-0.09478759765625
1761838406451970300,6.02397021484375,-0.9897308349609375,-0.11700439453125,-0.0950775146484375
1761838406462039600,6.03403955078125,-0.9901885986328125,-0.1174774169921875,-0.092041015625
1761838406472109300,6.044109375,-0.989898681640625,-0.12042236328125,-0.0925140380859375
1761838406482178600,6.054178466796875,-0.988006591796875,-0.1234130859375,-0.092071533203125
1761838406492248600,6.06424853515625,-0.984771728515625,-0.12738037109375,-0.08953857421875
1761838406502317300,6.0743173828125,-0.98248291015625,-0.1263885498046875,-0.0884857177734375
1761838406512387600,6.0843876953125,-0.9798736572265625,-0.12689208984375,-0.089630126953125
1761838406522456300,6.094456298828125,-0.9811859130859375,-0.1255950927734375,-0.0880889892578125
1761838406532526600,6.104526611328125,-0.983673095703125,-0.122344970703125,-0.08636474609375
1761838406542595300,6.11459521484375,-0.9862518310546875,-0.12109375,-0.0860595703125
1761838406552665600,6.12466552734375,-0.988372802734375,-0.1202850341796875,-0.087310791015625
1761838406562734300,6.134734375,-0.989715576171875,-0.1177215576171875,-0.088134765625
1761838406572804400,6.144804443359375,-0.987823486328125,-0.11798095703125,-0.0919952392578125
1761838406582873300,6.154873291015625,-0.985504150390625,-0.119964599609375,-0.098480224609375
1761838406592943400,6.164943359375,-0.98388671875,-0.1222686767578125,-0.1010894775390625
1761838406603012400,6.175012451171875,-0.985076904296875,-0.1224822998046875,-0.0973663330078125
1761838406613082400,6.185082275390625,-0.9854736328125,-0.1225738525390625,-0.0959930419921875
1761838406623151400,6.1951513671875,-0.9883880615234375,-0.1238250732421875,-0.09417724609375
1761838406633221400,6.205221435546875,-0.992095947265625,-0.1236724853515625,-0.0895843505859375
1761838406643290600,6.21529052734375,-0.9947052001953125,-0.12103271484375,-0.086181640625
1761838406653360400,6.2253603515625,-0.9974212646484375,-0.1200103759765625,-0.0849609375
1761838406663429400,6.235429443359375,-0.9990386962890625,-0.120147705078125,-0.08489990234375
1761838406673499400,6.24549951171875,-0.997039794921875,-0.123748779296875,-0.087310791015625
1761838406683568400,6.255568359375,-0.994781494140625,-0.1252288818359375,-0.090301513671875
1761838406693638400,6.265638427734375,-0.9928436279296875,-0.12322998046875,-0.0917510986328125
1761838406703707400,6.275707275390625,-0.9896392822265625,-0.1235809326171875,-0.0908966064453125
1761838406713777400,6.28577734375,-0.988739013671875,-0.12506103515625,-0.0895843505859375
1761838406723846400,6.295846435546875,-0.98992919921875,-0.1237335205078125,-0.0857391357421875
1761838406733916400,6.30591650390625,-0.9887847900390625,-0.1233673095703125,-0.08544921875
1761838406743985400,6.3159853515625,-0.9866180419921875,-0.124908447265625,-0.0848236083984375
1761838406754055400,6.326055419921875,-0.9868621826171875,-0.12518310546875,-0.0841827392578125
1761838406764124400,6.33612451171875,-0.9878692626953125,-0.124969482421875,-0.0845184326171875
1761838406774190600,6.346190673828125,-0.9881439208984375,-0.1239776611328125,-0.087738037109375
1761838406784259600,6.356259521484375,-0.992218017578125,-0.1214447021484375,-0.0872955322265625
1761838406794329600,6.36632958984375,-0.994049072265625,-0.1203460693359375,-0.0889129638671875
1761838406804398800,6.37639892578125,-0.994049072265625,-0.1219940185546875,-0.09149169921875
1761838406814468600,6.386468505859375,-0.993408203125,-0.121490478515625,-0.092254638671875
1761838406824537900,6.396537841796875,-0.988128662109375,-0.1220245361328125,-0.0944671630859375
1761838406834607600,6.406607666015625,-0.984283447265625,-0.12261962890625,-0.0939788818359375
1761838406844676600,6.416676513671875,-0.985626220703125,-0.122161865234375,-0.0908966064453125
1761838406854746600,6.42674658203125,-0.9868316650390625,-0.1237030029296875,-0.090362548828125
1761838406864815600,6.436815673828125,-0.9891510009765625,-0.125091552734375,-0.091278076171875
1761838406874885600,6.4468857421875,-0.9898529052734375,-0.126251220703125,-0.0919189453125
1761838406884955600,6.45695556640625,-0.9909210205078125,-0.1255035400390625,-0.0916900634765625
1761838406895025000,6.46702490234375,-0.9907989501953125,-0.124359130859375,-0.0909271240234375
1761838406905093600,6.47709375,-0.9921112060546875,-0.1261749267578125,-0.0919952392578125
1761838406915163600,6.48716357421875,-0.99066162109375,-0.1263885498046875,-0.0917510986328125
1761838406925233700,6.497233642578125,-0.9892120361328125,-0.127288818359375,-0.0901336669921875
1761838406935302700,6.507302734375,-0.990509033203125,-0.1276397705078125,-0.0882720947265625
1761838406945372700,6.51737255859375,-0.98858642578125,-0.1280059814453125,-0.0896148681640625
1761838406955441700,6.527441650390625,-0.986907958984375,-0.1283721923828125,-0.0919647216796875
1761838406965511700,6.53751171875,-0.9860992431640625,-0.1319580078125,-0.0920257568359375
1761838406975580700,6.54758056640625,-0.98583984375,-0.132720947265625,-0.0912322998046875
1761838406985650700,6.557650634765625,-0.98895263671875,-0.130645751953125,-0.0901031494140625
1761838406995719700,6.5677197265625,-0.99078369140625,-0.12713623046875,-0.0887451171875
1761838407005789700,6.577789794921875,-0.989715576171875,-0.12347412109375,-0.0908203125
1761838407015858700,6.587858642578125,-0.990447998046875,-0.123077392578125,-0.0903167724609375
1761838407025928700,6.5979287109375,-0.9874725341796875,-0.126434326171875,-0.09271240234375
1761838407035997700,6.607997802734375,-0.9851837158203125,-0.12823486328125,-0.0938873291015625
1761838407046067700,6.618067626953125,-0.9829864501953125,-0.1297607421875,-0.0928497314453125
1761838407056136700,6.62813671875,-0.9801025390625,-0.1298065185546875,-0.0923309326171875
1761838407066206700,6.638206787109375,-0.980224609375,-0.1298828125,-0.093505859375
1761838407076275700,6.648275634765625,-0.981475830078125,-0.12762451171875,-0.09466552734375
1761838407086345700,6.658345703125,-0.9842681884765625,-0.127593994140625,-0.0953521728515625
1761838407096414500,6.66841455078125,-0.986480712890625,-0.1264495849609375,-0.096527099609375
1761838407106484700,6.678484619140625,-0.990966796875,-0.126373291015625,-0.096923828125
1761838407116553700,6.6885537109375,-0.990936279296875,-0.1263427734375,-0.096771240234375
1761838407126623700,6.698623779296875,-0.9907989501953125,-0.1257476806640625,-0.0977783203125
1761838407136692700,6.708692626953125,-0.9905242919921875,-0.12493896484375,-0.09661865234375
1761838407146762500,6.718762451171875,-0.989654541015625,-0.1263427734375,-0.09539794921875
1761838407156831700,6.728831787109375,-0.9885101318359375,-0.124359130859375,-0.09490966796875
1761838407166901500,6.738901611328125,-0.98876953125,-0.125823974609375,-0.0951995849609375
1761838407176970800,6.748970703125,-0.99066162109375,-0.125885009765625,-0.0950775146484375
1761838407187040500,6.75904052734375,-0.989471435546875,-0.122314453125,-0.095550537109375
1761838407197109800,6.76910986328125,-0.9863433837890625,-0.1198883056640625,-0.0956878662109375
1761838407207179800,6.7791796875,-0.982208251953125,-0.1202850341796875,-0.095733642578125
1761838407217248800,6.789248779296875,-0.9801483154296875,-0.119293212890625,-0.0973968505859375
1761838407227318800,6.79931884765625,-0.97808837890625,-0.120208740234375,-0.0975341796875
1761838407237387800,6.8093876953125,-0.9786529541015625,-0.124481201171875,-0.0978546142578125
1761838407247457800,6.819457763671875,-0.978668212890625,-0.1275634765625,-0.0982818603515625
1761838407257526500,6.829526611328125,-0.980743408203125,-0.127471923828125,-0.096710205078125
1761838407267596800,6.8395966796875,-0.9835205078125,-0.127044677734375,-0.09564208984375
1761838407277665500,6.84966552734375,-0.988006591796875,-0.125701904296875,-0.094757080078125
1761838407287735800,6.85973583984375,-0.9876251220703125,-0.123199462890625,-0.096405029296875
1761838407297804500,6.869804443359375,-0.9875030517578125,-0.119873046875,-0.097015380859375
1761838407307874600,6.87987451171875,-0.9874114990234375,-0.12005615234375,-0.0969696044921875
1761838407317943600,6.889943603515625,-0.988616943359375,-0.1175079345703125,-0.0975799560546875
1761838407328013600,6.900013671875,-0.990478515625,-0.119049072265625,-0.0989837646484375
1761838407338082600,6.91008251953125,-0.992706298828125,-0.12017822265625,-0.097381591796875
1761838407348152600,6.920152587890625,-0.995574951171875,-0.1178131103515625,-0.0970458984375
1761838407358221800,6.930221923828125,-0.9970703125,-0.1199798583984375,-0.0961761474609375
1761838407368291600,6.94029150390625,-0.996429443359375,-0.122772216796875,-0.0968017578125
1761838407378360800,6.95036083984375,-0.9963226318359375,-0.123870849609375,-0.096588134765625
1761838407388430600,6.9604306640625,-0.994903564453125,-0.12646484375,-0.096771240234375
1761838407398499800,6.970499755859375,-0.9909820556640625,-0.1263427734375,-0.09521484375
1761838407408569600,6.980569580078125,-0.99072265625,-0.1259307861328125,-0.0954742431640625
1761838407418638600,6.990638671875,-0.9874420166015625,-0.12335205078125,-0.0945587158203125
1761838407428708600,7.00070849609375,-0.9885101318359375,-0.1223602294921875,-0.093719482421875
1761838407438777600,7.010777587890625,-0.9912567138671875,-0.1224365234375,-0.0902252197265625
1761838407448848000,7.020847900390625,-0.986236572265625,-0.1199798583984375,-0.092041015625
1761838407458916600,7.03091650390625,-0.9849853515625,-0.120941162109375,-0.09521484375
1761838407468986600,7.040986572265625,-0.984893798828125,-0.1217803955078125,-0.0974578857421875
1761838407479055600,7.0510556640625,-0.9847412109375,-0.122222900390625,-0.0983734130859375
1761838407489125600,7.061125732421875,-0.98406982421875,-0.1184539794921875,-0.09820556640625
1761838407499194600,7.071194580078125,-0.985443115234375,-0.1172332763671875,-0.10040283203125
1761838407509264600,7.0812646484375,-0.98529052734375,-0.114990234375,-0.10174560546875
1761838407519333600,7.091333740234375,-0.9871826171875,-0.11419677734375,-0.104034423828125
1761838407529403600,7.101403564453125,-0.9897308349609375,-0.1163330078125,-0.1036834716796875
1761838407539472600,7.11147265625,-0.9916534423828125,-0.115814208984375,-0.10235595703125
1761838407549542700,7.121542724609375,-0.990264892578125,-0.1167144775390625,-0.101165771484375
1761838407559611600,7.131611572265625,-0.992645263671875,-0.1197967529296875,-0.1017608642578125
1761838407569681700,7.141681640625,-0.990509033203125,-0.12200927734375,-0.101715087890625
1761838407579750700,7.151750732421875,-0.989959716796875,-0.123565673828125,-0.1009521484375
1761838407589820700,7.161820556640625,-0.991302490234375,-0.123046875,-0.0977630615234375
1761838407599889700,7.1718896484375,-0.98931884765625,-0.1212158203125,-0.09576416015625
1761838407609959700,7.181959716796875,-0.98712158203125,-0.1208038330078125,-0.0963134765625
1761838407620028700,7.192028564453125,-0.98699951171875,-0.1231231689453125,-0.0972900390625
1761838407630098700,7.2020986328125,-0.98651123046875,-0.124969482421875,-0.09637451171875
1761838407640168700,7.212168701171875,-0.985504150390625,-0.125732421875,-0.0949859619140625
1761838407650237400,7.222237548828125,-0.986175537109375,-0.1252593994140625,-0.0937042236328125
1761838407660307700,7.2323076171875,-0.9851837158203125,-0.1225433349609375,-0.094390869140625
1761838407670376700,7.242376708984375,-0.9835662841796875,-0.12030029296875,-0.0949554443359375
1761838407680446700,7.25244677734375,-0.9845123291015625,-0.1206207275390625,-0.0971221923828125
1761838407690515700,7.262515625,-0.98516845703125,-0.12225341796875,-0.0979461669921875
1761838407700585700,7.272585693359375,-0.983978271484375,-0.1236724853515625,-0.0965576171875
1761838407710654700,7.28265478515625,-0.987274169921875,-0.1242828369140625,-0.095703125
1761838407720724500,7.292724365234375,-0.991424560546875,-0.1226959228515625,-0.0965118408203125
1761838407730793700,7.302793701171875,-0.9931182861328125,-0.1226806640625,-0.098114013671875
1761838407740863500,7.312863525390625,-0.9916839599609375,-0.1202239990234375,-0.0999755859375
1761838407750932700,7.3229326171875,-0.988555908203125,-0.1204681396484375,-0.099029541015625
1761838407761002800,7.333002685546875,-0.9882354736328125,-0.121429443359375,-0.09613037109375
1761838407771071700,7.34307177734375,-0.9876861572265625,-0.122955322265625,-0.092620849609375
1761838407781141500,7.3531416015625,-0.986419677734375,-0.123748779296875,-0.092529296875
1761838407791210800,7.363210693359375,-0.9879608154296875,-0.124420166015625,-0.0926055908203125
1761838407801280500,7.373280517578125,-0.9910125732421875,-0.1246185302734375,-0.0909271240234375
1761838407811349500,7.383349609375,-0.9930419921875,-0.123779296875,-0.0879974365234375
1761838407821419500,7.39341943359375,-0.9932403564453125,-0.125152587890625,-0.0878448486328125
1761838407831488500,7.403488525390625,-0.9920501708984375,-0.1250457763671875,-0.09112548828125
1761838407841558500,7.41355859375,-0.9901885986328125,-0.1238861083984375,-0.0967559814453125
1761838407851627500,7.42362744140625,-0.9882049560546875,-0.1219024658203125,-0.0992279052734375
1761838407861697500,7.433697509765625,-0.9845428466796875,-0.12091064453125,-0.1009521484375
1761838407871766500,7.4437666015625,-0.9824676513671875,-0.12255859375,-0.1006011962890625
1761838407881836500,7.45383642578125,-0.98260498046875,-0.1242523193359375,-0.0965576171875
1761838407891905500,7.463905517578125,-0.981353759765625,-0.1231231689453125,-0.0932464599609375
1761838407901975600,7.4739755859375,-0.9839324951171875,-0.12152099609375,-0.090728759765625
1761838407912044500,7.48404443359375,-0.9885101318359375,-0.119659423828125,-0.0914459228515625
1761838407922114600,7.494114501953125,-0.9916534423828125,-0.1182403564453125,-0.09454345703125
1761838407932183600,7.50418359375,-0.9954681396484375,-0.1174163818359375,-0.097015380859375
1761838407942253600,7.514253662109375,-0.9993133544921875,-0.1164398193359375,-0.0975341796875
1761838407952322600,7.524322509765625,-1.0009765625,-0.1178131103515625,-0.0980224609375
1761838407962392600,7.534392578125,-0.9976654052734375,-0.121612548828125,-0.1006927490234375
1761838407972461600,7.544461669921875,-0.9911346435546875,-0.1222076416015625,-0.1029205322265625
1761838407982531600,7.554531494140625,-0.985626220703125,-0.12451171875,-0.1011962890625
1761838407992600300,7.564600341796875,-0.9811859130859375,-0.1263275146484375,-0.0951995849609375
1761838408002670600,7.574670654296875,-0.9793243408203125,-0.1260528564453125,-0.0911712646484375
1761838408012739600,7.584739501953125,-0.9796600341796875,-0.12615966796875,-0.0890655517578125
1761838408022809600,7.5948095703125,-0.9807586669921875,-0.1249237060546875,-0.0852813720703125
1761838408032878600,7.604878662109375,-0.98675537109375,-0.1222991943359375,-0.0855865478515625
1761838408042948600,7.614948486328125,-0.98858642578125,-0.1228179931640625,-0.0892486572265625
1761838408053017600,7.625017578125,-0.990478515625,-0.1231231689453125,-0.09271240234375
1761838408063087400,7.63508740234375,-0.993896484375,-0.12261962890625,-0.0944671630859375
1761838408073156600,7.645156494140625,-0.9950408935546875,-0.1205596923828125,-0.09326171875
1761838408083226400,7.655226318359375,-0.9964752197265625,-0.1201171875,-0.094451904296875
1761838408093295600,7.665295654296875,-0.9951629638671875,-0.1217193603515625,-0.0986785888671875
1761838408103365600,7.67536572265625,-0.992523193359375,-0.1216278076171875,-0.1008453369140625
1761838408113434600,7.6854345703125,-0.9886016845703125,-0.121978759765625,-0.1014862060546875
1761838408123504600,7.695504638671875,-0.9879150390625,-0.1208648681640625,-0.099945068359375
1761838408133573600,7.70557373046875,-0.98504638671875,-0.12054443359375,-0.097900390625
1761838408143643600,7.7156435546875,-0.9836578369140625,-0.123260498046875,-0.0963287353515625
1761838408153712400,7.72571240234375,-0.9833221435546875,-0.12567138671875,-0.0953369140625
1761838408163782700,7.73578271484375,-0.983367919921875,-0.124786376953125,-0.0936431884765625
1761838408173851400,7.745851318359375,-0.98406982421875,-0.124542236328125,-0.091827392578125
1761838408183921700,7.755921630859375,-0.9840087890625,-0.1239166259765625,-0.090545654296875
1761838408193990400,7.765990478515625,-0.9849090576171875,-0.12213134765625,-0.091217041015625
1761838408204060700,7.776060791015625,-0.991943359375,-0.123199462890625,-0.091339111328125
1761838408214130700,7.786130615234375,-0.9869842529296875,-0.122802734375,-0.092254638671875
1761838408224199400,7.796199462890625,-0.990753173828125,-0.1232147216796875,-0.09429931640625
1761838408234269700,7.806269775390625,-0.989471435546875,-0.123992919921875,-0.094024658203125
1761838408244338400,7.81633837890625,-0.98895263671875,-0.1216278076171875,-0.094757080078125
1761838408254408700,7.82640869140625,-0.9861907958984375,-0.1205291748046875,-0.0966796875
1761838408264477400,7.8364775390625,-0.98492431640625,-0.122589111328125,-0.09881591796875
1761838408274547500,7.84654736328125,-0.986419677734375,-0.1238555908203125,-0.097412109375
1761838408284616400,7.856616455078125,-0.9893341064453125,-0.12530517578125,-0.094573974609375
1761838408294686500,7.8666865234375,-0.99127197265625,-0.125152587890625,-0.094482421875
1761838408304755500,7.87675537109375,-0.992767333984375,-0.1216583251953125,-0.09478759765625
1761838408314825500,7.886825439453125,-0.992889404296875,-0.1186065673828125,-0.0956268310546875
1761838408324894500,7.89689453125,-0.992919921875,-0.1199493408203125,-0.097015380859375
1761838408334964500,7.906964599609375,-0.99139404296875,-0.1203155517578125,-0.0985565185546875
1761838408345033700,7.91703369140625,-0.9891204833984375,-0.1224517822265625,-0.09783935546875
1761838408355103500,7.927103515625,-0.991851806640625,-0.123565673828125,-0.0947418212890625
1761838408365172700,7.9371728515625,-0.9923553466796875,-0.122344970703125,-0.09259033203125
1761838408375242500,7.947242431640625,-0.98846435546875,-0.1256866455078125,-0.0943756103515625
1761838408385311500,7.9573115234375,-0.9877166748046875,-0.1251220703125,-0.09625244140625
1761838408395381500,7.967381591796875,-0.98675537109375,-0.1252288818359375,-0.09552001953125
1761838408405450500,7.977450439453125,-0.983795166015625,-0.127471923828125,-0.0960540771484375
1761838408415520500,7.9875205078125,-0.9804229736328125,-0.1293792724609375,-0.0975189208984375
1761838408425589500,7.997589599609375,-0.97882080078125,-0.1322174072265625,-0.097015380859375
1761838408435659500,8.007659423828125,-0.980194091796875,-0.132659912109375,-0.0945892333984375
1761838408445727500,8.0177275390625,-0.98590087890625,-0.131011962890625,-0.0930023193359375
1761838408455797500,8.027797607421874,-0.9839935302734375,-0.134735107421875,-0.0908966064453125
1761838408465867500,8.037867431640626,-0.9847869873046875,-0.1332244873046875,-0.0880584716796875
1761838408475936800,8.047936767578125,-0.9846649169921875,-0.1319122314453125,-0.0846405029296875
1761838408486006500,8.058006591796875,-0.985687255859375,-0.1311798095703125,-0.0829010009765625
1761838408496075500,8.068075439453125,-0.9883270263671875,-0.1296234130859375,-0.0847320556640625
1761838408506145500,8.0781455078125,-0.9888458251953125,-0.126953125,-0.0883941650390625
1761838408516214500,8.088214599609374,-0.98956298828125,-0.1245574951171875,-0.090667724609375
1761838408526284500,8.098284423828124,-0.98834228515625,-0.1258697509765625,-0.0930633544921875
1761838408536353500,8.108353515625,-0.986083984375,-0.1270751953125,-0.0961151123046875
1761838408546423600,8.118423583984375,-0.986175537109375,-0.128143310546875,-0.0996246337890625
1761838408556492500,8.128492431640625,-0.9860687255859375,-0.128143310546875,-0.1008758544921875
1761838408566562600,8.1385625,-0.9849090576171875,-0.1295318603515625,-0.1013946533203125
1761838408576631600,8.148631591796875,-0.989410400390625,-0.1290283203125,-0.1004791259765625
1761838408586701600,8.15870166015625,-0.9847869873046875,-0.1283111572265625,-0.09771728515625
1761838408596770600,8.1687705078125,-0.9889068603515625,-0.12945556640625,-0.09320068359375
1761838408606840600,8.178840576171876,-0.9883575439453125,-0.1308441162109375,-0.089813232421875
1761838408616909600,8.18890966796875,-0.9893646240234375,-0.1291656494140625,-0.0844879150390625
1761838408626979600,8.1989794921875,-0.9929962158203125,-0.1315460205078125,-0.0785064697265625
1761838408637048600,8.209048583984375,-0.9927520751953125,-0.1313934326171875,-0.0773773193359375
1761838408647118600,8.21911865234375,-0.991485595703125,-0.1293792724609375,-0.077423095703125
1761838408657187600,8.2291875,-0.9907989501953125,-0.12921142578125,-0.0807342529296875
1761838408667257600,8.239257568359376,-0.991119384765625,-0.12957763671875,-0.0857086181640625
1761838408677326300,8.249326416015625,-0.990692138671875,-0.1269378662109375,-0.0879058837890625
1761838408687396600,8.259396728515625,-0.9916534423828125,-0.1260223388671875,-0.093963623046875
1761838408697465600,8.269465576171875,-0.9919891357421875,-0.1246490478515625,-0.09783935546875
1761838408707535600,8.27953564453125,-0.9950103759765625,-0.1237640380859375,-0.0944671630859375
1761838408717604600,8.2896044921875,-0.995452880859375,-0.1136474609375,-0.0955657958984375
1761838408727674400,8.29967431640625,-0.9938812255859375,-0.1231842041015625,-0.1000823974609375
1761838408737743600,8.30974365234375,-0.9919281005859375,-0.1233978271484375,-0.1025238037109375
1761838408747813400,8.3198134765625,-0.9897613525390625,-0.122467041015625,-0.098175048828125
1761838408757882600,8.329882568359375,-0.9879608154296875,-0.1221923828125,-0.0932769775390625
1761838408767952400,8.339952392578125,-0.98876953125,-0.1258087158203125,-0.0927276611328125
1761838408778021600,8.350021728515625,-0.9874725341796875,-0.1297149658203125,-0.090362548828125
1761838408788091600,8.360091552734374,-0.9909515380859375,-0.1262969970703125,-0.08563232421875
1761838408798160600,8.37016064453125,-0.9924163818359375,-0.1248016357421875,-0.0831298828125
1761838408808230700,8.380230712890626,-0.99334716796875,-0.126373291015625,-0.0860137939453125
1761838408818299600,8.390299560546875,-0.9925994873046875,-0.1276397705078125,-0.089202880859375
1761838408828369700,8.40036962890625,-0.9873809814453125,-0.1277923583984375,-0.0914306640625
1761838408838438400,8.4104384765625,-0.984039306640625,-0.1298980712890625,-0.089813232421875
1761838408848508700,8.4205087890625,-0.9828033447265625,-0.1338653564453125,-0.0880584716796875
1761838408858577400,8.430577392578124,-0.9820098876953125,-0.1339111328125,-0.087066650390625
1761838408868647700,8.440647705078124,-0.9836273193359375,-0.1320037841796875,-0.0876617431640625
1761838408878716400,8.45071630859375,-0.9822540283203125,-0.127960205078125,-0.09002685546875
1761838408888786400,8.460786376953125,-0.9835662841796875,-0.1267547607421875,-0.093048095703125
1761838408898855400,8.47085546875,-0.981536865234375,-0.128662109375,-0.09423828125
1761838408908925400,8.480925537109375,-0.981719970703125,-0.129730224609375,-0.093505859375
1761838408918994400,8.490994384765624,-0.9838104248046875,-0.131622314453125,-0.0907135009765625
1761838408929064400,8.501064453125,-0.9878387451171875,-0.131134033203125,-0.0916748046875
1761838408939133700,8.5111337890625,-0.9909210205078125,-0.129547119140625,-0.0937652587890625
1761838408949203500,8.521203369140625,-0.9924468994140625,-0.127166748046875,-0.09613037109375
1761838408959272700,8.531272705078125,-0.9960479736328125,-0.126617431640625,-0.0960693359375
1761838408969342500,8.541342529296875,-0.9969940185546875,-0.1265106201171875,-0.095611572265625
1761838408979411700,8.55141162109375,-0.9957275390625,-0.12750244140625,-0.0948638916015625
1761838408989481500,8.5614814453125,-0.995361328125,-0.129180908203125,-0.0904541015625
1761838408999551500,8.571551513671874,-0.994293212890625,-0.131195068359375,-0.088592529296875
1761838409009620500,8.581620361328126,-0.9915771484375,-0.1326751708984375,-0.0892181396484375
1761838409019690500,8.5916904296875,-0.9879608154296875,-0.134185791015625,-0.0889434814453125
1761838409029759700,8.601759765625,-0.9836883544921875,-0.13604736328125,-0.0879974365234375
1761838409039829500,8.61182958984375,-0.9798126220703125,-0.138885498046875,-0.088104248046875
1761838409049898800,8.621898681640625,-0.97772216796875,-0.14007568359375,-0.086669921875
1761838409059968500,8.631968505859374,-0.976165771484375,-0.139617919921875,-0.085357666015625
1761838409070039600,8.64203955078125,-0.97735595703125,-0.137237548828125,-0.0831756591796875
1761838409080109600,8.652109619140624,-0.9817657470703125,-0.135162353515625,-0.0819854736328125
1761838409090178600,8.662178466796876,-0.986602783203125,-0.13348388671875,-0.08148193359375
1761838409100248600,8.67224853515625,-0.99066162109375,-0.133331298828125,-0.083740234375
1761838409110317600,8.682317626953125,-0.9928436279296875,-0.1314849853515625,-0.0856170654296875
1761838409120387600,8.6923876953125,-0.9942474365234375,-0.13226318359375,-0.08831787109375
1761838409130456300,8.702456298828125,-0.994293212890625,-0.133056640625,-0.0905914306640625
1761838409140526600,8.712526611328125,-0.992401123046875,-0.1343994140625,-0.0905303955078125
1761838409150595300,8.72259521484375,-0.987762451171875,-0.1356048583984375,-0.092254638671875
1761838409160665600,8.73266552734375,-0.983306884765625,-0.13336181640625,-0.095062255859375
1761838409170734600,8.742734619140625,-0.9816436767578125,-0.131072998046875,-0.09619140625
1761838409180804600,8.7528046875,-0.9804840087890625,-0.1312408447265625,-0.094268798828125
1761838409190873600,8.76287353515625,-0.9836883544921875,-0.1305999755859375,-0.0931854248046875
1761838409200943400,8.772943359375,-0.9866790771484375,-0.1335906982421875,-0.0925445556640625
1761838409211012600,8.7830126953125,-0.9882659912109375,-0.13525390625,-0.0915985107421875
1761838409221082400,8.793082275390624,-0.987884521484375,-0.134552001953125,-0.0909271240234375
1761838409231151600,8.803151611328126,-0.986358642578125,-0.1360626220703125,-0.0917205810546875
1761838409241221400,8.813221435546875,-0.984710693359375,-0.135955810546875,-0.093353271484375
1761838409251290600,8.82329052734375,-0.9835205078125,-0.13604736328125,-0.0902557373046875
1761838409261360600,8.833360595703125,-0.9852752685546875,-0.1363372802734375,-0.085723876953125
1761838409271429600,8.8434296875,-0.987091064453125,-0.137725830078125,-0.083038330078125
1761838409281499600,8.853499755859374,-0.985931396484375,-0.1372222900390625,-0.083038330078125
1761838409291568600,8.863568603515626,-0.987274169921875,-0.1355743408203125,-0.0832061767578125
1761838409301638700,8.873638671875,-0.9876251220703125,-0.1338043212890625,-0.0847625732421875
1761838409311707400,8.883707275390625,-0.9854278564453125,-0.1330108642578125,-0.08660888671875
1761838409321777700,8.893777587890625,-0.98333740234375,-0.133056640625,-0.0885772705078125
1761838409331846400,8.903846435546875,-0.979156494140625,-0.1363983154296875,-0.0895843505859375
1761838409341916700,8.913916748046875,-0.9758758544921875,-0.1385040283203125,-0.0911865234375
1761838409351985400,8.9239853515625,-0.974945068359375,-0.136749267578125,-0.0880889892578125
1761838409362055400,8.934055419921876,-0.973358154296875,-0.1357269287109375,-0.0841827392578125
1761838409372124400,8.94412451171875,-0.9764556884765625,-0.135009765625,-0.081451416015625
1761838409382194400,8.9541943359375,-0.9861602783203125,-0.132781982421875,-0.077423095703125
1761838409392263700,8.964263671875,-0.995635986328125,-0.130340576171875,-0.07635498046875
1761838409402333400,8.97433349609375,-1.00189208984375,-0.126983642578125,-0.082366943359375
1761838409412402700,8.984402587890624,-1.0052642822265625,-0.12457275390625,-0.08978271484375
1761838409422472400,8.994472412109374,-1.00567626953125,-0.1253662109375,-0.0945281982421875
1761838409432541700,9.004541748046876,-0.9982757568359375,-0.12579345703125,-0.1001129150390625
1761838409442611500,9.014611572265625,-1.0043487548828125,-0.130889892578125,-0.094573974609375
1761838409452681500,9.024681396484375,-0.992034912109375,-0.1317901611328125,-0.091583251953125
1761838409462750500,9.03475048828125,-0.9839324951171875,-0.1328582763671875,-0.0913848876953125
1761838409472820500,9.044820556640625,-0.98614501953125,-0.1341400146484375,-0.0848236083984375
1761838409482889700,9.0548896484375,-0.989959716796875,-0.13470458984375,-0.078857421875
1761838409492959500,9.06495947265625,-0.9923095703125,-0.1355438232421875,-0.0796356201171875
1761838409503028700,9.07502880859375,-0.9945220947265625,-0.1349029541015625,-0.080718994140625
1761838409513098500,9.085098388671875,-0.9929962158203125,-0.1322021484375,-0.0789642333984375
1761838409523167500,9.09516748046875,-0.994384765625,-0.134979248046875,-0.0775146484375
1761838409533237500,9.105237548828125,-0.9925079345703125,-0.1361846923828125,-0.077911376953125
1761838409543306500,9.115306396484375,-0.9898681640625,-0.1360015869140625,-0.0809783935546875
1761838409553376500,9.12537646484375,-0.9866180419921875,-0.13751220703125,-0.08404541015625
1761838409563445500,9.135445556640626,-0.9845123291015625,-0.1360931396484375,-0.084930419921875
1761838409573515800,9.145515869140626,-0.9817657470703125,-0.132537841796875,-0.083953857421875
1761838409583584500,9.15558447265625,-0.9790802001953125,-0.1311187744140625,-0.083648681640625
1761838409593654500,9.165654541015625,-0.9802398681640625,-0.132904052734375,-0.0830230712890625
1761838409603723500,9.1757236328125,-0.980377197265625,-0.136749267578125,-0.0814666748046875
1761838409613793500,9.18579345703125,-0.981414794921875,-0.1395111083984375,-0.0822906494140625
1761838409623862500,9.195862548828124,-0.982879638671875,-0.1389312744140625,-0.08355712890625
1761838409633932500,9.2059326171875,-0.9865570068359375,-0.1340789794921875,-0.08172607421875
1761838409644001500,9.21600146484375,-0.9896392822265625,-0.1312408447265625,-0.081695556640625
1761838409654071600,9.226071533203125,-0.992095947265625,-0.1308441162109375,-0.08648681640625
1761838409664140500,9.236140625,-0.9878997802734375,-0.130096435546875,-0.0881500244140625
1761838409674210600,9.24621044921875,-0.99114990234375,-0.13299560546875,-0.0868377685546875
1761838409684279600,9.256279541015624,-0.993377685546875,-0.133148193359375,-0.0856170654296875
1761838409694349600,9.266349609375,-0.9913330078125,-0.13299560546875,-0.088531494140625
1761838409704418600,9.27641845703125,-0.9873046875,-0.1318206787109375,-0.0860137939453125
1761838409714488600,9.286488525390626,-0.989959716796875,-0.1306304931640625,-0.0836181640625
1761838409724557600,9.2965576171875,-0.98565673828125,-0.13189697265625,-0.0879058837890625
1761838409734627600,9.306627685546875,-0.9774627685546875,-0.127960205078125,-0.0818328857421875
1761838409744696600,9.316696533203125,-0.9839935302734375,-0.1311798095703125,-0.0767822265625
1761838409754766600,9.3267666015625,-0.976165771484375,-0.1282806396484375,-0.0779571533203125
1761838409764835600,9.336835693359374,-0.9783477783203125,-0.131256103515625,-0.0782318115234375
1761838409774905000,9.346905029296876,-0.98297119140625,-0.1326904296875,-0.0789642333984375
1761838409784974000,9.35697412109375,-0.9835205078125,-0.12969970703125,-0.0789794921875
1761838409795044000,9.367044189453125,-0.9875946044921875,-0.13134765625,-0.07818603515625
1761838409805113000,9.377113037109375,-0.9934539794921875,-0.1302337646484375,-0.0784149169921875
1761838409815183000,9.38718310546875,-0.993927001953125,-0.127197265625,-0.080780029296875
1761838409825252000,9.397252197265624,-0.9952392578125,-0.1284027099609375,-0.081817626953125
1761838409835322000,9.407322021484376,-0.9962615966796875,-0.12750244140625,-0.0833740234375
1761838409845391400,9.417391357421875,-0.994873046875,-0.126190185546875,-0.083587646484375
1761838409855461000,9.427461181640625,-0.9942626953125,-0.126007080078125,-0.0828704833984375
1761838409865530400,9.4375302734375,-0.9913330078125,-0.1256256103515625,-0.0839691162109375
1761838409875600100,9.44760009765625,-0.9913787841796875,-0.1279296875,-0.084014892578125
1761838409885669000,9.457669189453124,-0.9901275634765625,-0.13153076171875,-0.082550048828125
1761838409895739100,9.4677392578125,-0.9926910400390625,-0.1287689208984375,-0.080718994140625
1761838409905808100,9.47780810546875,-0.991912841796875,-0.1233367919921875,-0.0765533447265625
1761838409915878100,9.487878173828125,-0.995208740234375,-0.1285552978515625,-0.077362060546875
1761838409925947100,9.497947021484375,-0.99871826171875,-0.1325225830078125,-0.0779876708984375
1761838409936017200,9.50801708984375,-0.994140625,-0.1299896240234375,-0.077880859375
1761838409946086100,9.518086181640625,-0.9918212890625,-0.130096435546875,-0.0774993896484375
1761838409956156200,9.52815625,-0.987640380859375,-0.132965087890625,-0.0772857666015625
1761838409966225200,9.53822509765625,-0.98345947265625,-0.1343841552734375,-0.07666015625
1761838409976295200,9.548295166015626,-0.9813079833984375,-0.1338043212890625,-0.076568603515625
1761838409986364200,9.5583642578125,-0.98114013671875,-0.1324310302734375,-0.0771026611328125
1761838409996434200,9.56843408203125,-0.9816741943359375,-0.128021240234375,-0.0763397216796875
1761838410006503200,9.578503173828125,-0.9822540283203125,-0.1255035400390625,-0.075531005859375
1761838410016573200,9.5885732421875,-0.9846343994140625,-0.1259918212890625,-0.0761871337890625
1761838410026642200,9.59864208984375,-0.977569580078125,-0.1230621337890625,-0.08892822265625
1761838410036712200,9.608712158203126,-0.9779510498046875,-0.1219482421875,-0.0932769775390625
1761838410046781200,9.61878125,-0.9854736328125,-0.1233673095703125,-0.0902099609375
1761838410056851200,9.628851318359375,-0.9864959716796875,-0.120941162109375,-0.08807373046875
1761838410066920200,9.638920166015625,-0.98779296875,-0.1185760498046875,-0.0870361328125
1761838410076990200,9.648990234375,-0.9944610595703125,-0.12225341796875,-0.0845947265625
1761838410087059200,9.65905908203125,-1.000762939453125,-0.1215057373046875,-0.082733154296875
1761838410097129200,9.669129150390624,-1.000823974609375,-0.1193084716796875,-0.0867462158203125
1761838410107198200,9.6791982421875,-1.0106048583984375,-0.1193084716796875,-0.08551025390625
1761838410117268000,9.68926806640625,-1.0155487060546875,-0.1182098388671875,-0.0821075439453125
1761838410127337200,9.699337158203125,-1.011810302734375,-0.117095947265625,-0.087615966796875
1761838410137407000,9.709406982421875,-0.9982757568359375,-0.1187896728515625,-0.088409423828125
1761838410147476200,9.719476318359375,-0.9936676025390625,-0.11785888671875,-0.08746337890625
1761838410157546200,9.729546142578124,-0.982666015625,-0.12567138671875,-0.084930419921875
1761838410167615200,9.739615234375,-0.980255126953125,-0.13037109375,-0.0826416015625
1761838410177685200,9.749685302734376,-0.978759765625,-0.1267852783203125,-0.07403564453125
1761838410187754200,9.759754150390625,-0.976898193359375,-0.1249237060546875,-0.074188232421875
1761838410197824300,9.76982421875,-0.9844970703125,-0.125152587890625,-0.0754547119140625
1761838410207893200,9.779893310546875,-0.98406982421875,-0.12066650390625,-0.0789642333984375
1761838410217963300,9.78996337890625,-0.982421875,-0.12542724609375,-0.0818939208984375
1761838410228033000,9.800032958984374,-0.99322509765625,-0.131866455078125,-0.0806884765625
1761838410238102300,9.810102294921874,-0.9910888671875,-0.1262664794921875,-0.081268310546875
1761838410248171000,9.8201708984375,-0.9985809326171875,-0.1256256103515625,-0.0791015625
1761838410258241300,9.8302412109375,-1.0013427734375,-0.1243438720703125,-0.07818603515625
1761838410268310000,9.84031005859375,-0.9959716796875,-0.1220703125,-0.079315185546875
1761838410278380000,9.850380126953125,-1.0032958984375,-0.1249542236328125,-0.0790557861328125
1761838410288449300,9.86044921875,-0.9998779296875,-0.1255950927734375,-0.079864501953125
1761838410298519000,9.87051904296875,-0.9920806884765625,-0.12091064453125,-0.0845489501953125
1761838410308588300,9.88058837890625,-0.9947662353515625,-0.1277008056640625,-0.0818023681640625
1761838410318658000,9.890657958984375,-0.994903564453125,-0.142547607421875,-0.0841217041015625
1761838410328727300,9.900727294921875,-0.983612060546875,-0.135894775390625,-0.086090087890625
1761838410338797000,9.910797119140625,-0.984954833984375,-0.1284942626953125,-0.0811309814453125
1761838410348867000,9.9208671875,-0.9794464111328125,-0.1301727294921875,-0.0764007568359375
1761838410358936000,9.93093603515625,-0.9799957275390625,-0.1290130615234375,-0.0747833251953125
1761838410369005300,9.94100537109375,-0.97772216796875,-0.1240386962890625,-0.0728302001953125
1761838410379075000,9.951074951171876,-0.9823760986328125,-0.1316680908203125,-0.072479248046875
1761838410389145000,9.96114501953125,-0.97491455078125,-0.1336822509765625,-0.0806732177734375
1761838410399214300,9.97121435546875,-0.977508544921875,-0.13446044921875,-0.0814971923828125
1761838410409284000,9.9812841796875,-0.9759063720703125,-0.1355133056640625,-0.077728271484375
1761838410419353300,9.991353271484375,-0.9776763916015625,-0.135955810546875,-0.0794677734375
1761838410429422000,10.001422119140624,-0.9832916259765625,-0.1331787109375,-0.0772247314453125
1761838410439492400,10.011492431640624,-0.98370361328125,-0.13397216796875,-0.075439453125
1761838410449562000,10.02156201171875,-0.987762451171875,-0.1341552734375,-0.077728271484375
1761838410459631000,10.031631103515625,-0.9878082275390625,-0.1334075927734375,-0.076904296875
1761838410469701000,10.041701171875,-0.9871063232421875,-0.1304931640625,-0.0767364501953125
1761838410479770000,10.05177001953125,-0.9849395751953125,-0.1306304931640625,-0.0786285400390625
1761838410489840400,10.06184033203125,-0.991424560546875,-0.136016845703125,-0.0745391845703125
1761838410499909000,10.0719091796875,-0.99139404296875,-0.1302032470703125,-0.0777587890625
1761838410509979100,10.081979248046874,-0.99169921875,-0.1239471435546875,-0.0841064453125
1761838410520048000,10.092048095703126,-0.9993438720703125,-0.127288818359375,-0.076995849609375
1761838410530117400,10.102117431640625,-1.00390625,-0.129913330078125,-0.07769775390625
1761838410540187100,10.112187255859375,-1.001495361328125,-0.132049560546875,-0.076385498046875
1761838410550257200,10.122257080078125,-0.99627685546875,-0.133636474609375,-0.0752716064453125
1761838410560326100,10.132326171875,-0.9936065673828125,-0.13299560546875,-0.0729827880859375
1761838410570395100,10.14239501953125,-0.989898681640625,-0.1364898681640625,-0.0715484619140625
1761838410580465200,10.152465087890626,-0.9882354736328125,-0.1349334716796875,-0.07305908203125
1761838410590535200,10.16253515625,-0.9865264892578125,-0.1349334716796875,-0.0709991455078125
1761838410600604200,10.172604248046875,-0.987945556640625,-0.1356658935546875,-0.071685791015625
1761838410610673200,10.182673095703125,-0.988006591796875,-0.1325531005859375,-0.0731048583984375
1761838410620743200,10.1927431640625,-0.989959716796875,-0.129425048828125,-0.0713348388671875
1761838410630812200,10.202812255859374,-0.994140625,-0.12933349609375,-0.0722198486328125
1761838410640882200,10.212882080078124,-0.9946746826171875,-0.1298675537109375,-0.07794189453125
1761838410650951200,10.222951171875,-0.991302490234375,-0.129638671875,-0.083587646484375
1761838410661021200,10.233021240234375,-0.9936065673828125,-0.1267852783203125,-0.0852203369140625
1761838410671090200,10.243090087890625,-0.9841766357421875,-0.1265411376953125,-0.0876922607421875
1761838410681160200,10.25316015625,-0.9870147705078125,-0.129913330078125,-0.0823516845703125
1761838410691229200,10.263229248046875,-0.9896392822265625,-0.1385650634765625,-0.0819854736328125
1761838410701299200,10.27329931640625,-0.9834442138671875,-0.131317138671875,-0.08270263671875
1761838410711368200,10.2833681640625,-0.988922119140625,-0.1217041015625,-0.0794219970703125
1761838410721438200,10.293438232421876,-1.0006866455078125,-0.1308441162109375,-0.0797119140625
1761838410731507000,10.3035068359375,-0.9931182861328125,-0.1335601806640625,-0.0818328857421875
1761838410741577200,10.3135771484375,-0.99615478515625,-0.1352386474609375,-0.0790252685546875
1761838410751646200,10.323646240234375,-0.9942626953125,-0.1394195556640625,-0.074676513671875
1761838410761716200,10.33371630859375,-0.9885101318359375,-0.1428375244140625,-0.0735931396484375
1761838410771785200,10.34378515625,-0.9861907958984375,-0.146484375,-0.07598876953125
1761838410781855700,10.353855712890624,-0.9803924560546875,-0.1441802978515625,-0.0767669677734375
1761838410791924700,10.3639248046875,-0.9766845703125,-0.1429290771484375,-0.07623291015625
1761838410801994800,10.373994873046875,-0.976837158203125,-0.14227294921875,-0.0790252685546875
1761838410812063700,10.384063720703125,-0.97381591796875,-0.13800048828125,-0.0836029052734375
1761838410822133800,10.3941337890625,-0.974151611328125,-0.1361846923828125,-0.0813446044921875
1761838410832203000,10.404203125,-0.9742279052734375,-0.128143310546875,-0.079376220703125
