time,seconds_elapsed,z,y,x
1761838400495867600,0.06786767578125,0.07126272469758987,-0.04202628135681152,-0.1150224581360817
1761838400505936600,0.0779365234375,0.08059604465961456,-0.029896646738052368,-0.09358534216880798
1761838400516005600,0.088005615234375,0.07359272986650467,-0.006596916355192661,-0.06974126398563385
1761838400526075600,0.09807568359375,0.06172994151711464,0.013580257073044777,-0.05817542225122452
1761838400536144600,0.10814453125,0.07106858491897583,0.024987375363707542,-0.06137121468782425
1761838400546214700,0.118214599609375,0.07946499437093735,0.017956629395484924,-0.07496105879545212
1761838400556283600,0.12828369140625,0.08670905977487564,0.010017214342951775,-0.090425506234169
1761838400566353700,0.138353759765625,0.08836554735898972,0.019815515726804733,-0.09524049609899521
1761838400576422700,0.148422607421875,0.08388184756040573,0.034515101462602615,-0.09109155833721161
1761838400586492700,0.15849267578125,0.07904502004384995,0.04746631905436516,-0.0994482934474945
1761838400596561700,0.168561767578125,0.08873386681079865,0.04950523376464844,-0.13859330117702484
1761838400606630700,0.178630615234375,0.08247197419404984,-0.03365623205900192,-0.19970005750656128
1761838400616700700,0.18870068359375,0.08015076071023941,0.002674346324056387,-0.19554740190505981
1761838400626769700,0.198769775390625,0.056654490530490875,0.011560781858861446,-0.16148076951503754
1761838400636839700,0.208839599609375,0.05306747928261757,0.03825204819440842,-0.10675866901874542
1761838400646908700,0.21890869140625,0.05101205036044121,0.04319966956973076,-0.06753856688737869
1761838400656978700,0.228978759765625,0.04246729984879494,0.046001046895980835,-0.04116581380367279
1761838400667047700,0.239047607421875,0.034455977380275726,0.05628164857625961,-0.012148275971412659
1761838400677117700,0.24911767578125,0.013579191640019417,0.05204669013619423,-0.008329568430781364
1761838400687186700,0.259186767578125,0.013968013226985931,0.03413346782326698,-0.01938568241894245
1761838400697256400,0.26925634765625,0.016650082543492317,0.023499200120568275,-0.01185186579823494
1761838400707325700,0.27932568359375,0.006246710661798716,-0.0015246596885845065,-0.01329663023352623
1761838400717394700,0.289394775390625,-0.006881608162075281,-0.02869928814470768,-0.026629213243722916
1761838400727464700,0.299464599609375,-0.012971458956599236,-0.07238844782114029,-0.03774338215589523
1761838400737533700,0.30953369140625,-0.005918342620134354,-0.09799447655677795,-0.04242042824625969
1761838400747603700,0.319603759765625,0.010777280665934086,-0.09616248309612274,-0.037751905620098114
1761838400757672700,0.329672607421875,0.026209233328700066,-0.09960249066352844,-0.03495558723807335
1761838400767742200,0.3397421875,0.05082616209983826,-0.0932346060872078,-0.031679365783929825
1761838400777811000,0.34981103515625,0.06733988970518112,-0.10162515938282013,-0.0022325278259813786
1761838400787881200,0.359881103515625,0.08079764246940613,-0.07992039620876312,0.05035984143614769
1761838400797950000,0.369949951171875,0.09426258504390717,-0.07827456295490265,0.11180110275745392
1761838400808020200,0.380020263671875,0.11251562833786011,-0.06346392631530762,0.1758999228477478
1761838400818089000,0.3900888671875,0.13335832953453064,-0.059128567576408386,0.21708278357982635
1761838400828159000,0.400158935546875,0.13564836978912354,-0.055081360042095184,0.2400301694869995
1761838400838228000,0.41022802734375,0.1238580271601677,-0.053887199610471725,0.24496127665042877
1761838400848297200,0.420297119140625,0.10762952268123627,-0.03953276202082634,0.24069702625274658
1761838400858367200,0.4303671875,0.11633166670799255,-0.022346317768096924,0.2163565307855606
1761838400868436200,0.440436279296875,0.11515801399946213,-0.015164838172495365,0.179976686835289
1761838400878506200,0.45050634765625,0.11120881140232086,-0.016921991482377052,0.12967251241207123
1761838400888575000,0.460574951171875,0.11065753549337387,-0.020663199946284294,0.07112717628479004
1761838400898645200,0.470645263671875,0.1046566367149353,-0.020853083580732346,0.014041516929864883
1761838400908714000,0.4807138671875,0.09637367725372314,-0.01414378173649311,-0.03248204290866852
1761838400918784300,0.4907841796875,0.0810578316450119,-0.0003968109958805144,-0.06664880365133286
1761838400928853000,0.50085302734375,0.06413584202528,0.013655890710651875,-0.09228705614805222
1761838400938923000,0.510923095703125,0.05470186099410057,0.02468111179769039,-0.11016591638326645
1761838400948992000,0.520991943359375,0.043849747627973557,0.03677745535969734,-0.1171356812119484
1761838400959061200,0.531061279296875,0.03333478793501854,0.048294294625520706,-0.11579131335020065
1761838400969131000,0.541131103515625,0.02882898412644863,0.052498627454042435,-0.10566864162683487
1761838400979200000,0.551199951171875,0.027062511071562767,0.051349472254514694,-0.0850062370300293
1761838400989270000,0.56127001953125,0.020139357075095177,0.05535140633583069,-0.06720220297574997
1761838400999339000,0.571339111328125,0.010378604754805565,0.052569735795259476,-0.04778669774532318
1761838401009409300,0.5814091796875,0.010241984389722347,0.0514000728726387,-0.025302426889538765
1761838401019478000,0.59147802734375,0.000248472933890298,0.04514670372009277,-0.01056342851370573
1761838401029548300,0.60154833984375,-0.0019302591681480408,0.03923262283205986,0.002558765234425664
1761838401039617000,0.611616943359375,-0.007482950109988451,0.03521178290247917,0.01404897402971983
1761838401049687000,0.62168701171875,-0.010892062447965145,0.035700473934412,0.026093386113643646
1761838401059756000,0.631756103515625,-0.010518421418964863,0.035291679203510284,0.045106224715709686
1761838401069826000,0.641825927734375,-0.010967962443828583,0.03716760873794556,0.0604281909763813
1761838401079895000,0.65189501953125,-0.00706829596310854,0.03741687908768654,0.07315410673618317
1761838401089964000,0.661964111328125,-0.007139668334275484,0.036372389644384384,0.07324092090129852
1761838401100034000,0.672033935546875,-0.00811997801065445,0.036431778222322464,0.06784216314554214
1761838401110103000,0.68210302734375,-0.003915379289537668,0.03911145031452179,0.05266241356730461
1761838401120173000,0.692173095703125,-0.005946306046098471,0.03652925044298172,0.015121428295969963
1761838401130242000,0.702241943359375,-0.0018463695887476206,0.02936108410358429,-0.028630578890442848
1761838401140312300,0.712312255859375,0.002487392397597432,0.0162399560213089,-0.06821713596582413
1761838401150381000,0.722381103515625,0.014136059209704399,-0.007436877116560936,-0.09868156909942627
1761838401160451000,0.732451171875,0.011577560566365719,-0.007261108607053757,-0.09419281035661697
1761838401170520000,0.74252001953125,0.011956794187426567,0.0009345032158307731,-0.07154449075460434
1761838401180590000,0.752590087890625,0.01155945099890232,0.0021603561472147703,-0.03875831514596939
1761838401190659000,0.7626591796875,0.011204184964299202,0.0007155913626775146,-0.0070587084628641605
1761838401200729000,0.77272900390625,0.019244268536567688,0.004463191609829664,0.013881460763514042
1761838401210798000,0.782798095703125,0.02936880849301815,-0.00689039658755064,0.027786623686552048
1761838401220867000,0.7928671875,0.03612072020769119,-0.017740115523338318,0.04181003198027611
1761838401230937000,0.80293701171875,0.033059947192668915,-0.029384253546595573,0.04637735337018967
1761838401241006000,0.813006103515625,0.030157901346683502,-0.036312200129032135,0.052682917565107346
1761838401251076000,0.823076171875,0.02014787867665291,-0.0336783342063427,0.05555273965001106
1761838401261145000,0.83314501953125,0.010261692106723785,-0.03634708747267723,0.05814612656831741
1761838401271215000,0.843215087890625,0.017133180052042007,-0.03269030153751373,0.05867529660463333
1761838401281284000,0.8532841796875,0.03123488463461399,-0.044435642659664154,0.05520253628492355
1761838401291354000,0.86335400390625,0.04374535009264946,-0.05193670094013214,0.04225371405482292
1761838401301423000,0.873423095703125,0.05736156180500984,-0.04922320693731308,0.03590553626418114
1761838401311493000,0.8834931640625,0.07104940712451935,-0.047235157340765,0.030243122950196266
1761838401321562000,0.89356201171875,0.08294255286455154,-0.0452100895345211,0.026262231171131134
1761838401331632000,0.903632080078125,0.09440053999423981,-0.03891384229063988,0.024862205609679222
1761838401341701000,0.913701171875,0.10233542323112488,-0.027702467516064644,0.023874172940850258
1761838401351770000,0.92377001953125,0.10883460193872452,-0.023839818313717842,0.020685037598013878
1761838401361840000,0.933840087890625,0.11518944054841995,-0.01744769886136055,0.01938754692673683
1761838401371909000,0.9439091796875,0.11359979957342148,-0.002636529505252838,0.026523219421505928
1761838401381979000,0.953978759765625,0.10981278121471405,0.015674300491809845,0.037641119211912155
1761838401392048000,0.964048095703125,0.11022557318210602,0.039454199373722076,0.04026193544268608
1761838401402118000,0.974117919921875,0.11795699596405029,0.05666221305727959,0.044017791748046875
1761838401412187100,0.984187255859375,0.12788125872612,0.07120414078235626,0.038416098803281784
1761838401422257200,0.994257080078125,0.135461688041687,0.09245829284191132,0.03274836018681526
1761838401432326100,1.004326171875,0.15873505175113678,0.08047353476285934,0.027175694704055786
1761838401442396200,1.014396240234375,0.18073169887065887,0.07173889875411987,0.028623122721910477
1761838401452465200,1.024465087890625,0.18997472524642944,0.0796266496181488,0.025069933384656906
1761838401462535200,1.03453515625,0.19446854293346405,0.10441482067108154,0.011379154399037361
1761838401472604200,1.044604248046875,0.19505789875984192,0.10642258077859879,-0.004481567535549402
1761838401482674200,1.054674072265625,0.21203503012657166,0.11706137657165527,-0.0086001455783844
1761838401492743000,1.064742919921875,0.2254807949066162,0.12298344820737839,-0.001976065570488572
1761838401502812200,1.074812255859375,0.2351861447095871,0.13044589757919312,-0.0035108451265841722
1761838401512882000,1.0848818359375,0.25269776582717896,0.11651249974966049,-0.004018976353108883
1761838401522951200,1.094951171875,0.27079713344573975,0.10587023943662643,-0.004550543148070574
1761838401533021000,1.10502099609375,0.27924707531929016,0.09683253616094589,-0.005106877535581589
1761838401543090200,1.115090087890625,0.29212135076522827,0.08052413910627365,0.0027273432351648808
1761838401553160200,1.12516015625,0.2986876368522644,0.0760878399014473,0.013702495954930782
1761838401563229200,1.135229248046875,0.3028775751590729,0.06659100949764252,0.026378344744443893
1761838401573299200,1.14529931640625,0.299843966960907,0.057136788964271545,0.029687320813536644
1761838401583368000,1.155367919921875,0.29554882645606995,0.04446972906589508,0.03520911931991577
1761838401593438200,1.165438232421875,0.287626713514328,0.040224652737379074,0.03632152080535889
1761838401603507000,1.1755068359375,0.27454182505607605,0.039498940110206604,0.03947603702545166
1761838401613577200,1.1855771484375,0.26243799924850464,0.030421288684010506,0.04364095255732536
1761838401623646000,1.19564599609375,0.2486441731452942,0.022997727617621422,0.03775004297494888
1761838401633716200,1.20571630859375,0.23533529043197632,0.024700552225112915,0.019773971289396286
1761838401643785000,1.215784912109375,0.2209499627351761,0.025563949719071388,0.006939931306988001
1761838401653855000,1.22585498046875,0.19443312287330627,0.0022069616243243217,-0.009631055407226086
1761838401663924000,1.235924072265625,0.17034217715263367,0.0020777983590960503,-0.02004561387002468
1761838401673993200,1.2459931640625,0.1451697051525116,-0.0009653958841226995,-0.017169665545225143
1761838401684063200,1.256063232421875,0.11749467253684998,-0.010058226995170116,-0.008888300508260727
1761838401694132000,1.266132080078125,0.09286362677812576,-0.017790181562304497,-0.0005776396137662232
1761838401704202200,1.2762021484375,0.07351256906986237,-0.030600786209106445,0.012404737994074821
1761838401714271000,1.28627099609375,0.06339149177074432,-0.028418058529496193,0.029996780678629875
1761838401724341200,1.29634130859375,0.05447762459516525,-0.03225540742278099,0.03964594751596451
1761838401734410000,1.306409912109375,0.03892742469906807,-0.02298281341791153,0.03708957880735397
1761838401744480300,1.316480224609375,0.037944719195365906,-0.028666531667113304,0.03007667511701584
1761838401754549000,1.326549072265625,0.04237595200538635,-0.0412752665579319,0.020308466628193855
1761838401764619000,1.336618896484375,0.047927577048540115,-0.047267913818359375,0.013998373411595821
1761838401774692400,1.3466923828125,0.06262103468179703,-0.049439989030361176,0.021319935098290443
1761838401784762000,1.35676220703125,0.07123076915740967,-0.04490089416503906,0.033723343163728714
1761838401794831400,1.366831298828125,0.08665766566991806,-0.03778493031859398,0.04212614893913269
1761838401804901000,1.376901123046875,0.09171979874372482,-0.028684908524155617,0.049005892127752304
1761838401814970400,1.386970458984375,0.0971585065126419,-0.01810416951775551,0.04254719242453575
1761838401825040100,1.3970400390625,0.10797253996133804,-0.0212461668998003,0.024657143279910088
1761838401835109000,1.407109130859375,0.11276250332593918,-0.022609172388911247,0.004525243304669857
1761838401845179400,1.417179443359375,0.11899323016405106,-0.02563798613846302,-0.017646105960011482
1761838401855248100,1.427248046875,0.12199807912111282,-0.026382071897387505,-0.030039392411708832
1761838401865317000,1.437317138671875,0.11308474093675613,-0.023031283169984818,-0.030591731891036034
1761838401875387100,1.44738720703125,0.099785715341568,-0.015658056363463402,-0.027472371235489845
1761838401885456400,1.457456298828125,0.08191590756177902,-0.016140354797244072,-0.020561201497912407
1761838401895526100,1.467526123046875,0.06578460335731506,-0.0005291700945235789,-0.00592659879475832
1761838401905595400,1.477595458984375,0.050522562116384506,0.002419215627014637,0.002769953804090619
1761838401915665200,1.4876650390625,0.03684376925230026,0.004070109222084284,0.004861334338784218
1761838401925734400,1.497734375,0.027520041912794113,0.0007787083159200847,0.005191033706068993
1761838401935804200,1.50780419921875,0.025910159572958946,-0.005286374595016241,0.004731371998786926
1761838401945873200,1.517873046875,0.024708276614546776,-0.009492837823927402,0.00634977500885725
1761838401955943200,1.527943115234375,0.02582254260778427,-0.01913268119096756,0.010494452901184559
1761838401966012200,1.53801220703125,0.028970664367079735,-0.020131632685661316,0.021046163514256477
1761838401976082400,1.54808251953125,0.026927487924695015,-0.020850686356425285,0.037227530032396317
1761838401986151200,1.558151123046875,0.030733412131667137,-0.011452924460172653,0.06005987524986267
1761838401996221200,1.56822119140625,0.038476020097732544,-0.00276196445338428,0.08699189126491547
1761838402006290200,1.578290283203125,0.04456986486911774,0.00046099317842163146,0.09626581519842148
1761838402016360200,1.588360107421875,0.04613633453845978,0.0041468082927167416,0.10253836214542389
1761838402026429200,1.59842919921875,0.05168716236948967,0.010544786229729652,0.08337371796369553
1761838402036498400,1.60849853515625,0.04975583776831627,0.009709885343909264,0.05970833823084831
1761838402046568200,1.618568115234375,0.05264057591557503,0.005257346201688051,0.028668129816651344
1761838402056637200,1.62863720703125,0.04823916777968407,0.014402907341718674,-0.004043743945658207
1761838402066707200,1.638707275390625,0.04423324018716812,0.025365810841321945,-0.021768944337964058
1761838402076776200,1.648776123046875,0.0331566222012043,0.039983902126550674,-0.03531751036643982
1761838402086846200,1.65884619140625,0.022957779467105865,0.05259130522608757,-0.04014981538057327
1761838402096915200,1.668915283203125,0.021572403609752655,0.056236106902360916,-0.03927416726946831
1761838402106985200,1.678985107421875,0.013313408941030502,0.05578017607331276,-0.035287950187921524
1761838402117054200,1.68905419921875,0.01251312904059887,0.05025651305913925,-0.03600460663437843
1761838402127124200,1.699124267578125,0.013874270021915436,0.040756482630968094,-0.035470109432935715
1761838402137193200,1.709193115234375,0.011683021672070026,0.02412504330277443,-0.03748133033514023
1761838402147263200,1.71926318359375,0.012265188619494438,0.01095517911016941,-0.027164509519934654
1761838402157332200,1.729332275390625,0.012926983647048473,0.009306948632001877,-0.014533136039972305
1761838402167402200,1.73940234375,0.011020692996680737,0.006442452780902386,0.008718123659491539
1761838402177471200,1.74947119140625,0.009328520856797695,0.014138455502688885,0.029201827943325043
1761838402187541200,1.759541259765625,0.003034672001376748,0.0116737000644207,0.050646666437387466
1761838402197610200,1.7696103515625,-0.0017979000695049763,0.016267653554677963,0.057253435254096985
1761838402207680300,1.77968017578125,0.009975935332477093,0.011230017989873886,0.06901608407497406
1761838402217749000,1.7897490234375,0.012583436444401741,0.018688732758164406,0.06311319023370743
1761838402227819300,1.7998193359375,0.0011347729014232755,0.02273380756378174,0.03292279690504074
1761838402237888000,1.809887939453125,0.00041545313433744013,0.023189742118120193,-0.006764695513993502
1761838402247958300,1.819958251953125,0.003810983384028077,0.02093910425901413,-0.04042252525687218
1761838402258027300,1.83002734375,0.006885336712002754,0.017488446086645126,-0.06149505078792572
1761838402268096300,1.84009619140625,0.007229417096823454,0.014201839454472065,-0.08407279849052429
1761838402278166300,1.850166259765625,0.006591856479644775,0.017481522634625435,-0.0873199924826622
1761838402288235300,1.8602353515625,0.0080912159755826,0.020416058599948883,-0.08904571831226349
1761838402298305300,1.87030517578125,0.011329886503517628,0.025413481518626213,-0.08189833164215088
1761838402308374300,1.880374267578125,0.012142417021095753,0.03388712555170059,-0.0618700236082077
1761838402318444300,1.8904443359375,0.00936047825962305,0.02665850892663002,-0.04566974937915802
1761838402328513000,1.900512939453125,0.01387187372893095,0.024950623512268066,-0.03467249125242233
1761838402338583300,1.910583251953125,0.01822560839354992,0.025957563892006874,-0.026145849376916885
1761838402348652000,1.920652099609375,0.02269359491765499,0.026031067594885826,-0.016452476382255554
1761838402358722300,1.930722412109375,0.026998061686754227,0.00959510263055563,-0.017829596996307373
1761838402368791000,1.940791015625,0.03272971510887146,-0.007799599785357714,-0.014270282350480556
1761838402378861300,1.950861328125,0.03015390783548355,-0.019723903387784958,-0.005289570428431034
1761838402388930300,1.960930419921875,0.022642461583018303,-0.018199510872364044,0.002784334821626544
1761838402399000000,1.971,0.011680624447762966,-0.018610702827572823,0.011227354407310486
1761838402409069300,1.9810693359375,-0.000009054747351910919,-0.024228373542428017,0.01666819304227829
1761838402419139000,1.99113916015625,-0.009517339058220387,-0.009156214073300362,0.029233252629637718
1761838402429208300,2.001208251953125,-0.03604988008737564,-0.021315675228834152,0.043109919875860214
1761838402439278000,2.011278076171875,-0.06470602750778198,-0.0328972302377224,0.04167687147855759
1761838402449347300,2.021347412109375,-0.08232177048921585,-0.04169391840696335,0.042444128543138504
1761838402459417000,2.0314169921875,-0.0998016968369484,-0.04723569005727768,0.045150965452194214
1761838402469486300,2.041486328125,-0.11961774528026581,-0.050214167684316635,0.043848149478435516
1761838402479556400,2.051556396484375,-0.1264900267124176,-0.051901813596487045,0.056116264313459396
1761838402489625000,2.061625,-0.13808809220790863,-0.05082935839891434,0.06165936961770058
1761838402499695400,2.0716953125,-0.13916482031345367,-0.05777940899133682,0.06167827919125557
1761838402509764000,2.08176416015625,-0.13833017647266388,-0.0658799484372139,0.05139021947979927
1761838402519833300,2.091833251953125,-0.13938266038894653,-0.07122970372438431,0.04242255911231041
1761838402529903000,2.101903076171875,-0.14161944389343262,-0.07490939646959305,0.033669546246528625
1761838402539972400,2.111972412109375,-0.139570951461792,-0.06882726401090622,0.029161613434553146
1761838402550042000,2.1220419921875,-0.1345285177230835,-0.060741908848285675,0.02875841036438942
1761838402560111400,2.132111328125,-0.12783385813236237,-0.053946323692798615,0.02857625111937523
1761838402570181000,2.14218115234375,-0.12089552730321884,-0.04398024082183838,0.03430337831377983
1761838402580250400,2.15225048828125,-0.10785669088363647,-0.04252295941114426,0.030293989926576614
1761838402590320000,2.162320068359375,-0.09287507832050323,-0.045049767941236496,0.02352370135486126
1761838402600389000,2.17238916015625,-0.07540474086999893,-0.04421380162239075,0.009090433828532696
1761838402610459400,2.18245947265625,-0.057077400386333466,-0.04862159863114357,-0.0032842103391885757
1761838402620528000,2.192528076171875,-0.03580646589398384,-0.053577739745378494,-0.015909723937511444
1761838402630598400,2.202598388671875,-0.020485034212470055,-0.05966838821768761,-0.031671375036239624
1761838402640667100,2.212667236328125,-0.0064834654331207275,-0.0735463872551918,-0.04604445770382881
1761838402650737400,2.2227373046875,0.008257397450506687,-0.09075919538736343,-0.04787804186344147
1761838402660806100,2.23280615234375,0.01447188388556242,-0.1060476079583168,-0.04638374224305153
1761838402670876200,2.242876220703125,0.016576314345002174,-0.1171649694442749,-0.032933447510004044
1761838402680945200,2.252945068359375,0.008557269349694252,-0.11793356388807297,-0.018938004970550537
1761838402691015200,2.26301513671875,0.0003992078418377787,-0.11219444870948792,-0.0034317492973059416
1761838402701084200,2.273084228515625,-0.0127584058791399,-0.11003489047288895,0.014634869061410427
1761838402711154200,2.283154296875,-0.02629472129046917,-0.10399910062551498,0.029284385964274406
1761838402721223200,2.29322314453125,-0.04024089500308037,-0.1035357117652893,0.03910559043288231
1761838402731293200,2.303293212890625,-0.04928579181432724,-0.10845617204904556,0.05368107184767723
1761838402741362200,2.313362060546875,-0.054972440004348755,-0.11116726696491241,0.06340400874614716
1761838402751432200,2.32343212890625,-0.0638950914144516,-0.11022210866212845,0.07111252844333649
1761838402761501400,2.33350146484375,-0.06806613504886627,-0.11330018937587738,0.07594829052686691
1761838402771567000,2.343567138671875,-0.08084771037101746,-0.11358728259801865,0.08140058070421219
1761838402781636400,2.35363623046875,-0.07969403266906738,-0.11687149107456207,0.07047735899686813
1761838402791706400,2.363706298828125,-0.07841997593641281,-0.11005432903766632,0.05728725716471672
1761838402801775000,2.373775146484375,-0.08115850389003754,-0.10920771211385727,0.04758456349372864
1761838402811844000,2.383843994140625,-0.07661221921443939,-0.10248696058988571,0.040583912283182144
1761838402821914000,2.3939140625,-0.07997898757457733,-0.09917505085468292,0.03208097070455551
1761838402831983400,2.4039833984375,-0.06745840609073639,-0.09058821946382523,0.029141373932361603
1761838402842053000,2.41405322265625,-0.06120476871728897,-0.09191367775201797,0.027180222794413567
1761838402852122400,2.424122314453125,-0.05166931822896004,-0.09080793708562851,0.016081498935818672
1761838402862192000,2.434192138671875,-0.03702113404870033,-0.09732548892498016,0.0024399880785495043
1761838402872261400,2.444261474609375,-0.02515648491680622,-0.10712698847055435,-0.013307549990713596
1761838402882331100,2.4543310546875,-0.014402907341718674,-0.11307702213525772,-0.025547703728079796
1761838402892400400,2.464400390625,-0.012354404665529728,-0.11713407933712006,-0.03454572707414627
1761838402902470100,2.47447021484375,-0.006690925918519497,-0.12221112847328186,-0.03383679315447807
1761838402912539100,2.4845390625,-0.006069610361009836,-0.11393535882234573,-0.023562317714095116
1761838402922609400,2.494609375,-0.007750864140689373,-0.11564990133047104,-0.0033505228348076344
1761838402932678100,2.50467822265625,-0.009688845835626125,-0.1370404064655304,0.010786601342260838
1761838402942748400,2.51474853515625,-0.020000606775283813,-0.09445726126432419,0.04548519477248192
1761838402952817200,2.524817138671875,-0.029617013409733772,-0.07370058447122574,0.07618851214647293
1761838402962887200,2.53488720703125,-0.031440213322639465,-0.07325850427150726,0.08693889528512955
1761838402972956200,2.5449560546875,-0.03537929430603981,-0.06778037548065186,0.08022080361843109
1761838402983026200,2.555026123046875,-0.03873914107680321,-0.058289140462875366,0.06914471834897995
1761838402993095200,2.56509521484375,-0.03899800032377243,-0.04777497798204422,0.0458039753139019
1761838403003165200,2.575165283203125,-0.04079803079366684,-0.0438111312687397,0.012890764512121677
1761838403013234200,2.585234130859375,-0.042441997677087784,-0.03910905122756958,-0.01552463136613369
1761838403023304200,2.59530419921875,-0.04399062693119049,-0.026730680838227272,-0.032100144773721695
1761838403033373200,2.605373291015625,-0.049797382205724716,-0.0160673838108778,-0.04074796289205551
1761838403043443200,2.615443115234375,-0.0476444847881794,-0.0076869479380548,-0.04216476529836655
1761838403053512200,2.62551220703125,-0.04928871989250183,0.006628607865422964,-0.034992605447769165
1761838403063582200,2.635582275390625,-0.04583832994103432,0.010987403802573681,-0.03566638380289078
1761838403073651200,2.645651123046875,-0.04296956956386566,0.009877664037048817,-0.04320206493139267
1761838403083721200,2.65572119140625,-0.03856976330280304,0.006207295693457127,-0.04758749157190323
1761838403093790200,2.665790283203125,-0.03694843128323555,0.003787281457334757,-0.04891347885131836
1761838403103860200,2.675860107421875,-0.04061320796608925,0.00013928332191426307,-0.04923225939273834
1761838403113929200,2.68592919921875,-0.04202308505773544,-0.005736981518566608,-0.04758882522583008
1761838403123999200,2.695999267578125,-0.04802451655268669,-0.0028876655269414186,-0.03906111419200897
1761838403134068200,2.706068115234375,-0.05495539307594299,0.003069559345021844,-0.02533784694969654
1761838403144138000,2.716137939453125,-0.062194932252168655,0.004826180636882782,-0.015001053921878338
1761838403154207200,2.726207275390625,-0.06308123469352722,0.0034085798542946577,-0.01034451648592949
1761838403164276200,2.736276123046875,-0.06811007857322693,-0.001377386855892837,-0.006173207424581051
1761838403174346200,2.74634619140625,-0.06492093950510025,-0.0070648337714374065,-0.005458681378513575
1761838403184415000,2.7564150390625,-0.06928000599145889,-0.00869362335652113,-0.0019832560792565346
1761838403194485200,2.7664853515625,-0.06177574768662453,-0.007631554268300533,0.003867975203320384
1761838403204554200,2.77655419921875,-0.05896318331360817,-0.007592406123876572,0.006916495505720377
1761838403214624300,2.786624267578125,-0.051414988934993744,-0.014081996865570545,0.013497166335582733
1761838403224693200,2.796693359375,-0.03911624476313591,-0.014208496548235416,0.022707443684339523
1761838403234763300,2.80676318359375,-0.02857545204460621,-0.0020394488237798214,0.02911953628063202
1761838403244832300,2.816832275390625,-0.018681809306144714,-0.005592105444520712,0.03238483890891075
1761838403254902000,2.826902099609375,-0.006126602180302143,-0.0034519892651587725,0.042932286858558655
1761838403264971300,2.83697119140625,0.0036421390250325203,0.011994345113635063,0.04217728227376938
1761838403275041000,2.847041015625,0.014554708264768124,-0.0013371731620281935,0.041794583201408386
1761838403285110300,2.8571103515625,0.03449592366814613,-0.0021643510553985834,0.026801254600286484
1761838403295180300,2.86718017578125,0.04205823689699173,-0.002091380301862955,0.013175456784665585
1761838403305249300,2.877249267578125,0.04715419560670853,0.004012584686279297,0.008252337574958801
1761838403315319300,2.8873193359375,0.04796086624264717,0.005711948033422232,-0.00043782367720268667
1761838403325388300,2.89738818359375,0.047080159187316895,0.00920495018362999,0.0001150485550169833
1761838403335458300,2.907458251953125,0.048055943101644516,0.0003091930120717734,0.0019624833948910236
1761838403345527300,2.91752734375,0.050148386508226395,0.004985703621059656,0.0015150723047554493
1761838403355597300,2.927597412109375,0.04483511671423912,0.0064983791671693325,0.004011253360658884
1761838403365666000,2.937666015625,0.0393412820994854,0.01569986715912819,0.004874383565038443
1761838403375736300,2.947736328125,0.03807840868830681,0.019714582711458206,0.0002687129599507898
1761838403385805000,2.95780517578125,0.039695482701063156,0.011668640188872814,-0.0010106696281582117
1761838403395875300,2.967875244140625,0.040592167526483536,0.006933539640158415,-0.013999172486364841
1761838403405944000,2.977944091796875,0.04283135384321213,-0.0030503845773637295,-0.015926502645015717
1761838403416014000,2.98801416015625,0.04517706483602524,-0.007282946724444628,-0.01155439019203186
1761838403426083300,2.998083251953125,0.04505962133407593,-0.0154929393902421,0.006150037981569767
1761838403436153000,3.008153076171875,0.049379266798496246,-0.017248228192329407,0.02636556141078472
1761838403446222300,3.018222412109375,0.04723329097032547,-0.017657024785876274,0.048707883805036545
1761838403456292000,3.0282919921875,0.0426475964486599,-0.020494356751441956,0.06765174865722656
1761838403466361300,3.038361328125,0.04043690487742424,-0.02196495421230793,0.08668189495801926
1761838403476431000,3.04843115234375,0.03375423327088356,-0.016649549826979637,0.09940621256828308
1761838403486500400,3.058500244140625,0.030544327571988106,-0.014681207947432995,0.09969569742679596
1761838403496570000,3.068570068359375,0.022897858172655106,-0.012085957452654839,0.0891389325261116
1761838403506639400,3.078639404296875,0.020306071266531944,-0.015432751737535,0.07482923567295074
1761838403516709400,3.08870947265625,0.019473832100629807,-0.02052924409508705,0.06057599559426308
1761838403526778000,3.098778076171875,0.020622987300157547,-0.018145713955163956,0.03923901543021202
1761838403536848400,3.108848388671875,0.01751561090350151,-0.01768445409834385,0.024295220151543617
1761838403546917000,3.118917236328125,0.019026953727006912,-0.014490259811282158,0.020132431760430336
1761838403556987400,3.1289873046875,0.011262241750955582,-0.005375057924538851,0.014767494052648544
1761838403567056100,3.13905615234375,0.006128199864178896,0.009476060047745705,0.020507140085101128
1761838403577125400,3.14912548828125,0.005518868565559387,0.01871483214199543,0.01974228024482727
1761838403587195100,3.159195068359375,0.0019182749092578888,0.023079220205545425,0.009518669918179512
1761838403597264400,3.169264404296875,0.0022897860035300255,0.028497688472270966,-0.003978230059146881
1761838403607334100,3.179334228515625,0.004835235420614481,0.03263171389698982,-0.014480938203632832
1761838403617403400,3.1894033203125,0.012177304364740849,0.023623570799827576,-0.018608039245009422
1761838403627473200,3.19947314453125,0.02100035734474659,0.00686269998550415,-0.012373046018183231
1761838403637542100,3.209542236328125,0.022546321153640747,-0.011913650669157505,-0.008156197145581245
1761838403647612200,3.219612060546875,0.020016051828861237,-0.030550451949238777,-0.001996039180085063
1761838403657681200,3.22968115234375,0.017785655334591866,-0.036806218326091766,0.008872320875525475
1761838403667751400,3.23975146484375,0.012561864219605923,-0.028352811932563782,0.02762283943593502
1761838403677820200,3.249820068359375,0.0008351673022843897,-0.013770407065749168,0.05108901485800743
1761838403687890200,3.25989013671875,-0.0054608117789030075,-0.00304638990201056,0.06813324987888336
1761838403697959200,3.269959228515625,-0.008040616288781166,-0.0017209346406161785,0.07480686157941818
1761838403708029200,3.280029296875,-0.007337008602917194,0.0021515677217394114,0.07210002839565277
1761838403718098200,3.29009814453125,-0.012194881215691566,0.0004239752306602895,0.06251104921102524
1761838403728168200,3.300168212890625,-0.007288272958248854,0.0003222425002604723,0.03898681327700615
1761838403738237200,3.3102373046875,-0.008806274272501469,0.0019174759509041905,0.01691293716430664
1761838403748307200,3.32030712890625,-0.005661347880959511,0.0002972087822854519,-0.0062736086547374725
1761838403758376200,3.330376220703125,-0.0018242653459310532,0.0019771307706832886,-0.024522386491298676
1761838403768446000,3.340446044921875,0.0026967169251292944,0.0015552861150354147,-0.038477350026369095
1761838403778515200,3.35051513671875,0.006771087180823088,0.0026322684716433287,-0.04009149223566055
1761838403788585000,3.3605849609375,0.00965822022408247,0.01155545562505722,-0.037463217973709106
1761838403798654000,3.370654052734375,0.0054815844632685184,0.02425473928451538,-0.023814518004655838
1761838403808724000,3.380723876953125,0.003227751236408949,0.03206206113100052,-0.008051002398133278
1761838403818793000,3.39079296875,0.006687730085104704,0.03533029183745384,-0.007664044853299856
1761838403828863200,3.40086328125,0.007620102725923061,0.03689436987042427,-0.006610764656215906
1761838403838932000,3.410931884765625,0.011256116442382336,0.034028805792331696,-0.012704609893262386
1761838403849002200,3.421002197265625,0.01344763208180666,0.026634540408849716,-0.01853693276643753
1761838403859071000,3.431071044921875,0.016597352921962738,0.01932096667587757,-0.025143437087535858
1761838403869141000,3.44114111328125,0.015218900516629219,0.019722305238246918,-0.025003885850310326
1761838403879210000,3.4512099609375,0.009766343981027603,0.016471650451421738,-0.02382916584610939
1761838403889280000,3.461280029296875,0.00857351440936327,0.009280850179493427,-0.021198496222496033
1761838403899349000,3.471348876953125,0.006142580881714821,0.002828809665516019,-0.016050072386860847
1761838403909419000,3.4814189453125,0.0021813951898366213,0.005766542628407478,-0.0037033918779343367
1761838403919488000,3.491488037109375,-0.00222001108340919,0.004680239129811525,0.009770605713129044
1761838403929558000,3.50155810546875,-0.004391286056488752,0.0016791230300441384,0.021989189088344574
1761838403939627000,3.511626953125,-0.010998056270182133,0.0044349622912704945,0.02936827577650547
1761838403949697000,3.521697021484375,-0.020854681730270386,0.014712899923324585,0.04199991375207901
1761838403959766300,3.531766357421875,-0.025791648775339127,0.015859123319387436,0.04238341003656387
1761838403969836000,3.5418359375,-0.0263005793094635,0.007154315710067749,0.04289553686976433
1761838403979905000,3.551905029296875,-0.032466862350702286,0.004618720151484013,0.04091867059469223
1761838403989975000,3.56197509765625,-0.03345569595694542,-0.0031260184478014708,0.03893008828163147
1761838404000044000,3.5720439453125,-0.03395290672779083,0.004738828632980585,0.037164147943258286
1761838404010114000,3.582114013671875,-0.03747653588652611,0.0062730759382247925,0.03374331444501877
1761838404020183000,3.59218310546875,-0.036082904785871506,0.010248376056551933,0.02274499274790287
1761838404030253000,3.602253173828125,-0.03676120936870575,0.010495783761143684,0.012997557409107685
1761838404040322000,3.612322021484375,-0.026082200929522514,-0.0011536814272403717,-0.006702111102640629
1761838404050392000,3.62239208984375,-0.023378293961286545,-0.004303668159991503,-0.014088388532400131
1761838404060461000,3.6324609375,-0.019762519747018814,0.0057380469515919685,-0.0052203284576535225
1761838404070531000,3.642531005859375,-0.013746971264481544,0.009917079471051693,-0.005585714243352413
1761838404080600000,3.65260009765625,-0.009832390584051609,0.008008125238120556,0.0001227717293659225
1761838404090670000,3.662670166015625,-0.008272577077150345,0.011100055649876595,0.00361817074008286
1761838404100739000,3.672739013671875,-0.008343949913978577,0.009641442447900772,-0.0029318740125745535
1761838404110809000,3.68280908203125,-0.004026433452963829,0.0010596717474982142,-0.001996305538341403
1761838404120878000,3.692878173828125,-0.005462143570184708,-0.013462545350193977,-0.0024229439441114664
1761838404130948000,3.702947998046875,-0.005145227070897818,-0.025202825665473938,0.004299407359212637
1761838404141017000,3.71301708984375,-0.010003898292779922,-0.030912641435861588,0.019205918535590172
1761838404151087000,3.723087158203125,-0.013586382381618023,-0.026487799361348152,0.042451318353414536
1761838404161155800,3.73315576171875,-0.024150077253580093,-0.01883786916732788,0.06752844154834747
1761838404171225000,3.74322509765625,-0.03173316270112991,-0.014781875535845757,0.082890085875988
1761838404181295000,3.753295166015625,-0.036910079419612885,-0.010613761842250824,0.08651944249868393
1761838404191364000,3.763364013671875,-0.03731914237141609,-0.011144796386361122,0.07522577792406082
1761838404201434000,3.77343408203125,-0.03598569706082344,-0.01582423597574234,0.05168183520436287
1761838404211503000,3.783503173828125,-0.03500858321785927,-0.025235049426555634,0.028205538168549538
1761838404221573000,3.793572998046875,-0.03648211061954498,-0.033957432955503464,0.003665574826300144
1761838404231642000,3.80364208984375,-0.0313350185751915,-0.03164128214120865,-0.008669921196997166
1761838404241712000,3.813712158203125,-0.03338645398616791,-0.03253024443984032,-0.006917827297002077
1761838404251780900,3.82378076171875,-0.03315209597349167,-0.03163036331534386,-0.002776345470920205
1761838404261851100,3.83385107421875,-0.03104127198457718,-0.03127696365118027,-0.00005273058923194185
1761838404271919900,3.843919921875,-0.03237471729516983,-0.028605544939637184,0.001862082164734602
1761838404281990100,3.853990234375,-0.030170684680342674,-0.028737638145685196,0.007142864167690277
1761838404292059000,3.864058837890625,-0.02996642142534256,-0.030823692679405212,0.012472648173570633
1761838404302129200,3.874129150390625,-0.03111637383699417,-0.03284609690308571,0.01563621684908867
1761838404312198100,3.8841982421875,-0.028348283842206,-0.03123222105205059,0.023842748254537582
1761838404322268000,3.894267822265625,-0.03286021202802658,-0.023016102612018585,0.03963529318571091
1761838404332337200,3.904337158203125,-0.03289882838726044,-0.02419561706483364,0.04030028358101845
1761838404342407000,3.914406982421875,-0.02732829377055168,-0.023964988067746162,0.041729338467121124
1761838404352476200,3.92447607421875,-0.023909859359264374,-0.028974926099181175,0.037769217044115067
1761838404362546000,3.9345458984375,-0.016533436253666878,-0.029735257849097252,0.025949308648705482
1761838404372615200,3.944615234375,-0.017966482788324356,-0.03135126456618309,0.021566012874245644
1761838404382685000,3.954684814453125,-0.019931895658373833,-0.0273237656801939,0.01182443555444479
1761838404392754200,3.964754150390625,-0.030064424499869347,-0.018151573836803436,0.0025888588279485703
1761838404402824000,3.974823974609375,-0.035175297409296036,-0.016091352328658104,-0.012131497263908386
1761838404412893200,3.98489306640625,-0.042324554175138474,-0.01786182075738907,-0.019418438896536827
1761838404422963200,3.994963134765625,-0.04747936874628067,-0.019952403381466866,-0.02815893292427063
1761838404433032000,4.005031982421875,-0.06267962604761124,-0.016598951071500778,-0.025957297533750534
1761838404443100000,4.015099853515625,-0.07389446347951889,-0.009919742122292519,-0.016945427283644676
1761838404453169200,4.025169189453125,-0.08525470644235611,-0.0073564499616622925,-0.008195611648261547
1761838404463239000,4.035239013671875,-0.09308759868144989,-0.009917878545820713,-0.0036788906436413527
1761838404473308200,4.04530810546875,-0.10116150230169296,-0.007537544704973698,0.0010301107540726662
1761838404483378000,4.0553779296875,-0.11228765547275543,-0.006293315906077623,0.008056062273681164
1761838404493447200,4.065447265625,-0.11759613454341888,-0.004597148858010769,0.009917878545820713
1761838404503517200,4.07551708984375,-0.11619451642036438,-0.005293298978358507,0.012632704339921474
1761838404513586000,4.0855859375,-0.11988192796707153,-0.0025806031189858913,0.00857511255890131
1761838404523656200,4.09565625,-0.11575056612491608,-0.005501291714608669,-0.0005283711361698806
1761838404533725000,4.105724853515625,-0.10593575239181519,-0.013361877761781216,-0.01458932925015688
1761838404543795200,4.115795166015625,-0.09960169345140457,-0.019963854923844337,-0.02395273745059967
1761838404553864000,4.125864013671875,-0.09170036017894745,-0.029639651998877525,-0.017660219222307205
1761838404563934200,4.135934326171875,-0.08584859222173691,-0.03688744455575943,-0.012929913587868214
1761838404574003000,4.1460029296875,-0.08239900320768356,-0.040283773094415665,0.001047687605023384
1761838404584073000,4.156072998046875,-0.08124691992998123,-0.038110099732875824,0.020300477743148804
1761838404594142000,4.166141845703125,-0.08184745907783508,-0.038072019815444946,0.030703583732247353
1761838404604212000,4.1762119140625,-0.08394816517829895,-0.038483209908008575,0.03984355181455612
1761838404614281000,4.186281005859375,-0.08800388872623444,-0.03906537592411041,0.04626975953578949
1761838404624351000,4.19635107421875,-0.09617020934820175,-0.04386918619275093,0.04602794721722603
1761838404634420200,4.206420166015625,-0.1028057411313057,-0.0420830063521862,0.051241084933280945
1761838404644490000,4.216489990234375,-0.10590139776468277,-0.04079430177807808,0.048722267150878906
1761838404654559200,4.226559326171875,-0.11359181255102158,-0.0415319986641407,0.05300728976726532
1761838404664629000,4.23662890625,-0.12037834525108337,-0.04861919954419136,0.043651338666677475
1761838404674698200,4.2466982421875,-0.12034345418214798,-0.050807252526283264,0.04090508818626404
1761838404684768000,4.25676806640625,-0.12280634790658951,-0.04880588874220848,0.03504054248332977
1761838404694837000,4.2668369140625,-0.11828376352787018,-0.04133838415145874,0.030733678489923477
1761838404704907000,4.276906982421875,-0.11893490701913834,-0.026629745960235596,0.02550349570810795
1761838404714976000,4.28697607421875,-0.11636096239089966,-0.01347506232559681,0.019096462056040764
1761838404725046300,4.29704638671875,-0.11264585703611374,0.0026160231791436672,0.011632953770458698
1761838404735115000,4.307114990234375,-0.10214927047491074,0.009351690299808979,-0.00022210762836039066
1761838404745185000,4.31718505859375,-0.08688003569841385,0.008716260083019733,-0.009356483817100525
1761838404755254000,4.32725390625,-0.06263062357902527,0.008223042823374271,-0.01974654011428356
1761838404765324000,4.337323974609375,-0.05320090427994728,-0.0014498248929157853,-0.021769477054476738
1761838404775396900,4.34739697265625,-0.05155986174941063,-0.0060445768758654594,-0.018856246024370193
1761838404785467000,4.357466796875,-0.047685496509075165,-0.005801962688565254,-0.01269928365945816
1761838404795536000,4.367535888671875,-0.054719969630241394,-0.005959089379757643,0.000723048229701817
1761838404805606000,4.37760595703125,-0.0631060004234314,0.0007739146240055561,0.014168282970786095
1761838404815675100,4.387675048828125,-0.06780887395143509,0.006139917764812708,0.029920082539319992
1761838404825745000,4.397744873046875,-0.06913326680660248,0.0044317664578557014,0.03395983204245567
1761838404835814000,4.40781396484375,-0.06774495542049408,-0.002386192325502634,0.03370363637804985
1761838404845884000,4.4178837890625,-0.06491055339574814,-0.0032285500783473253,0.03190227225422859
1761838404855953000,4.427952880859375,-0.05972937494516373,-0.0065652248449623585,0.02370293252170086
1761838404866023000,4.43802294921875,-0.054357513785362244,-0.005528189707547426,0.015097459778189659
1761838404876092000,4.448091796875,-0.05193829908967018,-0.00031372037483379245,0.003733219113200903
1761838404886162000,4.458161865234375,-0.04772837460041046,-0.00746111199259758,-0.012778645381331444
1761838404896231000,4.46823095703125,-0.043479833751916885,-0.012408732436597347,-0.02955229952931404
1761838404906301000,4.478301025390625,-0.036447491496801376,-0.016573118045926094,-0.0437951497733593
1761838404916370000,4.488369873046875,-0.026765301823616028,-0.01284575741738081,-0.04892919212579727
1761838404926440000,4.49843994140625,-0.021832328289747238,-0.011544803157448769,-0.045222871005535126
1761838404936509000,4.508509033203125,-0.01930738426744938,-0.003448527306318283,-0.034986212849617004
1761838404946579000,4.518578857421875,-0.015664713457226753,0.007650729268789291,-0.01575792394578457
1761838404956648000,4.52864794921875,-0.009127718396484852,0.004718322306871414,-0.0038032603915780783
1761838404966718000,4.538718017578125,-0.003081277245655656,0.010120544582605362,0.008864598348736763
1761838404976787000,4.548786865234375,0.0014237258583307266,0.0067934575490653515,0.01071150042116642
1761838404986857000,4.55885693359375,0.0065138256177306175,0.00512871565297246,0.010424145497381687
1761838404996926000,4.568926025390625,0.01068220566958189,0.010309096425771713,0.014701182022690773
1761838405006996000,4.578995849609375,0.015529957599937916,0.015034343115985394,0.015452725812792778
1761838405017064700,4.589064697265625,0.0186621006578207,0.016711335629224777,0.006154831498861313
1761838405027135000,4.599135009765625,0.02267708256840706,0.018207766115665436,-0.008801214396953583
1761838405037204000,4.609203857421875,0.02485501579940319,0.04060628265142441,-0.012193815782666206
1761838405047274000,4.61927392578125,0.0197468064725399,0.025422003120183945,-0.030891602858901024
1761838405057343000,4.629343017578125,0.020439760759472847,0.015253255143761635,-0.050936948508024216
1761838405067412700,4.639412841796875,0.012296879664063454,0.01787913218140602,-0.05915386602282524
1761838405077483000,4.64948291015625,0.006894924212247133,0.015837552025914192,-0.06292650103569031
1761838405087551700,4.6595517578125,-0.002002430846914649,0.018996328115463257,-0.062074024230241776
1761838405097622000,4.6696220703125,-0.009327455423772335,0.026038525626063347,-0.0562097430229187
1761838405107690800,4.679690673828125,-0.011958392336964607,0.025417475029826164,-0.04587481543421745
1761838405117761000,4.689760986328125,-0.013464143499732018,0.02111460641026497,-0.04098232090473175
1761838405127830000,4.699830078125,-0.008527708239853382,0.029280656948685646,-0.03267112746834755
1761838405137899800,4.709899658203125,-0.008206264115869999,0.013040434569120407,-0.025433987379074097
1761838405147969000,4.719968994140625,-0.004482366610318422,-0.010823885910212994,-0.027667047455906868
1761838405158038800,4.730038818359375,0.006326072849333286,-0.019767045974731445,-0.018755044788122177
1761838405168108000,4.74010791015625,0.013157347217202187,-0.023122096434235573,-0.008683236315846443
1761838405178177800,4.750177734375,0.029326995834708214,-0.0322016105055809,-0.006107160821557045
1761838405188247000,4.7602470703125,0.041616685688495636,-0.04508491978049278,-0.004889830015599728
1761838405198316800,4.77031689453125,0.05775517597794533,-0.0617549754679203,-0.005898901727050543
1761838405208386000,4.780385986328125,0.07107257843017578,-0.07335730642080307,-0.000007190534688561456
1761838405218456000,4.7904560546875,0.07840266078710556,-0.07461191713809967,0.015799203887581825
1761838405228524800,4.80052490234375,0.07653232663869858,-0.05957597866654396,0.040705084800720215
1761838405238595000,4.810594970703125,0.07368327677249908,-0.073586605489254,0.04496294632554054
1761838405248663800,4.820663818359375,0.07974809408187866,-0.08252523839473724,0.04141455143690109
1761838405258734000,4.830734130859375,0.07715710252523422,-0.08565738052129745,0.03568662330508232
1761838405268802800,4.840802734375,0.07660476118326187,-0.09691083431243896,0.03074859082698822
1761838405278873000,4.850873046875,0.07227419316768646,-0.10630220174789429,0.03201518952846527
1761838405288941800,4.86094189453125,0.06536941975355148,-0.10476875305175781,0.05001043528318405
1761838405299011800,4.87101171875,0.05203923210501671,-0.09086199849843979,0.080723337829113
1761838405309080800,4.881080810546875,0.031798675656318665,-0.0689534991979599,0.12121804058551788
1761838405319150800,4.89115087890625,0.013000753708183765,-0.04692782834172249,0.14484933018684387
1761838405329219800,4.9012197265625,-0.003311640815809369,-0.03293584659695625,0.1465470939874649
1761838405339289900,4.911289794921875,-0.013194365426898003,-0.01631638966500759,0.13616901636123657
1761838405349359000,4.921359130859375,-0.01847461424767971,-0.00038456046604551375,0.10924366861581802
1761838405359428900,4.931428955078125,-0.018977154046297073,0.008814796805381775,0.07196846604347229
1761838405369498000,4.941498046875,-0.0156553927809,0.010849185287952423,0.024341292679309845
1761838405379567900,4.95156787109375,-0.018021611496806145,0.0142945172265172,-0.020056532695889473
1761838405389637000,4.96163720703125,-0.016230368986725807,0.023437947034835815,-0.06334888190031052
1761838405399707000,4.971706787109375,-0.015926236286759377,0.030842600390315056,-0.08820469677448273
1761838405409775900,4.98177587890625,-0.019352393224835396,0.03465171903371811,-0.10820929706096649
1761838405419846000,4.991845947265625,-0.021411549299955368,0.04448757320642471,-0.11419394612312317
1761838405429915000,5.001914794921875,-0.025552764534950256,0.05221233889460564,-0.10805056989192963
1761838405439985200,5.011985107421875,-0.02846919186413288,0.0633411556482315,-0.09207586199045181
1761838405450054000,5.022053955078125,-0.03213982656598091,0.06662429869174957,-0.07228005677461624
1761838405460124000,5.0321240234375,-0.036019518971443176,0.06703096628189087,-0.05517883226275444
1761838405470193000,5.04219287109375,-0.036386504769325256,0.06241197884082794,-0.041243311017751694
1761838405480263000,5.052262939453125,-0.03133795037865639,0.0515177845954895,-0.03593376651406288
1761838405490332000,5.062331787109375,-0.02864149771630764,0.031743280589580536,-0.038307443261146545
1761838405500402000,5.07240185546875,-0.02394208498299122,0.01793772168457508,-0.04434296488761902
1761838405510471000,5.082470947265625,-0.01649269089102745,-0.0004676510870922357,-0.047080960124731064
1761838405520541000,5.092541015625,-0.010144779458642006,-0.016999490559101105,-0.03515239432454109
1761838405530610000,5.10260986328125,-0.0019568908028304577,-0.028501681983470917,-0.018699917942285538
1761838405540680000,5.112679931640625,0.006032059900462627,-0.036972399801015854,0.003055444685742259
1761838405550749000,5.1227490234375,0.011925901286303997,-0.04217168688774109,0.02624065801501274
1761838405560819000,5.13281884765625,0.019653063267469406,-0.040821198374032974,0.038477618247270584
1761838405570887700,5.1428876953125,0.027643878012895584,-0.03678171709179878,0.03783393278717995
1761838405580958000,5.1529580078125,0.035827238112688065,-0.03611033409833908,0.030010363087058067
1761838405591027000,5.16302685546875,0.04548759013414383,-0.03828560188412666,0.01010882668197155
1761838405601097000,5.173096923828125,0.052330050617456436,-0.0421607680618763,-0.01008299458771944
1761838405611166000,5.183166015625,0.05735117197036743,-0.0443328432738781,-0.023852335289120674
1761838405621236000,5.193236083984375,0.05578310415148735,-0.04813024401664734,-0.025916285812854767
1761838405631305000,5.203304931640625,0.0526680052280426,-0.038474954664707184,-0.008959139697253704
1761838405641374700,5.213374755859375,0.052621930837631226,-0.028500882908701897,0.01444125734269619
1761838405651444000,5.22344384765625,0.052199821919202805,0.004050401505082846,0.053647782653570175
1761838405661513700,5.233513671875,0.055329568684101105,-0.00005965480886516161,0.07119614630937576
1761838405671583000,5.2435830078125,0.052379850298166275,-0.015558719635009766,0.07974862307310104
1761838405681653000,5.253653076171875,0.05441157519817352,-0.014794658869504929,0.07596959918737411
1761838405691722000,5.263721923828125,0.051185689866542816,-0.013068131171166897,0.0691031739115715
1761838405701792000,5.2737919921875,0.0516408234834671,-0.009718673303723335,0.047029826790094376
1761838405711861000,5.283861083984375,0.048647165298461914,-0.014584269374608994,0.022825952619314194
1761838405721931000,5.293930908203125,0.04553872346878052,-0.016696155071258545,-0.007278419099748135
1761838405732000000,5.304,0.04590810462832451,-0.015586682595312595,-0.03223250433802605
1761838405742070000,5.314070068359375,0.048458877950906754,0.012554939836263657,-0.028183966875076294
1761838405752138800,5.324138671875,0.022600917145609856,0.010378072038292885,-0.042684346437454224
1761838405762209000,5.334208984375,0.014568556100130081,-0.010101635940372944,-0.061055898666381836
1761838405772278300,5.3442783203125,0.008322112262248993,-0.014095845632255077,-0.06539898365736008
1761838405782348300,5.354348388671875,-0.002285258611664176,-0.012497682124376297,-0.05841830372810364
1761838405792417500,5.36441748046875,-0.008206530474126339,-0.008582303300499916,-0.047390684485435486
1761838405802487300,5.3744873046875,-0.013682256452739239,-0.0004934837343171239,-0.03143329173326492
1761838405812556500,5.384556640625,-0.021252024918794632,0.0008961536805145442,-0.024810275062918663
1761838405822626300,5.394626220703125,-0.027668379247188568,0.002031991956755519,-0.01344576757401228
1761838405832695600,5.404695556640625,-0.026394855231046677,0.0030184267088770866,-0.0034432008396834135
1761838405842765300,5.414765380859375,-0.025414546951651573,0.002475142013281584,0.00688986387103796
1761838405852834600,5.42483447265625,-0.022824356332421303,-0.0022176143247634172,0.015670040622353554
1761838405862904300,5.434904296875,-0.019784091040492058,-0.009313873015344143,0.025544507429003716
1761838405872973600,5.4449736328125,-0.02076147124171257,-0.011956261470913887,0.03319976478815079
1761838405883043600,5.455043701171875,-0.019348664209246635,-0.013227388262748718,0.032514266669750214
1761838405893112300,5.4651123046875,-0.01853080652654171,-0.013908891007304192,0.026282737031579018
1761838405903182600,5.4751826171875,-0.020289292559027672,-0.017786454409360886,0.01613236404955387
1761838405913251300,5.485251220703125,-0.019539080560207367,-0.00998898409307003,0.005516205448657274
1761838405923321600,5.495321533203125,-0.017071127891540527,-0.006286125164479017,0.005656553898006678
1761838405933390300,5.505390380859375,-0.017107613384723663,0.00358781055547297,-0.001156877144239843
1761838405943460400,5.51546044921875,-0.017175525426864624,0.0019342538435012102,-0.002624012529850006
1761838405953529300,5.525529296875,-0.011502725072205067,0.005006209947168827,-0.012883308343589306
1761838405963599400,5.535599365234375,-0.007183078210800886,0.001133174984715879,-0.02257028967142105
1761838405973668400,5.54566845703125,-0.005884254351258278,0.0036698358599096537,-0.029279857873916626
1761838405983738400,5.55573828125,-0.005302353762090206,-0.0052296495996415615,-0.032815203070640564
1761838405993807400,5.565807373046875,-0.002575543010607362,-0.0043777041137218475,-0.02744121104478836
1761838406003877400,5.57587744140625,-0.00740145705640316,-0.0070672305300831795,-0.017971010878682137
1761838406013946600,5.585946533203125,-0.011591408401727676,-0.009131979197263718,-0.006981476675719023
1761838406024016400,5.596016357421875,-0.012602077797055244,-0.005058408249169588,0.0021638183388859034
1761838406034085600,5.606085693359375,-0.01792014390230179,-0.0067812069319188595,0.012248942628502846
1761838406044155400,5.6161552734375,-0.0196104533970356,-0.003099120454862714,0.018822157755494118
1761838406054224400,5.626224365234375,-0.020533237606287003,-0.0027238810434937477,0.021440044045448303
1761838406064294400,5.63629443359375,-0.019236279651522636,-0.003299123840406537,0.022403042763471603
1761838406074363400,5.64636328125,-0.016683904454112053,-0.004193946253508329,0.016034893691539764
1761838406084433400,5.656433349609375,-0.015195731073617935,-0.007246993947774172,0.0037878139410167933
1761838406094502400,5.66650244140625,-0.00612207455560565,-0.009373527951538563,-0.005781456362456083
1761838406104572400,5.676572509765625,0.000734766130335629,-0.012988769449293613,-0.010462228208780289
1761838406114641400,5.686641357421875,0.008493886329233646,-0.01053599826991558,-0.016763268038630486
1761838406124711400,5.69671142578125,0.015995744615793228,-0.01116397138684988,-0.017588049173355103
1761838406134780400,5.706780517578125,0.0207673292607069,-0.004850149154663086,-0.015202920883893967
1761838406144850400,5.716850341796875,0.022007830440998077,-0.000743820914067328,-0.00806272029876709
1761838406154919400,5.72691943359375,0.026687802746891975,0.004561196081340313,-0.00028389296494424343
1761838406164989400,5.736989501953125,0.026488864794373512,0.004715126473456621,0.007792143151164055
1761838406175058400,5.747058349609375,0.026747457683086395,0.004447212442755699,0.015142201445996761
1761838406185128400,5.75712841796875,0.026873959228396416,0.005054946057498455,0.018739333376288414
1761838406195197400,5.767197509765625,0.02845454402267933,0.005197425372898579,0.015015168115496635
1761838406205267500,5.777267333984375,0.025000158697366714,0.000010652644050423987,0.007327155210077763
1761838406215336400,5.78733642578125,0.024150077253580093,-0.002176867797970772,-0.0023558323737233877
1761838406225406500,5.797406494140625,0.028597289696335793,-0.004292482975870371,-0.009128251112997532
1761838406235475200,5.80747509765625,0.021829664707183838,-0.0031856733839958906,-0.018067417666316032
1761838406245545500,5.81754541015625,0.01973642036318779,-0.009335178881883621,-0.023200394585728645
1761838406255614500,5.827614501953125,0.013999971561133862,-0.006418750621378422,-0.016083894297480583
1761838406265684500,5.8376845703125,0.009356217458844185,-0.004768922459334135,-0.01266759168356657
1761838406275753500,5.84775341796875,0.008216651156544685,-0.0019678096286952496,-0.0036394759081304073
1761838406285823200,5.8578232421875,0.005002481862902641,-0.0028636970091611147,0.0011092065833508968
1761838406295892500,5.867892578125,0.0022061625495553017,-0.009798568673431873,0.005997971165925264
1761838406305962200,5.877962158203125,-0.0026013758033514023,-0.012051336467266083,0.011355185881257057
1761838406316031500,5.888031494140625,-0.0035353463608771563,-0.006224073935300112,0.019758524373173714
1761838406326101200,5.898101318359375,-0.004628840368241072,-0.013254020363092422,0.022465627640485764
1761838406336170500,5.90817041015625,-0.0014365090755745769,-0.01335948146879673,0.023479493334889412
1761838406346240500,5.918240478515625,-0.0001893507578643039,-0.02105708234012127,0.02171887829899788
1761838406356309500,5.9283095703125,0.0014879080699756742,-0.02599671296775341,0.023722639307379723
1761838406366379500,5.938379638671875,-0.000045273736759554595,-0.01793825440108776,0.028390895575284958
1761838406376448500,5.948448486328125,-0.007296795025467873,-0.014548316597938538,0.030571224167943
1761838406386518500,5.9585185546875,-0.010924287140369415,-0.011916314251720905,0.02923964522778988
1761838406396587300,5.968587158203125,-0.009848635643720627,-0.012382367625832558,0.021199028939008713
1761838406406657500,5.978657470703125,-0.00954050850123167,-0.016993630677461624,0.012945093214511871
1761838406416726300,5.988726318359375,-0.009638778865337372,-0.024767132475972176,0.0017680726014077663
1761838406426796500,5.998796630859375,-0.009068329818546772,-0.025828933343291283,0.00009374327055411413
1761838406436865300,6.008865234375,-0.01275520958006382,-0.021317007020115852,0.006551908794790506
1761838406446935300,6.018935302734375,-0.02015240676701069,-0.011859855614602566,0.015670571476221085
1761838406457005600,6.029005615234375,-0.02171887829899788,-0.0020391824655234814,0.027047596871852875
1761838406467074300,6.03907421875,-0.01577283814549446,0.005350290797650814,0.04071919992566109
1761838406477144600,6.04914453125,-0.015232215635478497,0.007996407337486744,0.042623892426490784
1761838406487213300,6.05921337890625,-0.01185186579823494,0.008626244962215424,0.03562111034989357
1761838406497283600,6.06928369140625,-0.006433397997170687,0.0012966931099072099,0.022174011915922165
1761838406507352300,6.079352294921875,-0.002252235310152173,0.00044847631943412125,0.009045160375535488
1761838406517422300,6.08942236328125,-0.0033939324785023928,-0.0024778051301836967,-0.007259244564920664
1761838406527491300,6.0994912109375,-0.0031459920573979616,0.004295678809285164,-0.0062459115870296955
1761838406537561300,6.109561279296875,-0.005558017175644636,0.009128517471253872,-0.0038959383964538574
1761838406547630300,6.11963037109375,-0.005224589258432388,0.014978683553636074,0.0028716865926980972
1761838406557700400,6.129700439453125,-0.010209760628640652,0.01326813455671072,0.00321816373616457
1761838406567769600,6.13976953125,-0.013103018514811993,0.013597833923995495,0.00566853815689683
1761838406577839400,6.14983935546875,-0.01774490810930729,0.013578392565250397,-0.000984836951829493
1761838406587908600,6.15990869140625,-0.023966852575540543,0.017165137454867363,-0.0036695697344839573
1761838406597978400,6.169978271484375,-0.026101374998688698,0.015240205451846123,-0.011326423846185207
1761838406608047400,6.18004736328125,-0.03172703832387924,0.011012704111635685,-0.01949913240969181
1761838406618117400,6.190117431640625,-0.03434545546770096,0.012383166700601578,-0.024531975388526917
1761838406628186400,6.200186279296875,-0.0384664312005043,0.005387574899941683,-0.025480059906840324
1761838406638256400,6.21025634765625,-0.03808639943599701,0.0012740562669932842,-0.023732759058475494
1761838406648325400,6.220325439453125,-0.03702805936336517,-0.00490208063274622,-0.01176131796091795
1761838406658395600,6.230395751953125,-0.03699157387018204,-0.004552674014121294,-0.0018602180061861873
1761838406668464400,6.24046435546875,-0.03490658476948738,-0.008172708563506603,0.007390271872282028
1761838406678534400,6.250534423828125,-0.03308311849832535,-0.006624080706387758,0.016625314950942993
1761838406688603400,6.260603271484375,-0.0327981598675251,-0.004200870171189308,0.019289541989564896
1761838406698673400,6.27067333984375,-0.03316061571240425,-0.00301682879216969,0.025192704051733017
1761838406708742400,6.280742431640625,-0.026283802464604378,-0.005726329050958157,0.024271251633763313
1761838406718812400,6.2908125,-0.02359720505774021,-0.009695237502455711,0.01961018703877926
1761838406728881400,6.30088134765625,-0.020440293475985527,-0.013226056471467018,0.02009035460650921
1761838406738951400,6.310951416015625,-0.011637480929493904,-0.010365023277699947,0.01564660482108593
1761838406749020400,6.3210205078125,-0.00758042186498642,-0.015484684146940708,0.006613694131374359
1761838406759090400,6.33109033203125,-0.002925216220319271,-0.01660853810608387,0.0010037453612312675
1761838406769159400,6.341159423828125,-0.003909786697477102,-0.020656809210777283,0.0008239820599555969
1761838406779225600,6.3512255859375,-0.00036378781078383327,-0.022908244282007217,0.0002671150432433933
1761838406789294600,6.361294677734375,-0.0005217132274992764,-0.022706111893057823,0.0031302794814109802
1761838406799364600,6.371364501953125,-0.003090598387643695,-0.021515678614377975,0.017178719863295555
1761838406809433600,6.38143359375,-0.003894606838002801,-0.017557688057422638,0.024865135550498962
1761838406819503900,6.39150390625,-0.00717642018571496,-0.012226572260260582,0.024961275979876518
1761838406829572600,6.401572509765625,-0.007179616019129753,-0.011356784030795097,0.01925545372068882
1761838406839643000,6.411642822265625,-0.007961519993841648,-0.015872173011302948,0.01124865934252739
1761838406849711600,6.421711669921875,-0.009129848331212997,-0.021952703595161438,0.002805107505992055
1761838406859781600,6.43178173828125,-0.008345548063516617,-0.029023395851254463,0.0020817930344492197
1761838406869850600,6.4418505859375,-0.006992395501583815,-0.029752569273114204,0.0021499700378626585
1761838406879920600,6.451920654296875,-0.00962706096470356,-0.02726224809885025,0.006868824828416109
1761838406889989600,6.46198974609375,-0.010432667098939419,-0.029137911275029182,0.008973521180450916
1761838406900059600,6.4720595703125,-0.009184443391859531,-0.026691531762480736,0.013669206760823727
1761838406910128600,6.482128662109375,-0.010894459672272205,-0.019404856488108635,0.02316577360033989
1761838406920198700,6.49219873046875,-0.01088886708021164,-0.01805862970650196,0.023200128227472305
1761838406930267600,6.502267578125,-0.004761732183396816,-0.022598519921302795,0.021267738193273544
1761838406940337700,6.512337646484375,-0.0010197244118899107,-0.028302744030952454,0.02069276198744774
1761838406950406700,6.52240673828125,0.0007590008899569511,-0.03205833584070206,0.018864767625927925
1761838406960476700,6.5324765625,0.006268548313528299,-0.034452248364686966,0.010290187783539295
1761838406970545700,6.542545654296875,0.013030581176280975,-0.035465847700834274,0.00884861871600151
1761838406980615700,6.55261572265625,0.01563754864037037,-0.042382076382637024,0.0007427555974572897
1761838406990684700,6.5626845703125,0.019207250326871872,-0.04441912844777107,0.0028160265646874905
1761838407000754700,6.572754638671875,0.016505207866430283,-0.037272270768880844,0.013766412623226643
1761838407010823700,6.58282373046875,0.01372167095541954,-0.03249029815196991,0.022493325173854828
1761838407020893700,6.592893798828125,0.016531039029359818,-0.02660045213997364,0.03050358034670353
1761838407030962700,6.602962646484375,0.01756780780851841,-0.023807594552636147,0.02576608397066593
1761838407041032400,6.613032470703125,0.0204490814357996,-0.021165739744901657,0.02099343203008175
1761838407051101700,6.623101806640625,0.024101607501506805,-0.02466806210577488,0.005290103144943714
1761838407061171700,6.633171630859375,0.025241706520318985,-0.028789570555090904,-0.005145493429154158
1761838407071240700,6.64324072265625,0.02822657860815525,-0.0295520331710577,-0.012919792905449867
1761838407081310700,6.653310791015625,0.028503280133008957,-0.03166418522596359,-0.014914500527083874
1761838407091379700,6.663379638671875,0.027050260454416275,-0.03001675382256508,-0.016210662201046944
1761838407101449700,6.67344970703125,0.02943591959774494,-0.031016239896416664,-0.011582886800169945
1761838407111518700,6.683518798828125,0.02979118563234806,-0.025016669183969498,-0.001062068622559309
1761838407121588700,6.693588623046875,0.028922727331519127,-0.021586252376437187,0.007424094248563051
1761838407131657700,6.70365771484375,0.028680114075541496,-0.020842963829636574,0.009253419004380703
1761838407141727700,6.713727783203125,0.03253930062055588,-0.022905582562088966,0.009916280396282673
1761838407151796500,6.72379638671875,0.029096100479364395,-0.024889370426535606,0.004923119675368071
1761838407161866800,6.73386669921875,0.027517911046743393,-0.02888783998787403,0.0025475798174738884
1761838407171935500,6.743935546875,0.02857705019414425,-0.023977505043148994,0.008323444053530693
1761838407182005800,6.754005859375,0.02725958451628685,-0.016399746760725975,0.01239062286913395
1761838407192074800,6.76407470703125,0.02153751626610756,-0.0116148442029953,0.01456003449857235
1761838407202144500,6.77414453125,0.018695922568440437,-0.007297327741980553,0.01949061080813408
1761838407212213800,6.7842138671875,0.016110792756080627,0.0007486145477741957,0.015692144632339478
1761838407222283500,6.794283447265625,0.01631692238152027,0.0024522386956959963,0.006030461750924587
1761838407232352800,6.804352783203125,0.018972892314195633,0.004849616438150406,-0.006056827027350664
1761838407242422500,6.814422607421875,0.020258666947484016,0.004991562571376562,-0.019363312050700188
1761838407252492500,6.824492431640625,0.02358468808233738,0.0046360306441783905,-0.02797570824623108
1761838407262561500,6.8345615234375,0.023546338081359863,-0.0006894923863001168,-0.036920201033353806
1761838407272631600,6.844631591796875,0.025366876274347305,-0.0002210423699580133,-0.0392395481467247
1761838407282700800,6.85470068359375,0.023275228217244148,-0.0011467571603134274,-0.036967869848012924
1761838407292770600,6.8647705078125,0.017166469246149063,0.0038506644777953625,-0.035654932260513306
1761838407302839800,6.87483984375,0.016412528231739998,0.004834169987589121,-0.03568902239203453
1761838407312909600,6.88490966796875,0.010692591778934002,0.003487143199890852,-0.03248577192425728
1761838407322978800,6.894978759765625,0.008285893127322197,0.006881874520331621,-0.02978665754199028
1761838407333048600,6.905048583984375,0.008010788820683956,0.010131729766726494,-0.023496538400650024
1761838407343117800,6.915117919921875,0.004900216590613127,0.004079164005815983,-0.018064754083752632
1761838407353187600,6.9251875,0.006560164503753185,0.0019371833186596632,-0.0051508196629583836
1761838407363256600,6.935256591796875,0.007846205495297909,-0.0033595776185393333,0.003537476761266589
1761838407373326800,6.945326904296875,0.008070177398622036,-0.005959089379757643,0.006776679772883654
1761838407383395600,6.9553955078125,0.010868093930184841,-0.015211443416774273,0.011784753762185574
1761838407393465900,6.9654658203125,0.017477260902523994,-0.014215953648090363,0.011345598846673965
1761838407403534600,6.97553466796875,0.021080518141388893,-0.018760638311505318,0.009469135664403439
1761838407413604900,6.98560498046875,0.02672615274786949,-0.012300075963139534,0.019887953996658325
1761838407423673600,6.995673583984375,0.026205504313111305,-0.010705641470849514,0.01678856648504734
1761838407433743600,7.00574365234375,0.026578348129987717,-0.021158281713724136,0.015750734135508537
1761838407443812600,7.0158125,0.028784243389964104,-0.020979583263397217,0.012181565165519714
1761838407453882600,7.025882568359375,0.02732110396027565,-0.021202489733695984,0.012308863922953606
1761838407463951600,7.03595166015625,0.025963157415390015,-0.019244801253080368,0.006128466222435236
1761838407474021600,7.046021728515625,0.025071797892451286,-0.016585635021328926,0.0032716933637857437
1761838407484090600,7.056090576171875,0.01780429668724537,-0.014482269994914532,-0.005341502372175455
1761838407494160600,7.06616064453125,0.014437262900173664,-0.015095329843461514,-0.007138869725167751
1761838407504230000,7.07622998046875,0.006472280248999596,-0.009161273948848248,-0.008055529557168484
1761838407514299600,7.086299560546875,-0.00010253170330543071,-0.002757703186944127,-0.0013483584625646472
1761838407524368600,7.09636865234375,-0.004296211525797844,0.0001233043585671112,-0.0009941579774022102
1761838407534438700,7.106438720703125,-0.00941880140453577,-0.0037798245903104544,0.0030088394414633512
1761838407544507600,7.116507568359375,-0.013912087306380272,-0.0015646071406081319,0.006392385344952345
1761838407554577700,7.12657763671875,-0.014161624945700169,-0.00561101408675313,0.015182415023446083
1761838407564646700,7.136646728515625,-0.015961389988660812,-0.008868859149515629,0.0167334396392107
1761838407574716700,7.146716552734375,-0.017069265246391296,-0.00657534459605813,0.020910874009132385
1761838407584785700,7.15678564453125,-0.020077571272850037,-0.014083062298595905,0.018502578139305115
1761838407594855700,7.166855712890625,-0.020538298413157463,-0.015684952959418297,0.019346533343195915
1761838407604924700,7.176924560546875,-0.019877301529049873,-0.008626777678728104,0.02165602706372738
1761838407614994700,7.18699462890625,-0.021376928314566612,-0.00435986090451479,0.026759175583720207
1761838407625063700,7.197063720703125,-0.02051406353712082,-0.0005720470217056572,0.019777698442339897
1761838407635133700,7.2071337890625,-0.019596870988607407,-0.003388339886441827,0.016951553523540497
1761838407645202700,7.21720263671875,-0.018940402194857597,-0.010241718962788582,0.006912766955792904
1761838407655272700,7.227272705078125,-0.017900969833135605,-0.00887791346758604,0.00657694274559617
1761838407665341700,7.237341796875,-0.02045281045138836,-0.0023015039041638374,0.01016714982688427
1761838407675411700,7.24741162109375,-0.021273329854011536,0.005536179058253765,0.012212191708385944
1761838407685480700,7.257480712890625,-0.023561252281069756,0.004314321093261242,0.004309527110308409
1761838407695550700,7.26755078125,-0.016558203846216202,0.0008173241512849927,-0.002930276095867157
1761838407705619500,7.277619384765625,-0.014226606115698814,-0.008538360707461834,-0.016052735969424248
1761838407715689700,7.287689697265625,-0.012926450930535793,-0.0163629949092865,-0.0244321059435606
1761838407725758500,7.297758544921875,-0.012201272882521152,-0.017830396071076393,-0.01309263240545988
1761838407735828700,7.307828857421875,-0.016685236245393753,-0.0009376989910379052,0.007379619404673576
1761838407745897700,7.317897705078125,-0.02123364992439747,0.00902811624109745,0.01888980157673359
1761838407755967700,7.3279677734375,-0.021132182329893112,0.009828129783272743,0.019725501537322998
1761838407766036700,7.33803662109375,-0.020059196278452873,0.0038685076870024204,0.015671636909246445
1761838407776106500,7.3481064453125,-0.01378265768289566,0.002284725895151496,0.010362359695136547
1761838407786175500,7.358175537109375,-0.009976201690733433,-0.0018604843644425273,0.007030212786048651
1761838407796245500,7.36824560546875,-0.0019592875614762306,-0.003896737238392234,0.005854959599673748
1761838407806314500,7.378314453125,0.0028703550342470407,-0.011893677525222301,0.00520727876573801
1761838407816384500,7.388384521484375,0.009367935359477997,-0.014246580190956593,0.007376423571258783
1761838407826453500,7.39845361328125,0.014171212911605835,-0.013788250274956226,0.01326653640717268
1761838407836523500,7.4085234375,0.014229269698262215,-0.0159470085054636,0.012428706511855125
1761838407846592500,7.418592529296875,0.011568505316972733,-0.010794591158628464,0.016394952312111855
1761838407856662500,7.42866259765625,0.005285309627652168,-0.0012860405258834362,0.019540945068001747
1761838407866731500,7.4387314453125,0.0027680895291268826,0.005549495108425617,0.01931137964129448
1761838407876801500,7.448801513671875,-0.00013209278404247016,0.003078614128753543,0.006584665738046169
1761838407886870500,7.45887060546875,0.001008805469609797,-0.00021172130072955042,-0.002039981307461858
1761838407896940500,7.4689404296875,0.0015595471486449242,-0.002928145695477724,-0.013700366020202637
1761838407907010600,7.479010498046875,-0.0003352919884491712,-0.008668589405715466,-0.015862319618463516
1761838407917079600,7.48907958984375,-0.00558092026039958,-0.006872819736599922,-0.010572749190032482
1761838407927148500,7.4991484375,-0.011945342645049095,-0.005909021943807602,-0.0010162622202187777
1761838407937218300,7.50921826171875,-0.017127055674791336,-0.008519452065229416,0.011156780645251274
1761838407947288600,7.51928857421875,-0.020609671249985695,-0.017791779711842537,0.022003035992383957
1761838407957357600,7.529357666015625,-0.023868847638368607,-0.014158429577946663,0.03598330169916153
1761838407967427600,7.539427490234375,-0.025731196627020836,-0.0076240976341068745,0.04626283794641495
1761838407977496600,7.54949658203125,-0.026988474652171135,-0.0021291973534971476,0.043956007808446884
1761838407987566600,7.559566650390625,-0.021014470607042313,-0.004820321686565876,0.03681740164756775
1761838407997635600,7.569635498046875,-0.019236810505390167,-0.01019964087754488,0.020365992560982704
1761838408007705300,7.579705322265625,-0.009927199222147465,-0.01047234795987606,0.006502107717096806
1761838408017774600,7.589774658203125,-0.003736414946615696,-0.012567989528179169,-0.0033843449782580137
1761838408027844400,7.59984423828125,0.0015664712991565466,-0.016376575455069542,-0.007726629264652729
1761838408037913600,7.60991357421875,0.001130245509557426,-0.01197090931236744,-0.005784385837614536
1761838408047983600,7.619983642578125,0.0019435749854892492,-0.008927981369197369,-0.0036967338528484106
1761838408058052600,7.630052490234375,0.0010378338629379869,-0.008565524592995644,0.0008996158139780164
1761838408068122600,7.64012255859375,0.00195156445261091,-0.013845241628587246,0.0015243934467434883
1761838408078191600,7.650191650390625,0.0017856494523584843,-0.02171275205910206,0.008647018112242222
1761838408088261600,7.66026171875,-0.00017789915727917105,-0.01913800835609436,0.021042700856924057
1761838408098330600,7.67033056640625,-0.002650377806276083,-0.016151539981365204,0.026141323149204254
1761838408108400600,7.680400634765625,-0.006007825024425983,-0.015409582294523716,0.03068973496556282
1761838408118469400,7.690469482421875,-0.011689945124089718,-0.013760553672909737,0.028917668387293816
1761838408128539600,7.70053955078125,-0.01392966415733099,-0.012791695073246956,0.02468217723071575
1761838408138608400,7.7106083984375,-0.01359463855624199,-0.015721704810857773,0.020654145628213882
1761838408148678700,7.7206787109375,-0.011521900072693825,-0.014627678319811821,0.014627145603299141
1761838408158747400,7.730747314453125,-0.010831874795258045,-0.018395252525806427,0.006827545817941427
1761838408168817400,7.7408173828125,-0.009127452038228512,-0.01660560816526413,-0.003334810258820653
1761838408178886700,7.75088671875,-0.003820304526016116,-0.016984576359391212,-0.003974501509219408
1761838408188956400,7.760956298828125,-0.004032824654132128,-0.011203652247786522,-0.007446198258548975
1761838408199025700,7.771025634765625,-0.0017885789275169373,-0.013703827746212482,-0.003566771512851119
1761838408209095400,7.781095458984375,0.000800279900431633,-0.00785659160465002,-0.0023209447972476482
1761838408219164700,7.79116455078125,-0.000021305288100847974,-0.004845887888222933,0.004570250865072012
1761838408229234400,7.801234375,0.0013938985066488385,-0.004024302586913109,0.010219347663223743
1761838408239303700,7.8113037109375,-0.005030977539718151,-0.00013262542779557407,0.012494220398366451
1761838408249373400,7.82137353515625,-0.008020109497010708,0.008463792502880096,0.015322230756282806
1761838408259442700,7.831442626953125,-0.008835037238895893,0.007518103811889887,0.015016499906778336
1761838408269512700,7.8415126953125,-0.008384429849684238,0.012034558691084385,0.013338708318769932
1761838408279581400,7.85158154296875,-0.007159642409533262,0.005071457475423813,0.006473612040281296
1761838408289651700,7.861651611328125,-0.00484349112957716,-0.0029885992407798767,0.007789480034261942
1761838408299720400,7.871720458984375,-0.008095476776361465,-0.0036645096261054277,0.012954946607351303
1761838408309790700,7.881790771484375,-0.011443336494266987,-0.0068302094005048275,0.017522800713777542
1761838408319859500,7.891859375,-0.017433052882552147,-0.010867561213672161,0.02058596909046173
1761838408329929500,7.901929443359375,-0.02606142871081829,-0.008055529557168484,0.023031283169984818
1761838408339998500,7.91199853515625,-0.02899623103439808,-0.003605121048167348,0.0240161195397377
1761838408350068500,7.922068359375,-0.02961275354027748,-0.007847802713513374,0.020665863528847694
1761838408360137500,7.932137451171875,-0.03116484358906746,-0.017731325700879097,0.016706274822354317
1761838408370207500,7.94220751953125,-0.030102241784334183,-0.01649242453277111,0.022491460666060448
1761838408380276500,7.9522763671875,-0.03346261754631996,-0.012076636776328087,0.03147963061928749
1761838408390346500,7.962346435546875,-0.03322959318757057,-0.008775648660957813,0.03421789035201073
1761838408400415700,7.972415771484375,-0.03381841629743576,-0.0032703618053346872,0.035360388457775116
1761838408410485500,7.982485595703125,-0.03098401427268982,0.0016743293963372707,0.034333739429712296
1761838408420554800,7.9925546875,-0.027036678045988083,0.00842597521841526,0.0284673273563385
1761838408430624500,8.00262451171875,-0.02070714347064495,0.011834821663796902,0.019461581483483315
1761838408440693500,8.012693603515626,-0.01986877992749214,0.005650429055094719,0.007785751484334469
1761838408450762500,8.022762451171875,-0.01607617177069187,0.008610532619059086,0.004418983124196529
1761838408460832500,8.03283251953125,-0.010879811830818653,0.011376758106052876,-0.000693220819812268
1761838408470901500,8.042901611328125,-0.005405151750892401,0.01188355777412653,-0.005467736162245274
1761838408480971500,8.052971435546874,-0.0008711199625395238,0.012884106487035751,-0.0074030552059412
1761838408491040500,8.06304052734375,0.002603772561997175,0.009768474847078323,-0.009754093363881111
1761838408501110500,8.073110595703126,0.004673315212130547,0.017124658450484276,-0.0001901497016660869
1761838408511179500,8.083179443359375,0.0008918926469050348,0.020604344084858894,0.005389438942074776
1761838408521249500,8.09324951171875,0.0036336169578135014,0.021263210102915764,0.012476110830903053
1761838408531318500,8.103318603515625,0.0001757686259225011,0.02209491655230522,0.013847372494637966
1761838408541388500,8.113388427734375,-0.0008072041091509163,0.018751051276922226,0.003989681601524353
1761838408551457500,8.12345751953125,-0.008160724304616451,0.01583355851471424,-0.003687146585434675
1761838408561527600,8.133527587890624,-0.010512827895581722,0.013453757390379906,-0.00953837763518095
1761838408571596500,8.143596435546876,-0.014936871826648712,0.013175989501178265,-0.014289190992712975
1761838408581666600,8.15366650390625,-0.018545720726251602,0.019904199987649918,-0.01122256089001894
1761838408591735600,8.163735595703125,-0.021323664113879204,0.020836306735873222,-0.012537362985312939
1761838408601805600,8.1738056640625,-0.01865810714662075,0.02333834581077099,-0.008810536004602909
1761838408611874600,8.18387451171875,-0.010815629735589027,0.022790268063545227,-0.0007518103811889887
1761838408621944300,8.1939443359375,-0.005576659459620714,0.019112175330519676,0.0004721784498542547
1761838408632013600,8.204013671875,0.009341037832200527,0.013770140707492828,-0.0005672533297911286
1761838408642083600,8.21408349609375,0.017788318917155266,0.007129814941436052,0.0011635350529104471
1761838408652152600,8.224152587890625,0.0229929331690073,0.0036783581599593163,0.00430233683437109
1761838408662222600,8.23422265625,0.029685990884900093,-0.0008617989369668067,0.002578738844022155
1761838408672291600,8.24429150390625,0.031086547300219536,-0.003756654914468527,0.001978195970878005
1761838408682361600,8.254361572265625,0.026488332077860832,-0.005646434146910906,-0.0010010822443291545
1761838408692430600,8.2644306640625,0.027752801775932312,-0.004680505488067865,0.0004679173871409148
1761838408702500600,8.27450048828125,0.01512888539582491,-0.00666322885081172,0.0103141563013196
1761838408712569600,8.284569580078125,0.005124454386532307,-0.01841442659497261,0.010574880056083202
1761838408722639600,8.2946396484375,-0.00043010051012970507,-0.014641527086496353,0.014721155166625977
1761838408732709600,8.304709716796875,-0.009705890901386738,-0.014650581404566765,0.01846902258694172
1761838408742778600,8.314778564453125,-0.013508351519703865,-0.01728231832385063,0.019779829308390617
1761838408752848600,8.3248486328125,-0.017010409384965897,-0.020896492525935173,0.014509966596961021
1761838408762917600,8.334917724609374,-0.016592558473348618,-0.024925589561462402,0.015105982311069965
1761838408772987600,8.344987548828126,-0.014985340647399426,-0.022581741213798523,0.01338797714561224
1761838408783056400,8.355056396484375,-0.014365890063345432,-0.02702629193663597,0.014335529878735542
1761838408793126700,8.365126708984375,-0.010759703814983368,-0.03152969479560852,0.014719557948410511
1761838408803195400,8.3751953125,-0.006997988559305668,-0.03374864161014557,0.02034575119614601
1761838408813265700,8.385265625,-0.006256298162043095,-0.02774640917778015,0.029401831328868866
1761838408823334400,8.39533447265625,-0.006478671915829182,-0.020684238523244858,0.036499686539173126
1761838408833404400,8.405404296875,-0.005733519326895475,-0.012492622248828411,0.03929653763771057
1761838408843473400,8.415473388671876,-0.0020991035271435976,-0.016535034403204918,0.026157833635807037
1761838408853543400,8.42554345703125,0.0015100123127922416,-0.021452294662594795,0.009975136257708073
1761838408863612700,8.43561279296875,0.0014527543680742383,-0.024535169824957848,0.0025510420091450214
1761838408873682400,8.445682373046875,-0.0018692727899178863,-0.016924122348427773,0.0017470336752012372
1761838408883751700,8.455751708984375,-0.008207862265408039,-0.01014078501611948,0.00529729388654232
1761838408893821400,8.465821533203124,-0.017549166455864906,-0.0006330333999358118,0.01104492787271738
1761838408903890700,8.475890625,-0.022121546790003777,-0.0007597998483106494,0.002538258908316493
1761838408913960400,8.48596044921875,-0.02245231159031391,-0.009081645868718624,-0.011243865825235844
1761838408924029700,8.49602978515625,-0.02707342989742756,-0.01495285052806139,-0.017073791474103928
1761838408934099500,8.506099365234375,-0.03067934885621071,-0.01834305375814438,-0.019837087020277977
1761838408944168400,8.51616845703125,-0.034687407314777374,-0.014446050859987736,-0.010775416158139706
1761838408954238700,8.52623876953125,-0.045040443539619446,-0.012938701547682285,0.0052259210497140884
1761838408964307500,8.536307373046874,-0.04530036821961403,-0.012050004675984383,0.02027571015059948
1761838408974377700,8.546377685546876,-0.049972619861364365,-0.008924252353608608,0.028437767177820206
1761838408984446500,8.556446533203125,-0.050388071686029434,-0.009795638732612133,0.03689836338162422
1761838408994516700,8.566516845703125,-0.04589745029807091,-0.014493188820779324,0.043293945491313934
1761838409004585500,8.57658544921875,-0.044449225068092346,-0.014847123064100742,0.051655735820531845
1761838409014655500,8.586655517578125,-0.04477332904934883,-0.012182097882032394,0.0551130548119545
1761838409024724500,8.596724365234374,-0.03705389052629471,-0.013170663267374039,0.053887467831373215
1761838409034794500,8.60679443359375,-0.03279949352145195,-0.00947765726596117,0.0468820221722126
1761838409044863500,8.616863525390626,-0.02340971864759922,-0.0096848513931036,0.03176352381706238
1761838409054933500,8.62693359375,-0.009307214990258217,-0.008597482927143574,0.01732040010392666
1761838409065002500,8.63700244140625,-0.004710865672677755,-0.004736431874334812,0.00398621940985322
1761838409075074600,8.647074462890625,0.0024168186355382204,-0.00333214714191854,0.0010673949727788568
1761838409085143600,8.6571435546875,0.008041680790483952,-0.0034525219816714525,-0.001020523370243609
1761838409095213600,8.667213623046875,0.01420610025525093,-0.002454102970659733,0.005629656370729208
1761838409105282600,8.677282470703124,0.01258130557835102,0.004085821565240622,0.011797803454101086
1761838409115352600,8.6873525390625,0.014769624918699265,0.0043838294222950935,0.02413622848689556
1761838409125421600,8.697421630859376,0.011365306563675404,0.003570766421034932,0.029075859114527702
1761838409135491600,8.70749169921875,0.011782091110944748,0.0009739180095493793,0.03693165257573128
1761838409145560600,8.717560546875,0.012930979020893574,-0.0015097459545359015,0.03492229804396629
1761838409155630600,8.727630615234375,0.010867028497159481,-0.0031076427549123764,0.025839852169156075
1761838409165700400,8.737700439453125,0.00920175388455391,0.0013201289111748338,0.021409152075648308
1761838409175769600,8.74776953125,0.003174754325300455,0.003695402294397354,0.01757020503282547
1761838409185839600,8.757839599609374,-0.006939664948731661,0.0054448326118290424,0.013048158027231693
1761838409195908600,8.76790869140625,-0.007375091779977083,0.005494633689522743,0.011875567957758904
1761838409205978600,8.777978515625,-0.011981561779975891,0.0015789881581440568,0.014308631420135498
1761838409216047600,8.788047607421875,-0.016711868345737457,0.0005406216951087117,0.015541941858828068
1761838409226117600,8.79811767578125,-0.02136094868183136,0.0005768407136201859,0.014240454882383347
1761838409236186600,8.8081865234375,-0.022542061284184456,0.0006807039608247578,0.010841729119420052
1761838409246256600,8.818256591796874,-0.02588299661874771,0.0030983216129243374,0.010374077595770359
1761838409256325400,8.828325439453126,-0.023022761568427086,0.0016793893883004785,0.001407480682246387
1761838409266395600,8.838395751953126,-0.018379006534814835,-0.0002490055630914867,-0.00006711165769957006
1761838409276464400,8.84846435546875,-0.010039051994681358,-0.00039867521263659,-0.0004324973560869694
1761838409286534700,8.85853466796875,-0.00549223693087697,0.0054243262857198715,0.004000334069132805
1761838409296603400,8.868603271484375,-0.0022591594606637955,0.007889880798757076,0.011259845457971096
1761838409306673400,8.87867333984375,-0.0040442761965096,0.018029866740107536,0.013472133316099644
1761838409316742700,8.88874267578125,-0.004677842371165752,0.023690149188041687,0.013500628992915154
1761838409326812400,8.8988125,-0.006083991378545761,0.03014858067035675,0.00863423477858305
1761838409336881700,8.908881591796876,-0.0075695025734603405,0.040037963539361954,-0.005588643718510866
1761838409346951400,8.918951416015625,-0.007648332044482231,0.04381938651204109,-0.019246665760874748
1761838409357020700,8.929020751953125,-0.0075631109066307545,0.04596110060811043,-0.03453933447599411
1761838409367090400,8.93909033203125,-0.002770752878859639,0.042998332530260086,-0.050332412123680115
1761838409377159700,8.94915966796875,-0.00008149272616719827,0.02720658667385578,-0.06613560765981674
1761838409387229400,8.9592294921875,0.0026498453225940466,0.013554691337049007,-0.06811726838350296
1761838409397298700,8.969298583984376,-0.001458080718293786,0.008408398367464542,-0.0475454144179821
1761838409407368700,8.97936865234375,-0.00808828603476286,0.009652361273765564,-0.02346191555261612
1761838409417437400,8.9894375,-0.014977085404098034,0.019282352179288864,0.00310604483820498
1761838409427507700,8.9995078125,-0.027572505176067352,0.039751406759023666,0.03879906237125397
1761838409437576400,9.009576416015625,-0.032871395349502563,0.024282703176140785,0.0463765524327755
1761838409447646700,9.019646728515625,-0.03345143422484398,0.021443773061037064,0.04337943345308304
1761838409457715500,9.029715576171874,-0.03905392438173294,0.020056799054145813,0.03668877109885216
1761838409467785500,9.039785400390626,-0.039562854915857315,0.009014267474412918,0.025288311764597893
1761838409477854500,9.0498544921875,-0.03526344895362854,-0.008724515326321125,0.00948111992329359
1761838409487924500,9.059924560546875,-0.028691565617918968,-0.01979820616543293,0.00703926756978035
1761838409497993500,9.069993408203125,-0.02611096203327179,-0.021828066557645798,0.013187973760068417
1761838409508063500,9.0800634765625,-0.025356221944093704,-0.013544570654630661,0.02612454444169998
1761838409518132500,9.090132568359374,-0.021949507296085358,-0.019781960174441338,0.03050251491367817
1761838409528202500,9.100202392578124,-0.02070794068276882,-0.02588193118572235,0.028190359473228455
1761838409538271500,9.110271484375,-0.020290357992053032,-0.026519758626818657,0.02172446995973587
1761838409548341500,9.120341552734375,-0.016175508499145508,-0.027571439743041992,0.020911406725645065
1761838409558410800,9.13041064453125,-0.018876219168305397,-0.02425793558359146,0.015108644962310791
1761838409568480500,9.14048046875,-0.021860292181372643,-0.020255737006664276,0.013872671872377396
1761838409578549500,9.150549560546875,-0.0264824740588665,-0.01281353272497654,0.01381328422576189
1761838409588619500,9.16061962890625,-0.026279807090759277,-0.009109342470765114,0.005577724426984787
1761838409598688500,9.1706884765625,-0.025357820093631744,-0.011632687412202358,-0.011273160576820374
1761838409608758500,9.180758544921876,-0.018244517967104912,-0.01961764320731163,-0.028240958228707314
1761838409618827500,9.19082763671875,-0.01677951216697693,-0.02412237972021103,-0.04508278891444206
1761838409628897500,9.2008974609375,-0.018971560522913933,-0.02852964587509632,-0.047990430146455765
1761838409638966500,9.210966552734375,-0.01858939602971077,-0.02911793813109398,-0.043844953179359436
1761838409649036500,9.22103662109375,-0.023814518004655838,-0.024935176596045494,-0.033912960439920425
1761838409659105500,9.23110546875,-0.023073626682162285,-0.016325177624821663,-0.020434701815247536
1761838409669175600,9.241175537109376,-0.024947959929704666,-0.012261193245649338,-0.010690993629395962
1761838409679244500,9.25124462890625,-0.022491727024316788,-0.012471850030124187,-0.008976184763014317
1761838409689314600,9.261314453125,-0.02701297588646412,-0.013377857394516468,-0.007996140979230404
1761838409699383600,9.271383544921875,-0.030174680054187775,-0.007852064445614815,-0.004295146092772484
1761838409709453600,9.28145361328125,-0.02979331463575363,-0.01119353249669075,-0.005081311333924532
1761838409719522600,9.2915224609375,-0.03593935817480087,0.0014895059866830707,-0.005773200653493404
1761838409729592600,9.301592529296874,-0.04102732613682747,0.006967628374695778,-0.0049098036251962185
1761838409739661600,9.31166162109375,-0.04015008360147476,-0.0038064562249928713,-0.01793798804283142
1761838409749731600,9.321731689453125,-0.03526264801621437,-0.0009392969077453017,-0.02845134772360325
1761838409759801600,9.331801513671875,-0.03423573449254036,-0.0004601942200679332,-0.04150509834289551
1761838409769870600,9.34187060546875,-0.029392244294285774,-0.004296211525797844,-0.052269596606492996
1761838409779940000,9.351940185546875,-0.03051050566136837,0.001258609932847321,-0.05383899807929993
1761838409790009300,9.36200927734375,-0.027214577421545982,0.0017947042360901833,-0.052742041647434235
1761838409800079000,9.3720791015625,-0.02269466035068035,0.001181378262117505,-0.049795251339673996
1761838409810148400,9.3821484375,-0.024211063981056213,0.0001400822657160461,-0.04554511606693268
1761838409820218000,9.392218017578125,-0.024868864566087723,-0.00013635384675581008,-0.03979375213384628
1761838409830287000,9.402287109375,-0.026932815089821815,-0.0022772690281271935,-0.03141491487622261
1761838409840357000,9.412357177734375,-0.029998911544680595,-0.004787032026797533,-0.024833710864186287
1761838409850426000,9.422426025390624,-0.028252409771084785,-0.004086087923496962,-0.0187196247279644
1761838409860496400,9.432496337890624,-0.028553348034620285,-0.005450691562145948,-0.010807107202708721
1761838409870565000,9.442565185546876,-0.02858530543744564,-0.0059867859818041325,-0.0070523167960345745
1761838409880635100,9.45263525390625,-0.024235032498836517,-0.009252354502677917,-0.012489426881074905
1761838409890704100,9.4627041015625,-0.025189509615302086,-0.012319250032305717,-0.013295033015310764
1761838409900774100,9.472774169921875,-0.025538915768265724,-0.01836116425693035,-0.003506850451231003
1761838409910843100,9.482843017578125,-0.017885256558656693,-0.014664430171251297,0.0024431839119642973
1761838409920913200,9.4929130859375,-0.01142842322587967,-0.01840430684387684,0.012172509916126728
1761838409930982100,9.502982177734374,-0.007708786055445671,-0.010365555062890053,0.019468240439891815
1761838409941052200,9.51305224609375,-0.000871652620844543,-0.011661715805530548,0.02640657313168049
1761838409951121200,9.52312109375,0.006021673325449228,-0.011009507812559605,0.023806262761354446
1761838409961191200,9.533191162109375,0.016509201377630234,-0.014874020591378212,0.01176158431917429
1761838409971260200,9.54326025390625,0.02407790534198284,-0.015358183532953262,-0.004453870467841625
1761838409981330200,9.553330078125,0.03014991246163845,-0.016085492447018623,-0.013312077149748802
1761838409991399200,9.563399169921874,0.030733944848179817,-0.011455054394900799,-0.018484201282262802
1761838410001469200,9.57346923828125,0.03328791633248329,-0.009619071148335934,-0.02923698164522648
1761838410011538200,9.5835380859375,0.0377950482070446,-0.028568528592586517,-0.05446723476052284
1761838410021608200,9.593608154296875,0.03203090280294418,-0.01028752513229847,-0.05138462781906128
1761838410031677200,9.60367724609375,0.01782240718603134,0.013045494444668293,-0.04531262069940567
1761838410041747200,9.613747314453125,0.016775785014033318,0.012748286128044128,-0.05167198181152344
1761838410051816200,9.623816162109375,0.01176584605127573,0.014504374004900455,-0.05273165553808212
1761838410061886000,9.633885986328124,0.008421181701123714,0.014394918456673622,-0.053653374314308167
1761838410071955200,9.643955078125,0.0030631679110229015,0.0020940436515957117,-0.05528349429368973
1761838410082025000,9.65402490234375,0.0022919164039194584,-0.010685134679079056,-0.0585021935403347
1761838410092094200,9.66409423828125,-0.0016506272368133068,-0.005362008698284626,-0.03642405569553375
1761838410102164200,9.674164306640625,-0.00980336219072342,-0.006512760184705257,-0.009312274865806103
1761838410112233200,9.684233154296875,-0.01744423806667328,-0.009223326109349728,0.022826751694083214
1761838410122303200,9.69430322265625,-0.025781795382499695,-0.007752461824566126,0.04773290082812309
1761838410132372200,9.704372314453124,-0.03536944091320038,0.006047506351023912,0.07328566163778305
1761838410142442200,9.714442138671876,-0.04102626442909241,0.0054879761300981045,0.07840052992105484
1761838410152511200,9.72451123046875,-0.04166116192936897,0.004574511665850878,0.07260975241661072
1761838410162581200,9.734581298828125,-0.039383091032505035,-0.0005542038124985993,0.05218996852636337
1761838410172650000,9.74464990234375,-0.033177927136421204,-0.006413424387574196,0.031737957149744034
1761838410182720300,9.75472021484375,-0.02726011723279953,-0.008011055178940296,0.01666739396750927
1761838410192789000,9.7647890625,-0.035292744636535645,-0.02104882523417473,0.0018397116800770164
1761838410202859300,9.774859375,-0.03640594333410263,-0.01501410361379385,0.0029489181470125914
1761838410212928000,9.784927978515626,-0.02798982337117195,0.0035952674224972725,-0.0009257147903554142
1761838410222998000,9.794998046875,-0.021083448082208633,-0.00748960766941309,-0.010163954459130764
1761838410233067300,9.8050673828125,-0.020001139491796494,0.0003046656202059239,-0.001996039180085063
1761838410243137000,9.815136962890625,-0.01871429942548275,-0.006183593533933163,0.006839530076831579
1761838410253206300,9.825206298828125,-0.018506307154893875,-0.003409911412745714,0.022549251094460487
1761838410263276000,9.835276123046874,-0.02076173759996891,0.0051782503724098206,0.04436666518449783
1761838410273345300,9.84534521484375,-0.018850652500987053,-0.005605421494692564,0.05868009105324745
1761838410283415000,9.8554150390625,-0.018222946673631668,-0.008800149895250797,0.06912048161029816
1761838410293484300,9.865484375,-0.026199912652373314,-0.0031760858837515116,0.08615485578775406
1761838410303554000,9.875553955078125,-0.02611735463142395,-0.010569021105766296,0.08278463035821915
1761838410313623300,9.885623291015625,-0.01001934427767992,-0.015192268416285515,0.07974009960889816
1761838410323693300,9.895693359375,-0.007203051820397377,-0.0102566322311759,0.07924741506576538
1761838410333762000,9.905761962890624,-0.009601760655641556,-0.008392153307795525,0.07255968451499939
1761838410343832300,9.915832275390626,-0.009446498937904835,-0.008517853915691376,0.06662376970052719
1761838410353901000,9.925901123046875,-0.013224459253251553,-0.009860353544354439,0.05413727089762688
1761838410363971300,9.935971435546875,-0.022246982902288437,-0.012718991376459599,0.042512573301792145
1761838410374040000,9.9460400390625,-0.014882276766002178,-0.01188062783330679,0.036726854741573334
1761838410384110300,9.9561103515625,-0.011907259002327919,0.014183463528752327,0.0392422117292881
1761838410394179000,9.966178955078124,-0.011066499166190624,0.02293061651289463,0.031012244522571564
1761838410404249000,9.9762490234375,-0.005352421198040247,0.02947533316910267,0.019931362941861153
1761838410414318000,9.986318115234376,-0.006442186422646046,0.030585872009396553,0.0049337721429765224
1761838410424388000,9.99638818359375,-0.006867493502795696,0.0253442395478487,-0.01477841380983591
1761838410434457000,10.00645703125,-0.0026320021133869886,0.026559971272945404,-0.018632540479302406
1761838410444527000,10.016527099609375,0.0014034858904778957,0.022003568708896637,-0.02130821719765663
1761838410454596400,10.026596435546875,0.005062669049948454,0.03205780312418938,-0.018563831225037575
1761838410464666000,10.036666015625,0.0041587925516068935,0.03086230903863907,-0.02099316567182541
1761838410474735400,10.0467353515625,0.001231711939908564,0.030123280361294746,-0.020770259201526642
1761838410484805000,10.05680517578125,0.007741809356957674,0.013420733623206615,-0.03136857599020004
1761838410494874000,10.0668740234375,0.005935120861977339,0.005365470424294472,-0.037587057799100876
1761838410504944000,10.076944091796875,-0.0013342436868697405,0.018974490463733673,-0.02094203419983387
1761838410515013000,10.08701318359375,-0.004067179746925831,0.017489245161414146,-0.0046384274028241634
1761838410525083100,10.097083251953125,-0.005913549102842808,0.010076336562633514,0.006404103245586157
1761838410535152000,10.107152099609374,-0.0020631509833037853,0.009837716817855835,0.025433188304305077
1761838410545222400,10.117222412109374,-0.00063356600003317,0.002287389012053609,0.027424700558185577
1761838410555291100,10.127291015625,0.001927595934830606,-0.007719172164797783,0.021338844671845436
1761838410565361200,10.137361083984375,0.00968671590089798,-0.017346765846014023,0.016169115900993347
1761838410575430100,10.14743017578125,0.013561614789068699,-0.017839716747403145,0.014650048688054085
1761838410585500200,10.157500244140625,0.019885823130607605,-0.01943202130496502,0.006315952632576227
1761838410595569200,10.167569091796874,0.0227388683706522,-0.02303767390549183,-0.00027750138542614877
1761838410605639200,10.17763916015625,0.025005483999848366,-0.017608821392059326,0.007179882377386093
1761838410615708200,10.187708251953126,0.02611735463142395,-0.015116102062165737,0.010855576954782009
1761838410625778200,10.197778076171875,0.02629285678267479,-0.022464562207460403,0.014947524294257164
1761838410635847200,10.20784716796875,0.026135995984077454,-0.023126091808080673,0.022535135969519615
1761838410645917200,10.217917236328125,0.020364394411444664,-0.018993398174643517,0.030716100707650185
1761838410655986200,10.227986083984375,0.010007892735302448,-0.017834125086665154,0.034687139093875885
1761838410666056200,10.23805615234375,0.002816559048369527,-0.004942294210195541,0.043780237436294556
1761838410676125200,10.248125244140626,-0.008085357025265694,-0.015957128256559372,0.03062954731285572
1761838410686195200,10.2581953125,-0.005133775528520346,-0.02257348597049713,0.0222131609916687
1761838410696264200,10.26826416015625,-0.012062255293130875,-0.007845140062272549,0.030826089903712273
1761838410706334200,10.278334228515625,-0.02251276560127735,-0.0015446334145963192,0.041012413799762726
1761838410716403200,10.2884033203125,-0.026164492592215538,-0.008925317786633968,0.0576622299849987
1761838410726473200,10.29847314453125,-0.031035946682095528,0.0018817896489053965,0.07842716574668884
1761838410736542200,10.308542236328124,-0.03569062054157257,0.0019651465117931366,0.08344642072916031
1761838410746612000,10.318612060546876,-0.030593063682317734,-0.00279099284671247,0.0787251740694046
1761838410756681200,10.32868115234375,-0.025361815467476845,-0.01576351746916771,0.0721258595585823
1761838410766751000,10.3387509765625,-0.01654355600476265,-0.026027338579297066,0.04947780445218086
1761838410776821000,10.348821044921875,-0.01468600146472454,-0.0378459170460701,0.026199113577604294
1761838410786890800,10.358890869140625,-0.01113148033618927,-0.04272935539484024,0.002906840294599533
1761838410796960000,10.3689599609375,-0.009981261566281319,-0.04313282296061516,-0.020368121564388275
1761838410807029800,10.37902978515625,-0.013403423130512238,-0.033915624022483826,-0.03579368442296982
1761838410817098800,10.3890986328125,-0.020376112312078476,-0.020002469420433044,-0.04255358502268791
1761838410827168800,10.399168701171876,-0.028667064383625984,-0.00929283443838358,-0.04441220685839653
