time,seconds_elapsed,z,y,x
1761838400504675600,0.076675537109375,0.08198684453964233,-0.021192602813243866,-0.10059821605682373
1761838400514745600,0.08674560546875,0.07513587921857834,-0.002284575253725052,-0.07520907372236252
1761838400524814600,0.096814697265625,0.06627687811851501,0.022679362446069717,-0.06316865235567093
1761838400534884600,0.106884521484375,0.07194164395332336,0.03237970545887947,-0.0668332651257515
1761838400544953600,0.11695361328125,0.08092714846134186,0.026673082262277603,-0.07852321118116379
1761838400555023600,0.127023681640625,0.08461935818195343,0.020778175443410873,-0.0926736518740654
1761838400565092600,0.137092529296875,0.08884605765342712,0.023253850638866425,-0.1008697971701622
1761838400575161600,0.14716162109375,0.08739332109689713,0.043230701237916946,-0.09590515494346619
1761838400585232000,0.15723193359375,0.08087363094091415,0.05461811274290085,-0.1014178991317749
1761838400595300600,0.167300537109375,0.08760106563568115,0.06761546432971954,-0.1348974108695984
1761838400605371000,0.177370849609375,0.08404947817325592,-0.022497650235891342,-0.19923245906829834
1761838400615439600,0.187439697265625,0.08415073156356812,0.005967612378299236,-0.2035161256790161
1761838400625509600,0.197509521484375,0.06101159378886223,0.020292755216360092,-0.17172011733055115
1761838400635578600,0.20757861328125,0.0535898394882679,0.044512275606393814,-0.11754319071769714
1761838400645648600,0.217648681640625,0.05289768427610397,0.05158483237028122,-0.0762103945016861
1761838400655717600,0.227717529296875,0.04581228643655777,0.05252007395029068,-0.05021585151553154
1761838400665786600,0.23778662109375,0.036689095199108124,0.06570325046777725,-0.02122228406369686
1761838400675856600,0.247856689453125,0.019451556727290154,0.06392926722764969,-0.012416940182447433
1761838400685925600,0.257925537109375,0.010975247249007225,0.043758220970630646,-0.022535087540745735
1761838400695995600,0.26799560546875,0.01999635621905327,0.0341813750565052,-0.014210259541869164
1761838400706064600,0.278064697265625,0.0100766122341156,0.011316006071865559,-0.01696130447089672
1761838400716135000,0.288135009765625,-0.0055200341157615185,-0.018064966425299644,-0.02748541161417961
1761838400726203600,0.29820361328125,-0.012067414820194244,-0.058818519115448,-0.04048829525709152
1761838400736273700,0.308273681640625,-0.003668812569230795,-0.09034629166126251,-0.05026685446500778
1761838400746342700,0.3183427734375,0.01178071741014719,-0.08883734047412872,-0.04256685823202133
1761838400756412700,0.32841259765625,0.02417784184217453,-0.0895916298031807,-0.03716880455613136
1761838400766481700,0.338481689453125,0.04801446571946144,-0.0850331038236618,-0.03481483459472656
1761838400776551000,0.348551025390625,0.06904895603656769,-0.09563497453927994,-0.011683603748679161
1761838400786620200,0.3586201171875,0.08056499809026718,-0.07433155179023743,0.03742455318570137
1761838400796689200,0.368689208984375,0.09515399485826492,-0.0716758519411087,0.09865833818912506
1761838400806759200,0.37875927734375,0.11197798699140549,-0.05603272095322609,0.16699638962745667
1761838400816828000,0.388827880859375,0.13299483060836792,-0.04934025555849075,0.2101447731256485
1761838400826898200,0.398898193359375,0.13905832171440125,-0.043521516025066376,0.23236112296581268
1761838400836967000,0.408966796875,0.1286185085773468,-0.044615693390369415,0.2387133538722992
1761838400847037200,0.419037109375,0.10939101129770279,-0.03127272427082062,0.23374362289905548
1761838400857106000,0.42910595703125,0.11737293004989624,-0.015572769567370415,0.2166316658258438
1761838400867176000,0.439176025390625,0.11687757819890976,-0.0063355956226587296,0.1832936853170395
1761838400877245200,0.4492451171875,0.1129259541630745,-0.007040802389383316,0.13070514798164368
1761838400887315000,0.45931494140625,0.11013229936361313,-0.013277925550937653,0.07303652167320251
1761838400897384200,0.46938427734375,0.10828173905611038,-0.012674760073423386,0.017474187538027763
1761838400907453200,0.479453125,0.09772283583879471,-0.005028558894991875,-0.030696803703904152
1761838400917523200,0.489523193359375,0.08598358184099197,0.004503469914197922,-0.06619977205991745
1761838400927592000,0.499592041015625,0.06780963391065598,0.02290910854935646,-0.09042467921972275
1761838400937662200,0.509662109375,0.05789320915937424,0.030785005539655685,-0.11345881968736649
1761838400947731000,0.51973095703125,0.04630845785140991,0.04402970150113106,-0.12276523560285568
1761838400957801200,0.52980126953125,0.03690442442893982,0.054581016302108765,-0.12421156466007233
1761838400967870000,0.539869873046875,0.030177809298038483,0.06179632246494293,-0.11290325224399567
1761838400977940000,0.54993994140625,0.027796538546681404,0.06200966238975525,-0.0921633243560791
1761838400988009000,0.560009033203125,0.02241508848965168,0.06616685539484024,-0.07630925625562668
1761838400998079000,0.570078857421875,0.012793894857168198,0.062144629657268524,-0.05426203832030296
1761838401008148200,0.580148193359375,0.012318519875407219,0.05821433663368225,-0.031045928597450256
1761838401018217000,0.590217041015625,0.003605618141591549,0.057778410613536835,-0.018560880795121193
1761838401028287200,0.600287353515625,-0.000995791400782764,0.04828077554702759,-0.005958002991974354
1761838401038356000,0.61035595703125,-0.004845865070819855,0.04454149678349495,0.009939506649971008
1761838401048426200,0.62042626953125,-0.00662192702293396,0.045787591487169266,0.020088545978069305
1761838401058495000,0.630494873046875,-0.005923236720263958,0.04416831582784653,0.03841584175825119
1761838401068565200,0.640565185546875,-0.009402656927704811,0.04593505710363388,0.05429094657301903
1761838401078634000,0.650634033203125,-0.0052074952982366085,0.0484851710498333,0.06416720151901245
1761838401088704000,0.6607041015625,-0.005065549165010452,0.04764121398329735,0.0696898028254509
1761838401098773000,0.67077294921875,-0.00481764180585742,0.04667740687727928,0.06296359747648239
1761838401108843000,0.680843017578125,-0.0022932314313948154,0.048073701560497284,0.0502757653594017
1761838401118912000,0.690912109375,-0.0029233291279524565,0.04191935062408447,0.015594196505844593
1761838401128982000,0.70098193359375,-0.000804251991212368,0.03937096893787384,-0.026853926479816437
1761838401139051300,0.71105126953125,0.0033156853169202805,0.0293080136179924,-0.06677056849002838
1761838401149120000,0.7211201171875,0.015205368399620056,0.0053283777087926865,-0.09946326911449432
1761838401159190300,0.731190185546875,0.013708190992474556,0.0020629260689020157,-0.10337646305561066
1761838401169259000,0.741259033203125,0.013233082368969917,0.009019901975989342,-0.07704605162143707
1761838401179329300,0.751329345703125,0.014637873508036137,0.01246090978384018,-0.044270675629377365
1761838401189398000,0.76139794921875,0.011478032916784286,0.009600409306585789,-0.016234248876571655
1761838401199468000,0.771468017578125,0.019470570608973503,0.010374140925705433,0.007401324342936277
1761838401209537000,0.781537109375,0.02992161363363266,-0.00034108757972717285,0.022983478382229805
1761838401219607000,0.79160693359375,0.03829337656497955,-0.010271087288856506,0.03456004709005356
1761838401229676000,0.801676025390625,0.03789550065994263,-0.0193849578499794,0.03996200114488602
1761838401239746000,0.81174609375,0.033289019018411636,-0.02495165914297104,0.049997635185718536
1761838401249815000,0.82181494140625,0.02451177127659321,-0.02405177801847458,0.05200033262372017
1761838401259885000,0.831885009765625,0.012425287626683712,-0.029431413859128952,0.05411193147301674
1761838401269954300,0.841954345703125,0.01882646232843399,-0.023864343762397766,0.05369008705019951
1761838401280023000,0.85202294921875,0.029428308829665184,-0.034959644079208374,0.05391005426645279
1761838401290093000,0.862093017578125,0.0437752902507782,-0.04439282789826393,0.03868875652551651
1761838401300162000,0.872162109375,0.058897461742162704,-0.037902768701314926,0.03235785290598869
1761838401310232000,0.882232177734375,0.06912879645824432,-0.036627911031246185,0.025951353833079338
1761838401320301000,0.892301025390625,0.08462844043970108,-0.03595210239291191,0.01955132558941841
1761838401330371000,0.90237109375,0.09451861679553986,-0.03022337704896927,0.019263170659542084
1761838401340440000,0.912440185546875,0.1044878363609314,-0.02086855098605156,0.01940321922302246
1761838401350510000,0.922510009765625,0.10782131552696228,-0.015319322235882282,0.016370143741369247
1761838401360579000,0.9325791015625,0.11618190258741379,-0.009215600788593292,0.01628228649497032
1761838401370649000,0.942649169921875,0.11345749348402023,0.004555870778858662,0.020802203565835953
1761838401380718000,0.952718017578125,0.11223605275154114,0.02320506051182747,0.03210299089550972
1761838401390788000,0.9627880859375,0.1115095391869545,0.04630957916378975,0.039418160915374756
1761838401400857000,0.972857177734375,0.11634326726198196,0.061452388763427734,0.039514195173978806
1761838401410927000,0.982927001953125,0.12914587557315826,0.08263064920902252,0.03321155905723572
1761838401420996000,0.99299609375,0.13437329232692719,0.09607884287834167,0.027666740119457245
1761838401431065000,1.003065185546875,0.1574312001466751,0.09373605996370316,0.02251405641436577
1761838401441135000,1.013135009765625,0.18185484409332275,0.08127737790346146,0.023296553641557693
1761838401451204000,1.0232041015625,0.19188404083251953,0.08695176988840103,0.02332371473312378
1761838401461274000,1.033274169921875,0.1961693912744522,0.1121189221739769,0.009954927489161491
1761838401471343000,1.043343017578125,0.1934250146150589,0.11235913634300232,-0.008295983076095581
1761838401481413000,1.0534130859375,0.2098665088415146,0.12505117058753967,-0.013881731778383255
1761838401491482000,1.063482177734375,0.22579912841320038,0.13115113973617554,-0.005009410437196493
1761838401501552000,1.07355224609375,0.2359504997730255,0.13890869915485382,-0.007071753032505512
1761838401511621000,1.08362109375,0.2517470419406891,0.12826405465602875,-0.0072722891345620155
1761838401521691100,1.093691162109375,0.2695236802101135,0.11502616852521896,-0.010259335860610008
1761838401531759900,1.103759765625,0.2806229293346405,0.1044241189956665,-0.009779433719813824
1761838401541830100,1.113830078125,0.2925250232219696,0.0940624326467514,-0.0033648600801825523
1761838401551899100,1.123899169921875,0.3007374107837677,0.08706657588481903,0.008881686255335808
1761838401561969200,1.13396923828125,0.3049159348011017,0.07591640949249268,0.018484728410840034
1761838401572038100,1.1440380859375,0.3010551631450653,0.06882520765066147,0.02399454079568386
1761838401582107100,1.154107177734375,0.29864171147346497,0.05480572208762169,0.027897510677576065
1761838401592177200,1.16417724609375,0.2915811240673065,0.049302831292152405,0.03377990052103996
1761838401602246100,1.17424609375,0.2790050804615021,0.04647763445973396,0.037134625017642975
1761838401612316200,1.184316162109375,0.2670091390609741,0.04081682115793228,0.03878658264875412
1761838401622385200,1.19438525390625,0.25225189328193665,0.0331261083483696,0.03473683074116707
1761838401632455200,1.204455078125,0.2375618815422058,0.03349282592535019,0.016793251037597656
1761838401642524000,1.21452392578125,0.22523050010204315,0.03790975734591484,0.007281019818037748
1761838401652594200,1.22459423828125,0.19839249551296234,0.014542914927005768,-0.012524375692009926
1761838401662663000,1.234662841796875,0.17455938458442688,0.011994972825050354,-0.022187575697898865
1761838401672733200,1.244733154296875,0.14865082502365112,0.00778904277831316,-0.02210555225610733
1761838401682802200,1.25480224609375,0.12192566692829132,0.003066498786211014,-0.013670510612428188
1761838401692872000,1.264871826171875,0.09839663654565811,-0.010657834820449352,-0.0070022218860685825
1761838401702941200,1.274941162109375,0.07684043049812317,-0.023160163313150406,0.0063287061639130116
1761838401713011000,1.285010986328125,0.0671214908361435,-0.01841973513364792,0.02345709316432476
1761838401723080200,1.295080078125,0.05868116766214371,-0.0227532759308815,0.034095726907253265
1761838401733150000,1.30514990234375,0.040794312953948975,-0.015428517945110798,0.0325004905462265
1761838401743219200,1.31521923828125,0.03822939097881317,-0.01772123947739601,0.028711486607789993
1761838401753289000,1.3252890625,0.042709361761808395,-0.02759624272584915,0.019054599106311798
1761838401763358200,1.335358154296875,0.048361267894506454,-0.037987228482961655,0.007687357719987631
1761838401773431300,1.345431396484375,0.061181727796792984,-0.03926261514425278,0.019287554547190666
1761838401783501000,1.3555009765625,0.07242705672979355,-0.03392321616411209,0.028777755796909332
1761838401793570300,1.3655703125,0.08648108690977097,-0.03103182464838028,0.03463857248425484
1761838401803640000,1.37564013671875,0.09329301118850708,-0.020693575963377953,0.04690340906381607
1761838401813709300,1.385709228515625,0.09699001163244247,-0.009947188198566437,0.03841245546936989
1761838401823779000,1.395779052734375,0.10693107545375824,-0.01200143899768591,0.024668879806995392
1761838401833848300,1.405848388671875,0.11224807798862457,-0.016348518431186676,0.0018000486306846142
1761838401843918300,1.41591845703125,0.12066490203142166,-0.017667122185230255,-0.017606567591428757
1761838401853987300,1.4259873046875,0.12169154733419418,-0.01601782627403736,-0.032398562878370285
1761838401864057300,1.436057373046875,0.11671548336744308,-0.015382492914795876,-0.0366334393620491
1761838401874126000,1.4461259765625,0.10336612164974213,-0.010328080505132675,-0.032672520726919174
1761838401884196400,1.4561962890625,0.08549642562866211,-0.008066871203482151,-0.026179933920502663
1761838401894265000,1.46626513671875,0.06991986185312271,0.0052542597986757755,-0.011362106539309025
1761838401904335400,1.47633544921875,0.05195144563913345,0.0127507783472538,-0.003216814249753952
1761838401914404000,1.486404052734375,0.04063061252236366,0.013426422141492367,0.002110839355736971
1761838401924474000,1.49647412109375,0.030709464102983475,0.010022994130849838,-0.0014881235547363758
1761838401934543000,1.506543212890625,0.026564253494143486,0.0011575971730053425,-0.0009392460342496634
1761838401944613000,1.516613037109375,0.026595793664455414,0.0016999468207359314,0.002053417731076479
1761838401954682000,1.52668212890625,0.028182771056890488,-0.007186754606664181,0.005112058483064175
1761838401964751400,1.53675146484375,0.02997945062816143,-0.013627961277961731,0.015292085707187653
1761838401974821400,1.5468212890625,0.03045722097158432,-0.01236269436776638,0.030353594571352005
1761838401984890000,1.55689013671875,0.033171847462654114,-0.003032030537724495,0.057753268629312515
1761838401994960400,1.56696044921875,0.040219902992248535,0.0035284003242850304,0.07983539998531342
1761838402005029000,1.577029052734375,0.04677344113588333,0.01028138492256403,0.09251057356595993
1761838402015099400,1.587099365234375,0.049750056117773056,0.010892846621572971,0.09973892569541931
1761838402025168100,1.597168212890625,0.05352291464805603,0.01964488998055458,0.08097980916500092
1761838402035238100,1.607238037109375,0.053059522062540054,0.01609409786760807,0.05886491760611534
1761838402045307100,1.61730712890625,0.05494849383831024,0.012873057276010513,0.02805989235639572
1761838402055377200,1.627377197265625,0.04974627494812012,0.02037970907986164,-0.003386980853974819
1761838402065446100,1.637446044921875,0.04670047014951706,0.030243108049035072,-0.025915667414665222
1761838402075516200,1.64751611328125,0.036016933619976044,0.04853290319442749,-0.040504466742277145
1761838402085585200,1.657585205078125,0.027340367436408997,0.06138893961906433,-0.04353278875350952
1761838402095655200,1.6676552734375,0.022583162412047386,0.06535492092370987,-0.04387633875012398
1761838402105724200,1.67772412109375,0.014274083077907562,0.06364825367927551,-0.040251974016427994
1761838402115794200,1.687794189453125,0.014931884594261646,0.05886521935462952,-0.03992387279868126
1761838402125863400,1.697863525390625,0.015188143588602543,0.04681362956762314,-0.038909461349248886
1761838402135933200,1.70793310546875,0.012405939400196075,0.032900743186473846,-0.040114011615514755
1761838402146002200,1.718002197265625,0.013597113080322742,0.024070966988801956,-0.03437173739075661
1761838402156071200,1.7280712890625,0.013373141176998615,0.016978435218334198,-0.020164037123322487
1761838402166141200,1.73814111328125,0.015181735157966614,0.017794916406273842,0.00036557530984282494
1761838402176210200,1.748210205078125,0.013384101912379265,0.020529717206954956,0.023077011108398438
1761838402186280200,1.7582802734375,0.006759661715477705,0.020687837153673172,0.04223962873220444
1761838402196349200,1.76834912109375,-0.0021355627104640007,0.02428097277879715,0.05303474888205528
1761838402206419200,1.778419189453125,0.009570576250553131,0.01983417570590973,0.06372595578432083
1761838402216488200,1.78848828125,0.01685512065887451,0.028100628405809402,0.061386365443468094
1761838402226558200,1.79855810546875,0.004134566523134708,0.0331617072224617,0.033419039100408554
1761838402236627200,1.808627197265625,0.0023846037220209837,0.033134810626506805,-0.005733689293265343
1761838402246697200,1.818697265625,0.0056694271042943,0.030892018228769302,-0.04159294441342354
1761838402256766200,1.82876611328125,0.006567445117980242,0.02358590066432953,-0.06392061710357666
1761838402266836200,1.838836181640625,0.008459563367068768,0.026360850781202316,-0.08499956876039505
1761838402276905200,1.8489052734375,0.007317599840462208,0.02469104900956154,-0.09256374835968018
1761838402286975200,1.858975341796875,0.010755416005849838,0.027700353413820267,-0.0927046611905098
1761838402297044200,1.869044189453125,0.013482493348419666,0.033940672874450684,-0.08602279424667358
1761838402307114200,1.8791142578125,0.013150964863598347,0.04759151116013527,-0.067132867872715
1761838402317183200,1.889183349609375,0.011268110014498234,0.034629374742507935,-0.05180957168340683
1761838402327253000,1.8992529296875,0.014696946367621422,0.034774359315633774,-0.03869650140404701
1761838402337322200,1.909322265625,0.017133738845586777,0.034118689596652985,-0.029209524393081665
1761838402347392300,1.919392333984375,0.024105524644255638,0.032463569194078445,-0.020990589633584023
1761838402357461200,1.929461181640625,0.028124766424298286,0.021791748702526093,-0.02031894028186798
1761838402367531300,1.93953125,0.032472580671310425,0.00038178544491529465,-0.019659023731946945
1761838402377600300,1.949600341796875,0.03275886923074722,-0.009639156982302666,-0.009047657251358032
1761838402387670300,1.959670166015625,0.025605613365769386,-0.009490765631198883,-0.002302645705640316
1761838402397739300,1.9697392578125,0.014153488911688328,-0.010164013132452965,0.0053438227623701096
1761838402407808300,1.979808349609375,0.0034534400328993797,-0.012478834018111229,0.013269656337797642
1761838402417878300,1.989878173828125,-0.007529435679316521,-0.005829718895256519,0.021481245756149292
1761838402427947300,1.999947265625,-0.03188304230570793,-0.01323225349187851,0.037245817482471466
1761838402438017000,2.01001708984375,-0.06103134527802467,-0.021466748788952827,0.0379805825650692
1761838402448086300,2.020086181640625,-0.07761227339506149,-0.0302019864320755,0.03712741285562515
1761838402458156000,2.030156005859375,-0.09754016995429993,-0.03597385808825493,0.04113519936800003
1761838402468225300,2.040225341796875,-0.11593884974718094,-0.04140355437994003,0.04098110646009445
1761838402478295300,2.05029541015625,-0.1235504299402237,-0.04260250926017761,0.04825446754693985
1761838402488364300,2.0603642578125,-0.13341768085956573,-0.041704703122377396,0.058282773941755295
1761838402498434300,2.070434326171875,-0.13620281219482422,-0.04702809453010559,0.05821433290839195
1761838402508503300,2.08050341796875,-0.13677994906902313,-0.057012930512428284,0.051182057708501816
1761838402518573300,2.0905732421875,-0.1377040594816208,-0.06450067460536957,0.03856267035007477
1761838402528642300,2.100642333984375,-0.14058047533035278,-0.06850025057792664,0.02909964881837368
1761838402538712300,2.11071240234375,-0.13880734145641327,-0.06051688641309738,0.026489216834306717
1761838402548781000,2.120781005859375,-0.1338585764169693,-0.05532754585146904,0.02384357340633869
1761838402558851300,2.130851318359375,-0.12622596323490143,-0.046691179275512695,0.024785000830888748
1761838402568920000,2.140920166015625,-0.11983264982700348,-0.03790288418531418,0.029747873544692993
1761838402578990300,2.150990234375,-0.10849983245134354,-0.03444290533661842,0.027057815343141556
1761838402589059000,2.16105908203125,-0.0929473415017128,-0.03138076886534691,0.01861627586185932
1761838402599129000,2.171129150390625,-0.07682749629020691,-0.032504621893167496,0.008628621697425842
1761838402609198000,2.181197998046875,-0.05864492803812027,-0.03933379799127579,-0.004893195815384388
1761838402619268000,2.19126806640625,-0.03602324053645134,-0.044430822134017944,-0.018450550734996796
1761838402629337300,2.20133740234375,-0.020577378571033478,-0.05098586156964302,-0.03300468996167183
1761838402639407000,2.211406982421875,-0.006097506731748581,-0.061472322791814804,-0.04432658478617668
1761838402649476400,2.221476318359375,0.008036108687520027,-0.0802357941865921,-0.05130787938833237
1761838402659546000,2.231546142578125,0.016578197479248047,-0.0930274948477745,-0.048487588763237
1761838402669615400,2.241615478515625,0.019002404063940048,-0.1095971092581749,-0.038316965103149414
1761838402679684000,2.25168408203125,0.012073924764990807,-0.10759547352790833,-0.024553216993808746
1761838402689754400,2.26175439453125,0.0029928863514214754,-0.10447433590888977,-0.010061927139759064
1761838402699823000,2.271822998046875,-0.009093870408833027,-0.10255366563796997,0.009195390157401562
1761838402709893000,2.28189306640625,-0.023826226592063904,-0.09543514996767044,0.021079014986753464
1761838402719962000,2.291962158203125,-0.037925004959106445,-0.09722559154033661,0.0372617170214653
1761838402730032000,2.3020322265625,-0.04505529999732971,-0.096761554479599,0.04714209958910942
1761838402740101000,2.31210107421875,-0.05371803045272827,-0.10278908163309097,0.05651269853115082
1761838402750171100,2.322171142578125,-0.0616726353764534,-0.1016075536608696,0.06445271521806717
1761838402760240400,2.332240478515625,-0.06651107221841812,-0.10488377511501312,0.0731990709900856
1761838402770306000,2.34230615234375,-0.07572101056575775,-0.10792993754148483,0.07544490694999695
1761838402780375300,2.352375244140625,-0.0753694698214531,-0.10653097927570343,0.065524622797966
1761838402790445300,2.3624453125,-0.07971761375665665,-0.10387687385082245,0.054410990327596664
1761838402800514300,2.372514404296875,-0.07789361476898193,-0.1011338159441948,0.042254723608493805
1761838402810584300,2.382584228515625,-0.07589289546012878,-0.0942569151520729,0.0377190001308918
1761838402820653300,2.3926533203125,-0.07605108618736267,-0.09257326275110245,0.031483475118875504
1761838402830723300,2.402723388671875,-0.06517919898033142,-0.08495954424142838,0.025392040610313416
1761838402840792000,2.4127919921875,-0.05927817150950432,-0.0810026228427887,0.023203454911708832
1761838402850862300,2.4228623046875,-0.05118353292346001,-0.07986433058977127,0.01066092774271965
1761838402860931000,2.43293115234375,-0.03623601049184799,-0.08767751604318619,0.0011965855956077576
1761838402871001300,2.44300146484375,-0.02446049265563488,-0.09753689914941788,-0.015674332156777382
1761838402881070000,2.453070068359375,-0.013849128037691116,-0.1051199808716774,-0.030844762921333313
1761838402891140000,2.46314013671875,-0.010000849142670631,-0.10885676741600037,-0.03730137646198273
1761838402901209000,2.473208984375,-0.00521035585552454,-0.11205469071865082,-0.039208732545375824
1761838402911279000,2.483279052734375,-0.0035505578853189945,-0.10760335624217987,-0.02866307646036148
1761838402921348000,2.49334814453125,-0.006011318881064653,-0.1024400144815445,-0.005425132345408201
1761838402931418000,2.503418212890625,-0.00905032642185688,-0.13203378021717072,0.004207288846373558
1761838402941487400,2.5134873046875,-0.01760013774037361,-0.08983065187931061,0.03574151173233986
1761838402951557000,2.52355712890625,-0.027249323204159737,-0.0646064281463623,0.06819859147071838
1761838402961626400,2.53362646484375,-0.03135298565030098,-0.06205325573682785,0.08157777786254883
1761838402971695000,2.543695068359375,-0.03389255702495575,-0.05858038365840912,0.07566333562135696
1761838402981765400,2.553765380859375,-0.0379410944879055,-0.04787660390138626,0.06602828949689865
1761838402991834000,2.563834228515625,-0.038329221308231354,-0.04056086391210556,0.04462301358580589
1761838403001904000,2.573904052734375,-0.03625834733247757,-0.034759171307086945,0.010637352243065834
1761838403011973000,2.58397314453125,-0.040947750210762024,-0.03322691470384598,-0.016562912613153458
1761838403022043100,2.594043212890625,-0.04188065975904465,-0.0238491278141737,-0.034109681844711304
1761838403032112000,2.604112060546875,-0.04764847084879875,-0.006270654499530792,-0.046117063611745834
1761838403042182100,2.61418212890625,-0.04581302031874657,-0.0011169053614139557,-0.047380201518535614
1761838403052251100,2.624251220703125,-0.047666534781455994,0.01570352353155613,-0.04073366895318031
1761838403062321200,2.634321044921875,-0.04606704041361809,0.01913580484688282,-0.04083007574081421
1761838403072390400,2.644390380859375,-0.04131680727005005,0.020896252244710922,-0.048765044659376144
1761838403082460200,2.654460205078125,-0.036712199449539185,0.012271604500710964,-0.05210438370704651
1761838403092529400,2.664529296875,-0.03686351329088211,0.011088993400335312,-0.05369596928358078
1761838403102599200,2.67459912109375,-0.03728189691901207,0.006533123552799225,-0.05645926296710968
1761838403112668200,2.684668212890625,-0.03924188390374184,0.004858546890318394,-0.05387479439377785
1761838403122738200,2.69473828125,-0.04401000961661339,0.006417294964194298,-0.04384107142686844
1761838403132807200,2.70480712890625,-0.05206373333930969,0.010985882952809334,-0.03142358362674713
1761838403142877200,2.714877197265625,-0.057961300015449524,0.011906538158655167,-0.01800418086349964
1761838403152946200,2.7249462890625,-0.060267865657806396,0.014196109026670456,-0.012482625432312489
1761838403163016200,2.73501611328125,-0.06583600491285324,0.006153362803161144,-0.010105487890541553
1761838403173085200,2.745085205078125,-0.06307877600193024,0.0050721843726933,-0.009714500978589058
1761838403183155200,2.7551552734375,-0.06707751005887985,0.0009357626549899578,-0.004579926375299692
1761838403193224200,2.76522412109375,-0.06175640597939491,0.0010639899410307407,-0.0012122902553528547
1761838403203294200,2.775294189453125,-0.056359775364398956,0.003912507090717554,0.004922034684568644
1761838403213363200,2.78536328125,-0.05186878889799118,-0.006844778545200825,0.007933143526315689
1761838403223433200,2.79543310546875,-0.03621739149093628,-0.006132915616035461,0.014106085523962975
1761838403233502200,2.805502197265625,-0.0293713565915823,0.004710591398179531,0.024699700996279716
1761838403243572200,2.815572265625,-0.01992965117096901,0.00423681503161788,0.028257150202989578
1761838403253641200,2.82564111328125,-0.004384069703519344,0.003729625605046749,0.03610050678253174
1761838403263711200,2.835711181640625,0.0049383253790438175,0.019027888774871826,0.038371916860342026
1761838403273780200,2.8457802734375,0.013404695317149162,0.007775961421430111,0.03931928426027298
1761838403283850200,2.855850341796875,0.03306122124195099,0.008003661409020424,0.024838613346219063
1761838403293919200,2.865919189453125,0.04183267429471016,0.006856865249574184,0.009941942989826202
1761838403303989200,2.8759892578125,0.04755287989974022,0.012778935953974724,0.002633163705468178
1761838403314058200,2.886058349609375,0.04972474277019501,0.01490313932299614,-0.0012965616770088673
1761838403324128300,2.896128173828125,0.04890529066324234,0.018084552139043808,-0.008224775083363056
1761838403334197200,2.906197265625,0.048984918743371964,0.009290527552366257,-0.004038818646222353
1761838403344267000,2.91626708984375,0.05277113616466522,0.013636806979775429,-0.005049222148954868
1761838403354336300,2.926336181640625,0.04838712885975838,0.013426273129880428,-0.0034631246235221624
1761838403364406000,2.936406005859375,0.04155745357275009,0.025461098179221153,-0.0014005063567310572
1761838403374475300,2.946475341796875,0.0401962473988533,0.025726333260536194,-0.0019627101719379425
1761838403384544300,2.956544189453125,0.03953445330262184,0.022410433739423752,-0.0037512890994548798
1761838403394614300,2.9666142578125,0.04210306704044342,0.01681118831038475,-0.01651419885456562
1761838403404683000,2.97668310546875,0.04292332008481026,0.009311459958553314,-0.022550785914063454
1761838403414753300,2.986753173828125,0.0469970703125,-0.0018806466832756996,-0.01589708775281906
1761838403424822000,2.996822021484375,0.04806872829794884,-0.004131549969315529,-0.00042891595512628555
1761838403434892300,3.006892333984375,0.04955967515707016,-0.010785277001559734,0.020643705502152443
1761838403444961300,3.016961181640625,0.04756923019886017,-0.008337299339473248,0.043531712144613266
1761838403455031000,3.027031005859375,0.04566372558474541,-0.011164888739585876,0.06182636320590973
1761838403465100300,3.037100341796875,0.04108148813247681,-0.013638166710734367,0.0802069678902626
1761838403475170000,3.047170166015625,0.03790237754583359,-0.010829401202499866,0.09390690922737122
1761838403485239300,3.0572392578125,0.03155846148729324,-0.001509934663772583,0.09683319181203842
1761838403495309000,3.06730908203125,0.024894362315535545,-0.00476422905921936,0.08452489227056503
1761838403505378300,3.07737841796875,0.021046360954642296,-0.0054563842713832855,0.07227541506290436
1761838403515448000,3.087447998046875,0.02087884396314621,-0.008753694593906403,0.05435926839709282
1761838403525517300,3.097517333984375,0.022006958723068237,-0.0095856674015522,0.03926633298397064
1761838403535587300,3.10758740234375,0.020762968808412552,-0.007126509211957455,0.022966306656599045
1761838403545656300,3.11765625,0.021193068474531174,-0.0046295300126075745,0.012995963916182518
1761838403555726300,3.127726318359375,0.014125451445579529,0.002712726127356291,0.011070983484387398
1761838403565795000,3.137795166015625,0.01070435531437397,0.016537461429834366,0.016720615327358246
1761838403575865300,3.147865234375,0.009182890877127647,0.02793925255537033,0.015472391620278358
1761838403585934000,3.15793408203125,0.0033234041184186935,0.03180110454559326,0.006863722112029791
1761838403596004400,3.16800439453125,0.004072718322277069,0.038148730993270874,-0.00469400268048048
1761838403606073000,3.178072998046875,0.005651174113154411,0.04086887836456299,-0.015950651839375496
1761838403616143000,3.18814306640625,0.01316183153539896,0.033495549112558365,-0.022434961050748825
1761838403626212000,3.198212158203125,0.022229095920920372,0.017961066216230392,-0.017672963440418243
1761838403636282000,3.2082822265625,0.02496512420475483,-0.003216891549527645,-0.012577387504279613
1761838403646351000,3.21835107421875,0.02190248854458332,-0.019268296658992767,-0.009020203724503517
1761838403656421000,3.228421142578125,0.022423721849918365,-0.028647299855947495,0.005010984372347593
1761838403666490400,3.238490478515625,0.012988408096134663,-0.019936099648475647,0.022500228136777878
1761838403676560100,3.24856005859375,0.004448067396879196,-0.008383702486753464,0.044098664075136185
1761838403686629400,3.25862939453125,-0.0034719074610620737,0.003846331499516964,0.06255170702934265
1761838403696699100,3.26869921875,-0.004791879560798407,0.005151097662746906,0.06953974813222885
1761838403706768400,3.278768310546875,-0.008424963802099228,0.009590054862201214,0.07199039310216904
1761838403716838100,3.288838134765625,-0.00874476321041584,0.005738493520766497,0.05820701643824577
1761838403726907100,3.2989072265625,-0.005787055939435959,0.007939329370856285,0.03525802120566368
1761838403736977200,3.30897705078125,-0.006077595986425877,0.008689173497259617,0.015180138871073723
1761838403747046100,3.319046142578125,-0.00579610001295805,0.00933845154941082,-0.009054628200829029
1761838403757116400,3.329116455078125,-0.000008967355825006962,0.010502159595489502,-0.02632981166243553
1761838403767185200,3.33918505859375,0.004774336237460375,0.0130769032984972,-0.040254946798086166
1761838403777255200,3.349255126953125,0.007751065772026777,0.011338257230818272,-0.04394335672259331
1761838403787324000,3.359323974609375,0.012169783003628254,0.020290739834308624,-0.039784032851457596
1761838403797394000,3.369393798828125,0.00796549767255783,0.028599970042705536,-0.028441015630960464
1761838403807463000,3.379462890625,0.006827529054135084,0.038342077285051346,-0.015446120873093605
1761838403817533000,3.389532958984375,0.008036029525101185,0.04517180472612381,-0.011133769527077675
1761838403827602200,3.399602294921875,0.011607861146330833,0.043030887842178345,-0.00821361318230629
1761838403837671200,3.409671142578125,0.011946035549044609,0.04119739681482315,-0.015142174437642097
1761838403847741200,3.4197412109375,0.016572212800383568,0.03709027171134949,-0.02436603233218193
1761838403857810000,3.429809814453125,0.02110687643289566,0.03114505112171173,-0.029084214940667152
1761838403867880200,3.439880126953125,0.01628229394555092,0.025820057839155197,-0.0330030582845211
1761838403877949000,3.449948974609375,0.013381525874137878,0.025748303160071373,-0.028701577335596085
1761838403888019200,3.460019287109375,0.011097598820924759,0.018894659355282784,-0.024925747886300087
1761838403898088000,3.470087890625,0.008195292204618454,0.01326202042400837,-0.018188240006566048
1761838403908158000,3.480157958984375,0.004864476155489683,0.011693685315549374,-0.010003014467656612
1761838403918227000,3.49022705078125,0.0004156603245064616,0.0144176185131073,0.004419890698045492
1761838403928297000,3.500296875,-0.006141042336821556,0.011609315872192383,0.013947615399956703
1761838403938366000,3.510365966796875,-0.008018048480153084,0.014036623761057854,0.023027975112199783
1761838403948436000,3.52043603515625,-0.01720462180674076,0.019392773509025574,0.03709665685892105
1761838403958505200,3.530505126953125,-0.02266022190451622,0.02302173152565956,0.0395730584859848
1761838403968575000,3.540574951171875,-0.024625634774565697,0.01800353452563286,0.039236970245838165
1761838403978644200,3.550644287109375,-0.028462601825594902,0.011574797332286835,0.036286789923906326
1761838403988714000,3.5607138671875,-0.031620580703020096,0.00824051909148693,0.03630250319838524
1761838403998783200,3.570783203125,-0.03370581567287445,0.011713925749063492,0.03163764253258705
1761838404008853000,3.58085302734375,-0.03545578569173813,0.015958471223711967,0.029172616079449654
1761838404018922000,3.590921875,-0.035993270576000214,0.01817314326763153,0.023509128019213676
1761838404028992000,3.600991943359375,-0.03182808682322502,0.021883726119995117,0.009258020669221878
1761838404039061000,3.61106103515625,-0.02576572820544243,0.009544487111270428,-0.008881845511496067
1761838404049131300,3.62113134765625,-0.021368850022554398,0.003340653143823147,-0.017558423802256584
1761838404059200000,3.631199951171875,-0.016396572813391685,0.013883925974369049,-0.01228652335703373
1761838404069270000,3.64127001953125,-0.014588018879294395,0.016501281410455704,-0.007107740268111229
1761838404079339000,3.651339111328125,-0.009046550840139389,0.019151920452713966,-0.00550437904894352
1761838404089409000,3.661408935546875,-0.006814023479819298,0.02145235985517502,0.0008603092283010483
1761838404099478000,3.67147802734375,-0.006052776239812374,0.02352362871170044,-0.0068353572860360146
1761838404109548000,3.681548095703125,-0.0036519367713481188,0.011168159544467926,-0.008127257227897644
1761838404119617000,3.691616943359375,-0.004743639379739761,0.0012181466445326805,-0.0065804580226540565
1761838404129687000,3.70168701171875,-0.0052315304055809975,-0.013414326123893261,-0.0005971342325210571
1761838404139756000,3.711756103515625,-0.0063117509707808495,-0.02107539400458336,0.01207062043249607
1761838404149826000,3.721825927734375,-0.009960281662642956,-0.016605544835329056,0.03630644828081131
1761838404159895000,3.73189501953125,-0.019660860300064087,-0.010797036811709404,0.059561509639024734
1761838404169965000,3.741965087890625,-0.029276736080646515,-0.006324524059891701,0.07815063744783401
1761838404180034000,3.752033935546875,-0.03194234520196915,-0.001018024981021881,0.08208886533975601
1761838404190104000,3.76210400390625,-0.039225559681653976,-0.003965345211327076,0.07285675406455994
1761838404200173000,3.772173095703125,-0.03598024696111679,-0.007171738892793655,0.04946785420179367
1761838404210243000,3.7822431640625,-0.034502193331718445,-0.014804624021053314,0.026148412376642227
1761838404220312000,3.79231201171875,-0.033509548753499985,-0.024831516668200493,0.0015631173737347126
1761838404230382000,3.802382080078125,-0.030906042084097862,-0.02613646350800991,-0.011119654402136803
1761838404240451000,3.812451171875,-0.02974546141922474,-0.026490941643714905,-0.012817834503948689
1761838404250520800,3.822520751953125,-0.029012028127908707,-0.02086501568555832,-0.011531793512403965
1761838404260590000,3.832590087890625,-0.0293421670794487,-0.021086351945996284,-0.005573899485170841
1761838404270660000,3.84266015625,-0.029139500111341476,-0.022583581507205963,-0.002444685436785221
1761838404280729000,3.85272900390625,-0.02926289290189743,-0.022186260670423508,-0.002467749174684286
1761838404290799000,3.862799072265625,-0.028043432161211967,-0.022358566522598267,0.006614162586629391
1761838404300868000,3.8728681640625,-0.029084447771310806,-0.022183749824762344,0.01019258238375187
1761838404310938000,3.882938232421875,-0.028582707047462463,-0.023563001304864883,0.017579391598701477
1761838404321007000,3.893007080078125,-0.030047180131077766,-0.01867450401186943,0.03106696903705597
1761838404331077000,3.9030771484375,-0.03042428381741047,-0.014834756962954998,0.035018034279346466
1761838404341146000,3.91314599609375,-0.02584647573530674,-0.015275225974619389,0.0356469489634037
1761838404351216000,3.923216064453125,-0.021316172555088997,-0.02228706330060959,0.033020272850990295
1761838404361284900,3.933284912109375,-0.014247719198465347,-0.01920090802013874,0.025928180664777756
1761838404371355100,3.943355224609375,-0.016625922173261642,-0.019660836085677147,0.01831021159887314
1761838404381423900,3.953423828125,-0.017311614006757736,-0.020770397037267685,0.009851975366473198
1761838404391494100,3.963494140625,-0.026460638269782066,-0.011331887915730476,-0.00009599700570106506
1761838404401563000,3.97356298828125,-0.033769018948078156,-0.01011394988745451,-0.01360698789358139
1761838404411633000,3.9836328125,-0.03871743753552437,-0.008317115716636181,-0.025711853057146072
1761838404421702100,3.9937021484375,-0.045836254954338074,-0.012356789782643318,-0.03227902576327324
1761838404431772000,4.00377197265625,-0.057703033089637756,-0.006129786372184753,-0.029480576515197754
1761838404441841200,4.013841064453125,-0.07084348052740097,-0.002896311692893505,-0.02230089157819748
1761838404451911000,4.023910888671875,-0.08104045689105988,0.0021399916149675846,-0.013718054629862309
1761838404461980200,4.033980224609375,-0.09041707217693329,0.0011292374692857265,-0.010313643142580986
1761838404472050000,4.0440498046875,-0.09846621006727219,-0.0012569548562169075,-0.0049377866089344025
1761838404482119200,4.054119140625,-0.1083441823720932,0.00192748149856925,0.003931502811610699
1761838404492189000,4.06418896484375,-0.11549530178308487,0.0029035299085080624,0.007363252341747284
1761838404502258200,4.074258056640625,-0.11499103903770447,0.0027706664986908436,0.008798984810709953
1761838404512328200,4.084328125,-0.11765393614768982,0.006846901029348373,0.006930776406079531
1761838404522397000,4.09439697265625,-0.11322218179702759,0.006154848262667656,-0.0011271033436059952
1761838404532467200,4.10446728515625,-0.10249177366495132,-0.0033630235120654106,-0.017024843022227287
1761838404542536000,4.114535888671875,-0.09679830074310303,-0.011545286513864994,-0.028003040701150894
1761838404552606200,4.124606201171875,-0.09156572073698044,-0.018091868609189987,-0.02660434879362583
1761838404562675000,4.134675048828125,-0.086506687104702,-0.026292521506547928,-0.01710737869143486
1761838404572745000,4.144744873046875,-0.07893611490726471,-0.03149793669581413,-0.004153762012720108
1761838404582814000,4.15481396484375,-0.07801775634288788,-0.031105952337384224,0.012769145891070366
1761838404592884000,4.164884033203125,-0.080989308655262,-0.02566990815103054,0.025353645905852318
1761838404602953000,4.174952880859375,-0.08114131540060043,-0.02851835824549198,0.03242969885468483
1761838404613022200,4.185022216796875,-0.08597549051046371,-0.029884828254580498,0.04043729230761528
1761838404623092000,4.195092041015625,-0.09475234150886536,-0.03463774174451828,0.04271192103624344
1761838404633162000,4.205161865234375,-0.09860673546791077,-0.034238800406455994,0.0455617681145668
1761838404643231200,4.215231201171875,-0.10353868454694748,-0.03527361527085304,0.04506312310695648
1761838404653300000,4.225300048828125,-0.1089150682091713,-0.030786719173192978,0.04859953746199608
1761838404663370200,4.235370361328125,-0.11706644296646118,-0.039047352969646454,0.04194149002432823
1761838404673439000,4.24543896484375,-0.11936235427856445,-0.041766971349716187,0.03599411994218826
1761838404683509000,4.255509033203125,-0.1211768314242363,-0.041441500186920166,0.03088938444852829
1761838404693578000,4.265577880859375,-0.11690965294837952,-0.032941222190856934,0.0285484679043293
1761838404703648000,4.27564794921875,-0.11802595108747482,-0.022600680589675903,0.023640133440494537
1761838404713717000,4.285717041015625,-0.11566878110170364,-0.004050699062645435,0.016332685947418213
1761838404723787000,4.295787109375,-0.11167009174823761,0.00865534134209156,0.007499963976442814
1761838404733856000,4.30585595703125,-0.10117404162883759,0.018731145188212395,-0.0027119265869259834
1761838404743926000,4.315926025390625,-0.08733775466680527,0.016237061470746994,-0.013436360284686089
1761838404753995000,4.3259951171875,-0.06314560025930405,0.017012041062116623,-0.024602461606264114
1761838404764065000,4.33606494140625,-0.05282382667064667,0.007672419771552086,-0.027710996568202972
1761838404774137900,4.346137939453125,-0.051062945276498795,0.004706457257270813,-0.02209145948290825
1761838404784208000,4.356207763671875,-0.0461735837161541,0.0009151962585747242,-0.015047121793031693
1761838404794276900,4.36627685546875,-0.051936931908130646,0.001244895625859499,-0.005825127474963665
1761838404804347100,4.37634716796875,-0.060957953333854675,0.010021273046731949,0.008327014744281769
1761838404814416000,4.386415771484375,-0.06604884564876556,0.016542021185159683,0.024181611835956573
1761838404824486100,4.396486083984375,-0.06669186800718307,0.012922543101012707,0.028575826436281204
1761838404834555000,4.406554931640625,-0.0660947859287262,0.007793827448040247,0.029983840882778168
1761838404844625000,4.416625,-0.06479912996292114,0.006730969529598951,0.028773847967386246
1761838404854694000,4.42669384765625,-0.05861074477434158,0.004463820718228817,0.02369626611471176
1761838404864764000,4.436763916015625,-0.05320769175887108,0.00016127340495586395,0.012425921857357025
1761838404874833000,4.4468330078125,-0.04817405343055725,0.006064968183636665,0.0026782192289829254
1761838404884903000,4.45690283203125,-0.04630906507372856,0.00036457832902669907,-0.015865836292505264
1761838404894972000,4.466971923828125,-0.043261606246232986,-0.004093020223081112,-0.03209913522005081
1761838404905042000,4.4770419921875,-0.0323108471930027,-0.007069452665746212,-0.04623856395483017
1761838404915111000,4.48711083984375,-0.026835119351744652,-0.005763704888522625,-0.05183413252234459
1761838404925181000,4.497180908203125,-0.020666489377617836,-0.0038052359595894814,-0.05253324285149574
1761838404935250000,4.50725,-0.017342597246170044,0.005900654476135969,-0.03872102499008179
1761838404945320000,4.51731982421875,-0.013164883479475975,0.015074558556079865,-0.02194291353225708
1761838404955389000,4.527388916015625,-0.008454283699393272,0.013980532065033913,-0.009821802377700806
1761838404965459000,4.537458984375,-0.0025426936335861683,0.015825234353542328,0.000796058215200901
1761838404975528000,4.54752783203125,0.0008855934720486403,0.016548017039895058,0.008533339947462082
1761838404985598000,4.557597900390625,0.006860735360532999,0.016137801110744476,0.006290923338383436
1761838404995667000,4.5676669921875,0.012348711490631104,0.01766299270093441,0.012623921036720276
1761838405005736700,4.57773681640625,0.01705523207783699,0.02457248978316784,0.010634088888764381
1761838405015806000,4.587805908203125,0.019318653270602226,0.023241441696882248,0.00397858303040266
1761838405025875700,4.597875732421875,0.025048553943634033,0.025715433061122894,-0.011237295344471931
1761838405035945000,4.607945068359375,0.02641262486577034,0.05263359844684601,-0.01785525120794773
1761838405046015000,4.618014892578125,0.022258631885051727,0.036312367767095566,-0.03012792021036148
1761838405056084000,4.628083984375,0.02089056558907032,0.025165706872940063,-0.053734179586172104
1761838405066154000,4.638154052734375,0.014741325750946999,0.027575334534049034,-0.06172659248113632
1761838405076224800,4.648224853515625,0.009306080639362335,0.025888223201036453,-0.06769314408302307
1761838405086294000,4.6582939453125,-0.00006590154953300953,0.02893902361392975,-0.06912145018577576
1761838405096364000,4.668364013671875,-0.00547771155834198,0.034942854195833206,-0.05969146266579628
1761838405106433000,4.67843310546875,-0.009243849664926529,0.033046647906303406,-0.051980163902044296
1761838405116503000,4.6885029296875,-0.010372497141361237,0.03165062144398689,-0.0454985648393631
1761838405126571800,4.69857177734375,-0.00820127408951521,0.03682209551334381,-0.03937894105911255
1761838405136642000,4.70864208984375,-0.007356518879532814,0.02460883930325508,-0.029022973030805588
1761838405146710800,4.718710693359375,-0.0014197955606505275,0.00038946885615587234,-0.033586855977773666
1761838405156781000,4.728781005859375,0.007492739241570234,-0.011341755278408527,-0.025986727327108383
1761838405166849800,4.738849853515625,0.013125638477504253,-0.014174924232065678,-0.01451401598751545
1761838405176920000,4.748920166015625,0.028010845184326172,-0.0237300805747509,-0.0096963569521904
1761838405186988800,4.75898876953125,0.04113681986927986,-0.0329333133995533,-0.010060353204607964
1761838405197058800,4.769058837890625,0.05904018506407738,-0.05207691341638565,-0.011590871959924698
1761838405207127800,4.7791279296875,0.07141801714897156,-0.061508454382419586,-0.006927386857569218
1761838405217197800,4.78919775390625,0.07785088568925858,-0.06700415164232254,0.008785529993474483
1761838405227267000,4.79926708984375,0.07707282900810242,-0.0490434430539608,0.03160221129655838
1761838405237336800,4.8093369140625,0.07693807780742645,-0.062260981649160385,0.045282602310180664
1761838405247406000,4.819406005859375,0.07975456863641739,-0.07326352596282959,0.03592187166213989
1761838405257475800,4.829475830078125,0.0788661316037178,-0.07711445540189743,0.03084987960755825
1761838405267545000,4.839545166015625,0.0789690688252449,-0.08549385517835617,0.024615682661533356
1761838405277614800,4.84961474609375,0.07580576092004776,-0.09340370446443558,0.02723356895148754
1761838405287683800,4.859683837890625,0.06861181557178497,-0.09406857937574387,0.04514258727431297
1761838405297753900,4.86975390625,0.05512290820479393,-0.08632384240627289,0.0741524025797844
1761838405307822800,4.87982275390625,0.033949438482522964,-0.0639689490199089,0.11135784536600113
1761838405317893000,4.88989306640625,0.019377419725060463,-0.03966920077800751,0.13794365525245667
1761838405327961900,4.8999619140625,-0.0005367583362385631,-0.02404819428920746,0.14556880295276642
1761838405338032000,4.9100322265625,-0.010983540676534176,-0.01063251867890358,0.13524878025054932
1761838405348100900,4.920100830078125,-0.016865359619259834,0.009219486266374588,0.10940532386302948
1761838405358171000,4.9301708984375,-0.017368430271744728,0.01675037294626236,0.07323507219552994
1761838405368239900,4.940239990234375,-0.017022257670760155,0.020512349903583527,0.024341436102986336
1761838405378310000,4.950309814453125,-0.01458999328315258,0.023455411195755005,-0.018933067098259926
1761838405388379000,4.96037890625,-0.013468421995639801,0.031169652938842773,-0.06273400783538818
1761838405398449000,4.970448974609375,-0.01330623496323824,0.03661475330591202,-0.08957121521234512
1761838405408518000,4.980517822265625,-0.015141679905354977,0.044045984745025635,-0.11219879239797592
1761838405418588000,4.990587890625,-0.01988716796040535,0.05431673675775528,-0.12030651420354843
1761838405428657000,5.000656982421875,-0.024178912863135338,0.05938737839460373,-0.11500976979732513
1761838405438727000,5.010726806640625,-0.027108123525977135,0.06664715707302094,-0.10140634328126907
1761838405448796200,5.020796142578125,-0.029832646250724792,0.07787778973579407,-0.07875624299049377
1761838405458866000,5.030865966796875,-0.033699292689561844,0.07283030450344086,-0.06133810430765152
1761838405468935000,5.040934814453125,-0.03345004841685295,0.07067649066448212,-0.04734044149518013
1761838405479005000,5.0510048828125,-0.030753860250115395,0.05910399556159973,-0.04300720989704132
1761838405489074000,5.061073974609375,-0.027057316154241562,0.042172905057668686,-0.042452242225408554
1761838405499144000,5.07114404296875,-0.022692661732435226,0.026630964130163193,-0.04832344502210617
1761838405509213000,5.081212890625,-0.017773594707250595,0.008145098574459553,-0.052106767892837524
1761838405519283000,5.091282958984375,-0.010268538258969784,-0.004222621209919453,-0.04160885140299797
1761838405529352000,5.10135205078125,-0.0005305379163473845,-0.018630187958478928,-0.023935385048389435
1761838405539422000,5.111421875,0.004846117924898863,-0.029611732810735703,-0.005596857517957687
1761838405549491000,5.121490966796875,0.012334732338786125,-0.03373439237475395,0.01799498312175274
1761838405559561000,5.13156103515625,0.01850341260433197,-0.029979068785905838,0.03287486359477043
1761838405569630000,5.1416298828125,0.027863530442118645,-0.02763902209699154,0.03702310472726822
1761838405579700000,5.151699951171875,0.036292169243097305,-0.024600086733698845,0.028988352045416832
1761838405589769000,5.16176904296875,0.04555696249008179,-0.030613098293542862,0.009050654247403145
1761838405599839000,5.1718388671875,0.05290941521525383,-0.03434658423066139,-0.010464457795023918
1761838405609908000,5.181907958984375,0.0575292706489563,-0.03768196329474449,-0.026628527790308
1761838405619978000,5.19197802734375,0.05781715735793114,-0.03826333209872246,-0.029377706348896027
1761838405630046700,5.202046630859375,0.054223645478487015,-0.029211964458227158,-0.017032716423273087
1761838405640117000,5.212116943359375,0.05460900440812111,-0.023044083267450333,0.005844902712851763
1761838405650185700,5.222185791015625,0.056441277265548706,0.013327619060873985,0.04285957291722298
1761838405660256000,5.232256103515625,0.05611716955900192,0.010856471955776215,0.0645504891872406
1761838405670324700,5.24232470703125,0.05481357499957085,-0.006249170750379562,0.07355933636426926
1761838405680395000,5.25239501953125,0.05632998049259186,-0.006308559328317642,0.07121895253658295
1761838405690464000,5.262464111328125,0.05508510768413544,-0.005827990360558033,0.06438441574573517
1761838405700533800,5.27253369140625,0.052487991750240326,-0.005127578973770142,0.04586053267121315
1761838405710603000,5.28260302734375,0.04983048513531685,-0.00291421078145504,0.022561877965927124
1761838405720672800,5.2926728515625,0.04678249731659889,-0.008996870368719101,-0.007051408290863037
1761838405730742000,5.302741943359375,0.046187348663806915,-0.007722050882875919,-0.033428966999053955
1761838405740811800,5.312811767578125,0.052333392202854156,0.02070532739162445,-0.033061981201171875
1761838405750881000,5.322881103515625,0.029759420081973076,0.019154204055666924,-0.04469352215528488
1761838405760950800,5.33295068359375,0.0165416169911623,0.004081777296960354,-0.06569947302341461
1761838405771020300,5.343020263671875,0.013838248327374458,-0.008686533197760582,-0.06860420852899551
1761838405781090600,5.353090576171875,0.001297422801144421,-0.0025130584836006165,-0.06477431207895279
1761838405791159300,5.3631591796875,-0.004293052013963461,-0.0022637322545051575,-0.05198885500431061
1761838405801229600,5.3732294921875,-0.010789567604660988,0.00530337356030941,-0.03929143771529198
1761838405811298300,5.38329833984375,-0.017827237024903297,0.009431006386876106,-0.029599927365779877
1761838405821368600,5.39336865234375,-0.024655848741531372,0.011982581578195095,-0.018400803208351135
1761838405831437300,5.403437255859375,-0.025525256991386414,0.011874589137732983,-0.009362499229609966
1761838405841507300,5.41350732421875,-0.02423042804002762,0.013977954164147377,0.001250197645276785
1761838405851576300,5.423576416015625,-0.022361844778060913,0.004840030800551176,0.008774785324931145
1761838405861646300,5.433646240234375,-0.021003099158406258,0.0017957715317606926,0.021131053566932678
1761838405871715300,5.44371533203125,-0.019541222602128983,-0.00039871037006378174,0.0271359384059906
1761838405881785300,5.453785400390625,-0.018406983464956284,-0.006880577653646469,0.028127700090408325
1761838405891854600,5.4638544921875,-0.01662703976035118,-0.0043901195749640465,0.021983716636896133
1761838405901924400,5.47392431640625,-0.016824113205075264,-0.008070342242717743,0.013630444183945656
1761838405911993600,5.48399365234375,-0.01700628362596035,-0.004690689034759998,0.0008901963010430336
1761838405922063400,5.4940634765625,-0.01504566427320242,0.0015560216270387173,0.002856674138456583
1761838405932132600,5.504132568359375,-0.01503948774188757,0.009469187818467617,-0.004895729012787342
1761838405942202400,5.514202392578125,-0.015987304970622063,0.011668425984680653,-0.007098163478076458
1761838405952271400,5.524271240234375,-0.009971486404538155,0.011210844852030277,-0.01611032336950302
1761838405962341400,5.53434130859375,-0.006567700300365686,0.011851601302623749,-0.022638265043497086
1761838405972410400,5.544410400390625,-0.0065665883012115955,0.010773987509310246,-0.03389216959476471
1761838405982480600,5.554480712890625,-0.0035681347362697124,0.006848488003015518,-0.03721605986356735
1761838405992549400,5.56454931640625,0.00009308906737715006,0.0025918385945260525,-0.034497424960136414
1761838406002619400,5.574619384765625,-0.0068151503801345825,0.0025620111264288425,-0.02533162385225296
1761838406012688400,5.5846884765625,-0.009753420948982239,-0.0005948487669229507,-0.014955393970012665
1761838406022758400,5.59475830078125,-0.009899628348648548,0.0030004186555743217,-0.004542166832834482
1761838406032827400,5.604827392578125,-0.016097811982035637,0.001899532973766327,0.006147795356810093
1761838406042897400,5.6148974609375,-0.0165910292416811,0.004155230242758989,0.01485713105648756
1761838406052966400,5.62496630859375,-0.018757469952106476,0.007684404030442238,0.016093209385871887
1761838406063036400,5.635036376953125,-0.01661868579685688,0.0030686133541166782,0.01653023436665535
1761838406073105400,5.64510546875,-0.014703918248414993,0.0066221668384969234,0.013500806875526905
1761838406083175400,5.655175537109375,-0.014122817665338516,-0.00009565707296133041,0.0004425300285220146
1761838406093244400,5.665244384765625,-0.0043999492190778255,0.0015297066420316696,-0.006062494125217199
1761838406103314400,5.675314453125,0.0021951026283204556,-0.006313302554190159,-0.01661233976483345
1761838406113383400,5.685383544921875,0.009632631205022335,-0.0037936046719551086,-0.0195058211684227
1761838406123453400,5.695453369140625,0.01865089312195778,-0.0030764155089855194,-0.021649397909641266
1761838406133522400,5.7055224609375,0.018342934548854828,0.0025545540265738964,-0.021076958626508713
1761838406143592400,5.715592529296875,0.023568056523799896,0.010539776645600796,-0.013689616695046425
1761838406153661400,5.725661376953125,0.026845449581742287,0.011781523004174232,-0.0018317985814064741
1761838406163731500,5.7357314453125,0.029914209619164467,0.01261003315448761,0.0023349830880761147
1761838406173800400,5.745800537109375,0.029706131666898727,0.01369231566786766,0.00808698683977127
1761838406183870200,5.7558701171875,0.028380943462252617,0.012787905521690845,0.013929163105785847
1761838406193939500,5.765939453125,0.030947189778089523,0.014415641315281391,0.011339385993778706
1761838406204009500,5.776009521484375,0.02708480693399906,0.011508268304169178,0.003945119678974152
1761838406214078500,5.786078369140625,0.02519625425338745,0.007062420714646578,-0.006472750101238489
1761838406224148500,5.7961484375,0.025764573365449905,0.004462643060833216,-0.016538433730602264
1761838406234217500,5.806217529296875,0.02577991597354412,0.0051795984618365765,-0.018568677827715874
1761838406244287500,5.81628759765625,0.022148428484797478,0.00031293835490942,-0.022800439968705177
1761838406254356500,5.8263564453125,0.015603229403495789,0.0013109417632222176,-0.02037770487368107
1761838406264426500,5.836426513671875,0.011968547478318214,0.003300323151051998,-0.016519850119948387
1761838406274495500,5.84649560546875,0.011435320600867271,0.005326974205672741,-0.012177842669188976
1761838406284565500,5.8565654296875,0.008033931255340576,0.0050819627940654755,-0.0034879485610872507
1761838406294634200,5.86663427734375,0.0069282338954508305,-0.0012173112481832504,0.0015487042255699635
1761838406304704500,5.87670458984375,0.0001467608381062746,-0.004420561715960503,0.00561721483245492
1761838406314773200,5.886773193359375,-0.0021462207660079002,0.0022506569512188435,0.015245074406266212
1761838406324843500,5.896843505859375,-0.0013432778650894761,-0.003135053440928459,0.01829439401626587
1761838406334912300,5.906912353515625,0.0038288570940494537,-0.006199920549988747,0.018017113208770752
1761838406344982300,5.916982177734375,0.00017766316886991262,-0.011219180189073086,0.016453567892313004
1761838406355051500,5.927051513671875,0.003313259221613407,-0.015728609636425972,0.01949547976255417
1761838406365121300,5.937121337890625,0.0008895164355635643,-0.01180497370660305,0.026564573869109154
1761838406375190500,5.9471904296875,-0.006835724227130413,-0.00552836898714304,0.02513129636645317
1761838406385260300,5.95726025390625,-0.008009378798305988,-0.004152313806116581,0.02609908953309059
1761838406395329500,5.96732958984375,-0.008954216726124287,-0.003673095256090164,0.01715119183063507
1761838406405399300,5.9773994140625,-0.00969377625733614,-0.006092577241361141,0.007176055572926998
1761838406415468500,5.987468505859375,-0.007037848699837923,-0.01599016785621643,-0.001346431439742446
1761838406425538300,5.997538330078125,-0.007884467020630836,-0.016720406711101532,-0.0018542963080108166
1761838406435607600,6.007607666015625,-0.011121121235191822,-0.014683485962450504,-0.0014482333790510893
1761838406445677600,6.017677490234375,-0.01650363579392433,-0.0049600182101130486,0.010399904102087021
1761838406455747300,6.027747314453125,-0.0203167162835598,0.003565611783415079,0.02137015201151371
1761838406465816600,6.037816650390625,-0.016323041170835495,0.011892251670360565,0.03423987701535225
1761838406475886300,6.04788623046875,-0.012630924582481384,0.020991355180740356,0.039946310222148895
1761838406485955600,6.05795556640625,-0.011204535141587257,0.016162244603037834,0.03197626769542694
1761838406496025300,6.068025390625,-0.005618302151560783,0.00933085661381483,0.020074140280485153
1761838406506094300,6.07809423828125,-0.00046694977208971977,0.006152906455099583,0.006394281983375549
1761838406516164400,6.088164306640625,-0.0023193215020000935,0.008166286163032055,-0.011324241757392883
1761838406526233300,6.0982333984375,-0.000761638511903584,0.009626763872802258,-0.012066997587680817
1761838406536303600,6.1083037109375,-0.0034468788653612137,0.018768873065710068,-0.008814596571028233
1761838406546372400,6.118372314453125,-0.0035001421347260475,0.021095409989356995,-0.0006442845333367586
1761838406556442600,6.128442626953125,-0.006965424865484238,0.02085109055042267,-0.00008082669228315353
1761838406566511400,6.138511474609375,-0.009748428128659725,0.021599171683192253,0.004833770915865898
1761838406576581400,6.148581298828125,-0.015712201595306396,0.02083635702729225,-0.005349265411496162
1761838406586650400,6.158650390625,-0.021430540829896927,0.02577226236462593,-0.006688568741083145
1761838406596720400,6.168720458984375,-0.02374814637005329,0.02231944166123867,-0.012943022884428501
1761838406606789400,6.178789306640625,-0.02915462851524353,0.020623542368412018,-0.022667555138468742
1761838406616859400,6.188859375,-0.03225474804639816,0.021517213433980942,-0.026566993445158005
1761838406626928400,6.198928466796875,-0.034481946378946304,0.015118702314794064,-0.032471220940351486
1761838406636998400,6.208998291015625,-0.03805239126086235,0.010322414338588715,-0.028291357681155205
1761838406647067400,6.2190673828125,-0.03459880128502846,0.004600878804922104,-0.017518337815999985
1761838406657137400,6.229137451171875,-0.034712910652160645,0.002725450322031975,-0.007321646437048912
1761838406667206400,6.239206298828125,-0.03456137701869011,0.004073276184499264,0.001985302660614252
1761838406677276400,6.2492763671875,-0.02990642748773098,0.0014222641475498676,0.009759553708136082
1761838406687345400,6.259345458984375,-0.03173735365271568,0.003967713564634323,0.01507255993783474
1761838406697415400,6.26941552734375,-0.0318017452955246,0.004173426888883114,0.02082504704594612
1761838406707484400,6.279484375,-0.027457864955067635,0.004567308351397514,0.01853233203291893
1761838406717554400,6.289554443359375,-0.021983936429023743,-0.0021939612925052643,0.015978079289197922
1761838406727623400,6.29962353515625,-0.018427284434437752,-0.003010752610862255,0.011899181641638279
1761838406737693200,6.309693115234375,-0.011488955467939377,-0.002095106989145279,0.011147395707666874
1761838406747762400,6.319762451171875,-0.006412971299141645,-0.007419831119477749,0.00462531391531229
1761838406757832400,6.32983251953125,-0.0023773214779794216,-0.006195276975631714,-0.001182090723887086
1761838406767901400,6.3399013671875,-0.001435361453332007,-0.00948348268866539,-0.003279063617810607
1761838406777967600,6.349967529296875,-0.0002318882616236806,-0.014309561811387539,-0.004522979725152254
1761838406788036600,6.36003662109375,0.0002554701641201973,-0.01573808118700981,-0.0002984069287776947
1761838406798106600,6.370106689453125,-0.0014491573674604297,-0.011458098888397217,0.010428284294903278
1761838406808175600,6.380175537109375,-0.00007656414527446032,-0.009515589103102684,0.01980367675423622
1761838406818245600,6.39024560546875,-0.003253558184951544,-0.004450972191989422,0.021762870252132416
1761838406828315000,6.40031494140625,-0.005482091568410397,-0.003053877502679825,0.017940703779459
1761838406838384600,6.410384521484375,-0.007251657545566559,-0.007283010520040989,0.008879146538674831
1761838406848454000,6.420453857421875,-0.008103336207568645,-0.013454885222017765,-0.0004839950706809759
1761838406858523600,6.430523681640625,-0.004737956915050745,-0.017672069370746613,-0.002281929599121213
1761838406868592600,6.440592529296875,-0.005839972756803036,-0.0201815664768219,-0.004593287128955126
1761838406878662700,6.45066259765625,-0.007813528180122375,-0.015598132275044918,0.001248159445822239
1761838406888731600,6.460731689453125,-0.00892140157520771,-0.016571782529354095,0.00582693237811327
1761838406898801700,6.4708017578125,-0.007520213257521391,-0.017536362633109093,0.010254576802253723
1761838406908870700,6.48087060546875,-0.009017975069582462,-0.012086203321814537,0.017206493765115738
1761838406918940700,6.490940673828125,-0.010460343211889267,-0.006139099597930908,0.02083265222609043
1761838406929009700,6.501009765625,-0.002800825983285904,-0.011602308601140976,0.01949494704604149
1761838406939079700,6.51107958984375,0.00012491841334849596,-0.02311510220170021,0.017323696985840797
1761838406949148700,6.521148681640625,0.0030722387600690126,-0.023689281195402145,0.01475427858531475
1761838406959218700,6.53121875,0.008316696621477604,-0.025411244481801987,0.008623032830655575
1761838406969287700,6.54128759765625,0.014119458384811878,-0.024492189288139343,0.004695136100053787
1761838406979357700,6.551357666015625,0.015042881481349468,-0.03234482184052467,-0.004478537943214178
1761838406989426700,6.5614267578125,0.019872523844242096,-0.03544660285115242,0.00016894470900297165
1761838406999496700,6.57149658203125,0.01803307794034481,-0.030365560203790665,0.007046558428555727
1761838407009565700,6.581565673828125,0.01683705300092697,-0.024102870374917984,0.019719742238521576
1761838407019635700,6.5916357421875,0.01811160333454609,-0.018103567883372307,0.02502596005797386
1761838407029704400,6.601704345703125,0.019069543108344078,-0.01529926061630249,0.02352473884820938
1761838407039774700,6.611774658203125,0.02268201671540737,-0.01364114135503769,0.014069067314267159
1761838407049843700,6.62184375,0.025049300864338875,-0.014525843784213066,0.00500633055344224
1761838407059913700,6.631913818359375,0.026926852762699127,-0.020323125645518303,-0.008503416553139687
1761838407069982700,6.641982666015625,0.028190789744257927,-0.020506352186203003,-0.014860382303595543
1761838407080052700,6.652052734375,0.03109125606715679,-0.021082062274217606,-0.018648559227585793
1761838407090121700,6.662121826171875,0.031118953600525856,-0.023008860647678375,-0.021656598895788193
1761838407100191500,6.67219140625,0.02953425422310829,-0.024235595017671585,-0.01736043207347393
1761838407110260700,6.6822607421875,0.031964655965566635,-0.017475690692663193,-0.007553341798484325
1761838407120330500,6.69233056640625,0.03049418516457081,-0.011290254071354866,0.0017962143756449223
1761838407130399700,6.702399658203125,0.03014078363776207,-0.009965864941477776,0.0020841024816036224
1761838407140469500,6.712469482421875,0.034999601542949677,-0.01522009540349245,0.002443317323923111
1761838407150538800,6.722538818359375,0.030053846538066864,-0.0162760391831398,0.00057271309196949
1761838407160608800,6.73260888671875,0.03076948970556259,-0.01839366927742958,-0.002596123842522502
1761838407170677800,6.742677734375,0.032546885311603546,-0.016444500535726547,0.0017373720183968544
1761838407180747800,6.752747802734375,0.03214557096362114,-0.010594322346150875,0.007899275049567223
1761838407190816800,6.762816650390625,0.020859092473983765,-0.0048104701563715935,0.012148082256317139
1761838407200886800,6.77288671875,0.021033577620983124,0.001559979747980833,0.016485922038555145
1761838407210955500,6.78295556640625,0.0182375255972147,0.010773718357086182,0.01340837124735117
1761838407221025800,6.79302587890625,0.018095459789037704,0.010013305582106113,0.002552217338234186
1761838407231094500,6.803094482421875,0.018281079828739166,0.010399464517831802,-0.009801121428608894
1761838407241164800,6.813164794921875,0.020867969840765,0.011861572042107582,-0.023339683189988136
1761838407251234800,6.82323486328125,0.025953542441129684,0.014199028722941875,-0.031041013076901436
1761838407261303600,6.833303466796875,0.026135336607694626,0.010197877883911133,-0.04002372920513153
1761838407271373800,6.843373779296875,0.026625359430909157,0.007931527681648731,-0.043477583676576614
1761838407281442600,6.853442626953125,0.02630329690873623,0.006860109977424145,-0.044952329248189926
1761838407291512800,6.863512939453125,0.019710643216967583,0.010178674943745136,-0.042429517954587936
1761838407301581600,6.87358154296875,0.017469188198447227,0.013102538883686066,-0.04078821837902069
1761838407311651600,6.883651611328125,0.011395049281418324,0.013599484227597713,-0.039305366575717926
1761838407321720600,6.893720458984375,0.010098617523908615,0.015564416535198689,-0.033833347260951996
1761838407331790600,6.90379052734375,0.009142010472714901,0.018780183047056198,-0.03072943165898323
1761838407341859600,6.913859619140625,0.006757416296750307,0.01331564411520958,-0.023244351148605347
1761838407351929600,6.9239296875,0.008103758096694946,0.012409234419465065,-0.010798533447086811
1761838407361998600,6.93399853515625,0.00900460034608841,0.006011022720485926,-0.0025937168393284082
1761838407372068600,6.944068603515625,0.008456788957118988,0.0007709870114922523,0.0011509540490806103
1761838407382137900,6.954137939453125,0.012442194856703281,-0.004072617739439011,0.006526616867631674
1761838407392207600,6.96420751953125,0.018048683181405067,-0.006041758693754673,0.008435837924480438
1761838407402276900,6.97427685546875,0.023831693455576897,-0.007971436716616154,0.0050884028896689415
1761838407412346600,6.9843466796875,0.030326344072818756,-0.006304298527538776,0.014172178693115711
1761838407422415600,6.99441552734375,0.02689097449183464,-0.0006041517481207848,0.013772796839475632
1761838407432485600,7.004485595703125,0.028541335836052895,-0.009082858450710773,0.009573258459568024
1761838407442554600,7.0145546875,0.030081452801823616,-0.011889665387570858,0.009715691208839417
1761838407452624600,7.024624755859375,0.02944895252585411,-0.008923170156776905,0.007388087455183268
1761838407462693600,7.034693603515625,0.02723793312907219,-0.008835568092763424,0.004751281812787056
1761838407472764000,7.044763916015625,0.023861045017838478,-0.00790985208004713,-0.0028602993115782738
1761838407482832600,7.05483251953125,0.022005610167980194,-0.00437520258128643,-0.007793224882334471
1761838407492902700,7.064902587890625,0.014737578108906746,-0.007540903054177761,-0.012363742105662823
1761838407502971600,7.0749716796875,0.010163175873458385,-0.003665022552013397,-0.010557493194937706
1761838407513041700,7.085041748046875,0.0032030045986175537,0.007830511778593063,-0.008833629079163074
1761838407523110700,7.095110595703125,-0.0024343226104974747,0.009496169164776802,-0.00475307647138834
1761838407533180700,7.1051806640625,-0.00857104454189539,0.007063638418912888,0.00013089459389448166
1761838407543249700,7.115249755859375,-0.009881362318992615,0.004704924765974283,0.0018988619558513165
1761838407553319700,7.125319580078125,-0.01132266502827406,0.004225289449095726,0.008544247597455978
1761838407563388700,7.135388671875,-0.013929219916462898,-0.00030429475009441376,0.013024971820414066
1761838407573458700,7.145458740234375,-0.01532658003270626,0.0019410164095461369,0.0165022611618042
1761838407583527700,7.155527587890625,-0.0162392258644104,-0.0017439378425478935,0.013286133296787739
1761838407593597700,7.16559765625,-0.017849905416369438,-0.00831528753042221,0.013548986054956913
1761838407603666700,7.175666748046875,-0.0188389141112566,-0.00044659245759248734,0.017202498391270638
1761838407613736700,7.18573681640625,-0.017144344747066498,0.003210193943232298,0.020504817366600037
1761838407623805700,7.1958056640625,-0.019310755655169487,0.008714594878256321,0.015521476045250893
1761838407633875700,7.205875732421875,-0.01842845045030117,0.0074967313557863235,0.012960046529769897
1761838407643944700,7.21594482421875,-0.019549241289496422,0.0021254736930131912,0.005073387175798416
1761838407654014500,7.226014404296875,-0.015397638082504272,-0.00023035891354084015,0.002365218475461006
1761838407664083700,7.236083740234375,-0.020865194499492645,0.005604723934084177,0.004748270381242037
1761838407674153500,7.246153564453125,-0.021456949412822723,0.011097493581473827,0.005665196571499109
1761838407684222700,7.25622265625,-0.021941129118204117,0.013714784756302834,0.003365652170032263
1761838407694292700,7.266292724609375,-0.018741343170404434,0.009785023517906666,-0.009704609401524067
1761838407704361700,7.27636181640625,-0.011760285124182701,0.00005183462053537369,-0.019307633861899376
1761838407714431700,7.286431640625,-0.009700862690806389,-0.007519799284636974,-0.025997759774327278
1761838407724500700,7.296500732421875,-0.01018401701003313,-0.008461023680865765,-0.018550265580415726
1761838407734570800,7.30657080078125,-0.014381425455212593,0.005047061014920473,0.0009848200716078281
1761838407744639700,7.3166396484375,-0.018738510087132454,0.017025558277964592,0.01297630462795496
1761838407754709800,7.326709716796875,-0.022112201899290085,0.01730944961309433,0.014971277676522732
1761838407764778500,7.336778564453125,-0.01818707585334778,0.014751833863556385,0.008728470653295517
1761838407774848500,7.3468486328125,-0.0142629100009799,0.010562415234744549,0.007438435219228268
1761838407784917500,7.35691748046875,-0.007992705330252647,0.008174692280590534,0.0007134545594453812
1761838407794987500,7.366987548828125,-0.0019736955873668194,0.004188472405076027,-0.0011078815441578627
1761838407805056500,7.377056396484375,0.0017860844964161515,0.0015664100646972656,-0.0003728107549250126
1761838407815126800,7.387126708984375,0.012864300981163979,-0.004665919579565525,0.006024101749062538
1761838407825195500,7.397195556640625,0.012951701879501343,-0.005709711462259293,0.006027380004525185
1761838407835265500,7.407265625,0.01637013629078865,-0.005798394791781902,0.006795168854296207
1761838407845334500,7.41733447265625,0.011979086324572563,-0.003961184062063694,0.010240322910249233
1761838407855404500,7.427404541015625,0.007393122185021639,0.006863234099000692,0.011415576562285423
1761838407865473500,7.4374736328125,0.0071726031601428986,0.011653831228613853,0.013775183819234371
1761838407875543600,7.44754345703125,0.002521658781915903,0.013153723441064358,0.0044455984607338905
1761838407885612500,7.457612548828125,0.00276341219432652,0.006747473496943712,-0.004304227419197559
1761838407895682600,7.4676826171875,0.005336025729775429,0.005784208420664072,-0.015371259301900864
1761838407905752600,7.477752685546875,0.0009762404952198267,-0.00129754189401865,-0.018306389451026917
1761838407915821600,7.487821533203125,-0.0011063513811677694,0.0013594944030046463,-0.017586536705493927
1761838407925890600,7.497890625,-0.007589796558022499,0.00261603482067585,-0.00512783182784915
1761838407935960600,7.507960693359375,-0.015095649287104607,-0.0014242464676499367,0.006707256194204092
1761838407946030600,7.518030517578125,-0.019305294379591942,-0.006009950302541256,0.018977217376232147
1761838407956099600,7.528099609375,-0.022630518302321434,-0.007177479565143585,0.02983066439628601
1761838407966169600,7.538169677734375,-0.02271188795566559,0.0016895439475774765,0.04065350443124771
1761838407976238600,7.548238525390625,-0.024725770577788353,0.004699182230979204,0.041349127888679504
1761838407986308600,7.55830859375,-0.01996106095612049,0.0036431411281228065,0.03136075288057327
1761838407996377300,7.56837744140625,-0.017512284219264984,0.0013139406219124794,0.017039339989423752
1761838408006447600,7.578447509765625,-0.008771732449531555,-0.003679688088595867,0.004164586775004864
1761838408016516400,7.588516357421875,-0.0031186407431960106,-0.004191281273961067,-0.0058667417615652084
1761838408026586600,7.598586669921875,0.00043453939724713564,-0.006943821907043457,-0.011430304497480392
1761838408036655400,7.6086552734375,0.0020622634328901768,-0.0014462582767009735,-0.009451575577259064
1761838408046725600,7.6187255859375,0.0036253342404961586,-0.0021487856283783913,-0.008118919096887112
1761838408056794600,7.628794677734375,0.004281803499907255,-0.002706984058022499,-0.0013331850059330463
1761838408066864400,7.638864501953125,0.0031357789412140846,-0.0024230554699897766,-0.0018756561912596226
1761838408076933600,7.64893359375,0.00165293097961694,-0.01204665470868349,0.002431207802146673
1761838408087003400,7.65900341796875,0.004104441963136196,-0.013531720265746117,0.013300062157213688
1761838408097072600,7.66907275390625,-0.00003411038778722286,-0.008282896131277084,0.018914803862571716
1761838408107142400,7.679142333984375,-0.0040465956553816795,-0.006458078511059284,0.02434539794921875
1761838408117211600,7.689211669921875,-0.00904641393572092,-0.007735064253211021,0.02524368092417717
1761838408127281400,7.699281494140625,-0.011337436735630035,-0.0038068341091275215,0.02085229381918907
1761838408137350700,7.7093505859375,-0.01259870920330286,-0.007423141039907932,0.018042657524347305
1761838408147420700,7.719420654296875,-0.009703782387077808,-0.005916144698858261,0.009783624671399593
1761838408157489700,7.72948974609375,-0.009393789805471897,-0.008241882547736168,0.0036863181740045547
1761838408167559700,7.7395595703125,-0.007673996035009623,-0.009195690043270588,-0.00589274475350976
1761838408177628400,7.74962841796875,-0.0047612967900931835,-0.008475837297737598,-0.009631290100514889
1761838408187698700,7.75969873046875,-0.002255795057862997,-0.003573756664991379,-0.009706391021609306
1761838408197767400,7.769767333984375,-0.0013617719523608685,-0.007414300926029682,-0.010719457641243935
1761838408207837700,7.779837646484375,0.0035952837206423283,0.0008251182734966278,-0.008000302128493786
1761838408217906400,7.789906494140625,-0.001969924196600914,0.0032866778783500195,0.0026315697468817234
1761838408227976400,7.7999765625,0.0008353317389264703,0.007995330728590488,0.005265391897410154
1761838408238045400,7.81004541015625,-0.0016009280225262046,0.00897111278027296,0.008902737870812416
1761838408248115500,7.820115478515625,-0.005620868876576424,0.014683077111840248,0.009808884933590889
1761838408258184400,7.830184326171875,-0.005661348812282085,0.014337665401399136,0.011939946562051773
1761838408268254500,7.84025439453125,-0.0063714925199747086,0.02012474648654461,0.010438475757837296
1761838408278323700,7.85032373046875,-0.00475601851940155,0.011566412635147572,0.003566188272088766
1761838408288393500,7.8603935546875,-0.002980598248541355,0.006326459348201752,0.004072896204888821
1761838408298462700,7.870462646484375,-0.004841881338506937,0.004674767144024372,0.009807215072214603
1761838408308532500,7.880532470703125,-0.010504603385925293,0.003522466402500868,0.012409815564751625
1761838408318601700,7.890601806640625,-0.013875100761651993,-0.00029490888118743896,0.01725437119603157
1761838408328671500,7.90067138671875,-0.02242816984653473,0.0022790217772126198,0.020857619121670723
1761838408338740500,7.910740478515625,-0.025541936978697777,0.0042478968389332294,0.016283640637993813
1761838408348810500,7.920810546875,-0.029653431847691536,-0.000012596137821674347,0.0183235052973032
1761838408358879500,7.93087939453125,-0.028385234996676445,-0.00903751514852047,0.01254258118569851
1761838408368949800,7.94094970703125,-0.028532130643725395,-0.007388037629425526,0.018266070634126663
1761838408379018500,7.9510185546875,-0.030109522864222527,-0.005425287410616875,0.025260597467422485
1761838408389088500,7.961088623046875,-0.03173958510160446,0.00011548399925231934,0.03038162738084793
1761838408399157500,7.971157470703125,-0.03106660582125187,0.001631888560950756,0.031062863767147064
1761838408409227500,7.9812275390625,-0.03008698672056198,0.011730246245861053,0.030150286853313446
1761838408419296500,7.991296630859375,-0.02490181103348732,0.014121764339506626,0.02295176312327385
1761838408429366500,8.001366455078125,-0.01860615983605385,0.02171362191438675,0.01649225689470768
1761838408439435500,8.011435546875,-0.017878051847219467,0.01569434627890587,0.006199406925588846
1761838408449504500,8.02150439453125,-0.014353927224874496,0.016195815056562424,-0.00003305310383439064
1761838408459573500,8.031573486328124,-0.009762903675436974,0.02062571793794632,-0.005582548212260008
1761838408469643500,8.0416435546875,-0.0045671481639146805,0.020145636051893234,-0.007995866239070892
1761838408479712500,8.05171240234375,0.0009583785431459546,0.02204526960849762,-0.014154959470033646
1761838408489782500,8.061782470703125,0.004113530274480581,0.01792079769074917,-0.013836861588060856
1761838408499851500,8.0718515625,0.006170289590954781,0.02521253190934658,-0.005193572491407394
1761838408509921500,8.081921630859375,0.0022816509008407593,0.02667931839823723,-0.0005579828284680843
1761838408519990500,8.091990478515624,0.0029485062696039677,0.029135551303625107,0.005597914103418589
1761838408530060500,8.102060546875,0.0018712489400058985,0.03197644650936127,0.007676559966057539
1761838408540129500,8.112129638671876,-0.0006249318830668926,0.02652042917907238,0.00030812574550509453
1761838408550199600,8.122199462890626,-0.005296592600643635,0.023585425689816475,-0.007420334033668041
1761838408560268500,8.1322685546875,-0.009641272947192192,0.0254264697432518,-0.01189737394452095
1761838408570338600,8.142338623046875,-0.011467061005532742,0.019997477531433105,-0.019252020865678787
1761838408580407600,8.152407470703125,-0.017034398391842842,0.028842369094491005,-0.017955061048269272
1761838408590477600,8.1624775390625,-0.02095256932079792,0.03073349967598915,-0.014480698853731155
1761838408600546600,8.172546630859374,-0.016597768291831017,0.031723394989967346,-0.012933135032653809
1761838408610616300,8.1826162109375,-0.011148970574140549,0.03101702220737934,-0.007871975190937519
1761838408620685600,8.192685546875,-0.0030865161679685116,0.027801787480711937,-0.003056713379919529
1761838408630755600,8.202755615234375,0.008777623996138573,0.023600541055202484,-0.004179833456873894
1761838408640824600,8.212824462890625,0.020945874974131584,0.016672858968377113,-0.003228552173823118
1761838408650894600,8.22289453125,0.025829287245869637,0.011507502757012844,0.0003031305968761444
1761838408660963600,8.232963623046874,0.0298935379832983,0.01148752961307764,-0.0004886272363364697
1761838408671033600,8.24303369140625,0.03144698962569237,0.0024920087307691574,-0.005000643897801638
1761838408681102600,8.2531025390625,0.029064524918794632,0.0019921334460377693,-0.005168423056602478
1761838408691172600,8.263172607421875,0.025909334421157837,0.005996226333081722,-0.003288477659225464
1761838408701241600,8.27324169921875,0.018985914066433907,0.0032688830979168415,0.0064491042867302895
1761838408711311600,8.2833115234375,0.006171158980578184,-0.00442906841635704,0.0068494705483317375
1761838408721380400,8.29338037109375,0.0030203734058886766,-0.01068190485239029,0.009355504997074604
1761838408731450600,8.30345068359375,-0.005484707187861204,-0.00573977455496788,0.014781476929783821
1761838408741519400,8.313519287109376,-0.011320758610963821,-0.008310257457196712,0.014139121398329735
1761838408751589600,8.323589599609376,-0.014344900846481323,-0.012650441378355026,0.010975799523293972
1761838408761658400,8.333658447265625,-0.014126520603895187,-0.016252366825938225,0.01099630631506443
1761838408771728600,8.343728759765625,-0.010941138491034508,-0.010998371988534927,0.010949232615530491
1761838408781797600,8.353797607421875,-0.011755799874663353,-0.017947092652320862,0.009587825275957584
1761838408791867400,8.363867431640625,-0.00949745811522007,-0.02416510507464409,0.010920565575361252
1761838408801936600,8.3739365234375,-0.005338399205356836,-0.02566979080438614,0.014842070639133453
1761838408812006400,8.38400634765625,-0.0031924243085086346,-0.021616190671920776,0.025203898549079895
1761838408822075600,8.39407568359375,-0.004299766384065151,-0.01299953367561102,0.03041703812777996
1761838408832145400,8.4041455078125,-0.0034558014012873173,-0.0048743318766355515,0.030073707923293114
1761838408842214700,8.414214599609375,-0.0028331545181572437,-0.0070842234417796135,0.022256528958678246
1761838408852284400,8.424284423828125,0.0029469747096300125,-0.012945891357958317,0.00883790198713541
1761838408862353700,8.434353759765624,0.0015437552938237786,-0.015345665626227856,-0.0023628207854926586
1761838408872423700,8.444423583984374,-0.0001497439807280898,-0.009652676060795784,-0.0019338089041411877
1761838408882492400,8.454492431640626,-0.006981017999351025,-0.003439522348344326,0.0023592067882418633
1761838408892562700,8.464562744140625,-0.013990525156259537,0.006073858588933945,0.005979521200060844
1761838408902632400,8.474632568359375,-0.021243911236524582,0.008484018966555595,-0.00229918141849339
1761838408912701700,8.48470166015625,-0.020356435328722,0.0008300105109810829,-0.016473229974508286
1761838408922770400,8.4947705078125,-0.023451294749975204,-0.00640606414526701,-0.02144508622586727
1761838408932840700,8.5048408203125,-0.026204485446214676,-0.011280562728643417,-0.02354305237531662
1761838408942910500,8.514910400390624,-0.03207648918032646,-0.005234920419752598,-0.016281146556138992
1761838408952979500,8.5249794921875,-0.041934434324502945,-0.006565321236848831,-0.0019629981834441423
1761838408963049700,8.5350498046875,-0.04364711418747902,-0.003917340189218521,0.014803199097514153
1761838408973118500,8.545118408203125,-0.048191044479608536,-0.0000013299286365509033,0.026771629229187965
1761838408983188700,8.555188720703125,-0.047528184950351715,-0.0024700798094272614,0.03292885422706604
1761838408993257500,8.565257568359375,-0.04445527121424675,-0.004985883831977844,0.03968147560954094
1761838409003327500,8.575327392578124,-0.04402623698115349,-0.004837279208004475,0.04665016755461693
1761838409013396500,8.585396484375,-0.04159126803278923,-0.00257705245167017,0.05499877780675888
1761838409023466500,8.595466552734376,-0.03845006972551346,-0.0030931727960705757,0.049191221594810486
1761838409033535500,8.605535400390625,-0.03194304555654526,-0.0022894004359841347,0.04254345968365669
1761838409043605500,8.61560546875,-0.02263396792113781,-0.0034489408135414124,0.03012407198548317
1761838409053674500,8.625674560546875,-0.011064724065363407,-0.0020310888066887856,0.0148511016741395
1761838409063744500,8.63574462890625,-0.0050361258909106255,0.0036515644751489162,0.002437574788928032
1761838409073813500,8.6458134765625,0.004481854382902384,0.004483451135456562,-0.00676222238689661
1761838409083883500,8.655883544921876,0.006552462000399828,0.005016616079956293,-0.005015455186367035
1761838409093952800,8.665952880859376,0.014583109878003597,0.00754382461309433,-0.00011370889842510223
1761838409104022500,8.6760224609375,0.014909613877534866,0.011328709311783314,0.007682429160922766
1761838409114091500,8.686091552734375,0.015020144172012806,0.01270279847085476,0.016887331381440163
1761838409124161500,8.69616162109375,0.014282980933785439,0.01433371752500534,0.027448629960417747
1761838409134230500,8.70623046875,0.012942022643983364,0.011268886737525463,0.0320819616317749
1761838409144300500,8.716300537109374,0.014473606832325459,0.007862437516450882,0.030490990728139877
1761838409154369500,8.72636962890625,0.014268534258008003,0.007312862668186426,0.02279902808368206
1761838409164439600,8.736439453125,0.00892223883420229,0.009154705330729485,0.018190428614616394
1761838409174508500,8.746508544921875,0.004525173921138048,0.010809671133756638,0.014337015338242054
1761838409184578600,8.75657861328125,-0.002697851276025176,0.012216619215905666,0.010083947330713272
1761838409194647600,8.7666474609375,-0.0075213308446109295,0.013604927808046341,0.00858684815466404
1761838409204717600,8.776717529296874,-0.011479321867227554,0.010852018371224403,0.0098872696980834
1761838409214786600,8.78678662109375,-0.015695441514253616,0.013136030174791813,0.012097999453544617
1761838409224856600,8.796856689453126,-0.019726403057575226,0.010717613622546196,0.011446056887507439
1761838409234925600,8.806925537109375,-0.0197597648948431,0.010251771658658981,0.008049976080656052
1761838409244995600,8.81699560546875,-0.02203303948044777,0.012732505798339844,0.0022914232686161995
1761838409255064600,8.827064697265625,-0.01820278912782669,0.012205319479107857,0.00039517320692539215
1761838409265134600,8.837134521484375,-0.015692226588726044,0.008225757628679276,-0.0028791832737624645
1761838409275203600,8.84720361328125,-0.010374432429671288,0.010521188378334045,-0.0034967472311109304
1761838409285273600,8.857273681640624,-0.004298164043575525,0.011954235844314098,-0.0005901730619370937
1761838409295342300,8.86734228515625,-0.0025673890486359596,0.018513750284910202,0.0036962577141821384
1761838409305412600,8.87741259765625,-0.004084591753780842,0.025445427745580673,0.009533373638987541
1761838409315481600,8.887481689453125,-0.004294321406632662,0.031003158539533615,0.011667094193398952
1761838409325551600,8.897551513671875,-0.0049305506981909275,0.04229043424129486,0.008196729235351086
1761838409335620600,8.90762060546875,-0.004921605344861746,0.049080781638622284,-0.0074014971032738686
1761838409345690400,8.9176904296875,-0.005775947589427233,0.051604658365249634,-0.021734897047281265
1761838409355759600,8.927759521484376,-0.004634621553122997,0.05544417351484299,-0.0363837294280529
1761838409365829400,8.937829345703125,-0.0029461774975061417,0.05218206346035004,-0.0518186129629612
1761838409375898600,8.947898681640625,0.0035299137234687805,0.037385493516922,-0.07020564377307892
1761838409385968400,8.957968505859375,0.0024017987307161093,0.023975946009159088,-0.0738440528512001
1761838409396037600,8.96803759765625,0.0001336163841187954,0.01678266003727913,-0.05538718029856682
1761838409406107400,8.978107421875,-0.004586836323142052,0.01967218890786171,-0.0319385789334774
1761838409416176600,8.9881767578125,-0.0116805424913764,0.025495806708931923,-0.005361389368772507
1761838409426246700,8.99824658203125,-0.024424299597740173,0.0492623895406723,0.02831188403069973
1761838409436315600,9.008315673828125,-0.029925771057605743,0.0346391424536705,0.039457157254219055
1761838409446385700,9.0183857421875,-0.030439764261245728,0.032062266021966934,0.03871094062924385
1761838409456455400,9.028455322265625,-0.0366428904235363,0.030566783621907234,0.03624679520726204
1761838409466524700,9.038524658203125,-0.038353435695171356,0.020421206951141357,0.023929409682750702
1761838409476594400,9.048594482421874,-0.03308343142271042,0.0012539220042526722,0.006350421346724033
1761838409486663700,9.05866357421875,-0.027876421809196472,-0.010141212493181229,0.0013532661832869053
1761838409496733400,9.0687333984375,-0.024262651801109314,-0.012756722047924995,0.009199733845889568
1761838409506802400,9.078802490234375,-0.023865308612585068,-0.006574992090463638,0.01994745433330536
1761838409516872700,9.088872802734375,-0.022982364520430565,-0.010219295509159565,0.026452606543898582
1761838409526941400,9.09894140625,-0.01801610179245472,-0.014535213820636272,0.025365769863128662
1761838409537011700,9.10901171875,-0.01893889531493187,-0.018112003803253174,0.017425337806344032
1761838409547080400,9.11908056640625,-0.01494388934224844,-0.018676061183214188,0.019002195447683334
1761838409557150700,9.129150634765624,-0.01511853002011776,-0.014961735345423222,0.014501461759209633
1761838409567219500,9.139219482421876,-0.019200623035430908,-0.012601376511156559,0.010791146196424961
1761838409577289500,9.14928955078125,-0.024968773126602173,-0.005232573486864567,0.010318749584257603
1761838409587358500,9.1593583984375,-0.023173537105321884,-0.00015792064368724823,0.002434993628412485
1761838409597428500,9.169428466796875,-0.023870591074228287,-0.0053025828674435616,-0.012831959873437881
1761838409607497500,9.17949755859375,-0.01848727837204933,-0.009757251478731632,-0.03027326799929142
1761838409617567500,9.1895673828125,-0.016531333327293396,-0.013218480162322521,-0.046497199684381485
1761838409627636500,9.199636474609376,-0.015567001886665821,-0.019598081707954407,-0.05351010337471962
1761838409637706500,9.20970654296875,-0.01676606573164463,-0.02199963852763176,-0.04827681556344032
1761838409647775700,9.219775634765625,-0.022915571928024292,-0.018138054758310318,-0.0397629551589489
1761838409657845500,9.229845458984375,-0.023419922217726707,-0.0073569295927882195,-0.026073984801769257
1761838409667914800,9.239914794921875,-0.022846808657050133,-0.003936632536351681,-0.015432525426149368
1761838409677984500,9.249984619140625,-0.020303701981902122,-0.004808484576642513,-0.012764537706971169
1761838409688053500,9.260053466796874,-0.023990314453840256,-0.007840759120881557,-0.014627951197326183
1761838409698123500,9.27012353515625,-0.027559220790863037,-0.0001588212326169014,-0.0079923951998353
1761838409708192500,9.280192626953125,-0.028856713324785233,-0.0021748337894678116,-0.010313339531421661
1761838409718262500,9.290262451171875,-0.033536214381456375,0.008584321476519108,-0.008753802627325058
1761838409728331500,9.30033154296875,-0.03789341077208519,0.01830938830971718,-0.008621176704764366
1761838409738401500,9.310401611328125,-0.03811142221093178,0.0026374487206339836,-0.02322690188884735
1761838409748470500,9.320470458984374,-0.03438911959528923,0.008242604322731495,-0.03194236010313034
1761838409758540500,9.33054052734375,-0.03388560935854912,0.007125022821128368,-0.04072459042072296
1761838409768609500,9.340609619140626,-0.027723053470253944,0.006463493686169386,-0.05264730006456375
1761838409778679000,9.350678955078125,-0.0292653888463974,0.008395599201321602,-0.059747420251369476
1761838409788748300,9.360748291015625,-0.025794491171836853,0.012181815691292286,-0.05917404219508171
1761838409798818000,9.370818115234375,-0.021423611789941788,0.0065718842670321465,-0.053872086107730865
1761838409808887300,9.38088720703125,-0.02131096087396145,0.011520836502313614,-0.051029689610004425
1761838409818957000,9.39095703125,-0.025464802980422974,0.008209280669689178,-0.043756693601608276
1761838409829026300,9.4010263671875,-0.02616654336452484,0.007287027779966593,-0.03843409940600395
1761838409839096000,9.411095947265625,-0.02682344801723957,0.0037751351483166218,-0.028719011694192886
1761838409849165300,9.421165283203125,-0.026716921478509903,0.005137342028319836,-0.024203356355428696
1761838409859235300,9.4312353515625,-0.025079090148210526,0.0017182598821818829,-0.01610514335334301
1761838409869304000,9.441303955078125,-0.027464216575026512,0.0016186577267944813,-0.011275234632194042
1761838409879374300,9.451374267578124,-0.02196023426949978,-0.00044426508247852325,-0.01970774680376053
1761838409889443000,9.461443115234376,-0.02336025796830654,-0.006840645335614681,-0.01862384006381035
1761838409899513300,9.471513427734376,-0.025027548894286156,-0.00692440290004015,-0.008483252488076687
1761838409909582000,9.48158203125,-0.017621831968426704,-0.00668391864746809,-0.0043015568517148495
1761838409919652000,9.491652099609375,-0.009008483029901981,-0.010626062750816345,0.005553402006626129
1761838409929721000,9.50172119140625,-0.006857713684439659,-0.003155096434056759,0.01432106178253889
1761838409939791000,9.511791015625,0.000809307734016329,-0.004370926879346371,0.0211713258177042
1761838409949860000,9.521860107421874,0.008486402221024036,-0.002297656610608101,0.01862907223403454
1761838409959930000,9.53193017578125,0.01547542680054903,-0.005434474907815456,0.007352371234446764
1761838409969999000,9.5419990234375,0.023835888132452965,-0.007058471441268921,-0.006024154368788004
1761838409980069000,9.552069091796875,0.03042503260076046,-0.006619215942919254,-0.017337344586849213
1761838409990138000,9.56213818359375,0.03477237746119499,-0.004212250933051109,-0.023478593677282333
1761838410000208100,9.5722080078125,0.03262363746762276,0.000025352463126182556,-0.03145383670926094
1761838410010277400,9.58227734375,0.036525968462228775,-0.017827946692705154,-0.055362097918987274
1761838410020347100,9.59234716796875,0.035882022231817245,-0.005828858353197575,-0.05616746097803116
1761838410030416100,9.602416015625,0.022997114807367325,0.022733278572559357,-0.046830154955387115
1761838410040486100,9.612486083984376,0.018711812794208527,0.022185567766427994,-0.05371011793613434
1761838410050555100,9.62255517578125,0.013306128792464733,0.022329911589622498,-0.05773628503084183
1761838410060625200,9.632625244140625,0.01032984722405672,0.022934146225452423,-0.058350156992673874
1761838410070694100,9.642694091796875,0.005053326487541199,0.011882293969392776,-0.06132756918668747
1761838410080764200,9.65276416015625,0.004446914419531822,-0.00219667237251997,-0.06272834539413452
1761838410090833200,9.662833251953124,-0.00006261595990508795,0.004516091663390398,-0.04480553790926933
1761838410100903200,9.672903076171876,-0.008188913576304913,0.0002906331792473793,-0.015839701518416405
1761838410110972200,9.68297216796875,-0.012701373547315598,0.0020539122633635998,0.011673148721456528
1761838410121042200,9.693042236328125,-0.02322731353342533,0.00033429451286792755,0.04107470065355301
1761838410131111200,9.703111083984375,-0.033479951322078705,0.013244500383734703,0.06782642006874084
1761838410141181200,9.71318115234375,-0.038359180092811584,0.012610284611582756,0.07584540545940399
1761838410151250200,9.723250244140624,-0.04145563766360283,0.015297680161893368,0.0677906721830368
1761838410161320200,9.7333203125,-0.035314273089170456,0.010486812330782413,0.0529545396566391
1761838410171389200,9.74338916015625,-0.03095894120633602,0.0024102432653307915,0.031148843467235565
1761838410181459200,9.753459228515625,-0.027529709041118622,0.0015856479294598103,0.011742878705263138
1761838410191528200,9.763528076171875,-0.03274551033973694,-0.010888331569731236,-0.0009843686129897833
1761838410201598200,9.77359814453125,-0.033931851387023926,-0.00340344849973917,-0.001806055661290884
1761838410211667000,9.7836669921875,-0.0284140482544899,0.013067936524748802,-0.004762697033584118
1761838410221737200,9.7937373046875,-0.02217504195868969,0.003096324857324362,-0.011953061446547508
1761838410231807200,9.80380712890625,-0.01880427822470665,0.008062854409217834,-0.0062589566223323345
1761838410241876200,9.813876220703126,-0.018142221495509148,0.002668671775609255,0.0009806039743125439
1761838410251945200,9.8239453125,-0.017297200858592987,0.0022122059017419815,0.01345991063863039
1761838410262015200,9.83401513671875,-0.019818633794784546,0.013393922708928585,0.03810461610555649
1761838410272084200,9.844084228515625,-0.016909662634134293,0.004181782249361277,0.05443032830953598
1761838410282154000,9.854154052734375,-0.01668381318449974,-0.00026318803429603577,0.06121199578046799
1761838410292223200,9.86422314453125,-0.022799231112003326,0.006066081114113331,0.07899525761604309
1761838410302293000,9.87429296875,-0.025062810629606247,-0.0020251674577593803,0.07937513291835785
1761838410312362200,9.8843623046875,-0.00745585560798645,-0.006670253351330757,0.07634365558624268
1761838410322432300,9.894432373046875,-0.005471404641866684,-0.0001533767208456993,0.07503263652324677
1761838410332501200,9.904501220703125,-0.008134299889206886,0.0002639414742588997,0.07013748586177826
1761838410342571300,9.9145712890625,-0.006661021150648594,0.002552194055169821,0.06433755904436111
1761838410352641000,9.92464111328125,-0.009301278740167618,-0.0025019533932209015,0.05037859454751015
1761838410362710300,9.934710205078124,-0.0224335677921772,-0.0027168607339262962,0.03928987309336662
1761838410372779000,9.944779052734376,-0.01168797817081213,-0.005981363356113434,0.029186107218265533
1761838410382849300,9.954849365234375,-0.01122919749468565,0.020293572917580605,0.03364032879471779
1761838410392919000,9.9649189453125,-0.009164448827505112,0.028843386098742485,0.027718523517251015
1761838410402988300,9.97498828125,-0.0065637631341814995,0.03855318948626518,0.01714187115430832
1761838410413058300,9.985058349609375,-0.00382150593213737,0.04150423780083656,0.00444631464779377
1761838410423127300,9.995127197265624,-0.004131540656089783,0.03046494908630848,-0.020382974296808243
1761838410433196000,10.005196044921876,-0.0005482574924826622,0.03612842783331871,-0.021108418703079224
1761838410443266000,10.01526611328125,0.004055325407534838,0.03208277001976967,-0.02490944415330887
1761838410453336300,10.02533642578125,0.007197323255240917,0.03660668432712555,-0.02390063926577568
1761838410463405000,10.035405029296875,0.0046631209552288055,0.0399409756064415,-0.024419676512479782
1761838410473475300,10.045475341796875,0.001955484738573432,0.04183688014745712,-0.026239413768053055
1761838410483544000,10.0555439453125,0.010676182806491852,0.02304735779762268,-0.03289111331105232
1761838410493614000,10.065614013671874,0.006968529894948006,0.014604339376091957,-0.04191736504435539
1761838410503683000,10.07568310546875,-0.0009117790032178164,0.027786606922745705,-0.027628635987639427
1761838410513753000,10.085753173828126,-0.003474538680166006,0.026537053287029266,-0.010896260850131512
1761838410523822000,10.095822021484375,-0.0025701713748276234,0.0211428664624691,0.0026868204586207867
1761838410533891300,10.105891357421875,-0.0019200937822461128,0.017493536695837975,0.015981320291757584
1761838410543961300,10.11596142578125,-0.0018900574650615454,0.012013484723865986,0.021213866770267487
1761838410554031000,10.126031005859375,0.0014455518685281277,0.0024868249893188477,0.018739521503448486
1761838410564100400,10.136100341796874,0.011365336365997791,-0.009590125642716885,0.012933137826621532
1761838410574169000,10.146169189453126,0.015700696036219597,-0.009815429337322712,0.009209238924086094
1761838410584239400,10.1562392578125,0.021116139367222786,-0.010297530330717564,0.002632133662700653
1761838410594309000,10.16630908203125,0.024535104632377625,-0.012510883621871471,-0.0012622068170458078
1761838410604378000,10.176378173828125,0.027508797124028206,-0.00995722971856594,-0.0005975051317363977
1761838410614447000,10.186447021484375,0.027520248666405678,-0.006040518172085285,0.008796796202659607
1761838410624517000,10.19651708984375,0.026324916630983353,-0.013199594803154469,0.012156521901488304
1761838410634586000,10.206586181640626,0.02703518234193325,-0.015081384219229221,0.01634168066084385
1761838410644656000,10.21665625,0.023204049095511436,-0.008885420858860016,0.02782994508743286
1761838410654725000,10.22672509765625,0.014437987469136715,-0.010421531274914742,0.02860519289970398
1761838410664795100,10.236795166015625,0.004875181242823601,0.0030734166502952576,0.04018111899495125
1761838410674864000,10.246864013671875,-0.005447763949632645,-0.005798105150461197,0.027511127293109894
1761838410684934100,10.25693408203125,-0.003408534452319145,-0.012055832892656326,0.01739892177283764
1761838410695003400,10.26700341796875,-0.007042417768388987,-0.003799235448241234,0.02270686812698841
1761838410705073200,10.2770732421875,-0.019807130098342896,0.009302624501287937,0.037149399518966675
1761838410715142100,10.28714208984375,-0.022634075954556465,-0.002569747157394886,0.04975121468305588
1761838410725212200,10.297212158203125,-0.028045713901519775,0.008894026279449463,0.06983927637338638
1761838410735281200,10.30728125,-0.032666031271219254,0.013142034411430359,0.07920268177986145
1761838410745351200,10.31735107421875,-0.0282555241137743,0.004599845968186855,0.07371532171964645
1761838410755420200,10.327420166015624,-0.023841600865125656,-0.004816026426851749,0.06554261595010757
1761838410765490200,10.337490234375,-0.015221253037452698,-0.01778881996870041,0.04621085897088051
1761838410775559200,10.34755908203125,-0.013818297535181046,-0.02651520073413849,0.023397957906126976
1761838410785629700,10.357629638671876,-0.008691483177244663,-0.03170543909072876,0.00037347152829170227
1761838410795699000,10.367698974609375,-0.008360984735190868,-0.036080483347177505,-0.021258320659399033
1761838410805768700,10.377768798828125,-0.011107790283858776,-0.025088341906666756,-0.038310445845127106
1761838410815838000,10.387837890625,-0.018353186547756195,-0.014720657840371132,-0.0458434633910656
1761838410825907700,10.39790771484375,-0.0262538343667984,-0.0016537215560674667,-0.05103776231408119
1761838410835977000,10.40797705078125,-0.03292984515428543,0.017355654388666153,-0.0449678860604763
