time,seconds_elapsed,z,y,x
1761387524039376100,0.056376220703125,-1.00048828125,-0.0261688232421875,0.0098724365234375
1761387524049446100,0.066446044921875,-1.0006103515625,-0.027099609375,0.0103912353515625
1761387524059516000,0.076515869140625,-1.0008087158203125,-0.0267791748046875,0.009765625
1761387524069586000,0.0865859375,-0.9999542236328125,-0.0272674560546875,0.0103607177734375
1761387524079656200,0.09665625,-1.000244140625,-0.0271453857421875,0.0100250244140625
1761387524089726000,0.106725830078125,-0.9997100830078125,-0.0258636474609375,0.00982666015625
1761387524099796000,0.1167958984375,-1.000030517578125,-0.0256500244140625,0.00970458984375
1761387524109866000,0.126865966796875,-1.00030517578125,-0.0268707275390625,0.009063720703125
1761387524119936000,0.13693603515625,-0.9998016357421875,-0.027679443359375,0.009979248046875
1761387524130006000,0.147006103515625,-1.0006103515625,-0.0278167724609375,0.0100860595703125
1761387524140076000,0.157075927734375,-1.001556396484375,-0.02764892578125,0.0103759765625
1761387524150146000,0.16714599609375,-1.00048828125,-0.02618408203125,0.009918212890625
1761387524160216000,0.177216064453125,-1.00048828125,-0.025909423828125,0.0099945068359375
1761387524170285800,0.187285888671875,-1.00042724609375,-0.025604248046875,0.0098724365234375
1761387524180356000,0.197356201171875,-1.00048828125,-0.0269317626953125,0.0099639892578125
1761387524190426000,0.207426025390625,-1.00146484375,-0.027069091796875,0.009613037109375
1761387524200495900,0.217495849609375,-1.001190185546875,-0.027252197265625,0.009368896484375
1761387524210566100,0.227566162109375,-1.0006866455078125,-0.026397705078125,0.011138916015625
1761387524220636000,0.237635986328125,-1.002166748046875,-0.0267486572265625,0.010498046875
1761387524230706000,0.247705810546875,-1.000152587890625,-0.02667236328125,0.010284423828125
1761387524240776000,0.25777587890625,-1.0001220703125,-0.0257110595703125,0.00933837890625
1761387524250846000,0.267845947265625,-1.0017242431640625,-0.0266876220703125,0.00872802734375
1761387524260916000,0.277916015625,-1.000823974609375,-0.02703857421875,0.009521484375
1761387524270986000,0.287986083984375,-1.00128173828125,-0.02667236328125,0.01025390625
1761387524281056000,0.298055908203125,-1.0018768310546875,-0.0259552001953125,0.0104217529296875
1761387524291126000,0.3081259765625,-1.00018310546875,-0.0269927978515625,0.0099945068359375
1761387524301196000,0.318196044921875,-1.0007476806640625,-0.0269622802734375,0.01025390625
1761387524311266000,0.32826611328125,-1.0007781982421875,-0.0273284912109375,0.0092620849609375
1761387524321336000,0.338336181640625,-1.0007781982421875,-0.0264739990234375,0.00958251953125
1761387524331406000,0.348406005859375,-1.000274658203125,-0.0261993408203125,0.0103912353515625
1761387524341475800,0.358475830078125,-1.0004119873046875,-0.0275421142578125,0.0105133056640625
1761387524351546000,0.368546142578125,-1.000579833984375,-0.0269927978515625,0.0098114013671875
1761387524361616000,0.378615966796875,-1.0002899169921875,-0.026153564453125,0.0103607177734375
1761387524371686000,0.388685791015625,-1.0009307861328125,-0.026641845703125,0.0096893310546875
1761387524381756200,0.398756103515625,-1.0006103515625,-0.0259552001953125,0.00970458984375
1761387524391826000,0.408825927734375,-1.000091552734375,-0.0267181396484375,0.00958251953125
1761387524401896000,0.41889599609375,-1.000274658203125,-0.0268096923828125,0.010009765625
1761387524411966200,0.42896630859375,-1.000640869140625,-0.026763916015625,0.0092010498046875
1761387524422036000,0.439035888671875,-1.0009002685546875,-0.0274658203125,0.0100860595703125
1761387524432106000,0.44910595703125,-1.000579833984375,-0.027740478515625,0.009613037109375
1761387524442176000,0.459176025390625,-1.0008392333984375,-0.0269317626953125,0.009246826171875
1761387524452246000,0.46924609375,-1.0017852783203125,-0.025604248046875,0.009765625
1761387524462316000,0.47931591796875,-1.0009918212890625,-0.0264892578125,0.0097503662109375
1761387524472386000,0.489385986328125,-1.000152587890625,-0.027099609375,0.010406494140625
1761387524482456000,0.4994560546875,-1.0004119873046875,-0.0270843505859375,0.009765625
1761387524492526000,0.509526123046875,-1.0010223388671875,-0.026702880859375,0.00946044921875
1761387524502595800,0.519595947265625,-1.00091552734375,-0.0265655517578125,0.0101470947265625
1761387524512666000,0.529666015625,-1.00054931640625,-0.0267791748046875,0.0098419189453125
1761387524522736000,0.539736083984375,-0.99951171875,-0.0262603759765625,0.009918212890625
1761387524532806000,0.549805908203125,-1.0012359619140625,-0.026611328125,0.00958251953125
1761387524542876000,0.5598759765625,-1.0005035400390625,-0.0263519287109375,0.0099639892578125
1761387524552946200,0.5699462890625,-1.0006256103515625,-0.0264739990234375,0.00994873046875
1761387524563016000,0.580015869140625,-1.00115966796875,-0.027130126953125,0.0107879638671875
1761387524573086000,0.5900859375,-1.0001678466796875,-0.027191162109375,0.00994873046875
1761387524583156200,0.60015625,-1.0005340576171875,-0.0267181396484375,0.0092010498046875
1761387524593226000,0.61022607421875,-1.00128173828125,-0.02734375,0.0103302001953125
1761387524603296000,0.6202958984375,-1.0001068115234375,-0.026824951171875,0.009674072265625
1761387524613366000,0.630365966796875,-1.000823974609375,-0.0266265869140625,0.01043701171875
1761387524623436000,0.64043603515625,-1.0016326904296875,-0.0272979736328125,0.010040283203125
1761387524633506000,0.650506103515625,-0.9993743896484375,-0.027252197265625,0.0088043212890625
1761387524643575800,0.660575927734375,-1.0001678466796875,-0.0268096923828125,0.010223388671875
1761387524653646000,0.67064599609375,-1.001251220703125,-0.02685546875,0.0106048583984375
1761387524663716000,0.680716064453125,-0.9999237060546875,-0.0262451171875,0.0098114013671875
1761387524673785900,0.690785888671875,-1.000701904296875,-0.0263214111328125,0.008880615234375
1761387524683856100,0.700856201171875,-1.000762939453125,-0.02630615234375,0.00994873046875
1761387524693926100,0.710926025390625,-1.0007476806640625,-0.0262451171875,0.0108642578125
1761387524703996000,0.720995849609375,-1.0011444091796875,-0.02691650390625,0.0098724365234375
1761387524714066000,0.73106591796875,-0.9998626708984375,-0.0271759033203125,0.00982666015625
1761387524724136200,0.74113623046875,-1.0001373291015625,-0.0273284912109375,0.00933837890625
1761387524734206000,0.7512060546875,-1.0009918212890625,-0.026611328125,0.010528564453125
1761387524744276000,0.76127587890625,-1.0009002685546875,-0.027313232421875,0.0101470947265625
1761387524754346000,0.771345947265625,-1.0008087158203125,-0.027557373046875,0.0093841552734375
1761387524764416000,0.781416015625,-1.001129150390625,-0.0276641845703125,0.00994873046875
1761387524774486000,0.791486083984375,-1.0002593994140625,-0.026397705078125,0.009490966796875
1761387524784556000,0.80155615234375,-1.000152587890625,-0.02691650390625,0.0101470947265625
1761387524794626000,0.8116259765625,-1.0009918212890625,-0.026947021484375,0.0097808837890625
1761387524804696000,0.821696044921875,-0.999847412109375,-0.027191162109375,0.0100860595703125
1761387524814765800,0.831765869140625,-0.9999542236328125,-0.0260772705078125,0.0097198486328125
1761387524824836000,0.841836181640625,-1.0000762939453125,-0.0272674560546875,0.0092620849609375
1761387524834906000,0.851906005859375,-1.0005645751953125,-0.026947021484375,0.009124755859375
1761387524844975900,0.861975830078125,-1.0002899169921875,-0.027130126953125,0.0101470947265625
1761387524855046100,0.872046142578125,-1.000335693359375,-0.0264892578125,0.0105133056640625
1761387524865116200,0.8821162109375,-1.0006256103515625,-0.0269775390625,0.0101470947265625
1761387524875186000,0.89218603515625,-1.0002288818359375,-0.02581787109375,0.0098419189453125
1761387524885256000,0.902255859375,-1.000762939453125,-0.02728271484375,0.00958251953125
1761387524895326000,0.912325927734375,-1.000640869140625,-0.027008056640625,0.0101165771484375
1761387524905396000,0.92239599609375,-1.00054931640625,-0.0278778076171875,0.0101318359375
1761387524915466000,0.932466064453125,-1.0004119873046875,-0.02642822265625,0.0098724365234375
1761387524925536000,0.942535888671875,-1.00018310546875,-0.0265045166015625,0.0100860595703125
1761387524935606000,0.95260595703125,-1.000091552734375,-0.02655029296875,0.0092315673828125
1761387524945676000,0.962676025390625,-0.9988555908203125,-0.026611328125,0.0099945068359375
1761387524955746000,0.97274609375,-1.000701904296875,-0.0269927978515625,0.0098724365234375
1761387524965816000,0.982816162109375,-1.0008087158203125,-0.026824951171875,0.0097503662109375
1761387524975886000,0.992885986328125,-0.9998779296875,-0.0270233154296875,0.0095672607421875
1761387524985955800,1.002955810546875,-1.000396728515625,-0.0274810791015625,0.0094757080078125
1761387524996026000,1.013026123046875,-1.00146484375,-0.026031494140625,0.009521484375
1761387525006096100,1.02309619140625,-1.000335693359375,-0.0266265869140625,0.01007080078125
1761387525016166000,1.033165771484375,-0.9999237060546875,-0.0263214111328125,0.00927734375
1761387525026236200,1.043236083984375,-1.0000762939453125,-0.02679443359375,0.0101165771484375
1761387525036306000,1.053305908203125,-1.00054931640625,-0.0272064208984375,0.010162353515625
1761387525046376000,1.0633759765625,-0.9995269775390625,-0.026641845703125,0.0101318359375
1761387525056446000,1.073446044921875,-1.0001983642578125,-0.0272369384765625,0.009735107421875
1761387525066516000,1.083515869140625,-1.000335693359375,-0.027252197265625,0.0106353759765625
1761387525076586000,1.0935859375,-1.0005950927734375,-0.0262908935546875,0.010040283203125
1761387525086656000,1.103656005859375,-1.0004119873046875,-0.0268707275390625,0.0098419189453125
1761387525096726000,1.11372607421875,-0.99981689453125,-0.02642822265625,0.0102691650390625
1761387525106796000,1.123796142578125,-1.00091552734375,-0.026763916015625,0.009918212890625
1761387525116866000,1.133865966796875,-1.0000457763671875,-0.0266571044921875,0.0096435546875
1761387525126936000,1.14393603515625,-1.0008087158203125,-0.0270233154296875,0.0104827880859375
1761387525137006000,1.154006103515625,-1.00146484375,-0.0267486572265625,0.01031494140625
1761387525147075800,1.164075927734375,-1.0007781982421875,-0.0262451171875,0.0097503662109375
1761387525157145900,1.174145751953125,-1.0004425048828125,-0.0268707275390625,0.0102996826171875
1761387525167216000,1.184216064453125,-1.0010223388671875,-0.0262908935546875,0.01007080078125
1761387525177286000,1.194285888671875,-1.0001220703125,-0.0265045166015625,0.010345458984375
1761387525187356000,1.20435595703125,-1.0012664794921875,-0.0263824462890625,0.0097198486328125
1761387525197426200,1.21442626953125,-1.0001983642578125,-0.02703857421875,0.0101776123046875
1761387525207496000,1.224495849609375,-1.0007171630859375,-0.02716064453125,0.010284423828125
1761387525217566000,1.23456591796875,-1.000885009765625,-0.02691650390625,0.0099639892578125
1761387525227636200,1.24463623046875,-0.9996795654296875,-0.0265655517578125,0.009185791015625
1761387525237706000,1.2547060546875,-1.0000152587890625,-0.02691650390625,0.0098419189453125
1761387525247776000,1.26477587890625,-1.00048828125,-0.0262451171875,0.00958251953125
1761387525257846000,1.274845947265625,-1.000335693359375,-0.0275115966796875,0.009063720703125
1761387525267916000,1.284916015625,-1.000396728515625,-0.0273895263671875,0.010040283203125
1761387525277986000,1.294986083984375,-1.0002593994140625,-0.0272064208984375,0.00982666015625
1761387525288055800,1.305055908203125,-1.00115966796875,-0.027130126953125,0.009765625
1761387525298126000,1.3151259765625,-0.99969482421875,-0.0263214111328125,0.0092926025390625
1761387525308196000,1.325196044921875,-0.99993896484375,-0.0263824462890625,0.01007080078125
1761387525318265900,1.335265869140625,-1.0001983642578125,-0.02691650390625,0.010223388671875
1761387525328336100,1.345336181640625,-1.00146484375,-0.0260162353515625,0.009796142578125
1761387525338406100,1.35540625,-1.0008697509765625,-0.0261688232421875,0.010101318359375
1761387525348476000,1.365475830078125,-1.0005340576171875,-0.026885986328125,0.0104217529296875
1761387525358546000,1.3755458984375,-0.9994049072265625,-0.0264129638671875,0.0099029541015625
1761387525368616200,1.3856162109375,-1.0004119873046875,-0.02618408203125,0.0104827880859375
1761387525378686000,1.39568603515625,-0.9996337890625,-0.0269012451171875,0.0101165771484375
1761387525388756000,1.405755859375,-1.0000152587890625,-0.026763916015625,0.01019287109375
1761387525398826200,1.415826171875,-1.000244140625,-0.0258941650390625,0.0100250244140625
1761387525408896000,1.42589599609375,-1.0014801025390625,-0.0269775390625,0.0094451904296875
1761387525418966000,1.435966064453125,-0.999847412109375,-0.027191162109375,0.0096893310546875
1761387525429035800,1.446035888671875,-1.0012664794921875,-0.027374267578125,0.00994873046875
1761387525439106000,1.45610595703125,-1.0000457763671875,-0.02655029296875,0.010284423828125
1761387525449176000,1.466176025390625,-1.0008544921875,-0.0253448486328125,0.0098419189453125
1761387525459245800,1.476245849609375,-1.0002288818359375,-0.026947021484375,0.009918212890625
1761387525469316000,1.486316162109375,-0.99945068359375,-0.0263519287109375,0.0106048583984375
1761387525479386000,1.49638623046875,-1.0008087158203125,-0.02642822265625,0.0105133056640625
1761387525489455900,1.506455810546875,-1.001220703125,-0.0260162353515625,0.009521484375
1761387525499526100,1.516526123046875,-1.0001678466796875,-0.025604248046875,0.0092315673828125
1761387525509596200,1.52659619140625,-1.0000457763671875,-0.0263824462890625,0.0097198486328125
1761387525519666000,1.536666015625,-1.0001373291015625,-0.026611328125,0.01068115234375
1761387525529736000,1.54673583984375,-1.000274658203125,-0.0272216796875,0.0099945068359375
1761387525539806000,1.556805908203125,-1.000244140625,-0.0263519287109375,0.010162353515625
1761387525549876000,1.5668759765625,-1.0022430419921875,-0.0267486572265625,0.0105133056640625
1761387525559946000,1.576946044921875,-1.0005645751953125,-0.0264434814453125,0.0103607177734375
1761387525570016000,1.58701611328125,-1.0001068115234375,-0.02618408203125,0.00933837890625
1761387525580086000,1.5970859375,-0.9957122802734375,-0.027130126953125,0.00848388671875
1761387525590156000,1.607156005859375,-1.0066986083984375,-0.02740478515625,0.0115966796875
1761387525600226000,1.61722607421875,-1.001220703125,-0.026947021484375,0.009490966796875
1761387525610296000,1.627296142578125,-0.9998931884765625,-0.0258026123046875,0.00927734375
1761387525620366000,1.637365966796875,-1.0011749267578125,-0.0264739990234375,0.0100860595703125
1761387525630435800,1.647435791015625,-0.998016357421875,-0.0264739990234375,0.0100555419921875
1761387525640506000,1.657506103515625,-1.0008544921875,-0.0279541015625,0.010223388671875
1761387525650576100,1.667576171875,-1.0023040771484375,-0.027313232421875,0.0097503662109375
1761387525660646000,1.67764599609375,-0.9986419677734375,-0.026702880859375,0.0103759765625
1761387525670716200,1.687716064453125,-1.0003814697265625,-0.0255584716796875,0.0101776123046875
1761387525680786000,1.697785888671875,-1.0030670166015625,-0.0262451171875,0.0105133056640625
1761387525690856000,1.70785595703125,-0.9983062744140625,-0.0273284912109375,0.0092010498046875
1761387525700926000,1.717926025390625,-1.000579833984375,-0.027740478515625,0.0096893310546875
1761387525710996000,1.727995849609375,-1.001129150390625,-0.027618408203125,0.010162353515625
1761387525721066000,1.73806591796875,-0.999481201171875,-0.0272064208984375,0.0093994140625
1761387525731136000,1.748135986328125,-1.0007171630859375,-0.0270233154296875,0.0103759765625
1761387525741206000,1.7582060546875,-1.00054931640625,-0.0261688232421875,0.0099639892578125
1761387525751276000,1.768276123046875,-0.9993743896484375,-0.0262603759765625,0.0099639892578125
1761387525761346000,1.778345947265625,-1.0006561279296875,-0.0266571044921875,0.009552001953125
1761387525771416000,1.788416015625,-1.000640869140625,-0.0278167724609375,0.0097503662109375
1761387525781486000,1.798486083984375,-1.0003204345703125,-0.0280914306640625,0.00933837890625
1761387525791556000,1.80855615234375,-1.0020599365234375,-0.0266876220703125,0.01092529296875
1761387525801625900,1.8186259765625,-1.0002899169921875,-0.0266571044921875,0.0099029541015625
1761387525811696600,1.828696533203125,-1.0000152587890625,-0.026702880859375,0.009796142578125
1761387525821767000,1.838766845703125,-1.001068115234375,-0.0261993408203125,0.009735107421875
1761387525831836700,1.848836669921875,-0.9998016357421875,-0.026519775390625,0.009857177734375
1761387525841906700,1.85890673828125,-1.0004119873046875,-0.0272674560546875,0.010894775390625
1761387525851977000,1.86897705078125,-1.0004425048828125,-0.027374267578125,0.0099029541015625
1761387525862046700,1.879046630859375,-1.000335693359375,-0.0265350341796875,0.009613037109375
1761387525872116700,1.88911669921875,-0.9999847412109375,-0.0272064208984375,0.0100860595703125
1761387525882186800,1.899186767578125,-0.9997100830078125,-0.0263671875,0.0098876953125
1761387525892256800,1.9092568359375,-1.000640869140625,-0.02642822265625,0.0094146728515625
1761387525902326800,1.919326904296875,-1.0017547607421875,-0.0263214111328125,0.009124755859375
1761387525912396500,1.929396484375,-1.0008087158203125,-0.0265045166015625,0.0098876953125
1761387525922466800,1.939466796875,-0.9992828369140625,-0.0274505615234375,0.010772705078125
1761387525932536800,1.949536865234375,-1.00115966796875,-0.0274505615234375,0.0094451904296875
1761387525942606600,1.959606689453125,-1.0002288818359375,-0.0268402099609375,0.009246826171875
1761387525952676900,1.9696767578125,-0.9999542236328125,-0.0269317626953125,0.009521484375
1761387525962747000,1.979746826171875,-1.00048828125,-0.0268402099609375,0.00927734375
1761387525972816600,1.989816650390625,-0.9996490478515625,-0.0269317626953125,0.009033203125
1761387525982887000,1.999886962890625,-1.0008087158203125,-0.027801513671875,0.010345458984375
1761387525992957000,2.00995703125,-0.9998779296875,-0.0271759033203125,0.010467529296875
1761387526003026700,2.020026611328125,-0.999542236328125,-0.0269012451171875,0.011322021484375
1761387526013096700,2.0300966796875,-1.0005645751953125,-0.027252197265625,0.010650634765625
1761387526023166700,2.040166748046875,-1.0005645751953125,-0.026824951171875,0.00885009765625
1761387526033236700,2.05023681640625,-1.001068115234375,-0.0269775390625,0.009307861328125
1761387526043306800,2.060306640625,-1.0005035400390625,-0.02679443359375,0.01025390625
1761387526053376800,2.070376708984375,-0.9994659423828125,-0.0272064208984375,0.0094757080078125
1761387526063446800,2.08044677734375,-1.0017242431640625,-0.02716064453125,0.0100555419921875
1761387526073516800,2.090516845703125,-1.0001983642578125,-0.0269927978515625,0.0100250244140625
1761387526083586800,2.1005869140625,-0.999908447265625,-0.02685546875,0.00958251953125
1761387526093656800,2.11065673828125,-0.9993133544921875,-0.0265655517578125,0.00994873046875
1761387526103726800,2.120726806640625,-1.0010223388671875,-0.026763916015625,0.0093536376953125
1761387526113796600,2.130796630859375,-1.0008697509765625,-0.026824951171875,0.0099029541015625
1761387526123867000,2.140866943359375,-1.000274658203125,-0.0269012451171875,0.0106353759765625
1761387526133936600,2.1509365234375,-1.000152587890625,-0.02734375,0.010223388671875
1761387526144006700,2.161006591796875,-1.000885009765625,-0.027435302734375,0.0103607177734375
1761387526154077000,2.171076904296875,-1.0002288818359375,-0.0272369384765625,0.0099334716796875
1761387526164146700,2.181146728515625,-1.0009918212890625,-0.0263214111328125,0.009124755859375
1761387526174216700,2.191216796875,-1.000518798828125,-0.02630615234375,0.0095977783203125
1761387526184286700,2.20128662109375,-1.0006866455078125,-0.025054931640625,0.0103759765625
1761387526194356700,2.211356689453125,-1.000762939453125,-0.026336669921875,0.0100555419921875
1761387526204426800,2.2214267578125,-1.000335693359375,-0.027435302734375,0.00970458984375
1761387526214496800,2.231496826171875,-1.0007476806640625,-0.0272369384765625,0.0088958740234375
1761387526224566800,2.24156689453125,-1.0008544921875,-0.02716064453125,0.009918212890625
1761387526234636800,2.25163671875,-1.000762939453125,-0.0273895263671875,0.009429931640625
1761387526244706800,2.261706787109375,-0.999725341796875,-0.0270843505859375,0.0092010498046875
1761387526254776800,2.27177685546875,-1.0001983642578125,-0.0271148681640625,0.0099029541015625
1761387526264846800,2.281846923828125,-1.000732421875,-0.0269622802734375,0.0101470947265625
1761387526274916600,2.29191650390625,-1.000640869140625,-0.0266876220703125,0.0100250244140625
1761387526284986600,2.301986572265625,-1.00067138671875,-0.027618408203125,0.0107574462890625
1761387526295057000,2.312056884765625,-0.9998931884765625,-0.0269927978515625,0.0099334716796875
1761387526305126700,2.322126708984375,-1.0003509521484375,-0.0269622802734375,0.009857177734375
1761387526315196700,2.33219677734375,-0.9997100830078125,-0.026519775390625,0.0100555419921875
1761387526325267000,2.342266845703125,-1.000762939453125,-0.026153564453125,0.010162353515625
1761387526335336700,2.352336669921875,-1.0007476806640625,-0.0269927978515625,0.0094451904296875
1761387526345406700,2.36240673828125,-0.9988861083984375,-0.02667236328125,0.0093536376953125
1761387526355476700,2.372476806640625,-0.9998321533203125,-0.0268402099609375,0.0095977783203125
1761387526365546800,2.382546630859375,-1.0004119873046875,-0.02777099609375,0.0094757080078125
1761387526375616800,2.39261669921875,-0.999664306640625,-0.026214599609375,0.0092010498046875
1761387526385686800,2.402686767578125,-1.000396728515625,-0.026214599609375,0.0087127685546875
1761387526395756800,2.4127568359375,-1.000640869140625,-0.0263671875,0.00958251953125
1761387526405826800,2.422826904296875,-1.000518798828125,-0.02642822265625,0.01007080078125
1761387526415896600,2.432896484375,-1.0013275146484375,-0.0269775390625,0.0103759765625
1761387526425966800,2.442966796875,-1.0000152587890625,-0.0271148681640625,0.010284423828125
1761387526436036900,2.453036865234375,-0.9995880126953125,-0.0264892578125,0.0108489990234375
1761387526446106600,2.463106689453125,-1.0009918212890625,-0.026458740234375,0.0099334716796875
1761387526456176600,2.4731767578125,-1.000701904296875,-0.0271759033203125,0.01025390625
1761387526466247000,2.483246826171875,-1.000030517578125,-0.0265960693359375,0.01019287109375
1761387526476316700,2.493316650390625,-1.0009002685546875,-0.0264739990234375,0.009979248046875
1761387526486386700,2.50338671875,-1.0006866455078125,-0.027069091796875,0.0098724365234375
1761387526496457000,2.51345703125,-1.0014801025390625,-0.0273895263671875,0.010406494140625
1761387526506526700,2.523526611328125,-0.9998779296875,-0.026397705078125,0.0104217529296875
1761387526516596700,2.5335966796875,-0.9999542236328125,-0.026885986328125,0.00927734375
1761387526526666800,2.543666748046875,-0.99932861328125,-0.0266571044921875,0.0097808837890625
1761387526536736800,2.55373681640625,-1.00006103515625,-0.0265960693359375,0.009674072265625
1761387526546806800,2.563806884765625,-1.0006256103515625,-0.026519775390625,0.009918212890625
1761387526556876500,2.57387646484375,-1.000030517578125,-0.0273284912109375,0.0096435546875
1761387526566946800,2.58394677734375,-1.0018310546875,-0.0270538330078125,0.009765625
1761387526577016800,2.594016845703125,-1.0001678466796875,-0.0269317626953125,0.009857177734375
1761387526587086600,2.604086669921875,-1.0014801025390625,-0.026458740234375,0.0095672607421875
1761387526597156900,2.614156982421875,-1.0011444091796875,-0.02630615234375,0.0097808837890625
1761387526607225600,2.6242255859375,-1.0015716552734375,-0.0263671875,0.01025390625
1761387526617295600,2.634295654296875,-0.999359130859375,-0.0264892578125,0.00994873046875
1761387526627366000,2.644365966796875,-0.9994659423828125,-0.0262451171875,0.0093231201171875
1761387526637435600,2.654435546875,-1.001007080078125,-0.02685546875,0.0104827880859375
1761387526647505700,2.664505615234375,-0.99969482421875,-0.026824951171875,0.0096893310546875
1761387526657576000,2.674575927734375,-0.9997711181640625,-0.027069091796875,0.0100250244140625
1761387526667645700,2.684645751953125,-1.0003662109375,-0.026336669921875,0.010040283203125
1761387526677715700,2.6947158203125,-1.0003509521484375,-0.0272979736328125,0.009979248046875
1761387526687786000,2.704785888671875,-1.0009307861328125,-0.02752685546875,0.01123046875
1761387526697855700,2.714855712890625,-1.000823974609375,-0.026763916015625,0.010223388671875
1761387526707925800,2.72492578125,-1.00091552734375,-0.0265960693359375,0.010498046875
1761387526717995500,2.73499560546875,-1.0001220703125,-0.0279693603515625,0.0094451904296875
1761387526728065800,2.745065673828125,-1.0013427734375,-0.026947021484375,0.0088958740234375
1761387526738135800,2.7551357421875,-1.0001068115234375,-0.0262298583984375,0.0093231201171875
1761387526748205600,2.76520556640625,-1.0007476806640625,-0.02685546875,0.009552001953125
1761387526758275800,2.77527587890625,-1.001129150390625,-0.0265655517578125,0.010528564453125
1761387526768345900,2.785345947265625,-1.000396728515625,-0.02685546875,0.0103912353515625
1761387526778415600,2.79541552734375,-1.000396728515625,-0.0266265869140625,0.01068115234375
1761387526788486000,2.80548583984375,-1.0003204345703125,-0.0266571044921875,0.009979248046875
1761387526798556000,2.815555908203125,-1.0004730224609375,-0.027008056640625,0.0106201171875
1761387526808625000,2.825625,-1.0009765625,-0.02703857421875,0.0112152099609375
1761387526818695000,2.83569482421875,-1.0001983642578125,-0.0274505615234375,0.0102081298828125
1761387526828765000,2.845764892578125,-1.0003204345703125,-0.0260162353515625,0.0098876953125
1761387526838835000,2.8558349609375,-1.0006103515625,-0.0258941650390625,0.0092620849609375
1761387526848905000,2.865905029296875,-1.0008697509765625,-0.0263214111328125,0.01025390625
1761387526858975000,2.87597509765625,-1.000518798828125,-0.026397705078125,0.010345458984375
1761387526869044700,2.886044677734375,-1.0009002685546875,-0.026458740234375,0.010467529296875
1761387526879114800,2.89611474609375,-1.0009002685546875,-0.0266571044921875,0.009521484375
1761387526889185000,2.90618505859375,-1.0002288818359375,-0.0272369384765625,0.009765625
1761387526899254800,2.9162548828125,-1.00067138671875,-0.0271453857421875,0.0105743408203125
1761387526909324800,2.92632470703125,-1.00091552734375,-0.026824951171875,0.0095367431640625
1761387526919395000,2.93639501953125,-1.0008392333984375,-0.027099609375,0.00946044921875
1761387526929464800,2.94646484375,-1.000213623046875,-0.0269622802734375,0.010345458984375
1761387526939534800,2.956534912109375,-0.9992218017578125,-0.0257720947265625,0.0105133056640625
1761387526949604900,2.96660498046875,-1.001678466796875,-0.0262603759765625,0.0102081298828125
1761387526959675000,2.9766748046875,-1.0011138916015625,-0.026641845703125,0.0105438232421875
1761387526969745000,2.986744873046875,-0.9997100830078125,-0.026519775390625,0.0095977783203125
1761387526979814700,2.996814697265625,-0.9999237060546875,-0.027252197265625,0.0090179443359375
1761387526989885000,3.006885009765625,-1.001068115234375,-0.0270233154296875,0.009979248046875
1761387526999955000,3.016954833984375,-1.0008697509765625,-0.0269012451171875,0.0096893310546875
1761387527010024700,3.027024658203125,-1.0015869140625,-0.026641845703125,0.0099334716796875
1761387527020095000,3.037094970703125,-1.0000457763671875,-0.02667236328125,0.0107879638671875
1761387527030165000,3.0471650390625,-0.9997711181640625,-0.0262451171875,0.0095367431640625
1761387527040234800,3.05723486328125,-1.0009002685546875,-0.0267333984375,0.00994873046875
1761387527050304800,3.0673046875,-1.0003204345703125,-0.02716064453125,0.010284423828125
1761387527060375000,3.077375,-1.0003662109375,-0.026458740234375,0.0101470947265625
1761387527070444800,3.08744482421875,-1.0000762939453125,-0.026275634765625,0.010528564453125
1761387527080514800,3.097514892578125,-1.00042724609375,-0.0269012451171875,0.0094757080078125
1761387527090585000,3.107585205078125,-1.0002288818359375,-0.0269622802734375,0.0103912353515625
1761387527100654800,3.11765478515625,-1.000091552734375,-0.0265960693359375,0.0099945068359375
1761387527110724900,3.127724853515625,-1.0007476806640625,-0.0273284912109375,0.009735107421875
1761387527120795000,3.137794921875,-1.00054931640625,-0.0273590087890625,0.0098419189453125
1761387527130865000,3.147864990234375,-1.00006103515625,-0.02642822265625,0.0108795166015625
1761387527140935000,3.157934814453125,-1.0018463134765625,-0.0262908935546875,0.010345458984375
1761387527151004700,3.168004638671875,-1.0008087158203125,-0.0264892578125,0.0099029541015625
1761387527161075000,3.178074951171875,-1.0000152587890625,-0.0264739990234375,0.009857177734375
1761387527171145000,3.18814501953125,-1.0009002685546875,-0.0265960693359375,0.010009765625
1761387527181214700,3.198214599609375,-1.0001678466796875,-0.0266571044921875,0.009063720703125
1761387527191285000,3.208284912109375,-1.0002593994140625,-0.0270843505859375,0.00933837890625
1761387527201355000,3.21835498046875,-1.00067138671875,-0.026458740234375,0.009613037109375
1761387527211424800,3.2284248046875,-1.00030517578125,-0.0262298583984375,0.00958251953125
1761387527221495000,3.2384951171875,-1.0016326904296875,-0.026092529296875,0.01019287109375
1761387527231565000,3.24856494140625,-1.000457763671875,-0.026458740234375,0.009765625
1761387527241633800,3.2586337890625,-0.999603271484375,-0.0264739990234375,0.009918212890625
1761387527251704000,3.2687041015625,-1.0012054443359375,-0.0270843505859375,0.0090179443359375
1761387527261773800,3.27877392578125,-1.000701904296875,-0.0268707275390625,0.0103759765625
1761387527271843800,3.28884375,-1.000885009765625,-0.02703857421875,0.0104522705078125
1761387527281914000,3.2989140625,-1.0012359619140625,-0.02703857421875,0.0096588134765625
1761387527291984000,3.30898388671875,-1.001220703125,-0.027801513671875,0.0095977783203125
1761387527302054000,3.319053955078125,-1.0007781982421875,-0.0264739990234375,0.00921630859375
1761387527312123600,3.32912353515625,-1.00054931640625,-0.0263824462890625,0.009552001953125
1761387527322194000,3.33919384765625,-1.001129150390625,-0.0268402099609375,0.0099945068359375
1761387527332264000,3.349263916015625,-1.0013427734375,-0.0270233154296875,0.0099945068359375
1761387527342333700,3.359333740234375,-1.0003509521484375,-0.026336669921875,0.0106353759765625
1761387527352404000,3.369404052734375,-1.00042724609375,-0.0272369384765625,0.00927734375
1761387527362474000,3.379473876953125,-1.0005950927734375,-0.02740478515625,0.0087738037109375
1761387527372543700,3.389543701171875,-1.000885009765625,-0.0266876220703125,0.0096893310546875
1761387527382614000,3.399614013671875,-1.000762939453125,-0.0264739990234375,0.0098724365234375
1761387527392684000,3.40968408203125,-1.0000457763671875,-0.026580810546875,0.0095672607421875
1761387527402753800,3.41975390625,-1.0000457763671875,-0.0259246826171875,0.009368896484375
1761387527412823800,3.42982373046875,-1.000335693359375,-0.026580810546875,0.0100860595703125
1761387527422894000,3.43989404296875,-0.9995880126953125,-0.0269012451171875,0.010345458984375
1761387527432963800,3.4499638671875,-1.0010833740234375,-0.0267791748046875,0.010162353515625
1761387527443033900,3.460033935546875,-1.0009307861328125,-0.02740478515625,0.0095062255859375
1761387527453103900,3.470103759765625,-1.00103759765625,-0.0266571044921875,0.010589599609375
1761387527463174000,3.480173828125,-1.0008697509765625,-0.0263824462890625,0.01025390625
1761387527473244000,3.490243896484375,-0.9996490478515625,-0.026885986328125,0.009613037109375
1761387527483314000,3.50031396484375,-1.000335693359375,-0.026763916015625,0.0095672607421875
1761387527493384000,3.510384033203125,-1.0005035400390625,-0.0265960693359375,0.0101318359375
1761387527503454000,3.520453857421875,-1.0014801025390625,-0.026458740234375,0.0099945068359375
1761387527513523700,3.530523681640625,-1.0007476806640625,-0.026947021484375,0.0092620849609375
1761387527523594000,3.540593994140625,-0.9996795654296875,-0.0273590087890625,0.009674072265625
1761387527533664000,3.5506640625,-1.0005035400390625,-0.027496337890625,0.01007080078125
1761387527543733800,3.560733642578125,-1.0004425048828125,-0.0266265869140625,0.009735107421875
1761387527553804000,3.570803955078125,-1.0005035400390625,-0.0269012451171875,0.0093536376953125
1761387527563873800,3.580873779296875,-1.0009613037109375,-0.0269927978515625,0.0094757080078125
1761387527573943800,3.59094384765625,-0.99957275390625,-0.0267486572265625,0.010467529296875
1761387527584013800,3.601013916015625,-0.999786376953125,-0.0268402099609375,0.009918212890625
1761387527594083800,3.611083740234375,-1.0007781982421875,-0.026702880859375,0.010040283203125
1761387527604153900,3.62115380859375,-1.000335693359375,-0.0272369384765625,0.0096893310546875
1761387527614224000,3.631223876953125,-1.00030517578125,-0.02685546875,0.0099639892578125
1761387527624294000,3.6412939453125,-1.0005035400390625,-0.027069091796875,0.0095977783203125
1761387527634364000,3.651364013671875,-1.00103759765625,-0.0267181396484375,0.009735107421875
1761387527644434000,3.661433837890625,-1.0000762939453125,-0.026458740234375,0.0102386474609375
1761387527654504000,3.67150390625,-0.9993133544921875,-0.026885986328125,0.0097808837890625
1761387527664574000,3.681573974609375,-1.000762939453125,-0.026031494140625,0.0099334716796875
1761387527674644000,3.69164404296875,-1.00128173828125,-0.0264739990234375,0.01019287109375
1761387527684713700,3.701713623046875,-0.9998016357421875,-0.0262603759765625,0.0102996826171875
1761387527694784000,3.711783935546875,-1.000244140625,-0.0257110595703125,0.01055908203125
1761387527704853800,3.721853759765625,-1.000213623046875,-0.0272064208984375,0.0099334716796875
1761387527714923000,3.731923095703125,-1.000701904296875,-0.025787353515625,0.0106201171875
1761387527724993000,3.741992919921875,-1.0012359619140625,-0.026763916015625,0.01031494140625
1761387527735062800,3.752062744140625,-1.0018463134765625,-0.0268096923828125,0.00982666015625
1761387527745132800,3.7621328125,-1.0001220703125,-0.02691650390625,0.0103607177734375
1761387527755202800,3.772202880859375,-1.00140380859375,-0.0267791748046875,0.010833740234375
1761387527765272800,3.78227294921875,-1.0004119873046875,-0.0265045166015625,0.0098724365234375
1761387527775342800,3.7923427734375,-1.0004425048828125,-0.026031494140625,0.0099639892578125
1761387527785412900,3.802412841796875,-1.00030517578125,-0.026702880859375,0.0098724365234375
1761387527795483000,3.81248291015625,-1.0006561279296875,-0.027435302734375,0.0100555419921875
1761387527805553000,3.822552978515625,-1.0014801025390625,-0.026397705078125,0.009857177734375
1761387527815623400,3.83262353515625,-1.0017547607421875,-0.0267791748046875,0.0104522705078125
1761387527825693700,3.842693603515625,-1.0013427734375,-0.02667236328125,0.0091705322265625
1761387527835763700,3.852763671875,-1.000579833984375,-0.02728271484375,0.0096282958984375
1761387527845833500,3.86283349609375,-1.0013427734375,-0.027069091796875,0.0099029541015625
1761387527855903700,3.87290380859375,-1.000823974609375,-0.026641845703125,0.0095062255859375
1761387527865973800,3.882973876953125,-1.0005645751953125,-0.026702880859375,0.0091400146484375
1761387527876043500,3.89304345703125,-1.0003509521484375,-0.02679443359375,0.0097503662109375
1761387527886113500,3.903113525390625,-1.0006103515625,-0.026824951171875,0.0095977783203125
1761387527896183800,3.913183837890625,-1.000823974609375,-0.026458740234375,0.0094451904296875
1761387527906253600,3.923253662109375,-1.0001983642578125,-0.02728271484375,0.009613037109375
1761387527916323600,3.933323486328125,-1.000701904296875,-0.0266876220703125,0.010711669921875
1761387527926393900,3.943393798828125,-1.0010833740234375,-0.0265655517578125,0.0103302001953125
1761387527936463600,3.953463623046875,-0.9993896484375,-0.0267333984375,0.0090789794921875
1761387527946533600,3.96353369140625,-0.9994049072265625,-0.0264129638671875,0.0100555419921875
1761387527956603600,3.973603759765625,-1.000030517578125,-0.0266876220703125,0.010223388671875
1761387527966673700,3.983673583984375,-1.0003662109375,-0.0269622802734375,0.0102081298828125
1761387527976743700,3.99374365234375,-1.000823974609375,-0.026641845703125,0.010711669921875
1761387527986813400,4.0038134765625,-1.0010986328125,-0.026824951171875,0.01025390625
1761387527996883700,4.0138837890625,-1.0001983642578125,-0.0264739990234375,0.0106201171875
1761387528006953700,4.02395361328125,-1.000335693359375,-0.027008056640625,0.0101318359375
1761387528017023500,4.0340234375,-1.0015411376953125,-0.0267486572265625,0.010528564453125
1761387528027093800,4.04409375,-1.0004730224609375,-0.0273284912109375,0.0101470947265625
1761387528037163800,4.054163818359375,-0.999847412109375,-0.0272369384765625,0.0105743408203125
1761387528047233500,4.064233642578125,-1.0008544921875,-0.02777099609375,0.0106201171875
1761387528057303600,4.074303466796875,-1.0006866455078125,-0.02691650390625,0.0087432861328125
1761387528067373600,4.08437353515625,-1.0011749267578125,-0.02593994140625,0.0105133056640625
1761387528077443600,4.094443603515625,-1.0013580322265625,-0.02642822265625,0.009796142578125
1761387528087513600,4.104513671875,-1.00048828125,-0.026641845703125,0.009429931640625
1761387528097582600,4.11458251953125,-1.00018310546875,-0.0264892578125,0.01031494140625
1761387528107652600,4.124652587890625,-1.0000762939453125,-0.02703857421875,0.0092315673828125
1761387528117722600,4.13472265625,-1.000335693359375,-0.02630615234375,0.009918212890625
1761387528127792600,4.144792724609375,-1.000946044921875,-0.0263824462890625,0.0095062255859375
1761387528137862700,4.154862548828125,-1.000335693359375,-0.026885986328125,0.0098876953125
1761387528147932400,4.164932373046875,-0.999786376953125,-0.02691650390625,0.010772705078125
1761387528158002700,4.175002685546875,-0.9998016357421875,-0.026885986328125,0.00970458984375
1761387528168072700,4.18507275390625,-1.0012054443359375,-0.0274505615234375,0.0093994140625
1761387528178142500,4.195142578125,-1.0007781982421875,-0.027130126953125,0.0090789794921875
1761387528188212700,4.205212646484375,-1.000396728515625,-0.026763916015625,0.00933837890625
1761387528198282800,4.21528271484375,-1.000152587890625,-0.0266876220703125,0.0100860595703125
1761387528208352500,4.2253525390625,-1.0002899169921875,-0.0269012451171875,0.0095062255859375
1761387528218422500,4.235422607421875,-1.000396728515625,-0.0268402099609375,0.0101165771484375
1761387528228492800,4.245492919921875,-1.0012054443359375,-0.0268096923828125,0.0097198486328125
1761387528238562600,4.2555625,-1.0012054443359375,-0.0262298583984375,0.0095367431640625
1761387528248632600,4.265632568359375,-1.0006866455078125,-0.0260772705078125,0.0098724365234375
1761387528258702600,4.27570263671875,-1.0002899169921875,-0.02685546875,0.0091552734375
1761387528268772600,4.285772705078125,-1.0002593994140625,-0.027252197265625,0.00927734375
1761387528278842600,4.295842529296875,-1.0007781982421875,-0.026824951171875,0.0102081298828125
1761387528288912600,4.30591259765625,-1.001251220703125,-0.0264129638671875,0.0102386474609375
1761387528298982700,4.315982666015625,-1.0005645751953125,-0.0269317626953125,0.01025390625
1761387528309052700,4.326052734375,-1.000274658203125,-0.0272064208984375,0.0099639892578125
1761387528319122400,4.336122314453125,-1.0007781982421875,-0.027252197265625,0.0100555419921875
1761387528329192700,4.346192626953125,-1.00128173828125,-0.0265960693359375,0.011016845703125
1761387528339262700,4.3562626953125,-1.0001983642578125,-0.026885986328125,0.009979248046875
1761387528349332500,4.36633251953125,-1.0016326904296875,-0.0271759033203125,0.009857177734375
1761387528359402800,4.37640283203125,-1.000518798828125,-0.026031494140625,0.009857177734375
1761387528369472800,4.38647265625,-1.000396728515625,-0.02734375,0.01007080078125
1761387528379542500,4.39654248046875,-1.000946044921875,-0.027069091796875,0.010986328125
1761387528389612800,4.40661279296875,-1.0004730224609375,-0.0269775390625,0.010101318359375
1761387528399682600,4.4166826171875,-1.00048828125,-0.0276031494140625,0.010406494140625
1761387528409752600,4.426752685546875,-1.0007171630859375,-0.0272674560546875,0.0105133056640625
1761387528419821800,4.43682177734375,-1.0010986328125,-0.026611328125,0.010162353515625
1761387528429891600,4.4468916015625,-1.0016326904296875,-0.026763916015625,0.0106048583984375
1761387528439961600,4.456961669921875,-1,-0.027374267578125,0.010009765625
1761387528450031600,4.467031494140625,-0.999908447265625,-0.0269775390625,0.00946044921875
1761387528460101600,4.4771015625,-1.0005950927734375,-0.0266571044921875,0.010528564453125
1761387528470171600,4.487171630859375,-0.9998931884765625,-0.0264434814453125,0.0106201171875
1761387528480241700,4.49724169921875,-1.000823974609375,-0.0268707275390625,0.0107421875
1761387528490311700,4.507311767578125,-1.00030517578125,-0.02667236328125,0.01007080078125
1761387528500381700,4.517381591796875,-1.0004730224609375,-0.026519775390625,0.0102081298828125
1761387528510451500,4.527451416015625,-1.0006866455078125,-0.0262451171875,0.009368896484375
1761387528520521700,4.537521728515625,-1.0007171630859375,-0.02716064453125,0.0096282958984375
1761387528530591700,4.547591796875,-1.00030517578125,-0.0265655517578125,0.009521484375
1761387528540661500,4.55766162109375,-1.0018463134765625,-0.0269622802734375,0.0092620849609375
1761387528550731800,4.567731689453125,-0.999969482421875,-0.0270538330078125,0.0099334716796875
1761387528560801800,4.5778017578125,-1.000244140625,-0.0274200439453125,0.0098876953125
1761387528570871600,4.58787158203125,-1.001007080078125,-0.0269012451171875,0.01080322265625
1761387528580941600,4.597941650390625,-0.999176025390625,-0.02642822265625,0.0089263916015625
1761387528591011600,4.608011474609375,-1.00103759765625,-0.027008056640625,0.010101318359375
1761387528601081600,4.61808154296875,-1.00128173828125,-0.0272979736328125,0.010498046875
1761387528611151600,4.628151611328125,-1.0001373291015625,-0.0276336669921875,0.0099029541015625
1761387528621221600,4.6382216796875,-1.0005645751953125,-0.0271759033203125,0.010589599609375
1761387528631291600,4.648291748046875,-1.000579833984375,-0.0264739990234375,0.0105133056640625
1761387528641361700,4.658361572265625,-1.00091552734375,-0.0267486572265625,0.0109100341796875
1761387528651431700,4.668431640625,-1.000885009765625,-0.027313232421875,0.0103759765625
1761387528661501700,4.678501708984375,-1.0003662109375,-0.02734375,0.0095672607421875
1761387528671571700,4.68857177734375,-1.0011138916015625,-0.0267791748046875,0.0101470947265625
1761387528681641500,4.698641357421875,-1.001373291015625,-0.0275421142578125,0.010223388671875
1761387528691711700,4.708711669921875,-1.0005645751953125,-0.02716064453125,0.01007080078125
1761387528701780500,4.718780517578125,-1.0004730224609375,-0.0272979736328125,0.0102081298828125
1761387528711850800,4.728850830078125,-0.999847412109375,-0.0274505615234375,0.0102081298828125
1761387528721920800,4.738920654296875,-1.0002288818359375,-0.027435302734375,0.00982666015625
1761387528731990500,4.748990478515625,-0.9996337890625,-0.02655029296875,0.009613037109375
1761387528742060500,4.759060546875,-0.9998321533203125,-0.02642822265625,0.0098114013671875
1761387528752130800,4.769130859375,-1.00115966796875,-0.02752685546875,0.0109710693359375
1761387528762200600,4.77920068359375,-1.0016021728515625,-0.0273590087890625,0.0103759765625
1761387528772270600,4.7892705078125,-1.00042724609375,-0.026580810546875,0.009429931640625
1761387528782340600,4.799340576171875,-1.0008697509765625,-0.0260772705078125,0.00970458984375
1761387528792410600,4.80941064453125,-0.9999847412109375,-0.026336669921875,0.0099945068359375
1761387528802480600,4.819480712890625,-1.0014801025390625,-0.0274505615234375,0.010406494140625
1761387528812550700,4.829550537109375,-1.000152587890625,-0.02679443359375,0.0095977783203125
1761387528822620400,4.839620361328125,-1.0004119873046875,-0.026611328125,0.0103607177734375
1761387528832690400,4.8496904296875,-1.00030517578125,-0.026763916015625,0.0091552734375
1761387528842760400,4.859760498046875,-0.9998779296875,-0.02667236328125,0.0102996826171875
1761387528852830500,4.86983056640625,-1.0007781982421875,-0.0271453857421875,0.0101318359375
1761387528862900500,4.879900390625,-1.0016632080078125,-0.026702880859375,0.0115814208984375
1761387528872970500,4.889970458984375,-1.000732421875,-0.0269775390625,0.0104827880859375
1761387528883040500,4.90004052734375,-1.0001983642578125,-0.0269317626953125,0.010101318359375
1761387528893110500,4.910110595703125,-1.0003814697265625,-0.0267791748046875,0.0094757080078125
1761387528903180500,4.9201806640625,-1.0008544921875,-0.0271759033203125,0.0097503662109375
1761387528913250600,4.93025048828125,-1.0004730224609375,-0.0272979736328125,0.0103302001953125
1761387528923320600,4.940320556640625,-1.0010833740234375,-0.026641845703125,0.010528564453125
1761387528933390600,4.950390625,-1.0008392333984375,-0.0269622802734375,0.0101318359375
1761387528943460400,4.96046044921875,-1.0010528564453125,-0.026641845703125,0.009552001953125
1761387528953530600,4.970530517578125,-1.0002899169921875,-0.026702880859375,0.0104217529296875
1761387528963599400,4.980599365234375,-1.00067138671875,-0.02679443359375,0.010467529296875
1761387528973669600,4.990669677734375,-1.0012969970703125,-0.02679443359375,0.0105133056640625
1761387528983739600,5.00073974609375,-1.002166748046875,-0.0269622802734375,0.0099639892578125
1761387528993809400,5.010809326171875,-1.00079345703125,-0.026885986328125,0.00933837890625
1761387529003879400,5.02087939453125,-1.0003662109375,-0.0270233154296875,0.009307861328125
1761387529013949400,5.030949462890625,-1.000640869140625,-0.02679443359375,0.010040283203125
1761387529024019500,5.04101953125,-1.0010833740234375,-0.027008056640625,0.0101318359375
1761387529034089500,5.05108935546875,-1.001556396484375,-0.0267181396484375,0.0095367431640625
1761387529044159500,5.061159423828125,-1.0009765625,-0.0264892578125,0.01031494140625
1761387529054229500,5.0712294921875,-0.999969482421875,-0.027435302734375,0.010223388671875
1761387529064299500,5.081299560546875,-1.0013427734375,-0.0272064208984375,0.0098419189453125
1761387529074369500,5.09136962890625,-0.999908447265625,-0.0268707275390625,0.009429931640625
1761387529084439600,5.101439453125,-0.999969482421875,-0.02691650390625,0.009979248046875
1761387529094509600,5.111509521484375,-1.000732421875,-0.0269012451171875,0.009521484375
1761387529104579300,5.121579345703125,-0.9999847412109375,-0.02667236328125,0.0095977783203125
1761387529114649600,5.131649658203125,-0.99951171875,-0.0271453857421875,0.0096588134765625
1761387529124719600,5.1417197265625,-1.0003662109375,-0.0271759033203125,0.0098419189453125
1761387529134789400,5.151789306640625,-1.0018310546875,-0.0272674560546875,0.0099029541015625
1761387529144859600,5.161859619140625,-1.0000457763671875,-0.0270538330078125,0.0110321044921875
1761387529154929400,5.171929443359375,-1.0008544921875,-0.02703857421875,0.0103759765625
1761387529164999400,5.18199951171875,-1.00079345703125,-0.027374267578125,0.009918212890625
1761387529175069700,5.192069580078125,-1.001251220703125,-0.0267181396484375,0.010223388671875
1761387529185139500,5.202139404296875,-1.000823974609375,-0.026458740234375,0.0102386474609375
1761387529195208400,5.21220849609375,-1.0002593994140625,-0.026580810546875,0.010528564453125
1761387529205278500,5.222278564453125,-1.00030517578125,-0.0275421142578125,0.010406494140625
1761387529215348500,5.232348388671875,-1.00054931640625,-0.0271453857421875,0.0100860595703125
1761387529225418500,5.24241845703125,-1.0009002685546875,-0.026947021484375,0.0103912353515625
1761387529235488500,5.252488525390625,-1.00103759765625,-0.0264129638671875,0.0104522705078125
1761387529245558500,5.26255859375,-1.000762939453125,-0.027740478515625,0.0099029541015625
1761387529255628500,5.272628662109375,-1.000457763671875,-0.0265655517578125,0.010101318359375
1761387529265698600,5.282698486328125,-1.001861572265625,-0.027008056640625,0.0093994140625
1761387529275768600,5.2927685546875,-1.000701904296875,-0.0266265869140625,0.009765625
1761387529285838600,5.302838623046875,-1.0000457763671875,-0.0280303955078125,0.0096435546875
1761387529295908400,5.312908447265625,-1.0010833740234375,-0.0276031494140625,0.011199951171875
1761387529305978600,5.322978515625,-1.0015869140625,-0.0268096923828125,0.0109100341796875
1761387529316048600,5.333048583984375,-1.0006103515625,-0.027130126953125,0.0103302001953125
1761387529326118400,5.343118408203125,-1.0003662109375,-0.0269622802734375,0.0101318359375
1761387529336188700,5.353188720703125,-1.0009307861328125,-0.02655029296875,0.0100555419921875
1761387529346258400,5.363258544921875,-1.0003509521484375,-0.026885986328125,0.010498046875
1761387529356328400,5.373328369140625,-1.0002899169921875,-0.026702880859375,0.009613037109375
1761387529366398500,5.3833984375,-1.0010223388671875,-0.026824951171875,0.0085906982421875
1761387529376468500,5.393468505859375,-1.0019073486328125,-0.026519775390625,0.010650634765625
1761387529386538500,5.40353857421875,-1.00140380859375,-0.026123046875,0.0102081298828125
1761387529396608500,5.4136083984375,-1.0015106201171875,-0.02685546875,0.009429931640625
1761387529406678500,5.423678466796875,-1.000152587890625,-0.0265655517578125,0.0108642578125
1761387529416748500,5.43374853515625,-1.0009765625,-0.027008056640625,0.010589599609375
1761387529426817500,5.443817626953125,-1.000457763671875,-0.027130126953125,0.009857177734375
1761387529436887600,5.453887451171875,-1.0006256103515625,-0.0271453857421875,0.0097503662109375
1761387529446957600,5.46395751953125,-0.999603271484375,-0.0268096923828125,0.0094146728515625
1761387529457027300,5.47402734375,-1.0005340576171875,-0.02642822265625,0.009979248046875
1761387529467097600,5.48409765625,-1.0010223388671875,-0.0264739990234375,0.0099334716796875
1761387529477167600,5.494167724609375,-1.0003662109375,-0.027435302734375,0.0105438232421875
1761387529487237400,5.5042373046875,-1.0001983642578125,-0.0272369384765625,0.0099639892578125
1761387529497307600,5.5143076171875,-0.999420166015625,-0.026092529296875,0.0099639892578125
1761387529507377700,5.524377685546875,-1.0009765625,-0.0265350341796875,0.0099029541015625
1761387529517447400,5.534447509765625,-1.0009765625,-0.0267181396484375,0.0099945068359375
1761387529527517400,5.544517333984375,-1.001495361328125,-0.0268096923828125,0.010223388671875
1761387529537587500,5.55458740234375,-1.001251220703125,-0.0266571044921875,0.0092620849609375
1761387529547657500,5.564657470703125,-1.001007080078125,-0.02685546875,0.00958251953125
1761387529557727500,5.5747275390625,-1.0008544921875,-0.02679443359375,0.0103302001953125
1761387529567797500,5.584797607421875,-1.00042724609375,-0.0263671875,0.0098876953125
1761387529577867500,5.594867431640625,-1.0001068115234375,-0.0262451171875,0.01025390625
1761387529587937500,5.6049375,-0.9990692138671875,-0.0265350341796875,0.009674072265625
1761387529598007600,5.615007568359375,-1.0002288818359375,-0.0270843505859375,0.0099029541015625
1761387529608077600,5.62507763671875,-1.0012359619140625,-0.0261993408203125,0.0102081298828125
1761387529618147600,5.635147705078125,-1.0001068115234375,-0.0262908935546875,0.01031494140625
1761387529628216600,5.645216552734375,-1.00030517578125,-0.0264434814453125,0.01007080078125
1761387529638286600,5.65528662109375,-1.0005340576171875,-0.0265655517578125,0.0106048583984375
1761387529648354600,5.6653544921875,-1.000518798828125,-0.026458740234375,0.0096893310546875
1761387529658424600,5.675424560546875,-0.99993896484375,-0.0269622802734375,0.0096282958984375
1761387529668494300,5.685494384765625,-1.0007781982421875,-0.0274810791015625,0.01019287109375
1761387529678564600,5.695564697265625,-1.0011138916015625,-0.0269012451171875,0.010101318359375
1761387529688634400,5.70563427734375,-1.0008392333984375,-0.02685546875,0.01031494140625
1761387529698704400,5.715704345703125,-1.00103759765625,-0.026092529296875,0.009979248046875
1761387529708774700,5.725774658203125,-1.001220703125,-0.0268402099609375,0.010498046875
1761387529718844400,5.735844482421875,-1.000152587890625,-0.026824951171875,0.0102691650390625
1761387529728914400,5.74591455078125,-0.9999542236328125,-0.0269622802734375,0.0099639892578125
1761387529738984700,5.755984619140625,-1.00067138671875,-0.026702880859375,0.00970458984375
1761387529749054500,5.766054443359375,-1.0005035400390625,-0.0272216796875,0.0093994140625
1761387529759124500,5.77612451171875,-1.0006256103515625,-0.026641845703125,0.010589599609375
1761387529769194500,5.786194580078125,-1.000762939453125,-0.0272674560546875,0.0095672607421875
1761387529779263500,5.796263427734375,-1.0000152587890625,-0.0276031494140625,0.0101470947265625
1761387529789333500,5.80633349609375,-1.00091552734375,-0.027557373046875,0.010040283203125
1761387529799403500,5.816403564453125,-1.001373291015625,-0.027496337890625,0.0106964111328125
1761387529809473500,5.8264736328125,-1.001220703125,-0.027130126953125,0.0106353759765625
1761387529819543300,5.836543212890625,-1.000274658203125,-0.0264434814453125,0.0100555419921875
1761387529829613600,5.846613525390625,-1.000030517578125,-0.02606201171875,0.010284423828125
1761387529839683300,5.856683349609375,-1.000457763671875,-0.02728271484375,0.010650634765625
1761387529849753300,5.86675341796875,-1.0002593994140625,-0.0274200439453125,0.0103912353515625
1761387529859823400,5.8768232421875,-1.000885009765625,-0.0270233154296875,0.0103759765625
1761387529869893400,5.886893310546875,-1.001129150390625,-0.02740478515625,0.0106048583984375
1761387529879963400,5.89696337890625,-1.000457763671875,-0.0272064208984375,0.0107269287109375
1761387529890033400,5.907033447265625,-1.00152587890625,-0.0271148681640625,0.0095062255859375
1761387529900103400,5.917103515625,-1.000091552734375,-0.0271453857421875,0.0102386474609375
1761387529910173400,5.92717333984375,-1.0006561279296875,-0.0271759033203125,0.0096282958984375
1761387529920243500,5.937243408203125,-1.000335693359375,-0.027130126953125,0.01068115234375
1761387529930313500,5.9473134765625,-1.001708984375,-0.0269775390625,0.0103912353515625
1761387529940383500,5.957383544921875,-1.0013275146484375,-0.02679443359375,0.010284423828125
1761387529950453200,5.967453369140625,-1.0011749267578125,-0.0263214111328125,0.010955810546875
1761387529960523300,5.977523193359375,-0.9997406005859375,-0.026611328125,0.0099334716796875
1761387529970592500,5.987592529296875,-1.0005035400390625,-0.0260467529296875,0.0093841552734375
1761387529980662300,5.997662353515625,-1.000823974609375,-0.0267791748046875,0.01007080078125
1761387529990732500,6.007732666015625,-0.99951171875,-0.027130126953125,0.0098724365234375
1761387530000802300,6.01780224609375,-1.0004119873046875,-0.0273895263671875,0.0103607177734375
1761387530010872300,6.027872314453125,-1.0000152587890625,-0.0267333984375,0.010284423828125
1761387530020942300,6.0379423828125,-1.000946044921875,-0.0269927978515625,0.0092315673828125
1761387530031012400,6.048012451171875,-1.0006103515625,-0.0269775390625,0.0093231201171875
1761387530041082400,6.058082275390625,-1.0005950927734375,-0.0258636474609375,0.0099029541015625
1761387530051152400,6.06815234375,-1.0007781982421875,-0.0267791748046875,0.0101470947265625
1761387530061222400,6.078222412109375,-1.0012664794921875,-0.02691650390625,0.0099334716796875
1761387530071292400,6.08829248046875,-1.0002593994140625,-0.0263214111328125,0.00958251953125
1761387530081362400,6.098362548828125,-1.000396728515625,-0.0268707275390625,0.00921630859375
1761387530091432400,6.108432373046875,-1.000701904296875,-0.02691650390625,0.0107879638671875
1761387530101502500,6.11850244140625,-1.00115966796875,-0.0268096923828125,0.0101776123046875
1761387530111572200,6.128572265625,-1.0012054443359375,-0.026611328125,0.01007080078125
1761387530121642200,6.138642333984375,-1.0011138916015625,-0.0271453857421875,0.01068115234375
1761387530131712500,6.14871240234375,-1.0011749267578125,-0.027252197265625,0.010467529296875
1761387530141782300,6.1587822265625,-1.00079345703125,-0.0273895263671875,0.0099029541015625
1761387530151851500,6.1688515625,-1.0002288818359375,-0.0265655517578125,0.009613037109375
1761387530161921500,6.178921630859375,-1.0007781982421875,-0.0264739990234375,0.009613037109375
1761387530171991300,6.1889912109375,-1.000640869140625,-0.0265655517578125,0.0103607177734375
1761387530182061300,6.199061279296875,-1.0003509521484375,-0.0278472900390625,0.010650634765625
1761387530192131300,6.20913134765625,-1.0009918212890625,-0.0268096923828125,0.0094757080078125
1761387530202201300,6.219201416015625,-1.0005950927734375,-0.026336669921875,0.01007080078125
1761387530212271400,6.229271240234375,-1.0006866455078125,-0.027313232421875,0.0102386474609375
1761387530222341400,6.23934130859375,-1.000579833984375,-0.0269622802734375,0.0101165771484375
1761387530232411400,6.249411376953125,-1.0003662109375,-0.02703857421875,0.0103302001953125
1761387530242481400,6.2594814453125,-0.9995880126953125,-0.0271453857421875,0.00933837890625
1761387530252551400,6.269551513671875,-0.999786376953125,-0.026214599609375,0.0094451904296875
1761387530262621400,6.279621337890625,-1.000762939453125,-0.0272369384765625,0.0096893310546875
1761387530272691500,6.28969140625,-1.00103759765625,-0.0275115966796875,0.00933837890625
1761387530282761200,6.29976123046875,-1.0010223388671875,-0.0269317626953125,0.009521484375
1761387530292831500,6.30983154296875,-1.0007781982421875,-0.02685546875,0.0095062255859375
1761387530302901200,6.3199013671875,-1.000885009765625,-0.0264892578125,0.010162353515625
1761387530312971300,6.32997119140625,-0.9999237060546875,-0.0271759033203125,0.01025390625
1761387530323040500,6.34004052734375,-1.0002899169921875,-0.0261688232421875,0.009735107421875
1761387530333110300,6.3501103515625,-1.0009002685546875,-0.02685546875,0.010284423828125
1761387530343180500,6.3601806640625,-1.0007171630859375,-0.0276947021484375,0.0094146728515625
1761387530353250300,6.370250244140625,-1.0008544921875,-0.0273284912109375,0.0095977783203125
1761387530363320300,6.3803203125,-1.0009307861328125,-0.02642822265625,0.0109405517578125
1761387530373390300,6.390390380859375,-1.0009613037109375,-0.0261993408203125,0.0100250244140625
1761387530383460400,6.40046044921875,-1.0002593994140625,-0.0263824462890625,0.00994873046875
1761387530393530400,6.4105302734375,-1.0019683837890625,-0.027099609375,0.0104217529296875
1761387530403600400,6.420600341796875,-1.000579833984375,-0.0265350341796875,0.0093536376953125
1761387530413670400,6.43067041015625,-1.000518798828125,-0.0263214111328125,0.0093536376953125
1761387530423740400,6.440740478515625,-1.0011138916015625,-0.0257568359375,0.0096282958984375
1761387530433810400,6.450810546875,-1.0001373291015625,-0.0263824462890625,0.0100555419921875
1761387530443880200,6.460880126953125,-1.00103759765625,-0.0266265869140625,0.0096893310546875
1761387530453950500,6.470950439453125,-1.0013427734375,-0.027069091796875,0.0095977783203125
1761387530464020500,6.4810205078125,-1.0007476806640625,-0.026519775390625,0.0101470947265625
1761387530474090200,6.49109033203125,-0.9998321533203125,-0.026397705078125,0.0095367431640625
1761387530484160500,6.501160400390625,-1.000518798828125,-0.0264129638671875,0.00958251953125
1761387530494229200,6.511229248046875,-1.0002288818359375,-0.0265655517578125,0.0095977783203125
1761387530504299500,6.521299560546875,-1.000823974609375,-0.027313232421875,0.010162353515625
1761387530514369500,6.53136962890625,-0.9999237060546875,-0.0270538330078125,0.0108489990234375
1761387530524439300,6.541439208984375,-1.0011138916015625,-0.026763916015625,0.0097198486328125
1761387530534509300,6.55150927734375,-1.000762939453125,-0.026763916015625,0.0096435546875
1761387530544579300,6.561579345703125,-1.00152587890625,-0.0268707275390625,0.00982666015625
1761387530554649300,6.5716494140625,-1.000244140625,-0.02685546875,0.010223388671875
1761387530564719400,6.58171923828125,-1.000732421875,-0.0266876220703125,0.0104217529296875
1761387530574789400,6.591789306640625,-1.001739501953125,-0.0268096923828125,0.0107269287109375
1761387530584859400,6.601859375,-1.0011749267578125,-0.0271453857421875,0.01043701171875
1761387530594929400,6.611929443359375,-1.0011444091796875,-0.027069091796875,0.0095367431640625
1761387530604999400,6.62199951171875,-1.0005340576171875,-0.0274658203125,0.0091552734375
1761387530615069400,6.6320693359375,-1.0008697509765625,-0.0275115966796875,0.009368896484375
1761387530625139500,6.642139404296875,-1.0007476806640625,-0.0274200439453125,0.01019287109375
1761387530635209200,6.652209228515625,-1.0005950927734375,-0.027130126953125,0.0104827880859375
1761387530645279500,6.662279541015625,-1.000457763671875,-0.0256195068359375,0.0103302001953125
1761387530655349500,6.672349609375,-1.0009002685546875,-0.02703857421875,0.0097198486328125
1761387530665418500,6.68241845703125,-0.9995269775390625,-0.0264892578125,0.009613037109375
1761387530675488500,6.692488525390625,-1.0001373291015625,-0.027679443359375,0.009735107421875
1761387530685558300,6.702558349609375,-0.9999847412109375,-0.02703857421875,0.01025390625
1761387530695628300,6.712628173828125,-1.0008697509765625,-0.02642822265625,0.010406494140625
1761387530705698600,6.722698486328125,-1.000518798828125,-0.0272979736328125,0.0100250244140625
1761387530715768300,6.732768310546875,-1.001068115234375,-0.0265960693359375,0.0103607177734375
1761387530725838300,6.74283837890625,-1.0012969970703125,-0.0267333984375,0.0107269287109375
1761387530735908400,6.752908447265625,-0.9998931884765625,-0.0272064208984375,0.0103302001953125
1761387530745978400,6.762978271484375,-1.00030517578125,-0.0273895263671875,0.01043701171875
1761387530756048400,6.77304833984375,-0.99993896484375,-0.027374267578125,0.0102386474609375
1761387530766118400,6.783118408203125,-0.9999542236328125,-0.027313232421875,0.0097198486328125
1761387530776188400,6.7931884765625,-1.00048828125,-0.027008056640625,0.009765625
1761387530786258400,6.803258544921875,-1.000701904296875,-0.026397705078125,0.010101318359375
1761387530796328200,6.813328125,-0.99969482421875,-0.026123046875,0.01025390625
1761387530806398500,6.8233984375,-0.999755859375,-0.02734375,0.0098876953125
1761387530816468000,6.833468017578125,-1.0000762939453125,-0.0272979736328125,0.01080322265625
1761387530826537200,6.843537109375,-1.000152587890625,-0.0267486572265625,0.010467529296875
1761387530836607000,6.85360693359375,-1.000701904296875,-0.0266876220703125,0.0106658935546875
1761387530846677000,6.863677001953125,-1.000640869140625,-0.027496337890625,0.0101165771484375
1761387530856747300,6.873747314453125,-1.0009613037109375,-0.0277557373046875,0.009429931640625
1761387530866817000,6.883817138671875,-1.00048828125,-0.0270538330078125,0.00897216796875
1761387530876887000,6.893886962890625,-1.00006103515625,-0.0270843505859375,0.01019287109375
1761387530886957000,6.90395703125,-1.0008544921875,-0.0275726318359375,0.009918212890625
1761387530897027000,6.914027099609375,-0.999725341796875,-0.0269927978515625,0.0100555419921875
1761387530907097000,6.92409716796875,-0.9997100830078125,-0.025726318359375,0.009552001953125
1761387530917166800,6.934166748046875,-1.000244140625,-0.02679443359375,0.0108642578125
1761387530927237000,6.944237060546875,-1.000091552734375,-0.026275634765625,0.0094757080078125
1761387530937307100,6.95430712890625,-1.0008697509765625,-0.026580810546875,0.00994873046875
1761387530947377000,6.964376953125,-1.00042724609375,-0.02667236328125,0.0097808837890625
1761387530957447200,6.974447265625,-1.0003662109375,-0.026947021484375,0.0096893310546875
1761387530967517200,6.98451708984375,-0.99957275390625,-0.026580810546875,0.010498046875
1761387530977586000,6.9945859375,-1.000701904296875,-0.027099609375,0.0101776123046875
1761387530987656200,7.00465625,-1.000701904296875,-0.0262451171875,0.00994873046875
1761387530997726000,7.014725830078125,-1.0005035400390625,-0.0260467529296875,0.00970458984375
1761387531007796000,7.0247958984375,-1.0001220703125,-0.0268402099609375,0.0102691650390625
1761387531017866200,7.0348662109375,-0.9998779296875,-0.026763916015625,0.0098724365234375
1761387531027936000,7.04493603515625,-0.9997406005859375,-0.0263824462890625,0.010284423828125
1761387531038006000,7.055006103515625,-0.9995574951171875,-0.0270538330078125,0.009857177734375
1761387531048076000,7.065075927734375,-1.000274658203125,-0.0262298583984375,0.0104827880859375
1761387531058146000,7.07514599609375,-1.00103759765625,-0.0267181396484375,0.011260986328125
1761387531068216000,7.085216064453125,-1.0006256103515625,-0.02679443359375,0.010101318359375
1761387531078285800,7.095285888671875,-1.0009613037109375,-0.02764892578125,0.0101165771484375
1761387531088356000,7.105356201171875,-1.0003204345703125,-0.0272979736328125,0.0096435546875
1761387531098426000,7.115426025390625,-1.0006103515625,-0.027618408203125,0.009185791015625
1761387531108496000,7.125495849609375,-1.0017852783203125,-0.026580810546875,0.009857177734375
1761387531118566100,7.135566162109375,-1.0002288818359375,-0.0263671875,0.0095367431640625
1761387531128635100,7.14563525390625,-1.000091552734375,-0.026458740234375,0.0097198486328125
1761387531138705000,7.155704833984375,-1.0006561279296875,-0.0265960693359375,0.0089569091796875
1761387531148775200,7.165775146484375,-1.00103759765625,-0.0270233154296875,0.010284423828125
1761387531158845000,7.175844970703125,-0.999969482421875,-0.0261077880859375,0.0097198486328125
1761387531168915000,7.1859150390625,-0.999786376953125,-0.0268402099609375,0.0098724365234375
1761387531178985200,7.195985107421875,-0.9994659423828125,-0.0275115966796875,0.009857177734375
1761387531189055000,7.206054931640625,-1.000213623046875,-0.026763916015625,0.010284423828125
1761387531199125000,7.216125,-0.999969482421875,-0.0269775390625,0.0101470947265625
1761387531209195300,7.2261953125,-1.00006103515625,-0.027923583984375,0.010040283203125
1761387531219265000,7.23626513671875,-1.0006866455078125,-0.0276336669921875,0.0100555419921875
1761387531229335000,7.2463349609375,-1.000091552734375,-0.0264434814453125,0.0096893310546875
1761387531239405000,7.256405029296875,-1.0008697509765625,-0.026458740234375,0.00946044921875
1761387531249475000,7.26647509765625,-1.0001678466796875,-0.026519775390625,0.0107879638671875
1761387531259545000,7.276545166015625,-1.0001068115234375,-0.02703857421875,0.0106964111328125
1761387531269614800,7.28661474609375,-0.999664306640625,-0.0270538330078125,0.00994873046875
1761387531279684000,7.29668408203125,-0.9998626708984375,-0.0274505615234375,0.0109710693359375
1761387531289754000,7.306754150390625,-1.00091552734375,-0.0267333984375,0.009765625
1761387531299823900,7.316823974609375,-1.0001068115234375,-0.0277862548828125,0.009613037109375
1761387531309894100,7.32689404296875,-1.0008544921875,-0.027008056640625,0.009429931640625
1761387531319964000,7.3369638671875,-1.0003204345703125,-0.02691650390625,0.010223388671875
1761387531330034000,7.347033935546875,-1.0005645751953125,-0.0270233154296875,0.010284423828125
1761387531340104200,7.357104248046875,-1.0012359619140625,-0.0272064208984375,0.0097198486328125
1761387531350174000,7.367174072265625,-0.9999237060546875,-0.0270843505859375,0.009613037109375
1761387531360244000,7.377243896484375,-1.000030517578125,-0.027374267578125,0.01031494140625
1761387531370314200,7.387314208984375,-1.00054931640625,-0.0274200439453125,0.0105133056640625
1761387531380384000,7.397384033203125,-1.0006103515625,-0.0274200439453125,0.0107269287109375
1761387531390454000,7.4074541015625,-0.9996795654296875,-0.026763916015625,0.0099945068359375
1761387531400524000,7.41752392578125,-1.00103759765625,-0.0260772705078125,0.01031494140625
1761387531410594000,7.427593994140625,-1.00103759765625,-0.0260467529296875,0.0100860595703125
1761387531420663000,7.4376630859375,-1.000335693359375,-0.0263519287109375,0.010009765625
1761387531430733000,7.447733154296875,-0.999969482421875,-0.02655029296875,0.010009765625
1761387531440803000,7.457802978515625,-1.000762939453125,-0.0272064208984375,0.010284423828125
1761387531450873000,7.467873046875,-1.001861572265625,-0.026641845703125,0.009796142578125
1761387531460943000,7.477943115234375,-1.000274658203125,-0.02740478515625,0.0099334716796875
1761387531471013000,7.48801318359375,-1.001373291015625,-0.02740478515625,0.009765625
1761387531481083100,7.498083251953125,-1.0001220703125,-0.027374267578125,0.0104217529296875
1761387531491153000,7.50815283203125,-1.0006561279296875,-0.02691650390625,0.0105133056640625
1761387531501223200,7.51822314453125,-1.0012969970703125,-0.02764892578125,0.01068115234375
1761387531511293000,7.52829296875,-1.000885009765625,-0.026275634765625,0.0107879638671875
1761387531521363000,7.538363037109375,-1.0004730224609375,-0.0267486572265625,0.010101318359375
1761387531531433200,7.54843310546875,-1.0001373291015625,-0.02593994140625,0.00946044921875
1761387531541503000,7.5585029296875,-1.00048828125,-0.0270843505859375,0.0098114013671875
1761387531551573000,7.568572998046875,-1.0006866455078125,-0.0265655517578125,0.0097198486328125
1761387531561642000,7.57864208984375,-1.0012359619140625,-0.0258636474609375,0.010162353515625
1761387531571712000,7.5887119140625,-1.0005340576171875,-0.0270233154296875,0.0106048583984375
1761387531581782000,7.598781982421875,-1.0014190673828125,-0.02777099609375,0.010040283203125
1761387531591852000,7.60885205078125,-1.0007171630859375,-0.0268402099609375,0.0097808837890625
1761387531601922000,7.618922119140625,-1.000701904296875,-0.0270843505859375,0.009979248046875
1761387531611992000,7.628991943359375,-1.0005950927734375,-0.0270843505859375,0.0102691650390625
1761387531622062000,7.63906201171875,-1.0001678466796875,-0.026123046875,0.0107269287109375
1761387531632132000,7.649132080078125,-0.999664306640625,-0.026031494140625,0.0107574462890625
1761387531642202000,7.6592021484375,-1.0001983642578125,-0.026397705078125,0.0096435546875
1761387531652271900,7.66927197265625,-1.0001220703125,-0.0265655517578125,0.01092529296875
1761387531662342100,7.679342041015625,-1.0012054443359375,-0.0274200439453125,0.0101318359375
1761387531672412200,7.689412109375,-1.000885009765625,-0.0267181396484375,0.009490966796875
1761387531682482000,7.69948193359375,-1.000762939453125,-0.0264892578125,0.0099029541015625
1761387531692551200,7.70955126953125,-1.0009765625,-0.0263214111328125,0.0103759765625
1761387531702621000,7.719620849609375,-1.001312255859375,-0.0265350341796875,0.0102996826171875
1761387531712691000,7.72969091796875,-0.99945068359375,-0.0263671875,0.0107574462890625
1761387531722761200,7.73976123046875,-1.001129150390625,-0.02618408203125,0.0100860595703125
1761387531732831000,7.7498310546875,-1.000274658203125,-0.02655029296875,0.0099334716796875
1761387531742901000,7.75990087890625,-1.0008392333984375,-0.0264129638671875,0.01007080078125
1761387531752971000,7.769970947265625,-1.001068115234375,-0.0272674560546875,0.009552001953125
1761387531763041000,7.780041015625,-1.000518798828125,-0.027557373046875,0.0105133056640625
1761387531773111000,7.790111083984375,-1.0008087158203125,-0.027008056640625,0.009735107421875
1761387531783181000,7.80018115234375,-1.001068115234375,-0.02679443359375,0.01068115234375
1761387531793251000,7.8102509765625,-1.0003509521484375,-0.026641845703125,0.0097503662109375
1761387531803321000,7.820321044921875,-0.9998626708984375,-0.0265045166015625,0.00970458984375
1761387531813390800,7.830390869140625,-0.9995269775390625,-0.0264434814453125,0.009613037109375
1761387531823464700,7.840464599609375,-1.0005035400390625,-0.02587890625,0.009857177734375
1761387531833534700,7.85053466796875,-1.0009613037109375,-0.026519775390625,0.0096893310546875
1761387531843604500,7.8606044921875,-1.001312255859375,-0.0272979736328125,0.01068115234375
1761387531853674800,7.8706748046875,-1.000946044921875,-0.0273895263671875,0.0101470947265625
1761387531863744800,7.880744873046875,-1.000518798828125,-0.027099609375,0.0105133056640625
1761387531873814500,7.890814453125,-1.000762939453125,-0.0270233154296875,0.0108489990234375
1761387531883884500,7.900884521484375,-1.0010833740234375,-0.0275421142578125,0.0107879638671875
1761387531893954600,7.91095458984375,-1.0002899169921875,-0.027191162109375,0.0103912353515625
1761387531904024600,7.921024658203125,-1.001495361328125,-0.0258636474609375,0.010467529296875
1761387531914094600,7.931094482421875,-1.0009307861328125,-0.0267333984375,0.0098114013671875
1761387531924164600,7.94116455078125,-1.0007781982421875,-0.02642822265625,0.009674072265625
1761387531934234600,7.951234619140625,-1.0008697509765625,-0.0260467529296875,0.0101470947265625
1761387531944304600,7.9613046875,-1.00140380859375,-0.027099609375,0.010101318359375
1761387531954373600,7.97137353515625,-1.0001678466796875,-0.0272216796875,0.01031494140625
1761387531964443600,7.981443603515625,-1.001129150390625,-0.027069091796875,0.0101470947265625
1761387531974513400,7.991513427734375,-1.0007171630859375,-0.026458740234375,0.010467529296875
1761387531984583700,8.001583740234375,-1.0012664794921875,-0.0265655517578125,0.0101470947265625
1761387531994653700,8.01165380859375,-1.000885009765625,-0.0268707275390625,0.0098114013671875
1761387532004723500,8.021723388671875,-1.0005035400390625,-0.02685546875,0.0095672607421875
1761387532014793700,8.031793701171875,-1.0000762939453125,-0.026763916015625,0.009246826171875
1761387532024863700,8.04186376953125,-0.9988861083984375,-0.027099609375,0.009033203125
1761387532034933500,8.05193359375,-1.000335693359375,-0.0271148681640625,0.010223388671875
1761387532045003800,8.062003662109374,-1.0001983642578125,-0.0271759033203125,0.0101776123046875
1761387532055073800,8.07207373046875,-1.0000457763671875,-0.0264434814453125,0.010345458984375
1761387532065143600,8.0821435546875,-1.0001068115234375,-0.026763916015625,0.00958251953125
1761387532075213600,8.092213623046876,-0.9999237060546875,-0.0268402099609375,0.0102996826171875
1761387532085282600,8.102282470703125,-1.001434326171875,-0.0270233154296875,0.009979248046875
1761387532095352600,8.1123525390625,-1.001312255859375,-0.0272674560546875,0.0095672607421875
1761387532105422800,8.1224228515625,-1,-0.0272064208984375,0.010406494140625
1761387532115492600,8.13249267578125,-0.9998931884765625,-0.0263519287109375,0.01007080078125
1761387532125562600,8.142562744140625,-1.00030517578125,-0.0269317626953125,0.009613037109375
1761387532135632600,8.152632568359374,-1.0005645751953125,-0.0273590087890625,0.0099029541015625
1761387532145702700,8.16270263671875,-1.0007171630859375,-0.0272369384765625,0.010101318359375
1761387532155772700,8.172772705078126,-1.0000152587890625,-0.02679443359375,0.0099945068359375
1761387532165842400,8.182842529296876,-1,-0.02667236328125,0.0111083984375
1761387532175912700,8.19291259765625,-1.0010833740234375,-0.0269927978515625,0.010284423828125
1761387532185982700,8.202982666015625,-1.0017852783203125,-0.027618408203125,0.0102691650390625
1761387532196052500,8.213052490234375,-1.0008087158203125,-0.0266876220703125,0.010406494140625
1761387532206121700,8.223121826171875,-1.0001373291015625,-0.0264892578125,0.0096588134765625
1761387532216191500,8.23319140625,-1.0008392333984375,-0.02691650390625,0.009918212890625
1761387532226261500,8.243261474609374,-1.00042724609375,-0.027252197265625,0.0105743408203125
1761387532236331800,8.253331787109374,-1.0013275146484375,-0.0271759033203125,0.009979248046875
1761387532246401500,8.263401611328124,-0.9998626708984375,-0.026641845703125,0.009307861328125
1761387532256471600,8.273471435546876,-1.00042724609375,-0.02728271484375,0.0099945068359375
1761387532266541800,8.283541748046876,-1.001068115234375,-0.027130126953125,0.0091552734375
1761387532276611600,8.293611572265625,-1.000518798828125,-0.027008056640625,0.0098114013671875
1761387532286681600,8.303681640625,-1.000762939453125,-0.026763916015625,0.0103302001953125
1761387532296751600,8.313751708984375,-0.999664306640625,-0.027435302734375,0.0112457275390625
1761387532306821600,8.323821533203125,-1.0005950927734375,-0.0265350341796875,0.011016845703125
1761387532316891600,8.3338916015625,-1.0016632080078125,-0.02606201171875,0.011383056640625
1761387532326961400,8.34396142578125,-1.000640869140625,-0.0271453857421875,0.010833740234375
1761387532337030700,8.35403076171875,-1.000030517578125,-0.0274200439453125,0.0107879638671875
1761387532347100700,8.3641005859375,-1.000701904296875,-0.02667236328125,0.009735107421875
1761387532357170700,8.374170654296876,-1.00054931640625,-0.0273590087890625,0.0093536376953125
1761387532367240700,8.38424072265625,-0.9992523193359375,-0.0271148681640625,0.0106353759765625
1761387532377310500,8.394310546875,-1.00006103515625,-0.0269927978515625,0.010772705078125
1761387532387380500,8.40438037109375,-1.00189208984375,-0.0270233154296875,0.0102691650390625
1761387532397450800,8.41445068359375,-1.0005340576171875,-0.02630615234375,0.0097198486328125
1761387532407520500,8.4245205078125,-1.0003204345703125,-0.0272979736328125,0.009674072265625
1761387532417590500,8.434590576171875,-1.0006256103515625,-0.0268096923828125,0.0101776123046875
1761387532427660800,8.444660888671875,-1.00030517578125,-0.02728271484375,0.01025390625
1761387532437730600,8.45473046875,-1.00018310546875,-0.027618408203125,0.010101318359375
1761387532447800600,8.464800537109374,-1.0001220703125,-0.0266265869140625,0.01068115234375
1761387532457869600,8.47486962890625,-1.0021514892578125,-0.027313232421875,0.0090179443359375
1761387532467939600,8.484939697265625,-1.000732421875,-0.026763916015625,0.0103302001953125
1761387532478009600,8.495009521484375,-1.0003204345703125,-0.0272674560546875,0.009857177734375
1761387532488079600,8.50507958984375,-1.00067138671875,-0.0272979736328125,0.0098114013671875
1761387532498149600,8.515149658203125,-1.001190185546875,-0.0274810791015625,0.009857177734375
1761387532508219600,8.5252197265625,-1.0008697509765625,-0.0269622802734375,0.01031494140625
1761387532518289700,8.53528955078125,-1.000762939453125,-0.0265960693359375,0.0102996826171875
1761387532528359700,8.545359619140624,-1.0008392333984375,-0.026611328125,0.0097808837890625
1761387532538429700,8.5554296875,-1.000518798828125,-0.0274505615234375,0.010162353515625
1761387532548499700,8.565499755859374,-1.000091552734375,-0.0269317626953125,0.0108795166015625
1761387532558569700,8.57556982421875,-1.0013427734375,-0.02642822265625,0.0097198486328125
1761387532568639500,8.585639404296876,-1.001251220703125,-0.0267791748046875,0.0099029541015625
1761387532578708700,8.595708740234375,-1.0000457763671875,-0.02679443359375,0.0102081298828125
1761387532588778800,8.60577880859375,-1.000518798828125,-0.0272369384765625,0.009307861328125
1761387532598848500,8.6158486328125,-1.0010833740234375,-0.0267791748046875,0.01031494140625
1761387532608918800,8.625918701171875,-1.000457763671875,-0.0270233154296875,0.0103912353515625
1761387532618988500,8.635988525390625,-1.0001373291015625,-0.0271148681640625,0.0101165771484375
1761387532629058600,8.64605859375,-0.999847412109375,-0.026123046875,0.00982666015625
1761387532639128600,8.656128662109374,-1.0004119873046875,-0.027069091796875,0.01031494140625
1761387532649198600,8.666198486328126,-1.0001220703125,-0.0263214111328125,0.01025390625
1761387532659268600,8.6762685546875,-1.000030517578125,-0.02728271484375,0.0099945068359375
1761387532669338600,8.686338623046876,-1.000213623046875,-0.026947021484375,0.0106048583984375
1761387532679408600,8.69640869140625,-0.9998626708984375,-0.0267333984375,0.0103607177734375
1761387532689478700,8.706478759765625,-0.9992523193359375,-0.0265960693359375,0.0099639892578125
1761387532699547600,8.716547607421875,-1.0006256103515625,-0.026824951171875,0.01025390625
1761387532709617700,8.72661767578125,-1.0009002685546875,-0.0270843505859375,0.0102081298828125
1761387532719687700,8.736687744140625,-1.00042724609375,-0.02667236328125,0.00994873046875
1761387532729757400,8.74675732421875,-0.99945068359375,-0.026611328125,0.0104827880859375
1761387532739827700,8.75682763671875,-1.0007781982421875,-0.0270233154296875,0.0100860595703125
1761387532749897700,8.766897705078126,-1.001007080078125,-0.0266571044921875,0.0102081298828125
1761387532759967500,8.776967529296876,-1.0006103515625,-0.0268707275390625,0.009613037109375
1761387532770037800,8.787037841796876,-1.000213623046875,-0.02740478515625,0.009918212890625
1761387532780107800,8.797107666015625,-1.0005035400390625,-0.0269775390625,0.010009765625
1761387532790177500,8.807177490234375,-1.001220703125,-0.027008056640625,0.0106964111328125
1761387532800247600,8.81724755859375,-0.999755859375,-0.0272369384765625,0.010650634765625
1761387532810316500,8.827316650390625,-1.00091552734375,-0.0265350341796875,0.0103912353515625
1761387532820383200,8.83738330078125,-1.000823974609375,-0.0258941650390625,0.009735107421875
1761387532830453500,8.84745361328125,-1.0009765625,-0.02667236328125,0.0100860595703125
1761387532840523500,8.8575234375,-1.0006103515625,-0.026885986328125,0.010406494140625
1761387532850593300,8.86759326171875,-1.0008544921875,-0.0270233154296875,0.010406494140625
1761387532860663300,8.877663330078125,-1.0003814697265625,-0.027099609375,0.009979248046875
1761387532870733600,8.887733642578125,-1.0009002685546875,-0.02728271484375,0.0109100341796875
1761387532880803300,8.89780322265625,-1.000213623046875,-0.0265960693359375,0.0098876953125
1761387532890873300,8.907873291015624,-1.00018310546875,-0.02679443359375,0.010284423828125
1761387532900943400,8.917943359375,-1.0000457763671875,-0.0262451171875,0.0103302001953125
1761387532911013400,8.928013427734374,-1.000396728515625,-0.0269317626953125,0.0098419189453125
1761387532921083400,8.93808349609375,-1.001617431640625,-0.0275115966796875,0.010009765625
1761387532931152400,8.94815234375,-1.000335693359375,-0.0266571044921875,0.0098114013671875
1761387532941222400,8.958222412109375,-1.0000152587890625,-0.0265350341796875,0.010040283203125
1761387532951292200,8.968292236328125,-1.0008087158203125,-0.02703857421875,0.0096588134765625
1761387532961362400,8.978362548828125,-1.000640869140625,-0.0265960693359375,0.00946044921875
1761387532971432400,8.988432373046875,-1.0004730224609375,-0.0265350341796875,0.010223388671875
1761387532981502200,8.998502197265625,-1.000732421875,-0.0267486572265625,0.0100860595703125
1761387532991572500,9.008572509765624,-1.00054931640625,-0.02691650390625,0.009246826171875
1761387533001642500,9.018642578125,-1.0005340576171875,-0.0272216796875,0.009765625
1761387533011712300,9.028712158203126,-1.00042724609375,-0.027740478515625,0.0104522705078125
1761387533021782300,9.0387822265625,-0.9993743896484375,-0.0272979736328125,0.0106658935546875
1761387533031852500,9.0488525390625,-1.0006256103515625,-0.0271759033203125,0.010467529296875
1761387533041921300,9.05892138671875,-1.0004425048828125,-0.0271759033203125,0.01043701171875
1761387533051991600,9.068991455078125,-1.000457763671875,-0.02667236328125,0.0106201171875
1761387533062061300,9.079061279296875,-1.000244140625,-0.0266876220703125,0.0099945068359375
1761387533072131300,9.08913134765625,-1.0012359619140625,-0.0269927978515625,0.0102996826171875
1761387533082201600,9.09920166015625,-1.00054931640625,-0.02679443359375,0.0103759765625
1761387533092271400,9.109271240234374,-1.0002593994140625,-0.0269012451171875,0.010406494140625
1761387533102341400,9.11934130859375,-0.99951171875,-0.0267791748046875,0.0102691650390625
1761387533112411400,9.129411376953126,-0.99993896484375,-0.026885986328125,0.010040283203125
1761387533122481400,9.1394814453125,-1.0001678466796875,-0.02618408203125,0.0110321044921875
1761387533132551400,9.149551513671875,-1.00103759765625,-0.026763916015625,0.009979248046875
1761387533142621200,9.15962109375,-1.000732421875,-0.0266876220703125,0.009429931640625
1761387533152691500,9.16969140625,-1.001068115234375,-0.027069091796875,0.00994873046875
1761387533162760400,9.179760498046875,-1.0013885498046875,-0.0261077880859375,0.0100860595703125
1761387533172830500,9.18983056640625,-1.0005645751953125,-0.0265045166015625,0.0098876953125
1761387533182900500,9.199900390625,-1.0012969970703125,-0.02691650390625,0.0101318359375
1761387533192970200,9.20997021484375,-1.000091552734375,-0.0257415771484375,0.010223388671875
1761387533203040300,9.220040283203126,-1,-0.02740478515625,0.0104217529296875
1761387533213110500,9.230110595703126,-1.0010833740234375,-0.0276031494140625,0.0104522705078125
1761387533223180300,9.24018017578125,-1.000823974609375,-0.0265655517578125,0.010223388671875
1761387533233250300,9.250250244140625,-1.0008087158203125,-0.0264434814453125,0.01080322265625
1761387533243320600,9.260320556640625,-1.0014801025390625,-0.026702880859375,0.0100250244140625
1761387533253390300,9.270390380859375,-1.00091552734375,-0.02667236328125,0.01007080078125
1761387533263460400,9.28046044921875,-1.00048828125,-0.0269775390625,0.00970458984375
1761387533273529300,9.290529296875,-1.000732421875,-0.026275634765625,0.0099029541015625
1761387533283599400,9.300599365234374,-1.000701904296875,-0.026641845703125,0.0101470947265625
1761387533293669400,9.31066943359375,-1.00018310546875,-0.0268096923828125,0.0104827880859375
1761387533303739400,9.320739501953126,-1.0006256103515625,-0.0272216796875,0.010589599609375
1761387533313809400,9.330809326171876,-1.000823974609375,-0.0269622802734375,0.009979248046875
1761387533323879400,9.34087939453125,-1.0007476806640625,-0.0276947021484375,0.010101318359375
1761387533333949400,9.350949462890625,-1.001220703125,-0.0267791748046875,0.010040283203125
1761387533344019500,9.36101953125,-1.0016326904296875,-0.026885986328125,0.011199951171875
1761387533354089500,9.37108935546875,-1.0008697509765625,-0.0273284912109375,0.009124755859375
1761387533364159200,9.3811591796875,-0.9995880126953125,-0.027435302734375,0.0099334716796875
1761387533374229500,9.3912294921875,-1,-0.0265045166015625,0.0102691650390625
1761387533384298200,9.40129833984375,-0.9998626708984375,-0.0268402099609375,0.009857177734375
1761387533394368500,9.411368408203124,-0.998870849609375,-0.026336669921875,0.0091705322265625
1761387533404438500,9.4214384765625,-0.997100830078125,-0.0279998779296875,0.0107879638671875
1761387533414508300,9.43150830078125,-1.0059967041015625,-0.028411865234375,0.0120849609375
1761387533424578300,9.441578369140625,-1.00592041015625,-0.0265655517578125,0.009979248046875
1761387533434648300,9.4516484375,-0.997344970703125,-0.024566650390625,0.0088043212890625
1761387533444718300,9.46171826171875,-1.002838134765625,-0.0240631103515625,0.01019287109375
1761387533454788400,9.471788330078125,-1.000579833984375,-0.0259857177734375,0.0103302001953125
1761387533464858400,9.4818583984375,-0.9959259033203125,-0.0294647216796875,0.0108184814453125
1761387533474928400,9.491928466796875,-1.0018157958984375,-0.0299530029296875,0.01104736328125
