time,seconds_elapsed,z,y,x
1761838419063950600,0.06895068359375,-1.0476531982421875,-0.01934814453125,-0.04473876953125
1761838419074019600,0.07901953125,-1.0430755615234375,-0.011993408203125,-0.0479278564453125
1761838419084089900,0.08908984375,-1.0323638916015625,-0.0006256103515625,-0.0539398193359375
1761838419094158600,0.09915869140625,-1.00872802734375,-0.0005035400390625,-0.0627593994140625
1761838419104228600,0.109228515625,-0.9912567138671875,-0.000823974609375,-0.07708740234375
1761838419114297600,0.119297607421875,-0.97967529296875,-0.0102081298828125,-0.0849456787109375
1761838419124367600,0.12936767578125,-0.97393798828125,-0.0203094482421875,-0.089935302734375
1761838419134436600,0.1394365234375,-0.961090087890625,-0.031158447265625,-0.0915069580078125
1761838419144506600,0.149506591796875,-0.956787109375,-0.040557861328125,-0.087554931640625
1761838419154575600,0.15957568359375,-0.9575958251953125,-0.0422515869140625,-0.083099365234375
1761838419164644600,0.16964453125,-0.9480743408203125,-0.043914794921875,-0.0830841064453125
1761838419174714600,0.179714599609375,-0.9352569580078125,-0.0439453125,-0.090789794921875
1761838419184783600,0.18978369140625,-0.929107666015625,-0.0480194091796875,-0.101776123046875
1761838419194853600,0.199853515625,-0.9256591796875,-0.058807373046875,-0.1146392822265625
1761838419204922600,0.209922607421875,-0.9267578125,-0.0682220458984375,-0.1233673095703125
1761838419214992600,0.21999267578125,-0.9286041259765625,-0.06805419921875,-0.129852294921875
1761838419225061600,0.2300615234375,-0.9285736083984375,-0.059722900390625,-0.1274871826171875
1761838419235131600,0.240131591796875,-0.943023681640625,-0.0576934814453125,-0.1162261962890625
1761838419245200600,0.25020068359375,-0.9629058837890625,-0.05670166015625,-0.10107421875
1761838419255270700,0.260270751953125,-0.970245361328125,-0.0577850341796875,-0.0934906005859375
1761838419265339600,0.270339599609375,-0.9727630615234375,-0.0559539794921875,-0.0891265869140625
1761838419275409700,0.28040966796875,-0.9756317138671875,-0.05535888671875,-0.0833740234375
1761838419285478700,0.290478759765625,-0.9874420166015625,-0.0556640625,-0.0774383544921875
1761838419295547600,0.300547607421875,-0.9951019287109375,-0.054046630859375,-0.074310302734375
1761838419305617700,0.31061767578125,-1.0025177001953125,-0.050628662109375,-0.071624755859375
1761838419315686700,0.320686767578125,-1.0108795166015625,-0.046722412109375,-0.0706634521484375
1761838419325756700,0.330756591796875,-1.0140533447265625,-0.04693603515625,-0.076751708984375
1761838419335825700,0.34082568359375,-1.0128936767578125,-0.05059814453125,-0.0881195068359375
1761838419345895400,0.3508955078125,-1.0082244873046875,-0.0515289306640625,-0.0988616943359375
1761838419355964700,0.360964599609375,-1.003387451171875,-0.051177978515625,-0.1022186279296875
1761838419366034700,0.37103466796875,-1.0048065185546875,-0.0526580810546875,-0.1011505126953125
1761838419376103700,0.381103759765625,-1.0099029541015625,-0.050018310546875,-0.0959930419921875
1761838419386173700,0.391173583984375,-1.011260986328125,-0.042572021484375,-0.0917510986328125
1761838419396242700,0.40124267578125,-1.0061798095703125,-0.0387725830078125,-0.0932769775390625
1761838419406311700,0.411311767578125,-0.998809814453125,-0.039215087890625,-0.0970458984375
1761838419416381700,0.421381591796875,-0.9939422607421875,-0.041259765625,-0.099395751953125
1761838419426450700,0.43145068359375,-0.9899139404296875,-0.0443267822265625,-0.097381591796875
1761838419436520700,0.441520751953125,-0.9894561767578125,-0.0486297607421875,-0.09136962890625
1761838419446589700,0.451589599609375,-0.9919586181640625,-0.0513916015625,-0.0873565673828125
1761838419456659500,0.461659423828125,-0.98895263671875,-0.0514373779296875,-0.0838623046875
1761838419466728700,0.471728759765625,-0.9853363037109375,-0.0536651611328125,-0.08172607421875
1761838419476798500,0.481798583984375,-0.990234375,-0.0500640869140625,-0.0827178955078125
1761838419486867700,0.49186767578125,-0.988800048828125,-0.0507354736328125,-0.08563232421875
1761838419496937700,0.501937744140625,-0.9843597412109375,-0.0494384765625,-0.09246826171875
1761838419507006700,0.5120068359375,-0.98516845703125,-0.04364013671875,-0.09918212890625
1761838419517076700,0.52207666015625,-0.988433837890625,-0.0390777587890625,-0.1014251708984375
1761838419527145700,0.532145751953125,-1.0005950927734375,-0.036346435546875,-0.0950164794921875
1761838419537214700,0.542214599609375,-1.0210723876953125,-0.0370941162109375,-0.0841217041015625
1761838419547284500,0.552284423828125,-1.026947021484375,-0.033203125,-0.079681396484375
1761838419557353700,0.562353759765625,-1.0208587646484375,-0.0291748046875,-0.08221435546875
1761838419567423500,0.572423583984375,-1.0129241943359375,-0.0300750732421875,-0.087738037109375
1761838419577492700,0.58249267578125,-1.0091552734375,-0.034027099609375,-0.0934295654296875
1761838419587562500,0.5925625,-1.00262451171875,-0.040069580078125,-0.09796142578125
1761838419597631700,0.6026318359375,-0.992462158203125,-0.0442352294921875,-0.096710205078125
1761838419607701500,0.612701416015625,-0.9884033203125,-0.0482940673828125,-0.089599609375
1761838419617770800,0.622770751953125,-0.9884185791015625,-0.0480499267578125,-0.0804901123046875
1761838419627840800,0.6328408203125,-0.9849853515625,-0.0474700927734375,-0.073150634765625
1761838419637909800,0.64290966796875,-0.9838714599609375,-0.046356201171875,-0.067901611328125
1761838419647978500,0.652978515625,-0.985321044921875,-0.0448150634765625,-0.06915283203125
1761838419658048500,0.663048583984375,-0.9862060546875,-0.048187255859375,-0.0724334716796875
1761838419668117500,0.673117431640625,-0.9880218505859375,-0.0473175048828125,-0.0767822265625
1761838419678187500,0.6831875,-0.9829864501953125,-0.0458831787109375,-0.0817108154296875
1761838419688256800,0.6932568359375,-0.980987548828125,-0.0473480224609375,-0.084075927734375
1761838419698326500,0.703326416015625,-1.0035247802734375,-0.05389404296875,-0.0924835205078125
1761838419708395800,0.713395751953125,-1,-0.048858642578125,-0.09918212890625
1761838419718465500,0.723465576171875,-1.0022125244140625,-0.040130615234375,-0.098602294921875
1761838419728534800,0.73353466796875,-1.0092620849609375,-0.035614013671875,-0.0969696044921875
1761838419738604500,0.7436044921875,-1.01580810546875,-0.0359954833984375,-0.0952301025390625
1761838419748673800,0.753673828125,-1.0210113525390625,-0.037017822265625,-0.0939178466796875
1761838419758742500,0.763742431640625,-1.0196533203125,-0.0388031005859375,-0.0953216552734375
1761838419768812500,0.7738125,-1.016357421875,-0.04364013671875,-0.09637451171875
1761838419778881500,0.783881591796875,-1.008270263671875,-0.0466766357421875,-0.0968170166015625
1761838419788947700,0.79394775390625,-0.9981536865234375,-0.0505828857421875,-0.09490966796875
1761838419799017000,0.804016845703125,-0.9925079345703125,-0.05511474609375,-0.08953857421875
1761838419809086700,0.814086669921875,-0.9860382080078125,-0.0580596923828125,-0.0821533203125
1761838419819156000,0.824156005859375,-0.9852142333984375,-0.0587615966796875,-0.0738677978515625
1761838419829225700,0.834225830078125,-0.9864044189453125,-0.05670166015625,-0.06964111328125
1761838419839295000,0.844294921875,-0.98553466796875,-0.0511322021484375,-0.06585693359375
1761838419849364700,0.85436474609375,-0.9891204833984375,-0.0450897216796875,-0.06439208984375
1761838419859434000,0.86443408203125,-0.994415283203125,-0.0435638427734375,-0.0669708251953125
1761838419869502700,0.874502685546875,-0.995452880859375,-0.04266357421875,-0.072113037109375
1761838419879573000,0.884572998046875,-0.9964599609375,-0.041656494140625,-0.0806732177734375
1761838419889641700,0.894641845703125,-0.9986724853515625,-0.0410919189453125,-0.0892181396484375
1761838419899711700,0.904711669921875,-0.997711181640625,-0.03753662109375,-0.1002349853515625
1761838419909780700,0.91478076171875,-0.993316650390625,-0.0396270751953125,-0.103851318359375
1761838419919850800,0.924850830078125,-0.9991302490234375,-0.032806396484375,-0.10784912109375
1761838419929920000,0.934919921875,-0.9955291748046875,-0.0353851318359375,-0.1055908203125
1761838419939989800,0.94498974609375,-0.9940338134765625,-0.0355987548828125,-0.10260009765625
1761838419950059000,0.95505908203125,-0.9999542236328125,-0.035491943359375,-0.094940185546875
1761838419960128800,0.965128662109375,-1.0021209716796875,-0.0359344482421875,-0.0910491943359375
1761838419970198000,0.975197998046875,-1.00616455078125,-0.035675048828125,-0.088653564453125
1761838419980266800,0.985266845703125,-1.0058441162109375,-0.03497314453125,-0.088836669921875
1761838419990336800,0.995336669921875,-1.0044097900390625,-0.0373687744140625,-0.090362548828125
1761838420000405800,1.00540576171875,-1.0055389404296875,-0.0383453369140625,-0.0908355712890625
1761838420010475800,1.015475830078125,-1.001983642578125,-0.03912353515625,-0.091217041015625
1761838420020544800,1.025544677734375,-0.9978179931640625,-0.0412445068359375,-0.0912322998046875
1761838420030614800,1.03561474609375,-1.0003509521484375,-0.04437255859375,-0.0903167724609375
1761838420040683800,1.045683837890625,-0.99835205078125,-0.04559326171875,-0.0888214111328125
1761838420050753800,1.05575390625,-0.996124267578125,-0.0469818115234375,-0.0866851806640625
1761838420060823000,1.065822998046875,-0.9963531494140625,-0.0493927001953125,-0.086761474609375
1761838420070891800,1.075891845703125,-0.9962310791015625,-0.0507354736328125,-0.0872650146484375
1761838420080962000,1.085962158203125,-0.9911651611328125,-0.051513671875,-0.088531494140625
1761838420091030800,1.09603076171875,-0.98663330078125,-0.05291748046875,-0.09027099609375
1761838420101100800,1.106100830078125,-0.9821929931640625,-0.0560150146484375,-0.0915679931640625
1761838420111169800,1.116169677734375,-0.9842376708984375,-0.0578460693359375,-0.09417724609375
1761838420121239800,1.12623974609375,-0.9870147705078125,-0.0547943115234375,-0.09539794921875
1761838420131308800,1.136308837890625,-0.9930572509765625,-0.0525970458984375,-0.099212646484375
1761838420141378800,1.14637890625,-0.99871826171875,-0.0499420166015625,-0.10406494140625
1761838420151447800,1.15644775390625,-1.0014801025390625,-0.0469818115234375,-0.110076904296875
1761838420161517800,1.166517822265625,-1.0036773681640625,-0.0475616455078125,-0.114501953125
1761838420171586800,1.1765869140625,-1.00213623046875,-0.047119140625,-0.119110107421875
1761838420181655800,1.18665576171875,-0.99798583984375,-0.0467681884765625,-0.1201629638671875
1761838420191725800,1.196725830078125,-0.99365234375,-0.0460052490234375,-0.1195068359375
1761838420201794800,1.206794921875,-0.991424560546875,-0.045654296875,-0.1137237548828125
1761838420211864800,1.21686474609375,-0.995208740234375,-0.0500335693359375,-0.10479736328125
1761838420221933800,1.226933837890625,-0.996307373046875,-0.0522918701171875,-0.0980072021484375
1761838420232003800,1.23700390625,-0.9954833984375,-0.0521697998046875,-0.09503173828125
1761838420242072800,1.24707275390625,-0.9946136474609375,-0.051605224609375,-0.0934906005859375
1761838420252142800,1.257142822265625,-0.989990234375,-0.05267333984375,-0.0961761474609375
1761838420262211800,1.2672119140625,-0.9826202392578125,-0.0536651611328125,-0.100860595703125
1761838420272280800,1.27728076171875,-0.9763031005859375,-0.0556640625,-0.1037139892578125
1761838420282350800,1.287350830078125,-0.9745330810546875,-0.0570526123046875,-0.1054534912109375
1761838420292419800,1.297419921875,-0.975921630859375,-0.06024169921875,-0.1056671142578125
1761838420302489900,1.30748974609375,-0.97650146484375,-0.0620269775390625,-0.10614013671875
1761838420312558800,1.317558837890625,-0.97955322265625,-0.0576324462890625,-0.1095428466796875
1761838420322628900,1.32762890625,-0.98583984375,-0.0568389892578125,-0.1114349365234375
1761838420332697900,1.33769775390625,-0.98675537109375,-0.0583953857421875,-0.114013671875
1761838420342767900,1.347767822265625,-0.9858856201171875,-0.0555572509765625,-0.117919921875
1761838420352836900,1.3578369140625,-0.983245849609375,-0.056549072265625,-0.11956787109375
1761838420362907000,1.367906982421875,-0.987762451171875,-0.0583343505859375,-0.1158599853515625
1761838420372975900,1.377975830078125,-0.993011474609375,-0.0600128173828125,-0.109619140625
1761838420383044900,1.388044921875,-0.9956817626953125,-0.05975341796875,-0.1019439697265625
1761838420393115000,1.398114990234375,-0.996246337890625,-0.058441162109375,-0.0962066650390625
1761838420403183900,1.408183837890625,-1.0017547607421875,-0.056671142578125,-0.0902557373046875
1761838420413254000,1.41825390625,-1.0021209716796875,-0.056915283203125,-0.0901947021484375
1761838420423323000,1.428322998046875,-1.00494384765625,-0.0545654296875,-0.091522216796875
1761838420433392600,1.438392578125,-1.0048980712890625,-0.053619384765625,-0.094390869140625
1761838420443462000,1.4484619140625,-1.0024871826171875,-0.0545501708984375,-0.0987091064453125
1761838420453531000,1.45853076171875,-1.0001373291015625,-0.0552825927734375,-0.102081298828125
1761838420463601000,1.468600830078125,-0.9974365234375,-0.056365966796875,-0.1042022705078125
1761838420473670000,1.478669921875,-0.994415283203125,-0.05828857421875,-0.104705810546875
1761838420483740000,1.488739990234375,-0.9930267333984375,-0.0565032958984375,-0.103790283203125
1761838420493808600,1.49880859375,-0.995880126953125,-0.0495147705078125,-0.1060333251953125
1761838420503879000,1.50887890625,-0.992095947265625,-0.0528411865234375,-0.1112213134765625
1761838420513948000,1.518947998046875,-0.99053955078125,-0.0508270263671875,-0.1157073974609375
1761838420524018000,1.529017822265625,-0.992523193359375,-0.0473785400390625,-0.1157379150390625
1761838420534087000,1.5390869140625,-0.9948883056640625,-0.0471954345703125,-0.112945556640625
1761838420544156700,1.54915673828125,-0.9951171875,-0.048583984375,-0.10955810546875
1761838420554226000,1.559225830078125,-0.99688720703125,-0.05169677734375,-0.1057586669921875
1761838420564295000,1.569294921875,-0.997314453125,-0.053802490234375,-0.1039581298828125
1761838420574365000,1.579364990234375,-0.9966583251953125,-0.054534912109375,-0.1029052734375
1761838420584434000,1.589433837890625,-0.999725341796875,-0.05322265625,-0.1025390625
1761838420594504000,1.59950390625,-0.9987945556640625,-0.0531463623046875,-0.103790283203125
1761838420604572700,1.60957275390625,-0.995452880859375,-0.053131103515625,-0.1053466796875
1761838420614643000,1.619642822265625,-0.991363525390625,-0.0542755126953125,-0.10662841796875
1761838420624711700,1.629711669921875,-0.988983154296875,-0.0553741455078125,-0.10589599609375
1761838420634782000,1.639781982421875,-0.9901885986328125,-0.058013916015625,-0.105010986328125
1761838420644850700,1.6498505859375,-0.9872283935546875,-0.05816650390625,-0.103515625
1761838420654920000,1.659919921875,-0.9859466552734375,-0.0541229248046875,-0.0995635986328125
1761838420664990000,1.669989990234375,-0.9884796142578125,-0.053131103515625,-0.0975799560546875
1761838420675059000,1.680058837890625,-0.9884796142578125,-0.0547637939453125,-0.099365234375
1761838420685129000,1.69012890625,-0.9873199462890625,-0.0536041259765625,-0.1009063720703125
1761838420695197700,1.70019775390625,-0.986572265625,-0.0535125732421875,-0.101654052734375
1761838420705268000,1.71026806640625,-0.9864654541015625,-0.0531158447265625,-0.10205078125
1761838420715336700,1.720336669921875,-0.9890594482421875,-0.0523529052734375,-0.1021881103515625
1761838420725407000,1.730406982421875,-0.989410400390625,-0.0506591796875,-0.1056671142578125
1761838420735475700,1.740475830078125,-0.989837646484375,-0.0511322021484375,-0.1079559326171875
1761838420745545000,1.750544921875,-0.9940185546875,-0.051239013671875,-0.108917236328125
1761838420755614700,1.76061474609375,-0.9960174560546875,-0.0490570068359375,-0.1100006103515625
1761838420765684000,1.77068408203125,-0.9978790283203125,-0.047149658203125,-0.1098785400390625
1761838420775753700,1.780753662109375,-0.996856689453125,-0.0457916259765625,-0.1101837158203125
1761838420785823000,1.790822998046875,-1.00030517578125,-0.04632568359375,-0.1100311279296875
1761838420795893000,1.80089306640625,-0.999755859375,-0.0481719970703125,-0.1087799072265625
1761838420805962000,1.8109619140625,-0.996429443359375,-0.0498504638671875,-0.1081085205078125
1761838420816031000,1.821031005859375,-0.99444580078125,-0.050079345703125,-0.1070556640625
1761838420826101000,1.83110107421875,-0.99383544921875,-0.051788330078125,-0.1026763916015625
1761838420836170000,1.841169921875,-0.99365234375,-0.0532073974609375,-0.0970458984375
1761838420846240000,1.851239990234375,-0.99774169921875,-0.0508575439453125,-0.0904998779296875
1761838420856309000,1.86130908203125,-0.995513916015625,-0.0507659912109375,-0.0922088623046875
1761838420866379000,1.87137890625,-0.9935455322265625,-0.0511474609375,-0.096221923828125
1761838420876448000,1.881447998046875,-0.995269775390625,-0.0491943359375,-0.10003662109375
1761838420886518000,1.89151806640625,-0.9987030029296875,-0.0498504638671875,-0.103363037109375
1761838420896587000,1.9015869140625,-1.0003509521484375,-0.049224853515625,-0.107208251953125
1761838420906656000,1.911656005859375,-1.0001220703125,-0.0486602783203125,-0.109130859375
1761838420916725800,1.921725830078125,-1.0028533935546875,-0.0465850830078125,-0.107879638671875
1761838420926795000,1.931794921875,-1.00775146484375,-0.0460052490234375,-0.105072021484375
1761838420936865000,1.941864990234375,-1.010498046875,-0.046600341796875,-0.1023406982421875
1761838420946934000,1.95193408203125,-1.008819580078125,-0.04180908203125,-0.1029205322265625
1761838420957004000,1.962004150390625,-1.00225830078125,-0.0409698486328125,-0.107452392578125
1761838420967073000,1.972072998046875,-1.0001373291015625,-0.042266845703125,-0.1113433837890625
1761838420977141800,1.982141845703125,-0.999786376953125,-0.043975830078125,-0.1147003173828125
1761838420987212000,1.9922119140625,-0.9952545166015625,-0.0457611083984375,-0.1153106689453125
1761838420997281000,2.002281005859375,-0.9937744140625,-0.046417236328125,-0.1116790771484375
1761838421007351000,2.01235107421875,-0.9927825927734375,-0.0479736328125,-0.108642578125
1761838421017420000,2.022419921875,-0.9932098388671875,-0.0482940673828125,-0.1060028076171875
1761838421027489800,2.03248974609375,-0.9912872314453125,-0.0482940673828125,-0.106170654296875
1761838421037559000,2.04255908203125,-0.9900665283203125,-0.049407958984375,-0.106536865234375
1761838421047628800,2.05262890625,-0.988555908203125,-0.05078125,-0.107879638671875
1761838421057698000,2.062697998046875,-0.987823486328125,-0.0530548095703125,-0.108245849609375
1761838421067766800,2.072766845703125,-0.98895263671875,-0.052886962890625,-0.1090545654296875
1761838421077837000,2.082837158203125,-0.9854583740234375,-0.0513458251953125,-0.111846923828125
1761838421087905800,2.09290576171875,-0.98406982421875,-0.046417236328125,-0.1152801513671875
1761838421097976000,2.10297607421875,-0.9883880615234375,-0.043914794921875,-0.1165924072265625
1761838421108044800,2.113044921875,-0.9849090576171875,-0.0469512939453125,-0.1186676025390625
1761838421118115000,2.123114990234375,-0.985809326171875,-0.04547119140625,-0.118438720703125
1761838421128184000,2.13318408203125,-0.9893951416015625,-0.0475921630859375,-0.1154022216796875
1761838421138253000,2.143253173828125,-0.991973876953125,-0.0487518310546875,-0.115081787109375
1761838421148323000,2.153322998046875,-0.9906158447265625,-0.0493621826171875,-0.1185455322265625
1761838421158392000,2.16339208984375,-0.9906768798828125,-0.0518951416015625,-0.1193084716796875
1761838421168462000,2.173462158203125,-0.993743896484375,-0.0524444580078125,-0.1218719482421875
1761838421178530800,2.18353076171875,-0.9912567138671875,-0.0529937744140625,-0.122344970703125
1761838421188601000,2.19360107421875,-0.9880218505859375,-0.0523223876953125,-0.117919921875
1761838421198669800,2.203669921875,-0.991180419921875,-0.053680419921875,-0.1130828857421875
1761838421208740000,2.213739990234375,-0.993377685546875,-0.0556793212890625,-0.110626220703125
1761838421218808800,2.223808837890625,-0.991485595703125,-0.0548858642578125,-0.1082916259765625
1761838421228878000,2.233878173828125,-0.9915771484375,-0.05517578125,-0.1092987060546875
1761838421238947800,2.24394775390625,-0.99188232421875,-0.0545501708984375,-0.109771728515625
1761838421249017000,2.25401708984375,-0.99310302734375,-0.0517425537109375,-0.10833740234375
1761838421259087000,2.264087158203125,-0.99444580078125,-0.0521087646484375,-0.1060333251953125
1761838421269156000,2.274156005859375,-0.993133544921875,-0.0518035888671875,-0.1068267822265625
1761838421279226000,2.28422607421875,-0.99139404296875,-0.0517578125,-0.108856201171875
1761838421289294800,2.294294921875,-0.994049072265625,-0.053131103515625,-0.1089324951171875
1761838421299364000,2.304364013671875,-0.99676513671875,-0.0521240234375,-0.1102142333984375
1761838421309433900,2.314433837890625,-0.99853515625,-0.0483856201171875,-0.1134033203125
1761838421319503000,2.324503173828125,-0.9995269775390625,-0.04791259765625,-0.11578369140625
1761838421329572900,2.33457275390625,-1.0009002685546875,-0.0490264892578125,-0.119232177734375
1761838421339642000,2.34464208984375,-1.0018768310546875,-0.0523223876953125,-0.1190185546875
1761838421349712000,2.3547119140625,-0.9998321533203125,-0.052337646484375,-0.1199951171875
1761838421359781000,2.364781005859375,-0.995941162109375,-0.051422119140625,-0.12005615234375
1761838421369849900,2.374849853515625,-0.9895477294921875,-0.050628662109375,-0.11798095703125
1761838421379920100,2.384920166015625,-0.984130859375,-0.0540313720703125,-0.1134490966796875
1761838421389988900,2.39498876953125,-0.9835052490234375,-0.0550537109375,-0.1117095947265625
1761838421400059000,2.405058837890625,-0.982666015625,-0.0570068359375,-0.110626220703125
1761838421410128000,2.4151279296875,-0.9879608154296875,-0.0567626953125,-0.10748291015625
1761838421420198000,2.425197998046875,-0.9935760498046875,-0.0565032958984375,-0.107421875
1761838421430267000,2.435266845703125,-0.99200439453125,-0.055450439453125,-0.1088104248046875
1761838421440336000,2.4453359375,-0.99395751953125,-0.054595947265625,-0.112701416015625
1761838421450406100,2.45540625,-0.9954833984375,-0.05694580078125,-0.114288330078125
1761838421460475000,2.465474853515625,-0.9941558837890625,-0.0550994873046875,-0.1173248291015625
1761838421470545200,2.475545166015625,-0.9943389892578125,-0.0552978515625,-0.11590576171875
1761838421480614000,2.48561376953125,-0.9986114501953125,-0.0552215576171875,-0.1123809814453125
1761838421490684200,2.49568408203125,-1.00079345703125,-0.0548248291015625,-0.109283447265625
1761838421500753000,2.5057529296875,-1.0015106201171875,-0.0542144775390625,-0.109344482421875
1761838421510822100,2.515822265625,-1.003143310546875,-0.0534210205078125,-0.1104278564453125
1761838421520892000,2.525891845703125,-1.0009613037109375,-0.0536956787109375,-0.113128662109375
1761838421530961200,2.535961181640625,-1.001983642578125,-0.0558624267578125,-0.116119384765625
1761838421541031000,2.546031005859375,-1.001373291015625,-0.0579986572265625,-0.11669921875
1761838421551100000,2.556099853515625,-0.999908447265625,-0.058074951171875,-0.1178131103515625
1761838421561170000,2.566169921875,-0.9969024658203125,-0.056243896484375,-0.118072509765625
1761838421571239000,2.576239013671875,-0.9951019287109375,-0.0554656982421875,-0.117156982421875
1761838421581308000,2.586307861328125,-0.9936981201171875,-0.054107666015625,-0.1146240234375
1761838421591378000,2.5963779296875,-0.9869232177734375,-0.05328369140625,-0.1147003173828125
1761838421601447000,2.606447021484375,-0.9845733642578125,-0.05450439453125,-0.1150360107421875
1761838421611517000,2.616516845703125,-0.9834442138671875,-0.0543670654296875,-0.114715576171875
1761838421621586200,2.626586181640625,-0.980560302734375,-0.054656982421875,-0.114044189453125
1761838421631656000,2.636656005859375,-0.9786834716796875,-0.0536956787109375,-0.1157073974609375
1761838421641725200,2.64672509765625,-0.9788055419921875,-0.0528717041015625,-0.11895751953125
1761838421651794000,2.6567939453125,-0.977813720703125,-0.05242919921875,-0.1233367919921875
1761838421661864000,2.666864013671875,-0.9748077392578125,-0.053863525390625,-0.127471923828125
1761838421671933000,2.676932861328125,-0.975250244140625,-0.0559844970703125,-0.1296234130859375
1761838421682003000,2.6870029296875,-0.97564697265625,-0.0583038330078125,-0.130889892578125
1761838421692072000,2.697072021484375,-0.9769287109375,-0.057769775390625,-0.131256103515625
1761838421702142000,2.707141845703125,-0.97601318359375,-0.057098388671875,-0.1302947998046875
1761838421712211000,2.7172109375,-0.9805450439453125,-0.05853271484375,-0.1278533935546875
1761838421722280000,2.727280029296875,-0.985260009765625,-0.0572509765625,-0.1241912841796875
1761838421732350000,2.737349853515625,-0.989410400390625,-0.056915283203125,-0.1183624267578125
1761838421742419000,2.7474189453125,-0.9940185546875,-0.0565185546875,-0.1125640869140625
1761838421752489200,2.7574892578125,-0.9964599609375,-0.0578155517578125,-0.1092071533203125
1761838421762558000,2.767557861328125,-0.9993438720703125,-0.059814453125,-0.107635498046875
1761838421772628000,2.7776279296875,-1.002716064453125,-0.05804443359375,-0.10552978515625
1761838421782697000,2.787697021484375,-1.0041351318359375,-0.0586395263671875,-0.10595703125
1761838421792766000,2.797765869140625,-1.0041656494140625,-0.057403564453125,-0.1081695556640625
1761838421802835700,2.807835693359375,-1.00604248046875,-0.0575714111328125,-0.1096038818359375
1761838421812905000,2.817905029296875,-1.007843017578125,-0.0567474365234375,-0.1084747314453125
1761838421822974700,2.827974609375,-1.009735107421875,-0.0543060302734375,-0.1075286865234375
1761838421833043700,2.838043701171875,-1.0055389404296875,-0.053863525390625,-0.109405517578125
1761838421843113700,2.84811376953125,-1.002349853515625,-0.0536651611328125,-0.111602783203125
1761838421853182700,2.8581826171875,-0.9987640380859375,-0.0542144775390625,-0.1141510009765625
1761838421863251700,2.868251708984375,-0.9980316162109375,-0.053863525390625,-0.115081787109375
1761838421873321700,2.87832177734375,-0.9951171875,-0.05419921875,-0.1156768798828125
1761838421883390700,2.888390625,-0.9932861328125,-0.055572509765625,-0.1148834228515625
1761838421893460700,2.898460693359375,-0.992401123046875,-0.056427001953125,-0.1146392822265625
1761838421903530000,2.908530029296875,-0.99078369140625,-0.0565338134765625,-0.1149139404296875
1761838421913598700,2.9185986328125,-0.98968505859375,-0.0566253662109375,-0.1141815185546875
1761838421923668700,2.928668701171875,-0.98980712890625,-0.0546875,-0.1141357421875
1761838421933737700,2.93873779296875,-0.9887542724609375,-0.055694580078125,-0.1153411865234375
1761838421943807700,2.948807861328125,-0.98907470703125,-0.0564117431640625,-0.1170806884765625
1761838421953876700,2.958876708984375,-0.989898681640625,-0.0552825927734375,-0.1211700439453125
1761838421963946800,2.96894677734375,-0.9879608154296875,-0.0542755126953125,-0.1224365234375
1761838421974015700,2.979015625,-0.9899749755859375,-0.0535736083984375,-0.1201019287109375
1761838421984084700,2.989084716796875,-0.9925994873046875,-0.0540008544921875,-0.118865966796875
1761838421994154800,2.99915478515625,-0.992645263671875,-0.0561065673828125,-0.118377685546875
1761838422004223700,3.0092236328125,-0.9912872314453125,-0.056365966796875,-0.1173553466796875
1761838422014293800,3.019293701171875,-0.9893798828125,-0.056427001953125,-0.115753173828125
1761838422024362800,3.02936279296875,-0.98651123046875,-0.0553131103515625,-0.11407470703125
1761838422034432800,3.039432861328125,-0.9889678955078125,-0.055908203125,-0.11444091796875
1761838422044501800,3.049501708984375,-0.988677978515625,-0.0547943115234375,-0.11444091796875
1761838422054570800,3.05957080078125,-0.9889678955078125,-0.0536651611328125,-0.1151123046875
1761838422064640800,3.069640869140625,-0.991119384765625,-0.05322265625,-0.1165924072265625
1761838422074709800,3.079709716796875,-0.9924163818359375,-0.0526580810546875,-0.1185760498046875
1761838422084779800,3.08977978515625,-0.9935455322265625,-0.05352783203125,-0.1215057373046875
1761838422094848800,3.099848876953125,-0.9936676025390625,-0.053619384765625,-0.1239013671875
1761838422104917800,3.109917724609375,-0.99591064453125,-0.0541839599609375,-0.122650146484375
1761838422114987800,3.11998779296875,-0.9959259033203125,-0.0536651611328125,-0.122161865234375
1761838422125056800,3.130056884765625,-0.995574951171875,-0.055572509765625,-0.1227264404296875
1761838422135126800,3.140126708984375,-0.9950103759765625,-0.0555267333984375,-0.121368408203125
1761838422145195800,3.15019580078125,-0.993194580078125,-0.05609130859375,-0.1208038330078125
1761838422155265800,3.160265869140625,-0.99102783203125,-0.0550537109375,-0.1192626953125
1761838422165334800,3.170334716796875,-0.99090576171875,-0.0552825927734375,-0.1165008544921875
1761838422175403800,3.18040380859375,-0.989349365234375,-0.0562896728515625,-0.1149749755859375
1761838422185473800,3.190473876953125,-0.9873046875,-0.056854248046875,-0.1133270263671875
1761838422195542800,3.200542724609375,-0.987945556640625,-0.0568695068359375,-0.1113128662109375
1761838422205612500,3.210612548828125,-0.9884185791015625,-0.0574951171875,-0.1117401123046875
1761838422215681800,3.220681884765625,-0.991485595703125,-0.0572509765625,-0.11163330078125
1761838422225751800,3.230751708984375,-0.992828369140625,-0.055267333984375,-0.1124114990234375
1761838422235820800,3.24082080078125,-0.9940032958984375,-0.0557708740234375,-0.1125640869140625
1761838422245889500,3.2508896484375,-0.9923858642578125,-0.053131103515625,-0.1158447265625
1761838422255959800,3.260959716796875,-0.98944091796875,-0.054046630859375,-0.11859130859375
1761838422266028800,3.27102880859375,-0.9907379150390625,-0.05621337890625,-0.1178436279296875
1761838422276098800,3.281098876953125,-0.9929351806640625,-0.0570068359375,-0.115997314453125
1761838422286167800,3.291167724609375,-0.991943359375,-0.060699462890625,-0.11676025390625
1761838422296236800,3.30123681640625,-0.98931884765625,-0.056915283203125,-0.11834716796875
1761838422306306800,3.311306884765625,-0.9982147216796875,-0.0476531982421875,-0.11944580078125
1761838422316375800,3.321375732421875,-0.997528076171875,-0.0550994873046875,-0.1207275390625
1761838422326445800,3.33144580078125,-1.00006103515625,-0.05322265625,-0.124053955078125
1761838422336514800,3.341514892578125,-0.99835205078125,-0.0538482666015625,-0.1267547607421875
1761838422346584800,3.351584716796875,-0.9972991943359375,-0.054412841796875,-0.1266937255859375
1761838422356653600,3.361653564453125,-0.9962158203125,-0.05487060546875,-0.1250152587890625
1761838422366722800,3.371722900390625,-0.9939117431640625,-0.0551605224609375,-0.1214599609375
1761838422376792600,3.38179248046875,-0.99267578125,-0.0549774169921875,-0.1148834228515625
1761838422386861800,3.39186181640625,-0.9936676025390625,-0.0566558837890625,-0.110321044921875
1761838422396931600,3.401931640625,-0.993408203125,-0.059173583984375,-0.10784912109375
1761838422407000800,3.412000732421875,-0.9932708740234375,-0.0592041015625,-0.109039306640625
1761838422417069600,3.422069580078125,-0.9916839599609375,-0.0580596923828125,-0.1107635498046875
1761838422427139800,3.432139892578125,-0.990478515625,-0.058349609375,-0.1119537353515625
1761838422437208600,3.44220849609375,-0.9902191162109375,-0.05816650390625,-0.11480712890625
1761838422447278800,3.45227880859375,-0.9878387451171875,-0.0591583251953125,-0.1162567138671875
1761838422457347800,3.462347900390625,-0.9876708984375,-0.0579376220703125,-0.117156982421875
1761838422467417600,3.47241748046875,-0.9910430908203125,-0.057342529296875,-0.1181640625
1761838422477486800,3.48248681640625,-0.992095947265625,-0.0558929443359375,-0.11993408203125
1761838422487555800,3.492555908203125,-0.9926910400390625,-0.0542755126953125,-0.1213531494140625
1761838422497625900,3.5026259765625,-0.9917755126953125,-0.0549163818359375,-0.12457275390625
1761838422507694800,3.51269482421875,-0.989776611328125,-0.0559234619140625,-0.1279144287109375
1761838422517764900,3.522764892578125,-0.9886016845703125,-0.0564422607421875,-0.1295318603515625
1761838422527833600,3.53283349609375,-0.986968994140625,-0.056182861328125,-0.126739501953125
1761838422537902800,3.54290283203125,-0.986358642578125,-0.0572509765625,-0.1244049072265625
1761838422547972600,3.55297265625,-0.988494873046875,-0.0576171875,-0.1193084716796875
1761838422558041900,3.563041748046875,-0.9878387451171875,-0.0584564208984375,-0.11651611328125
1761838422568111600,3.573111572265625,-0.9868621826171875,-0.0565185546875,-0.1125335693359375
1761838422578180900,3.583180908203125,-0.9923858642578125,-0.057403564453125,-0.1116180419921875
1761838422588251000,3.5932509765625,-0.99188232421875,-0.059326171875,-0.113037109375
1761838422598319900,3.60331982421875,-0.990692138671875,-0.062286376953125,-0.11077880859375
1761838422608388600,3.613388671875,-0.9914703369140625,-0.0634002685546875,-0.1064910888671875
1761838422618458600,3.623458740234375,-0.9884796142578125,-0.062652587890625,-0.1058349609375
1761838422628527900,3.63352783203125,-0.985595703125,-0.0629119873046875,-0.1077423095703125
1761838422638597600,3.64359765625,-0.983001708984375,-0.06268310546875,-0.1074066162109375
1761838422648667000,3.6536669921875,-0.9831695556640625,-0.063323974609375,-0.1068267822265625
1761838422658735900,3.66373583984375,-0.984130859375,-0.0640869140625,-0.1062164306640625
1761838422668806000,3.673805908203125,-0.983917236328125,-0.0649261474609375,-0.108062744140625
1761838422678874600,3.68387451171875,-0.98822021484375,-0.0636138916015625,-0.108856201171875
1761838422688945000,3.69394482421875,-0.9942779541015625,-0.060302734375,-0.1125640869140625
1761838422699013600,3.704013671875,-1.0045013427734375,-0.0525665283203125,-0.118560791015625
1761838422709083000,3.714082763671875,-1.001129150390625,-0.0505218505859375,-0.1206512451171875
1761838422719152600,3.724152587890625,-1.008270263671875,-0.0484771728515625,-0.1217041015625
1761838422729222000,3.734221923828125,-1.0109405517578125,-0.0478363037109375,-0.1230010986328125
1761838422739291600,3.744291748046875,-1.0063629150390625,-0.0467529296875,-0.123382568359375
1761838422749361000,3.75436083984375,-1.004913330078125,-0.04559326171875,-0.121337890625
1761838422759430700,3.7644306640625,-1.005218505859375,-0.0475921630859375,-0.1185455322265625
1761838422769500000,3.7745,-1.0041046142578125,-0.0487060546875,-0.1156463623046875
1761838422779568600,3.784568603515625,-0.999420166015625,-0.0465240478515625,-0.113311767578125
1761838422789639700,3.7946396484375,-1.000030517578125,-0.0469818115234375,-0.1124420166015625
1761838422799708700,3.804708740234375,-1.0007781982421875,-0.0478668212890625,-0.1128082275390625
1761838422809778700,3.81477880859375,-0.999176025390625,-0.04766845703125,-0.1157989501953125
1761838422819847700,3.82484765625,-0.9976043701171875,-0.0485992431640625,-0.1175384521484375
1761838422829916700,3.834916748046875,-0.9967193603515625,-0.04864501953125,-0.1220245361328125
1761838422839986700,3.844986572265625,-0.992431640625,-0.04931640625,-0.1251983642578125
1761838422850055700,3.8550556640625,-0.9933624267578125,-0.051849365234375,-0.123748779296875
1761838422860125400,3.86512548828125,-0.9967498779296875,-0.0531005859375,-0.1208343505859375
1761838422870194700,3.875194580078125,-0.9966583251953125,-0.05426025390625,-0.119903564453125
1761838422880263700,3.885263671875,-0.99371337890625,-0.0535430908203125,-0.12103271484375
1761838422890333700,3.895333740234375,-0.99224853515625,-0.0545654296875,-0.1205291748046875
1761838422900402400,3.90540234375,-0.9896240234375,-0.05706787109375,-0.117889404296875
1761838422910472700,3.91547265625,-0.989501953125,-0.0590667724609375,-0.116180419921875
1761838422920541400,3.92554150390625,-0.9876251220703125,-0.059844970703125,-0.1153717041015625
1761838422930610700,3.935610595703125,-0.98876953125,-0.060455322265625,-0.1136016845703125
1761838422940680700,3.9456806640625,-0.989410400390625,-0.0584564208984375,-0.11431884765625
1761838422950749700,3.955749755859375,-0.9879608154296875,-0.0570220947265625,-0.1174468994140625
1761838422960819700,3.96581982421875,-0.9856414794921875,-0.0552978515625,-0.12078857421875
1761838422970888700,3.975888671875,-0.9856719970703125,-0.054229736328125,-0.1228485107421875
1761838422980958700,3.985958740234375,-0.9838714599609375,-0.052825927734375,-0.12408447265625
1761838422991027700,3.99602783203125,-0.9814910888671875,-0.05230712890625,-0.124542236328125
1761838423001094700,4.0060947265625,-0.9830322265625,-0.05352783203125,-0.1225433349609375
1761838423011164700,4.01616455078125,-0.98358154296875,-0.052978515625,-0.121917724609375
1761838423021233700,4.026233642578125,-0.9862060546875,-0.05303955078125,-0.123870849609375
1761838423031303700,4.0363037109375,-0.98675537109375,-0.05181884765625,-0.1257781982421875
1761838423041372400,4.046372314453125,-0.9899444580078125,-0.0513916015625,-0.12774658203125
1761838423051441700,4.056441650390625,-0.9932861328125,-0.0513916015625,-0.130279541015625
1761838423061511700,4.06651171875,-0.9934539794921875,-0.0504150390625,-0.133331298828125
1761838423071580700,4.07658056640625,-0.9927825927734375,-0.05126953125,-0.1351165771484375
1761838423081650700,4.086650634765625,-0.9923248291015625,-0.0528106689453125,-0.134552001953125
1761838423091719700,4.0967197265625,-0.99176025390625,-0.0537567138671875,-0.1318817138671875
1761838423101788700,4.10678857421875,-0.9914093017578125,-0.050750732421875,-0.1283111572265625
1761838423111858700,4.116858642578125,-0.992950439453125,-0.0504608154296875,-0.126556396484375
1761838423121927700,4.126927734375,-0.992828369140625,-0.05267333984375,-0.1243743896484375
1761838423131997700,4.136997802734375,-0.9929656982421875,-0.0531463623046875,-0.1247100830078125
1761838423142066700,4.147066650390625,-0.99432373046875,-0.052703857421875,-0.12457275390625
1761838423152135700,4.1571357421875,-0.9934234619140625,-0.0534515380859375,-0.1239166259765625
1761838423162205700,4.167205810546875,-0.9930572509765625,-0.055145263671875,-0.1248931884765625
1761838423172274700,4.177274658203125,-0.9904937744140625,-0.0552520751953125,-0.1271209716796875
1761838423182344700,4.1873447265625,-0.98907470703125,-0.0558929443359375,-0.1270904541015625
1761838423192413700,4.19741357421875,-0.9862518310546875,-0.0573883056640625,-0.1280517578125
1761838423202483700,4.207483642578125,-0.98187255859375,-0.05810546875,-0.128326416015625
1761838423212552400,4.217552490234375,-0.98193359375,-0.0595550537109375,-0.1288299560546875
1761838423222621700,4.22762158203125,-0.9845123291015625,-0.0599212646484375,-0.12725830078125
1761838423232691500,4.23769140625,-0.983367919921875,-0.0594482421875,-0.127349853515625
1761838423242760700,4.2477607421875,-0.985443115234375,-0.0594940185546875,-0.1279754638671875
1761838423252830700,4.257830810546875,-0.98626708984375,-0.057525634765625,-0.1288604736328125
1761838423262899700,4.267899658203125,-0.9899749755859375,-0.0578155517578125,-0.1277618408203125
1761838423272968400,4.277968505859375,-0.9888916015625,-0.0573883056640625,-0.1289825439453125
1761838423283038700,4.288038818359375,-0.9882965087890625,-0.0579071044921875,-0.1303558349609375
1761838423293107700,4.298107666015625,-0.992095947265625,-0.0572662353515625,-0.1306304931640625
1761838423303177500,4.308177490234375,-0.9990234375,-0.0564727783203125,-0.1291961669921875
1761838423313246700,4.318246826171875,-1.003082275390625,-0.0551605224609375,-0.1305084228515625
1761838423323315700,4.328315673828125,-1.0043487548828125,-0.0524444580078125,-0.1314697265625
1761838423333385700,4.3383857421875,-1.005615234375,-0.0508880615234375,-0.129730224609375
1761838423343454700,4.348454833984375,-1.005584716796875,-0.0511474609375,-0.1265716552734375
1761838423353524700,4.358524658203125,-1.0016937255859375,-0.05029296875,-0.12493896484375
1761838423363593500,4.368593505859375,-0.9964447021484375,-0.052703857421875,-0.123870849609375
1761838423373662700,4.378662841796875,-0.9925537109375,-0.055572509765625,-0.1223907470703125
1761838423383732500,4.388732421875,-0.9899749755859375,-0.057159423828125,-0.121063232421875
1761838423393801700,4.3988017578125,-0.9853668212890625,-0.0573883056640625,-0.12158203125
1761838423403871500,4.40887158203125,-0.982208251953125,-0.0576324462890625,-0.1225433349609375
1761838423413940700,4.418940673828125,-0.9790496826171875,-0.0576324462890625,-0.1245269775390625
1761838423424010800,4.4290107421875,-0.976898193359375,-0.0561981201171875,-0.1232147216796875
1761838423434079700,4.439079833984375,-0.9770660400390625,-0.0558624267578125,-0.1224822998046875
1761838423444148500,4.4491484375,-0.9797515869140625,-0.0562591552734375,-0.125030517578125
1761838423454218800,4.45921875,-0.97918701171875,-0.056549072265625,-0.1290283203125
1761838423464287700,4.469287841796875,-0.9794464111328125,-0.0576171875,-0.132354736328125
1761838423474357500,4.479357421875,-0.982513427734375,-0.0564117431640625,-0.131439208984375
1761838423484426800,4.4894267578125,-0.9836273193359375,-0.0557861328125,-0.131927490234375
1761838423494495700,4.499495849609375,-0.9853515625,-0.055206298828125,-0.1309051513671875
1761838423504565800,4.509565673828125,-0.9907073974609375,-0.05291748046875,-0.1286773681640625
1761838423514634500,4.519634521484375,-0.9960479736328125,-0.0528411865234375,-0.12579345703125
1761838423524704800,4.529704833984375,-0.9995880126953125,-0.0538482666015625,-0.1249847412109375
1761838423534773500,4.5397734375,-1.002899169921875,-0.0533599853515625,-0.1246795654296875
1761838423544842800,4.5498427734375,-1.004425048828125,-0.0530548095703125,-0.1235504150390625
1761838423554912500,4.55991259765625,-1.00274658203125,-0.0494842529296875,-0.122894287109375
1761838423564981800,4.569981689453125,-1.0005340576171875,-0.05078125,-0.1225738525390625
1761838423575051500,4.580051513671875,-0.9959869384765625,-0.052703857421875,-0.12347412109375
1761838423585120800,4.590120849609375,-0.993408203125,-0.0543212890625,-0.1220855712890625
1761838423595189500,4.600189453125,-0.992431640625,-0.0533447265625,-0.1223907470703125
1761838423605259800,4.610259765625,-0.99114990234375,-0.0541839599609375,-0.1218414306640625
1761838423615328500,4.62032861328125,-0.992645263671875,-0.0536041259765625,-0.1229400634765625
1761838423625398500,4.6303984375,-0.995269775390625,-0.0526885986328125,-0.1234893798828125
1761838423635468800,4.64046875,-0.9947052001953125,-0.051055908203125,-0.1247711181640625
1761838423645538600,4.65053857421875,-0.9909515380859375,-0.051239013671875,-0.1255950927734375
1761838423655607800,4.66060791015625,-0.989593505859375,-0.05322265625,-0.12451171875
1761838423665677600,4.670677490234375,-0.9898834228515625,-0.054107666015625,-0.1224212646484375
1761838423675746600,4.68074658203125,-0.9884490966796875,-0.054229736328125,-0.12060546875
1761838423685815600,4.690815673828125,-0.9861907958984375,-0.055694580078125,-0.1223907470703125
1761838423695885600,4.700885498046875,-0.9843902587890625,-0.0570220947265625,-0.1242523193359375
1761838423705954600,4.71095458984375,-0.98614501953125,-0.0576019287109375,-0.124908447265625
1761838423716024600,4.721024658203125,-0.9895782470703125,-0.0563201904296875,-0.124542236328125
1761838423726093600,4.731093505859375,-0.9915313720703125,-0.0551910400390625,-0.124114990234375
1761838423736163600,4.74116357421875,-0.9921722412109375,-0.0541839599609375,-0.1245880126953125
1761838423746232800,4.75123291015625,-0.993743896484375,-0.054107666015625,-0.12359619140625
1761838423756301600,4.761301513671875,-0.9941253662109375,-0.054351806640625,-0.123626708984375
1761838423766371800,4.771371826171875,-0.999176025390625,-0.0549468994140625,-0.1215972900390625
1761838423776440600,4.781440673828125,-0.9961090087890625,-0.0563507080078125,-0.1185302734375
1761838423786510600,4.791510498046875,-0.99688720703125,-0.055419921875,-0.11834716796875
1761838423796580000,4.801580078125,-0.995208740234375,-0.05615234375,-0.1186065673828125
1761838423806649000,4.811649169921875,-0.9904022216796875,-0.05645751953125,-0.1185150146484375
1761838423816719000,4.821718994140625,-0.9899444580078125,-0.055877685546875,-0.116729736328125
1761838423826787800,4.831787841796875,-0.9900054931640625,-0.05621337890625,-0.116302490234375
1761838423836858000,4.841858154296875,-0.9898834228515625,-0.057586669921875,-0.118194580078125
1761838423846926800,4.8519267578125,-0.9893798828125,-0.057373046875,-0.12042236328125
1761838423856996000,4.86199609375,-0.9904937744140625,-0.054931640625,-0.1204986572265625
1761838423867065900,4.87206591796875,-0.992645263671875,-0.0551300048828125,-0.121063232421875
1761838423877135000,4.882135009765625,-0.993682861328125,-0.05487060546875,-0.1200714111328125
1761838423887205000,4.892205078125,-0.99371337890625,-0.0530548095703125,-0.119964599609375
1761838423897274000,4.902274169921875,-0.9936065673828125,-0.05499267578125,-0.1210174560546875
1761838423907344100,4.91234423828125,-0.9926910400390625,-0.057586669921875,-0.119659423828125
1761838423917413000,4.9224130859375,-0.9901885986328125,-0.0578765869140625,-0.1192779541015625
1761838423927482000,4.932482177734375,-0.9890594482421875,-0.058807373046875,-0.117401123046875
1761838423937552000,4.9425517578125,-0.9881744384765625,-0.0570220947265625,-0.1145477294921875
1761838423947621000,4.95262109375,-0.987335205078125,-0.0560150146484375,-0.1126251220703125
1761838423957691000,4.96269091796875,-0.9898529052734375,-0.0562286376953125,-0.1093597412109375
1761838423967760100,4.972760009765625,-0.9922943115234375,-0.0563812255859375,-0.1082000732421875
1761838423977828900,4.982828857421875,-0.996734619140625,-0.0563507080078125,-0.10870361328125
1761838423987899100,4.992899169921875,-1.0016021728515625,-0.0547332763671875,-0.114715576171875
1761838423997968000,5.0029677734375,-0.9991302490234375,-0.0505523681640625,-0.12103271484375
1761838424008038100,5.0130380859375,-1.0007476806640625,-0.0485992431640625,-0.1240386962890625
1761838424018107000,5.02310693359375,-1.000274658203125,-0.047149658203125,-0.1252288818359375
1761838424028176100,5.033176025390625,-0.9977569580078125,-0.0486907958984375,-0.12664794921875
1761838424038246000,5.043245849609375,-0.99639892578125,-0.0503997802734375,-0.127471923828125
1761838424048315100,5.053315185546875,-0.995391845703125,-0.0520172119140625,-0.1260986328125
1761838424058385200,5.06338525390625,-0.9970550537109375,-0.054473876953125,-0.12591552734375
1761838424068454100,5.0734541015625,-0.9969329833984375,-0.0559234619140625,-0.1271209716796875
1761838424078523000,5.08352294921875,-0.99078369140625,-0.0556640625,-0.128448486328125
1761838424088593000,5.093593017578125,-0.98968505859375,-0.05560302734375,-0.1261749267578125
1761838424098662000,5.103661865234375,-0.98748779296875,-0.0549774169921875,-0.12396240234375
1761838424108732000,5.11373193359375,-0.9856109619140625,-0.0560302734375,-0.1204681396484375
1761838424118801200,5.12380126953125,-0.9809112548828125,-0.0576934814453125,-0.117584228515625
1761838424128871000,5.133870849609375,-0.9831085205078125,-0.06011962890625,-0.1151885986328125
1761838424138940200,5.143940185546875,-0.9858245849609375,-0.061676025390625,-0.11529541015625
1761838424149009000,5.1540087890625,-0.9847869873046875,-0.0609283447265625,-0.11602783203125
1761838424159079200,5.1640791015625,-0.9843902587890625,-0.0612030029296875,-0.118072509765625
1761838424169148000,5.17414794921875,-0.9874267578125,-0.0631561279296875,-0.1192169189453125
1761838424179218200,5.18421826171875,-0.988372802734375,-0.0634765625,-0.1190032958984375
1761838424189287000,5.194286865234375,-0.989471435546875,-0.06280517578125,-0.120208740234375
1761838424199356200,5.204356201171875,-0.989410400390625,-0.06317138671875,-0.11895751953125
1761838424209426000,5.214426025390625,-0.9906005859375,-0.061492919921875,-0.116607666015625
1761838424219495200,5.2244951171875,-0.993682861328125,-0.05926513671875,-0.1129150390625
1761838424229565000,5.23456494140625,-0.9957733154296875,-0.058319091796875,-0.11138916015625
1761838424239634000,5.244634033203125,-0.9979248046875,-0.06024169921875,-0.113922119140625
1761838424249703000,5.254702880859375,-0.995758056640625,-0.06182861328125,-0.116302490234375
1761838424259773000,5.26477294921875,-0.99945068359375,-0.0627593994140625,-0.1174468994140625
1761838424269842000,5.274842041015625,-1.0021820068359375,-0.0584259033203125,-0.119384765625
1761838424279912000,5.284911865234375,-0.99810791015625,-0.05517578125,-0.1194000244140625
1761838424289981200,5.294981201171875,-1.0020294189453125,-0.0550384521484375,-0.121978759765625
1761838424300050000,5.3050498046875,-1.000244140625,-0.055511474609375,-0.1235198974609375
1761838424310120200,5.3151201171875,-0.996917724609375,-0.054107666015625,-0.1253662109375
1761838424320189000,5.32518896484375,-0.99737548828125,-0.0556640625,-0.1265411376953125
1761838424330259200,5.33525927734375,-0.9951629638671875,-0.0557861328125,-0.1275634765625
1761838424340328000,5.345327880859375,-0.9910736083984375,-0.0562744140625,-0.129730224609375
1761838424350398000,5.35539794921875,-0.9852294921875,-0.058990478515625,-0.13214111328125
1761838424360467000,5.365467041015625,-0.9806976318359375,-0.0604248046875,-0.131378173828125
1761838424370536200,5.3755361328125,-0.9789276123046875,-0.0607147216796875,-0.1284942626953125
1761838424380606000,5.38560595703125,-0.9742279052734375,-0.061248779296875,-0.1248016357421875
1761838424390675000,5.395675048828125,-0.97332763671875,-0.0604248046875,-0.11944580078125
1761838424400745000,5.405744873046875,-0.976837158203125,-0.060211181640625,-0.1169586181640625
1761838424410814000,5.41581396484375,-0.97998046875,-0.0608673095703125,-0.118438720703125
1761838424420883000,5.425883056640625,-0.985260009765625,-0.0616302490234375,-0.11962890625
1761838424430953000,5.435952880859375,-0.9912872314453125,-0.0594024658203125,-0.1194000244140625
1761838424441022000,5.44602197265625,-0.995147705078125,-0.0597686767578125,-0.118499755859375
1761838424451092000,5.456092041015625,-0.9979400634765625,-0.0606536865234375,-0.1188201904296875
1761838424461161000,5.466160888671875,-1.0013885498046875,-0.061187744140625,-0.1221160888671875
1761838424471231000,5.47623095703125,-1.00299072265625,-0.0592803955078125,-0.1251678466796875
1761838424481300200,5.48630029296875,-1.0029449462890625,-0.057647705078125,-0.126312255859375
1761838424491369000,5.496368896484375,-1.004974365234375,-0.0585174560546875,-0.1266937255859375
1761838424501439000,5.50643896484375,-1.0030059814453125,-0.058349609375,-0.126800537109375
1761838424511508000,5.516508056640625,-0.9999847412109375,-0.0586395263671875,-0.1240386962890625
1761838424521578000,5.526577880859375,-0.998443603515625,-0.0599517822265625,-0.1205291748046875
1761838424531647000,5.53664697265625,-0.9940643310546875,-0.06085205078125,-0.118927001953125
1761838424541716200,5.54671630859375,-0.9887847900390625,-0.061676025390625,-0.1175994873046875
1761838424551786000,5.556785888671875,-0.985198974609375,-0.0622406005859375,-0.1162567138671875
1761838424561855000,5.56685498046875,-0.9842987060546875,-0.06256103515625,-0.1159210205078125
1761838424571925000,5.576925048828125,-0.9843597412109375,-0.0609130859375,-0.11639404296875
1761838424581994000,5.586993896484375,-0.9851531982421875,-0.057525634765625,-0.116729736328125
1761838424592063000,5.59706298828125,-0.9860076904296875,-0.05596923828125,-0.1190185546875
1761838424602133000,5.607133056640625,-0.987823486328125,-0.054901123046875,-0.1219329833984375
1761838424612202000,5.617201904296875,-0.988006591796875,-0.055145263671875,-0.1247711181640625
1761838424622272000,5.62727197265625,-0.99188232421875,-0.0564422607421875,-0.1293182373046875
1761838424632341000,5.637341064453125,-0.991729736328125,-0.0581512451171875,-0.133514404296875
1761838424642411000,5.647410888671875,-0.9910125732421875,-0.0584259033203125,-0.1364593505859375
1761838424652480000,5.65747998046875,-0.9930877685546875,-0.059722900390625,-0.1363677978515625
1761838424662549000,5.667549072265625,-0.993438720703125,-0.0575103759765625,-0.1364898681640625
1761838424672619000,5.677618896484375,-0.9938507080078125,-0.057952880859375,-0.13433837890625
1761838424682688000,5.68768798828125,-0.9936981201171875,-0.05963134765625,-0.129150390625
1761838424692758000,5.697758056640625,-0.9950714111328125,-0.0589752197265625,-0.12371826171875
1761838424702827000,5.707826904296875,-0.9931488037109375,-0.059600830078125,-0.118988037109375
1761838424712896000,5.71789599609375,-0.9926605224609375,-0.0603790283203125,-0.1171875
1761838424722966000,5.727966064453125,-0.9891815185546875,-0.0618133544921875,-0.1178131103515625
1761838424733035000,5.738034912109375,-0.9849700927734375,-0.0629119873046875,-0.1213836669921875
1761838424743105000,5.74810498046875,-0.97882080078125,-0.0631103515625,-0.1227569580078125
1761838424753174000,5.758174072265625,-0.9755706787109375,-0.063934326171875,-0.123565673828125
1761838424763243000,5.768242919921875,-0.9721832275390625,-0.063934326171875,-0.124603271484375
1761838424773313000,5.77831298828125,-0.969573974609375,-0.06243896484375,-0.1231689453125
1761838424783382000,5.788382080078125,-0.9683380126953125,-0.062347412109375,-0.1233978271484375
1761838424793450500,5.798450439453125,-0.9731292724609375,-0.063507080078125,-0.1209259033203125
1761838424803519500,5.80851953125,-0.98431396484375,-0.0624542236328125,-0.1196136474609375
1761838424813589500,5.818589599609375,-0.9927520751953125,-0.058746337890625,-0.1202239990234375
1761838424823658800,5.82865869140625,-0.99951171875,-0.055084228515625,-0.1206512451171875
1761838424833727500,5.8387275390625,-1.0091552734375,-0.052978515625,-0.12237548828125
1761838424843797800,5.8487978515625,-1.0184173583984375,-0.0538482666015625,-0.1256561279296875
1761838424853866500,5.858866455078125,-1.0211181640625,-0.0532989501953125,-0.12811279296875
1761838424863936800,5.868936767578125,-1.0225677490234375,-0.051361083984375,-0.1291961669921875
1761838424874005500,5.879005615234375,-1.0183563232421875,-0.0525054931640625,-0.1267852783203125
1761838424884074800,5.88907470703125,-1.013580322265625,-0.05462646484375,-0.1253204345703125
1761838424894144500,5.89914453125,-1.009307861328125,-0.0567474365234375,-0.1228179931640625
1761838424904213800,5.9092138671875,-1.0031890869140625,-0.0577392578125,-0.1229248046875
1761838424914283500,5.919283447265625,-0.9930572509765625,-0.0601959228515625,-0.12408447265625
1761838424924352800,5.929352783203125,-0.9875946044921875,-0.064788818359375,-0.1235198974609375
1761838424934422500,5.939422607421875,-0.9853515625,-0.0678253173828125,-0.1204376220703125
1761838424944491500,5.949491455078125,-0.979583740234375,-0.068115234375,-0.116302490234375
1761838424954560500,5.959560546875,-0.974853515625,-0.069915771484375,-0.113922119140625
1761838424964630500,5.969630615234375,-0.9750823974609375,-0.07220458984375,-0.11285400390625
1761838424974699500,5.979699462890625,-0.97607421875,-0.0724639892578125,-0.114044189453125
1761838424984769500,5.98976953125,-0.9761199951171875,-0.0745697021484375,-0.1166229248046875
1761838424994838800,5.9998388671875,-0.976287841796875,-0.0732421875,-0.1183013916015625
1761838425004907500,6.009907470703125,-0.9809417724609375,-0.0721435546875,-0.1161651611328125
1761838425014977800,6.019977783203125,-0.9868316650390625,-0.071441650390625,-0.115020751953125
1761838425025046500,6.030046630859375,-0.9913482666015625,-0.071075439453125,-0.11712646484375
1761838425035116800,6.04011669921875,-0.9952545166015625,-0.069671630859375,-0.1201324462890625
1761838425045185500,6.050185546875,-1.000335693359375,-0.06982421875,-0.125152587890625
1761838425055255600,6.060255615234375,-1.003448486328125,-0.06756591796875,-0.1291046142578125
1761838425065324500,6.070324462890625,-1.0029296875,-0.0645751953125,-0.131317138671875
1761838425075393800,6.080393798828125,-1.0026397705078125,-0.0631256103515625,-0.1326141357421875
1761838425085463600,6.090463623046875,-1.00091552734375,-0.062164306640625,-0.1334075927734375
1761838425095532500,6.100532470703125,-0.998382568359375,-0.0621490478515625,-0.13262939453125
1761838425105602600,6.1106025390625,-0.995391845703125,-0.0644073486328125,-0.1305084228515625
1761838425115671600,6.120671630859375,-0.9942169189453125,-0.06719970703125,-0.1279144287109375
1761838425125740500,6.130740478515625,-0.9915618896484375,-0.0678558349609375,-0.1239166259765625
1761838425135810600,6.140810546875,-0.990386962890625,-0.07086181640625,-0.12103271484375
1761838425145879600,6.150879638671875,-0.98687744140625,-0.0713653564453125,-0.1202850341796875
1761838425155949600,6.160949462890625,-0.981597900390625,-0.069244384765625,-0.12152099609375
1761838425166018600,6.1710185546875,-0.97894287109375,-0.0686798095703125,-0.12255859375
1761838425176088600,6.181088623046875,-0.977996826171875,-0.068115234375,-0.1242523193359375
1761838425186157800,6.19115771484375,-0.976715087890625,-0.0689849853515625,-0.12823486328125
1761838425196226600,6.2012265625,-0.9769439697265625,-0.070892333984375,-0.13079833984375
1761838425206296600,6.211296630859375,-0.9765472412109375,-0.0709991455078125,-0.1313323974609375
1761838425216365600,6.221365478515625,-0.979522705078125,-0.071044921875,-0.131591796875
1761838425226435600,6.231435546875,-0.982513427734375,-0.0717926025390625,-0.1326446533203125
1761838425236504600,6.241504638671875,-0.983154296875,-0.0714569091796875,-0.13153076171875
1761838425246573600,6.251573486328125,-0.98748779296875,-0.0695037841796875,-0.129547119140625
1761838425256643600,6.2616435546875,-0.993377685546875,-0.0690460205078125,-0.125701904296875
1761838425266712600,6.271712646484375,-0.9930419921875,-0.0693511962890625,-0.1242828369140625
1761838425276782600,6.281782470703125,-0.99365234375,-0.0704193115234375,-0.1233062744140625
1761838425286851600,6.2918515625,-0.9936065673828125,-0.070770263671875,-0.12347412109375
1761838425296921600,6.301921630859375,-0.9910736083984375,-0.0706024169921875,-0.12322998046875
1761838425306990600,6.311990478515625,-0.98980712890625,-0.0707244873046875,-0.1208648681640625
1761838425317059600,6.3220595703125,-0.988739013671875,-0.0712738037109375,-0.120025634765625
1761838425327129600,6.332129638671875,-0.9926910400390625,-0.0718536376953125,-0.117767333984375
1761838425337198600,6.342198486328125,-0.992340087890625,-0.071807861328125,-0.1201171875
1761838425347268600,6.3522685546875,-0.9912261962890625,-0.0717010498046875,-0.12176513671875
1761838425357337600,6.362337646484375,-0.9926605224609375,-0.070404052734375,-0.123382568359375
1761838425367406600,6.372406494140625,-0.9944000244140625,-0.0703582763671875,-0.123199462890625
1761838425377476600,6.3824765625,-0.9947967529296875,-0.066925048828125,-0.123931884765625
1761838425387545600,6.392545654296875,-0.9933624267578125,-0.06610107421875,-0.125
1761838425397615600,6.40261572265625,-0.9931640625,-0.06695556640625,-0.125457763671875
1761838425407684600,6.4126845703125,-0.9918365478515625,-0.067169189453125,-0.1243896484375
1761838425417754600,6.422754638671875,-0.99169921875,-0.065277099609375,-0.124786376953125
1761838425427823600,6.43282373046875,-0.9905242919921875,-0.0652008056640625,-0.1263275146484375
1761838425437892600,6.442892578125,-0.9867401123046875,-0.0638427734375,-0.126861572265625
1761838425447962600,6.452962646484375,-0.9861907958984375,-0.0650177001953125,-0.1268310546875
1761838425458031600,6.463031494140625,-0.9859466552734375,-0.0659637451171875,-0.1256103515625
1761838425468101400,6.473101318359375,-0.9828643798828125,-0.0654449462890625,-0.126983642578125
1761838425478170600,6.483170654296875,-0.979034423828125,-0.0632476806640625,-0.12884521484375
1761838425488239600,6.493239501953125,-0.9764862060546875,-0.0638427734375,-0.1302032470703125
1761838425498309600,6.5033095703125,-0.977203369140625,-0.0643463134765625,-0.128997802734375
1761838425508378600,6.513378662109375,-0.9705657958984375,-0.058074951171875,-0.131072998046875
1761838425518448600,6.52344873046875,-0.9618377685546875,-0.06451416015625,-0.13287353515625
1761838425528517400,6.533517333984375,-0.96502685546875,-0.06256103515625,-0.125518798828125
1761838425538587600,6.543587646484375,-0.9735107421875,-0.0645751953125,-0.12054443359375
1761838425548656600,6.55365673828125,-0.981903076171875,-0.0711669921875,-0.115692138671875
1761838425558725600,6.5637255859375,-0.987396240234375,-0.0637054443359375,-0.1120758056640625
1761838425568795600,6.573795654296875,-0.993743896484375,-0.0615997314453125,-0.1090087890625
1761838425578864600,6.58386474609375,-1.0042572021484375,-0.0644989013671875,-0.1053619384765625
1761838425588934700,6.5939345703125,-1.00653076171875,-0.0624542236328125,-0.1055908203125
1761838425599003600,6.604003662109375,-1.0101165771484375,-0.063323974609375,-0.1049652099609375
1761838425609072600,6.61407275390625,-1.01904296875,-0.066131591796875,-0.100921630859375
1761838425619142700,6.624142578125,-1.02203369140625,-0.0592498779296875,-0.1043243408203125
1761838425629211600,6.634211669921875,-1.0141448974609375,-0.0595703125,-0.104034423828125
1761838425639281400,6.644281494140625,-1.019012451171875,-0.059478759765625,-0.1008758544921875
1761838425649350700,6.6543505859375,-1.0167388916015625,-0.059722900390625,-0.100799560546875
1761838425659420400,6.66442041015625,-1.01043701171875,-0.06158447265625,-0.10089111328125
1761838425669489700,6.67448974609375,-1.0114898681640625,-0.0642852783203125,-0.0988311767578125
1761838425679558400,6.684558349609375,-1.0128173828125,-0.0694580078125,-0.09503173828125
1761838425689628700,6.694628662109375,-1.00927734375,-0.06982421875,-0.092010498046875
1761838425699697400,6.704697509765625,-1.003814697265625,-0.0677032470703125,-0.0918426513671875
1761838425709767700,6.714767578125,-1.0040130615234375,-0.072357177734375,-0.0914154052734375
1761838425719836700,6.724836669921875,-1.00030517578125,-0.07122802734375,-0.093109130859375
1761838425729905700,6.73490576171875,-0.9959259033203125,-0.0699005126953125,-0.0947418212890625
1761838425739975700,6.7449755859375,-0.9991302490234375,-0.0658416748046875,-0.09320068359375
1761838425750044700,6.755044677734375,-1.0034332275390625,-0.063690185546875,-0.0904693603515625
1761838425760114700,6.76511474609375,-1.003875732421875,-0.063507080078125,-0.099090576171875
1761838425770183700,6.77518359375,-0.996246337890625,-0.061553955078125,-0.1116943359375
1761838425780253700,6.785253662109375,-0.989227294921875,-0.0606842041015625,-0.1255645751953125
1761838425790322700,6.79532275390625,-0.9856719970703125,-0.05963134765625,-0.1357879638671875
1761838425800391700,6.8053916015625,-0.9878997802734375,-0.0533905029296875,-0.1439056396484375
1761838425810461700,6.815461669921875,-0.9791107177734375,-0.0545196533203125,-0.14422607421875
1761838425820530700,6.82553076171875,-0.9867401123046875,-0.05963134765625,-0.13653564453125
1761838425830600700,6.8356005859375,-0.99072265625,-0.06304931640625,-0.1327056884765625
1761838425840669700,6.845669677734375,-0.9960784912109375,-0.0646514892578125,-0.1318511962890625
1761838425850739700,6.85573974609375,-0.998443603515625,-0.0635833740234375,-0.127655029296875
1761838425860808700,6.86580859375,-0.9895782470703125,-0.0606689453125,-0.1246490478515625
1761838425870877700,6.875877685546875,-0.9854736328125,-0.06414794921875,-0.1299591064453125
1761838425880947700,6.88594775390625,-0.9881744384765625,-0.0723419189453125,-0.1325836181640625
1761838425891016700,6.8960166015625,-0.98980712890625,-0.075592041015625,-0.1314849853515625
1761838425901086700,6.906086669921875,-0.9766998291015625,-0.072357177734375,-0.13330078125
1761838425911155700,6.91615576171875,-0.9681396484375,-0.073638916015625,-0.136566162109375
1761838425921225700,6.926225830078125,-0.9716033935546875,-0.07733154296875,-0.1371612548828125
1761838425931294700,6.936294677734375,-0.9799346923828125,-0.0792388916015625,-0.133209228515625
1761838425941363700,6.94636376953125,-0.978546142578125,-0.0765533447265625,-0.127899169921875
1761838425951433700,6.956433837890625,-0.9748382568359375,-0.07220458984375,-0.126953125
1761838425961502700,6.966502685546875,-0.973480224609375,-0.0727996826171875,-0.130523681640625
1761838425971572700,6.97657275390625,-0.9710845947265625,-0.0749359130859375,-0.1330108642578125
1761838425981641700,6.986641845703125,-0.9720611572265625,-0.0751495361328125,-0.134429931640625
1761838425991710700,6.996710693359375,-0.97601318359375,-0.0736083984375,-0.1364288330078125
1761838426001780700,7.00678076171875,-0.97381591796875,-0.0697784423828125,-0.1377716064453125
1761838426011849700,7.016849609375,-0.976104736328125,-0.0623016357421875,-0.1396942138671875
1761838426021919700,7.026919677734375,-0.98040771484375,-0.061492919921875,-0.14654541015625
1761838426031988700,7.03698876953125,-0.9824066162109375,-0.0609588623046875,-0.15570068359375
1761838426042058800,7.047058837890625,-0.97833251953125,-0.0573883056640625,-0.1589202880859375
1761838426052127700,7.057127685546875,-0.9757843017578125,-0.0548858642578125,-0.15643310546875
1761838426062196700,7.06719677734375,-0.985076904296875,-0.0535125732421875,-0.15130615234375
1761838426072266800,7.077266845703125,-0.992218017578125,-0.0550537109375,-0.150970458984375
1761838426082335700,7.087335693359375,-0.99700927734375,-0.0564422607421875,-0.152374267578125
1761838426092405800,7.09740576171875,-0.9957427978515625,-0.05206298828125,-0.14923095703125
1761838426102474800,7.107474853515625,-0.9947967529296875,-0.0481414794921875,-0.142242431640625
1761838426112544800,7.117544677734375,-0.9994049072265625,-0.04840087890625,-0.1348724365234375
1761838426122613800,7.12761376953125,-1.006988525390625,-0.0514373779296875,-0.127532958984375
1761838426132682800,7.137682861328125,-1.01318359375,-0.0511932373046875,-0.1269378662109375
1761838426142752800,7.147752685546875,-1.0108795166015625,-0.05072021484375,-0.1312408447265625
1761838426152821800,7.15782177734375,-1.0077056884765625,-0.0475006103515625,-0.1360321044921875
1761838426162891500,7.1678916015625,-1.0078582763671875,-0.048797607421875,-0.1370391845703125
1761838426172960800,7.177960693359375,-1.0121917724609375,-0.050262451171875,-0.1436004638671875
1761838426183029800,7.18802978515625,-1.0018768310546875,-0.0525360107421875,-0.1470489501953125
1761838426193099800,7.198099853515625,-0.99462890625,-0.052581787109375,-0.14739990234375
1761838426203168500,7.20816845703125,-0.990753173828125,-0.0525360107421875,-0.1477508544921875
1761838426213238800,7.21823876953125,-0.982330322265625,-0.053253173828125,-0.1469573974609375
1761838426223307500,7.2283076171875,-0.974365234375,-0.05438232421875,-0.146026611328125
1761838426233377800,7.238377685546875,-0.9702606201171875,-0.0550384521484375,-0.1436004638671875
1761838426243446800,7.24844677734375,-0.9696044921875,-0.0563507080078125,-0.14166259765625
1761838426253515800,7.258515869140625,-0.970977783203125,-0.05609130859375,-0.141204833984375
1761838426263585800,7.268585693359375,-0.97210693359375,-0.05487060546875,-0.144683837890625
1761838426273654800,7.27865478515625,-0.9789886474609375,-0.053192138671875,-0.14898681640625
1761838426283724800,7.288724853515625,-0.98291015625,-0.0498199462890625,-0.1532745361328125
1761838426293793800,7.298793701171875,-0.984283447265625,-0.048431396484375,-0.157257080078125
1761838426303863800,7.30886376953125,-0.988494873046875,-0.0493927001953125,-0.1561737060546875
1761838426313932500,7.3189326171875,-0.9903564453125,-0.0487518310546875,-0.1549835205078125
1761838426324001800,7.329001708984375,-0.98602294921875,-0.0496368408203125,-0.151336669921875
1761838426334071600,7.339071533203125,-0.983551025390625,-0.0528564453125,-0.14501953125
1761838426344140800,7.349140869140625,-0.9832000732421875,-0.0556488037109375,-0.1403961181640625
1761838426354210600,7.35921044921875,-0.9903717041015625,-0.055694580078125,-0.1349029541015625
1761838426364279800,7.36927978515625,-0.99554443359375,-0.0513153076171875,-0.1324615478515625
1761838426374349800,7.379349853515625,-0.9924774169921875,-0.047454833984375,-0.1328125
1761838426384418800,7.389418701171875,-0.9936065673828125,-0.0474700927734375,-0.138092041015625
1761838426394487600,7.399487548828125,-0.9916534423828125,-0.04986572265625,-0.1435394287109375
1761838426404557800,7.409557861328125,-0.992462158203125,-0.050018310546875,-0.1454315185546875
1761838426414626800,7.419626708984375,-0.9904632568359375,-0.0511932373046875,-0.1456451416015625
1761838426424696600,7.429696533203125,-0.9930572509765625,-0.049407958984375,-0.14874267578125
1761838426434765800,7.439765869140625,-0.990875244140625,-0.050048828125,-0.1505584716796875
1761838426444835600,7.449835693359375,-0.9921722412109375,-0.0504150390625,-0.15069580078125
1761838426454904800,7.45990478515625,-0.990447998046875,-0.053314208984375,-0.1454925537109375
1761838426464973600,7.4699736328125,-0.9967041015625,-0.045989990234375,-0.1487274169921875
1761838426475043800,7.4800439453125,-0.9976348876953125,-0.0514068603515625,-0.1436767578125
1761838426485112600,7.490112548828125,-0.99420166015625,-0.0555572509765625,-0.1436614990234375
1761838426495182800,7.500182861328125,-0.99212646484375,-0.05340576171875,-0.14166259765625
1761838426505251600,7.51025146484375,-0.988525390625,-0.0562591552734375,-0.13861083984375
1761838426515321900,7.52032177734375,-0.98419189453125,-0.0578155517578125,-0.134765625
1761838426525390600,7.530390625,-0.9850921630859375,-0.0584259033203125,-0.1300811767578125
1761838426535459800,7.5404599609375,-0.98333740234375,-0.05841064453125,-0.1288909912109375
1761838426545529900,7.55052978515625,-0.9862213134765625,-0.0573577880859375,-0.12835693359375
1761838426555598800,7.560598876953125,-0.9952392578125,-0.0561370849609375,-0.1287078857421875
1761838426565668900,7.5706689453125,-1.0034332275390625,-0.052764892578125,-0.13226318359375
1761838426575737600,7.580737548828125,-1.0042724609375,-0.050323486328125,-0.1394195556640625
1761838426585808000,7.590807861328125,-1.0018768310546875,-0.0487060546875,-0.1441497802734375
1761838426595876600,7.600876708984375,-1.004425048828125,-0.047821044921875,-0.1477813720703125
1761838426605945900,7.61094580078125,-0.997222900390625,-0.0466156005859375,-0.150848388671875
1761838426616015600,7.621015625,-0.9890594482421875,-0.0474395751953125,-0.15301513671875
1761838426626084900,7.6310849609375,-0.98358154296875,-0.04913330078125,-0.1514129638671875
1761838426636154600,7.641154541015625,-0.9791259765625,-0.0533905029296875,-0.1495819091796875
1761838426646224000,7.651223876953125,-0.977691650390625,-0.0546722412109375,-0.147430419921875
1761838426656293600,7.661293701171875,-0.973419189453125,-0.0528564453125,-0.1493377685546875
1761838426666363000,7.67136279296875,-0.97198486328125,-0.0517730712890625,-0.1509857177734375
1761838426676431600,7.681431640625,-0.973358154296875,-0.0529937744140625,-0.150482177734375
1761838426686501600,7.691501708984375,-0.9786834716796875,-0.0546875,-0.14837646484375
1761838426696570600,7.701570556640625,-0.980743408203125,-0.05438232421875,-0.1461639404296875
1761838426706640600,7.711640625,-0.983673095703125,-0.054840087890625,-0.144989013671875
1761838426716709600,7.721709716796875,-0.987579345703125,-0.0560150146484375,-0.1441650390625
1761838426726778600,7.731778564453125,-0.98468017578125,-0.0554962158203125,-0.1417999267578125
1761838426736849000,7.741848876953125,-0.9892730712890625,-0.0543670654296875,-0.13897705078125
1761838426746917600,7.751917724609375,-0.9957733154296875,-0.0546875,-0.136474609375
1761838426756988000,7.76198779296875,-0.9998626708984375,-0.05279541015625,-0.138092041015625
1761838426767056600,7.772056640625,-1.001190185546875,-0.0505828857421875,-0.1430511474609375
1761838426777127000,7.782126953125,-0.9971923828125,-0.048553466796875,-0.1453094482421875
1761838426787195600,7.792195556640625,-0.9964141845703125,-0.0493316650390625,-0.148223876953125
1761838426797269500,7.80226953125,-0.99542236328125,-0.049835205078125,-0.14764404296875
1761838426807338800,7.8123388671875,-0.988525390625,-0.0516815185546875,-0.1490478515625
1761838426817407500,7.822407470703125,-0.9851226806640625,-0.055419921875,-0.1476593017578125
1761838426827477800,7.832477783203125,-0.9868621826171875,-0.0588531494140625,-0.1493988037109375
1761838426837546500,7.84254638671875,-0.982452392578125,-0.0584716796875,-0.1507415771484375
1761838426847616800,7.85261669921875,-0.98419189453125,-0.0575103759765625,-0.1477813720703125
1761838426857685500,7.862685546875,-0.98876953125,-0.056793212890625,-0.1453857421875
1761838426867755800,7.872755859375,-0.9890594482421875,-0.0550994873046875,-0.1413421630859375
1761838426877824500,7.882824462890625,-0.9912109375,-0.055633544921875,-0.1384429931640625
1761838426887893800,7.892893798828125,-0.9960479736328125,-0.0567779541015625,-0.1364288330078125
1761838426897963500,7.902963623046875,-0.9912261962890625,-0.0581207275390625,-0.1376953125
1761838426908032800,7.91303271484375,-0.9904022216796875,-0.0601348876953125,-0.1378936767578125
1761838426918102500,7.9231025390625,-0.9886016845703125,-0.0576629638671875,-0.1399688720703125
1761838426928171500,7.933171630859375,-0.9874267578125,-0.056793212890625,-0.1387176513671875
1761838426938241500,7.943241455078125,-0.991943359375,-0.0550994873046875,-0.1375885009765625
1761838426948310500,7.953310546875,-0.9957427978515625,-0.0525054931640625,-0.1391754150390625
1761838426958379500,7.963379638671875,-0.9999847412109375,-0.0506439208984375,-0.1413116455078125
1761838426968449500,7.973449462890625,-0.996673583984375,-0.0460357666015625,-0.14703369140625
1761838426978518500,7.9835185546875,-0.991485595703125,-0.0431365966796875,-0.150115966796875
1761838426988588500,7.993588623046875,-0.9881134033203125,-0.0392303466796875,-0.1530914306640625
1761838426998657800,8.00365771484375,-0.9857025146484375,-0.0396728515625,-0.1546173095703125
1761838427008725800,8.013725830078124,-0.9805908203125,-0.0411834716796875,-0.1555023193359375
1761838427018795500,8.02379541015625,-0.9802093505859375,-0.0421600341796875,-0.157684326171875
1761838427028864500,8.033864501953126,-0.9789581298828125,-0.0399932861328125,-0.1569671630859375
1761838427038933500,8.04393359375,-0.977386474609375,-0.03912353515625,-0.15631103515625
1761838427049003500,8.05400341796875,-0.98016357421875,-0.0388946533203125,-0.15643310546875
1761838427059072500,8.064072509765625,-0.97943115234375,-0.0398712158203125,-0.1588287353515625
1761838427069142500,8.074142578125,-0.9747772216796875,-0.04193115234375,-0.1615447998046875
1761838427079211800,8.084211669921874,-0.97760009765625,-0.0447540283203125,-0.163330078125
1761838427089281500,8.094281494140626,-0.9854888916015625,-0.04620361328125,-0.16229248046875
1761838427099350800,8.104350830078126,-0.9908599853515625,-0.0451812744140625,-0.1590576171875
1761838427109419500,8.11441943359375,-0.98944091796875,-0.044281005859375,-0.15496826171875
1761838427119489800,8.12448974609375,-0.9918670654296875,-0.04608154296875,-0.1504669189453125
1761838427129558500,8.13455859375,-0.9949951171875,-0.0483245849609375,-0.1457672119140625
1761838427139628500,8.144628662109374,-0.9891357421875,-0.05126953125,-0.1431732177734375
1761838427149697500,8.154697509765626,-0.9853363037109375,-0.0561676025390625,-0.1438446044921875
1761838427159767600,8.164767578125,-0.9848480224609375,-0.059722900390625,-0.142913818359375
1761838427169836500,8.17483642578125,-0.9874267578125,-0.0594329833984375,-0.141815185546875
1761838427179905500,8.184905517578125,-0.9909820556640625,-0.055999755859375,-0.141754150390625
1761838427189975600,8.1949755859375,-0.9937744140625,-0.05364990234375,-0.142852783203125
1761838427200044500,8.20504443359375,-0.994659423828125,-0.0531158447265625,-0.1447601318359375
1761838427210114800,8.21511474609375,-0.992034912109375,-0.05389404296875,-0.1485137939453125
1761838427220183600,8.22518359375,-0.98590087890625,-0.0527496337890625,-0.1493072509765625
1761838427230253800,8.23525390625,-0.98309326171875,-0.054107666015625,-0.148468017578125
1761838427240322600,8.245322509765625,-0.9830780029296875,-0.0547027587890625,-0.14703369140625
1761838427250392600,8.255392578125,-0.9832611083984375,-0.0533447265625,-0.1453399658203125
1761838427260461600,8.265461669921875,-0.9828948974609375,-0.0512237548828125,-0.14569091796875
1761838427270530800,8.27553076171875,-0.985137939453125,-0.049774169921875,-0.1462249755859375
1761838427280600600,8.2856005859375,-0.9851531982421875,-0.0483245849609375,-0.146575927734375
1761838427290669600,8.295669677734375,-0.988494873046875,-0.0488128662109375,-0.1478424072265625
1761838427300739600,8.305739501953125,-0.9928131103515625,-0.0510101318359375,-0.1467437744140625
1761838427310808600,8.31580859375,-0.9983978271484375,-0.0512542724609375,-0.14385986328125
1761838427320878600,8.325878662109375,-1.0009002685546875,-0.051605224609375,-0.143707275390625
1761838427330947600,8.335947509765624,-1.00030517578125,-0.053619384765625,-0.1466217041015625
1761838427341016600,8.3460166015625,-0.997161865234375,-0.0546112060546875,-0.1488189697265625
1761838427351086600,8.356086669921876,-0.994842529296875,-0.053985595703125,-0.147369384765625
1761838427361155600,8.366155517578125,-0.993072509765625,-0.05352783203125,-0.1453857421875
1761838427371225600,8.3762255859375,-0.9884185791015625,-0.0542755126953125,-0.1416015625
1761838427381294600,8.386294677734375,-0.9852447509765625,-0.05511474609375,-0.1410369873046875
1761838427391364600,8.396364501953125,-0.9828338623046875,-0.0562896728515625,-0.1414642333984375
1761838427401433600,8.40643359375,-0.984649658203125,-0.0579833984375,-0.14080810546875
1761838427411502600,8.416502685546876,-0.9832000732421875,-0.057037353515625,-0.14215087890625
1761838427421572600,8.426572509765625,-0.9819488525390625,-0.0543212890625,-0.1442413330078125
1761838427431641600,8.4366416015625,-0.983795166015625,-0.0531005859375,-0.1474456787109375
1761838427441711600,8.446711669921875,-0.97735595703125,-0.0563507080078125,-0.1508026123046875
1761838427451780600,8.456780517578125,-0.97479248046875,-0.0582275390625,-0.15032958984375
1761838427461850600,8.4668505859375,-0.976654052734375,-0.0590972900390625,-0.146087646484375
1761838427471919600,8.476919677734376,-0.9840087890625,-0.059234619140625,-0.140472412109375
1761838427481988600,8.486988525390625,-0.99176025390625,-0.05767822265625,-0.13958740234375
1761838427492058600,8.49705859375,-0.985504150390625,-0.0517730712890625,-0.142303466796875
1761838427502127600,8.507127685546875,-0.988525390625,-0.0522613525390625,-0.1455535888671875
1761838427512197400,8.517197265625,-0.9949493408203125,-0.0552520751953125,-0.147430419921875
1761838427522266600,8.5272666015625,-0.9907073974609375,-0.0539703369140625,-0.146026611328125
1761838427532336600,8.537336669921874,-0.9943084716796875,-0.053009033203125,-0.1414642333984375
1761838427542405600,8.547405517578126,-1.00335693359375,-0.0514984130859375,-0.140167236328125
1761838427552475600,8.5574755859375,-1.0030517578125,-0.0503082275390625,-0.13934326171875
1761838427562544600,8.567544677734375,-0.998291015625,-0.04925537109375,-0.141021728515625
1761838427572613600,8.577613525390625,-0.9957275390625,-0.0509796142578125,-0.1407318115234375
1761838427582683600,8.58768359375,-0.9873199462890625,-0.053375244140625,-0.1404571533203125
1761838427592752600,8.597752685546874,-0.9814453125,-0.0552978515625,-0.138031005859375
1761838427602822700,8.60782275390625,-0.9822845458984375,-0.05706787109375,-0.136962890625
1761838427612891600,8.6178916015625,-0.9810943603515625,-0.0597991943359375,-0.1380615234375
1761838427622961400,8.62796142578125,-0.9793853759765625,-0.0601043701171875,-0.1400299072265625
1761838427633030700,8.63803076171875,-0.9845428466796875,-0.0581512451171875,-0.1409149169921875
1761838427643099600,8.648099609375,-0.989898681640625,-0.05389404296875,-0.1406402587890625
1761838427653169700,8.658169677734374,-0.9940948486328125,-0.0478668212890625,-0.140777587890625
1761838427663238400,8.66823828125,-0.997406005859375,-0.0457611083984375,-0.14337158203125
1761838427673308700,8.67830859375,-0.9952850341796875,-0.0443267822265625,-0.1458282470703125
1761838427683377400,8.68837744140625,-0.9947967529296875,-0.042755126953125,-0.1448974609375
1761838427693447700,8.69844775390625,-0.9918212890625,-0.0439910888671875,-0.145050048828125
1761838427703516400,8.708516357421875,-0.986968994140625,-0.0467987060546875,-0.1457977294921875
1761838427713586700,8.718586669921875,-0.9799652099609375,-0.049224853515625,-0.1448974609375
1761838427723655700,8.72865576171875,-0.97918701171875,-0.0485076904296875,-0.142852783203125
1761838427733724700,8.738724609375,-0.9798126220703125,-0.047637939453125,-0.143707275390625
1761838427743794700,8.748794677734375,-0.9803009033203125,-0.047576904296875,-0.1434783935546875
1761838427753863700,8.75886376953125,-0.9794769287109375,-0.048736572265625,-0.1426239013671875
1761838427763933700,8.76893359375,-0.9740142822265625,-0.048980712890625,-0.1403045654296875
1761838427774002400,8.77900244140625,-0.98394775390625,-0.0514678955078125,-0.139617919921875
1761838427784072700,8.78907275390625,-0.9815216064453125,-0.054229736328125,-0.136505126953125
1761838427794141400,8.799141357421876,-0.9784698486328125,-0.0570068359375,-0.130889892578125
1761838427804206800,8.809206787109375,-0.977264404296875,-0.0462799072265625,-0.131103515625
1761838427814276900,8.81927685546875,-0.98284912109375,-0.0508880615234375,-0.12969970703125
1761838427824345900,8.829345947265624,-0.9839935302734375,-0.06561279296875,-0.1348419189453125
1761838427834415900,8.839415771484376,-0.9774932861328125,-0.0569305419921875,-0.13433837890625
1761838427844484900,8.84948486328125,-0.9768829345703125,-0.046112060546875,-0.134063720703125
1761838427854555000,8.859554931640625,-0.9855194091796875,-0.051971435546875,-0.1312713623046875
1761838427864623900,8.869623779296875,-0.992034912109375,-0.0516815185546875,-0.1297454833984375
1761838427874694000,8.87969384765625,-1.001983642578125,-0.04595947265625,-0.128509521484375
1761838427884763000,8.889762939453124,-1.0062408447265625,-0.039794921875,-0.1292266845703125
1761838427894831900,8.899831787109376,-1.0077362060546875,-0.0417022705078125,-0.1268463134765625
1761838427904902000,8.90990185546875,-1.01336669921875,-0.0433807373046875,-0.1235809326171875
1761838427914971000,8.919970947265625,-1.0177764892578125,-0.04754638671875,-0.117340087890625
1761838427925041000,8.930041015625,-1.0214080810546875,-0.0509796142578125,-0.1122589111328125
1761838427935110000,8.94010986328125,-1.026885986328125,-0.050506591796875,-0.1084747314453125
1761838427945180000,8.950179931640625,-1.02978515625,-0.048187255859375,-0.1083984375
1761838427955249000,8.960248779296874,-1.027496337890625,-0.0444793701171875,-0.112274169921875
1761838427965319000,8.97031884765625,-1.021209716796875,-0.043975830078125,-0.117462158203125
1761838427975388000,8.980387939453125,-1.011749267578125,-0.04473876953125,-0.1196746826171875
1761838427985457000,8.990456787109375,-1.0069427490234375,-0.0465545654296875,-0.1175994873046875
1761838427995527000,9.00052685546875,-1.003387451171875,-0.052093505859375,-0.11322021484375
1761838428005596000,9.010595947265625,-1.006500244140625,-0.0599822998046875,-0.1092681884765625
1761838428015666000,9.020666015625,-1.010589599609375,-0.0597076416015625,-0.107818603515625
1761838428025735000,9.03073486328125,-1.004241943359375,-0.05364990234375,-0.113677978515625
1761838428035805000,9.040804931640626,-0.988800048828125,-0.046905517578125,-0.128997802734375
1761838428045874000,9.0508740234375,-0.9775390625,-0.054534912109375,-0.1392669677734375
1761838428055942700,9.060942626953125,-0.97235107421875,-0.0644683837890625,-0.1361083984375
1761838428066013000,9.071012939453125,-0.98822021484375,-0.0518951416015625,-0.1390380859375
1761838428076082000,9.08108203125,-0.9859619140625,-0.053558349609375,-0.1395263671875
1761838428086152000,9.09115185546875,-0.9746856689453125,-0.0570220947265625,-0.1447906494140625
1761838428096221000,9.101220947265626,-0.9709930419921875,-0.0547027587890625,-0.154205322265625
1761838428106291000,9.111291015625,-0.9703216552734375,-0.06488037109375,-0.1492767333984375
1761838428116360000,9.12135986328125,-0.980499267578125,-0.0553131103515625,-0.15545654296875
1761838428126429700,9.1314296875,-0.9654693603515625,-0.06024169921875,-0.1560821533203125
1761838428136499000,9.1414990234375,-0.959747314453125,-0.0594635009765625,-0.16143798828125
1761838428146568000,9.15156787109375,-0.958404541015625,-0.0599822998046875,-0.1660919189453125
1761838428156638000,9.161637939453126,-0.9538116455078125,-0.06488037109375,-0.1627044677734375
1761838428166706700,9.171706787109375,-0.9483489990234375,-0.06298828125,-0.157196044921875
1761838428176777000,9.18177685546875,-0.9612274169921875,-0.056396484375,-0.1479644775390625
1761838428186845700,9.191845703125,-0.9647674560546875,-0.0663604736328125,-0.138214111328125
1761838428196916000,9.201916015625,-0.96868896484375,-0.0691375732421875,-0.1332244873046875
1761838428206985000,9.21198486328125,-0.983612060546875,-0.0546722412109375,-0.1373291015625
1761838428217054700,9.2220546875,-0.985015869140625,-0.0671234130859375,-0.141632080078125
1761838428227124000,9.2321240234375,-0.979461669921875,-0.06695556640625,-0.14434814453125
1761838428237193000,9.24219287109375,-0.98382568359375,-0.0588836669921875,-0.140411376953125
1761838428247263000,9.252262939453125,-0.985595703125,-0.0584716796875,-0.135955810546875
1761838428257332000,9.26233203125,-0.9973297119140625,-0.0557861328125,-0.1288909912109375
1761838428267402000,9.272402099609375,-1.0148468017578125,-0.057220458984375,-0.1237945556640625
1761838428277470700,9.282470703125,-1.01947021484375,-0.0572509765625,-0.127655029296875
1761838428287541000,9.292541015625,-1.0194549560546875,-0.0529327392578125,-0.131500244140625
1761838428297609700,9.302609619140625,-1.0163116455078125,-0.047882080078125,-0.13568115234375
1761838428307680000,9.312679931640625,-1.013946533203125,-0.049163818359375,-0.13983154296875
1761838428317748700,9.322748779296875,-1.0113677978515625,-0.0538330078125,-0.1405792236328125
1761838428327818000,9.33281787109375,-1.0030059814453125,-0.0572052001953125,-0.1362457275390625
1761838428337888000,9.342887939453124,-0.9967803955078125,-0.0595703125,-0.1313629150390625
1761838428347957000,9.35295703125,-0.9947967529296875,-0.0622711181640625,-0.1231689453125
1761838428358027000,9.363027099609376,-0.99365234375,-0.0611724853515625,-0.1193389892578125
1761838428368096000,9.373095947265625,-0.990966796875,-0.0600433349609375,-0.121612548828125
1761838428378166000,9.383166015625,-0.98193359375,-0.0588226318359375,-0.1308135986328125
1761838428388234800,9.39323486328125,-0.9747314453125,-0.0638427734375,-0.1367950439453125
1761838428398305000,9.403304931640625,-0.97418212890625,-0.06585693359375,-0.1324615478515625
1761838428408373800,9.413373779296874,-0.9736480712890625,-0.0659637451171875,-0.1240997314453125
1761838428418443000,9.423443115234376,-0.973876953125,-0.0657501220703125,-0.1164398193359375
1761838428428512800,9.4335126953125,-0.978759765625,-0.0637664794921875,-0.11419677734375
1761838428438582000,9.44358203125,-0.9691009521484375,-0.05560302734375,-0.1239013671875
1761838428448651800,9.45365185546875,-0.9748382568359375,-0.0487823486328125,-0.1316986083984375
1761838428458721000,9.463720947265625,-0.9927520751953125,-0.0470123291015625,-0.1350250244140625
1761838428468791000,9.473791015625,-1.0008087158203125,-0.0487213134765625,-0.1403350830078125
1761838428478859800,9.48385986328125,-1.0017242431640625,-0.045745849609375,-0.142852783203125
1761838428488930000,9.493929931640626,-0.9958038330078125,-0.040191650390625,-0.153717041015625
1761838428498998800,9.503998779296875,-0.99530029296875,-0.050811767578125,-0.14764404296875
1761838428509067800,9.51406787109375,-1.0061798095703125,-0.0399017333984375,-0.1483001708984375
1761838428519137800,9.5241376953125,-1.014404296875,-0.031768798828125,-0.14947509765625
1761838428529207000,9.53420703125,-1.0012054443359375,-0.041473388671875,-0.150115966796875
1761838428539276800,9.54427685546875,-1.0038299560546875,-0.036407470703125,-0.1494903564453125
1761838428549346000,9.554345947265626,-1.00177001953125,-0.035247802734375,-0.151885986328125
1761838428559415800,9.564415771484375,-0.9931793212890625,-0.037841796875,-0.1542205810546875
1761838428569485000,9.574485107421875,-0.9956207275390625,-0.04071044921875,-0.1512451171875
1761838428579554800,9.584554931640625,-0.9946441650390625,-0.0438690185546875,-0.14739990234375
1761838428589623800,9.594623779296874,-0.98651123046875,-0.04168701171875,-0.143341064453125
1761838428599692800,9.60469287109375,-0.9814453125,-0.0467071533203125,-0.14300537109375
1761838428609762800,9.6147626953125,-0.9720306396484375,-0.054718017578125,-0.1437835693359375
1761838428619831800,9.624831787109375,-0.9682159423828125,-0.0540313720703125,-0.1421661376953125
1761838428629901800,9.63490185546875,-0.9661712646484375,-0.0554656982421875,-0.1384429931640625
1761838428639970800,9.644970703125,-0.967742919921875,-0.0528411865234375,-0.13128662109375
1761838428650040800,9.655040771484375,-0.9778594970703125,-0.050933837890625,-0.1234893798828125
1761838428660110000,9.665110107421874,-0.991851806640625,-0.05511474609375,-0.1264801025390625
1761838428670179800,9.675179931640624,-0.9931793212890625,-0.0559539794921875,-0.13311767578125
1761838428680249000,9.6852490234375,-0.9933013916015625,-0.0522918701171875,-0.13787841796875
1761838428690317800,9.69531787109375,-0.998748779296875,-0.0527496337890625,-0.1418914794921875
1761838428700387800,9.705387939453125,-1.0027618408203125,-0.0503997802734375,-0.14410400390625
1761838428710456800,9.715456787109375,-1.001007080078125,-0.04864501953125,-0.1421966552734375
1761838428720526800,9.72552685546875,-0.998809814453125,-0.047393798828125,-0.1403350830078125
1761838428730595800,9.735595947265624,-0.9948272705078125,-0.049835205078125,-0.1426849365234375
1761838428740665900,9.745665771484376,-0.9889984130859375,-0.050262451171875,-0.1431884765625
1761838428750734800,9.75573486328125,-0.9852142333984375,-0.04913330078125,-0.1407012939453125
1761838428760804900,9.765804931640625,-0.9896240234375,-0.0513458251953125,-0.134429931640625
1761838428770873900,9.775873779296875,-0.991302490234375,-0.0521697998046875,-0.12921142578125
1761838428780942800,9.78594287109375,-0.9896697998046875,-0.0518341064453125,-0.1285858154296875
1761838428791013000,9.79601318359375,-0.99078369140625,-0.0493927001953125,-0.1315155029296875
1761838428801082400,9.806082275390626,-0.9935150146484375,-0.049560546875,-0.134033203125
1761838428811152400,9.81615234375,-0.992218017578125,-0.050750732421875,-0.1363525390625
1761838428821221400,9.826221435546875,-0.996490478515625,-0.0507354736328125,-0.1382598876953125
1761838428831291400,9.83629150390625,-0.9980926513671875,-0.052093505859375,-0.1381378173828125
1761838428841360400,9.8463603515625,-1.00115966796875,-0.0518951416015625,-0.13311767578125
1761838428851430400,9.856430419921875,-1.003326416015625,-0.0486907958984375,-0.1312713623046875
1761838428861499400,9.86649951171875,-1.0037841796875,-0.0541534423828125,-0.1299896240234375
1761838428871569400,9.8765693359375,-0.9986114501953125,-0.0486602783203125,-0.1341400146484375
1761838428881638400,9.886638427734376,-0.98931884765625,-0.049774169921875,-0.1440582275390625
1761838428891707400,9.896707275390625,-0.97930908203125,-0.0583343505859375,-0.148529052734375
1761838428901777200,9.906777099609375,-0.98419189453125,-0.057098388671875,-0.142730712890625
1761838428911846400,9.916846435546875,-0.98394775390625,-0.0549468994140625,-0.1404571533203125
1761838428921916200,9.926916259765624,-0.9751739501953125,-0.0511016845703125,-0.1449432373046875
1761838428931985400,9.9369853515625,-0.97711181640625,-0.0462799072265625,-0.1482696533203125
1761838428942055400,9.947055419921876,-0.979339599609375,-0.0445098876953125,-0.15521240234375
1761838428952124400,9.95712451171875,-0.97320556640625,-0.0419158935546875,-0.1616973876953125
1761838428962194400,9.9671943359375,-0.97747802734375,-0.041290283203125,-0.158966064453125
1761838428972263400,9.977263427734375,-0.986724853515625,-0.04339599609375,-0.1532745361328125
1761838428982333400,9.98733349609375,-0.986480712890625,-0.0435943603515625,-0.152252197265625
1761838428992402400,9.99740234375,-0.986480712890625,-0.041534423828125,-0.155914306640625
1761838429002471400,10.007471435546876,-0.984222412109375,-0.0392303466796875,-0.161773681640625
1761838429012541200,10.017541259765625,-0.9774627685546875,-0.0399169921875,-0.1587066650390625
1761838429022610400,10.0276103515625,-0.9793548583984375,-0.0427398681640625,-0.153564453125
1761838429032680200,10.03768017578125,-0.9852142333984375,-0.0505828857421875,-0.1503143310546875
1761838429042749400,10.04774951171875,-0.9854736328125,-0.051239013671875,-0.141021728515625
1761838429052819200,10.057819091796874,-0.9912109375,-0.0517120361328125,-0.1318511962890625
1761838429062888400,10.067888427734376,-0.99237060546875,-0.05340576171875,-0.131744384765625
1761838429072958200,10.077958251953126,-0.99212646484375,-0.0547637939453125,-0.136016845703125
1761838429083027500,10.08802734375,-0.9910430908203125,-0.054534912109375,-0.1412200927734375
1761838429093096200,10.09809619140625,-0.99810791015625,-0.05224609375,-0.1350860595703125
1761838429103166500,10.10816650390625,-0.9972991943359375,-0.0479888916015625,-0.1302947998046875
1761838429113235200,10.118235107421874,-0.9953765869140625,-0.0486297607421875,-0.1318511962890625
1761838429123305200,10.12830517578125,-0.9835052490234375,-0.0516204833984375,-0.133056640625
1761838429133374500,10.13837451171875,-0.9734954833984375,-0.055633544921875,-0.1333465576171875
1761838429143444200,10.1484443359375,-0.9774017333984375,-0.0582427978515625,-0.1319580078125
1761838429153513500,10.158513427734375,-0.9786834716796875,-0.0528564453125,-0.1333160400390625
1761838429163583200,10.168583251953125,-0.9809722900390625,-0.0514373779296875,-0.129486083984375
1761838429173652500,10.178652587890625,-0.9817047119140625,-0.0401458740234375,-0.1295318603515625
1761838429183721200,10.18872119140625,-0.9944000244140625,-0.0364227294921875,-0.13043212890625
1761838429193791500,10.19879150390625,-1.023101806640625,-0.0442047119140625,-0.137481689453125
1761838429203860200,10.208860107421875,-1.013336181640625,-0.0511627197265625,-0.1412200927734375
1761838429213930500,10.218930419921875,-1.0049285888671875,-0.0484771728515625,-0.1437225341796875
1761838429223999200,10.228999267578125,-0.98748779296875,-0.0490875244140625,-0.1424560546875
1761838429234069200,10.2390693359375,-0.979522705078125,-0.0540313720703125,-0.1334991455078125
1761838429244138200,10.24913818359375,-0.9773101806640625,-0.0582275390625,-0.123992919921875
1761838429254208300,10.259208251953124,-0.9733734130859375,-0.0514984130859375,-0.1203460693359375
