time,seconds_elapsed,z,y,x
1761838419077793500,0.08279345703125,-0.47429450529515743,0.020979732729867098,0.1719843870591372
1761838419087863800,0.09286376953125,-0.3996317707598209,0.16749346884805708,0.1685696832448244
1761838419097932500,0.1029326171875,-0.24036767599880693,0.26197100225342435,0.15222732799202202
1761838419108002600,0.11300244140625,-0.021325696623325348,0.3144354403156787,0.043518093078583474
1761838419118071600,0.123071533203125,0.11266717875897883,0.3171309995425865,-0.04518186157234013
1761838419128141600,0.1331416015625,0.18876959070861338,0.2639338815579191,-0.09587598376013338
1761838419138210600,0.14321044921875,0.2733364641427994,0.2078610985390842,-0.12127126790992915
1761838419148280600,0.153280517578125,0.37240415661633014,0.14087730113379657,-0.10216441637985407
1761838419158349800,0.163349853515625,0.36963001572787757,0.1315687169753015,-0.03512976557016372
1761838419168418600,0.17341845703125,0.3953057242542505,0.15594185500312596,0.007068915472924709
1761838419178488800,0.18348876953125,0.5242343019843101,0.17778361138980833,-0.011409282764792441
1761838419188557600,0.1935576171875,0.6143517952829599,0.189178756031394,-0.08998466069921851
1761838419198627600,0.203627685546875,0.6556003359943627,0.1245147068105638,-0.19918116767294702
1761838419208696600,0.213696533203125,0.6702642366409302,0.02166340414509177,-0.29093035382665694
1761838419218766600,0.2237666015625,0.6402578054338693,-0.030120047649368643,-0.36344993885345755
1761838419228835600,0.233835693359375,0.6437275273710489,0.021210034354403613,-0.3845595085080713
1761838419238905600,0.243905517578125,0.5928712003588676,0.07310410691648721,-0.31997152019813657
1761838419248974600,0.253974609375,0.38716508789658544,0.06871149798072874,-0.17189020596966145
1761838419259044600,0.264044677734375,0.25727730974555013,0.0556016218431294,-0.05805865960642695
1761838419269113600,0.274113525390625,0.2149555868446827,0.04013751072958111,-0.01443893278427422
1761838419279183600,0.28418359375,0.2089595613002777,0.043498584660515184,0.03084690061919391
1761838419289252900,0.2942529296875,0.12555237929522992,0.02536192986946553,0.08950228400975466
1761838419299321600,0.304321533203125,0.023151743006706235,0.012117357968911528,0.129347022337839
1761838419309391600,0.3143916015625,-0.039945056897401805,0.024108130416087805,0.15649448391720652
1761838419319460600,0.324460693359375,-0.12034019760489463,0.04470744899362326,0.17907529516816137
1761838419329530600,0.334530517578125,-0.18417349509000777,0.056417833596840494,0.16067220799326895
1761838419339599600,0.344599609375,-0.18760405406057834,0.020057174524851142,0.07225655017644167
1761838419349669600,0.354669677734375,-0.16018588578104972,-0.017245039713568985,-0.04802000760771334
1761838419359738600,0.364738525390625,-0.1032663132071495,-0.01853584670908749,-0.1194583732690662
1761838419369808600,0.37480859375,-0.08244564349651336,-0.03454612046331167,-0.13238383275046944
1761838419379877600,0.384877685546875,-0.12419511946737766,-0.04314947896189988,-0.09777911396771669
1761838419389947600,0.39494775390625,-0.15918810691535473,0.008460187168233097,-0.039110578834638
1761838419400016600,0.4050166015625,-0.14168810606002807,0.06748893391583115,-0.030074308811500666
1761838419410085600,0.415085693359375,-0.07071545821428299,0.07706844397019594,-0.057996992547065015
1761838419420155600,0.42515576171875,-0.012968202644586563,0.06476071452833712,-0.09962715298719703
1761838419430224600,0.435224609375,0.03256663708388805,0.03787628779932856,-0.10232143357247113
1761838419440294700,0.445294677734375,0.05862053127288818,0.00043817222155630587,-0.06619893063791096
1761838419450363600,0.45536376953125,0.03888122705817222,-0.041544272254966194,-0.013371595813706517
1761838419460433700,0.46543359375,0.04132920473217964,-0.05512355600260198,0.017981281566247342
1761838419470502700,0.475502685546875,0.0822960058927536,-0.06542856731992215,0.04820566637292504
1761838419480572700,0.48557275390625,0.07777005290091037,-0.06968816099315882,0.04446370336562395
1761838419490641700,0.4956416015625,0.04036708170175552,-0.053374995302222665,0.03230440595112741
1761838419500711700,0.505711669921875,0.09166589178442955,-0.07042268581278621,-0.025083076395466922
1761838419510780700,0.51578076171875,0.10885375795066356,-0.03362137030120939,-0.10146941985301673
1761838419520850700,0.5258505859375,0.09034545683562754,0.00785546274073422,-0.1512112097520381
1761838419530919400,0.53591943359375,0.029141338810324668,0.04795213000327348,-0.14535766141824424
1761838419540988700,0.54598876953125,-0.15588964989185333,0.03119626204613596,-0.03822948515117168
1761838419551058400,0.556058349609375,-0.3020382424920797,0.04804411913566291,0.0440191744685173
1761838419561127700,0.566127685546875,-0.28328327313959595,0.08462159929610788,0.058425739353150125
1761838419571197700,0.57619775390625,-0.206806767180562,0.10964439687170088,0.009723302439227699
1761838419581266700,0.5862666015625,-0.15002455725073813,0.07865235216077417,-0.038031113034859294
1761838419591336700,0.596336669921875,-0.1113876603424549,0.03222136731017381,-0.0961265244551003
1761838419601405700,0.60640576171875,-0.01922667851746082,-0.014524272980168462,-0.11958747954145073
1761838419611475700,0.616475830078125,0.05910100826621055,-0.05141651817820966,-0.0743137019019574
1761838419621544700,0.626544677734375,0.06937164238989353,-0.07435538561921566,0.010594313120096921
1761838419631614700,0.63661474609375,0.07948913177847862,-0.06097991734798997,0.08670381239764392
1761838419641683500,0.646683349609375,0.11685878522992134,-0.06322115693613886,0.16109350214526055
1761838419651752700,0.656752685546875,0.10367723209559916,-0.04072378618493676,0.1741304591771215
1761838419661822500,0.666822509765625,0.09859072261154651,-0.06365863503795116,0.15027356357574462
1761838419671891700,0.6768916015625,0.07944704620242118,-0.08734506944324821,0.11017302385568618
1761838419681961500,0.68696142578125,0.08273790444135666,-0.07174900251310318,0.06706679951362311
1761838419692030700,0.69703076171875,0.17546002728044985,-0.07019329750370233,0.022754414252191782
1761838419702100700,0.707100830078125,0.0243558580994606,-0.14486319243218748,-0.004208995997160673
1761838419712169700,0.717169677734375,-0.0827145235657692,-0.1573098919533193,-0.10601605030670762
1761838419722239700,0.72723974609375,-0.03402034302353859,-0.09523571309521794,-0.12854016293436288
1761838419732308700,0.737308837890625,-0.10290390963554381,-0.023393479340709743,-0.1077658165834844
1761838419742378800,0.747378662109375,-0.16343641200959683,-0.010557597838900984,-0.09189502436518669
1761838419752447500,0.757447509765625,-0.2289320897489786,-0.023675511152483522,-0.06876220525465905
1761838419762516700,0.767516845703125,-0.2480202365785837,-0.02894490292277187,-0.06849142548926174
1761838419772586500,0.77758642578125,-0.22303426388204095,-0.06306669702678919,-0.07822904871478677
1761838419782655700,0.78765576171875,-0.17259762358665465,-0.09253200709447264,-0.08537709383852779
1761838419792721700,0.7977216796875,-0.07151917581260205,-0.11892828498035668,-0.07833280135020614
1761838419802791000,0.807791015625,0.0025660510957241055,-0.1541869376271963,-0.043194194886460896
1761838419812861000,0.81786083984375,0.057877019429206845,-0.18629231387488543,0.020608634395152328
1761838419822930000,0.827929931640625,0.10764730477035045,-0.2024064133297652,0.10425700474493205
1761838419833000000,0.838,0.08634089736938476,-0.1987866884626448,0.16746274491623042
1761838419843069000,0.84806884765625,0.09479016128480434,-0.15418679149672387,0.20665581440255046
1761838419853139000,0.858138916015625,0.08284370290338992,-0.10070519401486963,0.241043164107576
1761838419863208000,0.8682080078125,0.03386895185410976,-0.05555076843872666,0.23678660264164209
1761838419873277000,0.87827685546875,-0.007495324191451072,-0.058035607524402434,0.2041409089721739
1761838419883346700,0.8883466796875,-0.0014157120168209075,-0.03837773451544344,0.13836626816093922
1761838419893416000,0.898416015625,-0.023574352332949636,-0.03964274948257953,0.06048968614563346
1761838419903485700,0.908485595703125,-0.034680268236994743,-0.008963314384780824,-0.04170483311153948
1761838419913555000,0.918554931640625,-0.007046995902061462,-0.000024513386748731135,-0.11337328120172023
1761838419923624700,0.928624755859375,0.0015232640445232391,0.021123634712584317,-0.15865451149530707
1761838419933694000,0.93869384765625,-0.04289806148409843,0.06160407712832093,-0.16475713921934365
1761838419943763700,0.948763671875,0.02565992643535137,0.03323533012568951,-0.14482172791063785
1761838419953833000,0.9588330078125,-0.02411094342768192,0.050112961298972365,-0.0926383900783956
1761838419963903000,0.968903076171875,-0.05387187544107437,0.045493594402633605,-0.02935980386659503
1761838419973972000,0.978971923828125,-0.09324410088658332,0.04844415130391717,0.000745338474586606
1761838419984040700,0.989040771484375,-0.10987257960438727,0.061196701903827484,0.013792889965698121
1761838419994110700,0.99911083984375,-0.09907587577998637,0.053686801197752355,0.010265300361439585
1761838420004180000,1.009179931640625,-0.09849778363108634,0.04508925138544291,-0.0009469985265284776
1761838420014249700,1.019249755859375,-0.09313011911809443,0.04262154609765857,0.00006678162589669227
1761838420024319000,1.029319091796875,-0.04527998818457126,0.0400752956809476,0.0025632015515118837
1761838420034388700,1.039388671875,-0.037104280513525004,0.01779953179117292,0.007890753249824047
1761838420044458000,1.0494580078125,-0.0523018496453762,-0.0014224705511704087,0.03003996815048158
1761838420054527700,1.05952783203125,-0.024883681365847586,-0.0015295841874554753,0.0476876338481903
1761838420064597000,1.069596923828125,-0.014130816683173179,-0.014472542792931198,0.06980411552302539
1761838420074665700,1.079665771484375,-0.025095862811803815,-0.029978556819446382,0.06552146976776421
1761838420084735700,1.08973583984375,0.0014922843843698502,-0.031110739187151192,0.06661065324395894
1761838420094804700,1.0998046875,0.058330608415603634,-0.04115731876399368,0.054797465853393075
1761838420104874800,1.109874755859375,0.10006137968599796,-0.05795461471006274,0.04789937690272927
1761838420114943700,1.11994384765625,0.11573825676739215,-0.08707012495938687,0.03621003508754075
1761838420125013800,1.130013671875,0.08303951773643493,-0.08823365231342613,0.030719840173423288
1761838420135083000,1.1400830078125,0.044720016214251514,-0.05386566489599645,0.013885536685213445
1761838420145152800,1.15015283203125,-0.030917700833082196,-0.040984884806536136,-0.01650127214156091
1761838420155222000,1.160221923828125,-0.05703004721105098,-0.0023934710077941415,-0.059908890582993625
1761838420165291800,1.170291748046875,-0.09059504768252372,0.00390734616946429,-0.10679134552814065
1761838420175361000,1.180361083984375,-0.09711246675252914,0.0030929245140403506,-0.1416963624317199
1761838420185429800,1.1904296875,-0.06549041704237461,0.02040248083118349,-0.17181100325360893
1761838420195499800,1.200499755859375,-0.023408932638168335,0.023947459961660204,-0.16965601717680692
1761838420205568800,1.21056884765625,0.013188567396998405,0.054240306894667446,-0.140531921762228
1761838420215638800,1.220638671875,0.006738952866196632,0.035930158700235186,-0.061659533642604944
1761838420225707800,1.230707763671875,-0.03272913416922092,0.007783530015684664,0.024633140670880675
1761838420235777800,1.24077783203125,-0.026918986585736274,0.006667421999946236,0.07174816226288676
1761838420245846800,1.2508466796875,-0.02259644721150398,0.02073744840659201,0.09779226571023464
1761838420255916800,1.260916748046875,0.003954290583729743,0.028084925092570483,0.09709566174820065
1761838420265986000,1.270986083984375,0.06234393571019172,0.023577128811925648,0.054931321366131304
1761838420276054800,1.2810546875,0.13497954833209513,0.012843553351610899,0.018139613933116198
1761838420286125000,1.291125,0.173811091029644,0.003538147530891001,-0.0026421120066195724
1761838420296193800,1.30119384765625,0.1760679300457239,-0.023810426111146806,-0.011061053849011659
1761838420306263800,1.311263916015625,0.15540566576719284,-0.0479995128089562,-0.01116319904923439
1761838420316332800,1.321332763671875,0.16619418628513813,-0.056259647360444066,-0.026542773684486744
1761838420326402800,1.33140283203125,0.08784837932288646,-0.006762881731055676,-0.0503393904659897
1761838420336471800,1.341471923828125,0.06377776790559292,-0.038984650900028645,-0.07217625148184598
1761838420346541800,1.351541748046875,0.05742226139903068,-0.028097053921781478,-0.10476327376663684
1761838420356610800,1.36161083984375,0.08761632413268089,-0.01728307016901672,-0.14106098713763057
1761838420366680800,1.371680908203125,0.0819774414628744,-0.04240962038002908,-0.1377254860393703
1761838420376749800,1.381749755859375,0.022594109123945234,-0.06375665205232799,-0.08638999720811844
1761838420386818800,1.39181884765625,-0.014412556234002113,-0.07372654966376721,-0.021184607652202248
1761838420396888800,1.401888916015625,-0.02128945626616478,-0.07478599558882415,0.045175212635844945
1761838420406957800,1.411957763671875,-0.05554010091423988,-0.06054492346420884,0.106396720187366
1761838420417027800,1.42202783203125,-0.09109598294198512,-0.05824990786220878,0.13538871365487576
1761838420427096800,1.432096923828125,-0.09490414305329323,-0.05504384182989597,0.12771452576518058
1761838420437166800,1.442166748046875,-0.11971943535804748,-0.03464866752233356,0.10617745141349733
1761838420447235800,1.45223583984375,-0.10105682046413421,-0.035899690496735276,0.07555033102482557
1761838420457304800,1.462304931640625,-0.0791542007356882,-0.04730944818556308,0.03067497811838984
1761838420467374800,1.472374755859375,-0.052039399316906924,-0.054848428855650125,0.012984057800844311
1761838420477443800,1.48244384765625,-0.030189386558532712,-0.06910776728931814,-0.008440057695657014
1761838420487513900,1.492513916015625,0.008916881427168845,-0.09830448954869062,0.011539704211428761
1761838420497582800,1.502582763671875,-0.018149404674768447,-0.013434906840883195,0.002288476263359189
1761838420507652900,1.51265283203125,-0.008923311167955398,-0.025299934016540643,-0.0275287890471518
1761838420517721900,1.522721923828125,0.02184358301758766,-0.03136376410014927,-0.08170717315413058
1761838420527791600,1.53279150390625,0.022338088536262513,-0.000604907090589404,-0.10792962884306907
1761838420537860900,1.54286083984375,-0.00978197382390499,0.018584288960695267,-0.08618731424286961
1761838420547931000,1.552930908203125,-0.016183073037862778,0.015254267755150794,-0.0598095218617469
1761838420557999900,1.562999755859375,-0.02732639834284782,-0.008491312958858906,-0.01887574618794024
1761838420568068900,1.57306884765625,-0.040913609668612475,-0.03299052505176514,0.004188756926730275
1761838420578139000,1.583138916015625,-0.03423135542571545,-0.04882595369573682,0.02173172014094889
1761838420588207900,1.593207763671875,-0.04726911617517471,-0.04208762188404798,0.0326135449655354
1761838420598278000,1.60327783203125,-0.06869125891029834,-0.0310473185621202,0.029876302021369337
1761838420608347000,1.613346923828125,-0.04019640130996704,-0.031961437732353805,0.017281754994764923
1761838420618417000,1.6234169921875,-0.004758592703938484,-0.031312545369565487,-0.002408960837870836
1761838420628486000,1.63348583984375,0.030863340297341346,-0.04189071107245981,-0.0009036708414554595
1761838420638555600,1.6435556640625,0.037676527443528174,-0.05927490352839231,0.00818571760840714
1761838420648625000,1.653625,0.03736965345144272,-0.0769810944803059,0.016448592106252907
1761838420658694000,1.66369384765625,0.07288169633746147,-0.05816504259034991,0.04452960820868611
1761838420668764000,1.673763916015625,0.05784487072527408,-0.019219554656930267,0.0810403067432344
1761838420678833000,1.6838330078125,0.04152151243388653,-0.036297457642666994,0.07249225862845778
1761838420688903000,1.69390283203125,0.05223404510617256,-0.03529021682888269,0.05746442004032433
1761838420698971600,1.7039716796875,0.05989712707996368,-0.0329909269105643,0.03873151638917625
1761838420709042000,1.7140419921875,0.06790390792489051,-0.02964073969982564,0.03100932463929057
1761838420719111000,1.72411083984375,0.05792378118038177,-0.028946985282003877,0.03302877470292151
1761838420729181000,1.734180908203125,0.03211304809749126,-0.01851641135625541,0.008535553959384561
1761838420739250000,1.74425,0.0392132354915142,-0.013369330791383981,-0.02245338547900319
1761838420749319000,1.75431884765625,0.01472118379175663,-0.024319983068481085,-0.03873597336858511
1761838420759389000,1.764388916015625,-0.018192074772715568,-0.021812895618379114,-0.050814022240415216
1761838420769458000,1.7744580078125,-0.03510696921646595,0.0025298838037997482,-0.057282341471686954
1761838420779528000,1.78452783203125,-0.03944061450660229,0.01519307561982423,-0.0585268616400659
1761838420789597000,1.794596923828125,-0.05065525148212909,0.02007233556136489,-0.06282908887863159
1761838420799667000,1.8046669921875,-0.07126081713736057,0.0055740372726693745,-0.05732610754817724
1761838420809736000,1.81473583984375,-0.043806993022561073,-0.012766177266463636,-0.05201039241813123
1761838420819805000,1.824804931640625,-0.01978840405344963,-0.023580014888755975,-0.05030957984961569
1761838420829875000,1.834875,-0.0005851064115762711,-0.029956198857165873,-0.025903891259059307
1761838420839944000,1.84494384765625,-0.0016711480826139449,-0.050621020418964324,0.021886837637424467
1761838420850014000,1.855013916015625,-0.016203531304001807,-0.049981334275938566,0.08920797723829746
1761838420860083000,1.8650830078125,-0.04060907376408577,-0.026221761569194493,0.1140258268263191
1761838420870153000,1.875153076171875,0.002619242587685585,-0.0451142031636089,0.07685206127315759
1761838420880222200,1.88522216796875,-0.010472294175624846,-0.027618330494128165,0.038100159683078526
1761838420890292000,1.8952919921875,-0.028567922836542126,-0.031225415075384077,0.007372501529380679
1761838420900361000,1.90536083984375,-0.062606386038661,-0.03288589563351124,-0.02741502647437155
1761838420910430000,1.915429931640625,-0.06348433791697025,-0.02873085831329226,-0.058450581533461804
1761838420920500000,1.9255,-0.07148001284599304,-0.014461948333680629,-0.06264708337523042
1761838420930569000,1.93556884765625,-0.1145382333278656,0.003692899701185524,-0.02995455488935113
1761838420940639000,1.945638916015625,-0.1594149014085531,-0.002389781213365495,-0.0026277912203222513
1761838420950708000,1.9557080078125,-0.16566519397497176,0.015948643227480352,0.02993694616742432
1761838420960778000,1.965778076171875,-0.11788111401498318,0.06177150611709803,-0.0037104718904942273
1761838420970847000,1.975846923828125,-0.07111410214304924,0.05716963834483176,-0.040231691819056864
1761838420980916000,1.985916015625,-0.07028700366914271,0.0518218475760892,-0.07397022222653031
1761838420990986000,1.995986083984375,-0.042214170873165126,0.03520838376432657,-0.09430201244167984
1761838421001055000,2.006054931640625,-0.010844050097465514,0.03503803216610104,-0.07216843350157141
1761838421011125000,2.016125,-0.0035942250996828075,0.025674137623794377,-0.03566197275072336
1761838421021194000,2.026194091796875,0.000018120178580284118,0.021652627022750674,-0.000557853078469634
1761838421031264000,2.036263916015625,0.005685644420981407,0.021391163074970243,0.01635192679874599
1761838421041333000,2.0463330078125,0.02305705046057701,0.0266498142555356,0.017041078106686473
1761838421051403000,2.056403076171875,0.0323246450215578,0.01003971144463867,0.01692906909957528
1761838421061472000,2.066471923828125,0.047258010259270664,-0.00017447978407144545,0.012248656198382377
1761838421071541000,2.076541015625,0.04185702799856662,-0.02192026498299092,0.017979601065814494
1761838421081611000,2.086611083984375,0.041677579778432845,0.002394018997065723,0.000562383123114705
1761838421091680000,2.096679931640625,0.09651683894693851,0.008597111420892178,-0.020709026029706
1761838421101750000,2.10675,0.04479834214746952,0.08240933007411658,-0.04617825219854712
1761838421111819000,2.116819091796875,0.05807458782792091,0.05368486496899277,-0.055854939017072315
1761838421121888800,2.126888671875,0.0718827484279871,0.05434223289918154,-0.07362608496397734
1761838421131958000,2.1369580078125,0.046641924187541005,0.053348399556241925,-0.04725063067041337
1761838421142027000,2.147027099609375,0.013273323071002959,0.029300328764319417,-0.027047727531939743
1761838421152097000,2.157096923828125,0.006772270613908767,0.026577333541214464,-0.04427336842529475
1761838421162165800,2.167165771484375,0.02396247486770153,0.007871865886263549,-0.06993263727352023
1761838421172236000,2.177236083984375,-0.0006955810487270354,-0.007639810696057975,-0.08250183066315948
1761838421182304800,2.1873046875,-0.004312017980217933,-0.01652779482230544,-0.10563238475136458
1761838421192375000,2.197375,0.03128828771114349,-0.011297310290299355,-0.08520641344673931
1761838421202444000,2.207444091796875,0.03348959714770317,-0.011028759014606475,-0.03289959536530077
1761838421212514000,2.21751416015625,-0.004193944558501243,-0.037809250445105136,-0.0005067074131220578
1761838421222583000,2.2275830078125,-0.0056540802389383315,-0.04266706573981791,0.026403511344268916
1761838421232652000,2.237652099609375,0.016409283009171483,-0.04018500313311815,0.03394764311350882
1761838421242722000,2.24772216796875,0.0033341128587722774,-0.04418214647788554,0.023576617355272174
1761838421252791000,2.257791015625,0.00596738397181034,-0.02635923381112516,0.027353797806426883
1761838421262861000,2.267861083984375,-0.017463760498166083,-0.014031849820725618,0.04715316164530813
1761838421272929800,2.2779296875,-0.013065817800164222,-0.018792817144840955,0.05921615907847881
1761838421283000000,2.288,0.002670680513978004,-0.013338387663848697,0.04055003705322742
1761838421293068800,2.29806884765625,0.005030979904532432,-0.022973719558678565,0.02750752706341445
1761838421303138000,2.308137939453125,-0.033245266997814174,-0.038713944199867546,0.03597929507158697
1761838421313207800,2.318207763671875,-0.05239478862583637,-0.006439093136787414,0.0045572979781776666
1761838421323277000,2.328277099609375,-0.06444003120660781,0.014402290568314493,-0.01507460033930838
1761838421333347000,2.33834716796875,-0.07699146974384784,0.011570574273727834,-0.04825505847260356
1761838421343416000,2.348416015625,-0.08817278897166252,-0.011300671291165054,-0.05987118892110884
1761838421353486000,2.358486083984375,-0.09094634533822536,-0.02683708045594394,-0.06179032041542232
1761838421363555000,2.36855517578125,-0.05341653288900852,-0.016806794426776468,-0.06547521947324275
1761838421373624000,2.3786240234375,-0.008425298517942428,-0.00014565554838627575,-0.06674238986484705
1761838421383693800,2.38869384765625,0.05994681144058704,-0.012777685041166841,-0.022777064475417136
1761838421393763000,2.39876318359375,0.0857072756409645,-0.03782810127604753,0.005673953983187675
1761838421403832800,2.408832763671875,0.09315116190612316,-0.048591195091791446,0.014790303505212068
1761838421413902000,2.418902099609375,0.08057400440573692,-0.06730440766178071,0.0406565661676228
1761838421423971800,2.428971923828125,0.002699322086572647,-0.060080301627144214,0.06492898376733064
1761838421434041000,2.439041015625,-0.005263035094738007,-0.058282202696613966,0.05723996363468468
1761838421444109800,2.44910986328125,-0.003499532553553581,-0.043215566468052566,0.03158106011264026
1761838421454180000,2.45918017578125,-0.02756312970817089,-0.058627070611529046,0.005092062442004681
1761838421464248800,2.469248779296875,-0.025658172869682312,-0.06842869898397475,-0.011941563010588288
1761838421474319000,2.479319091796875,-0.014943302109837532,-0.049296420751698315,-0.028729104747623205
1761838421484387800,2.489387939453125,-0.037568390893936154,-0.059561574982665476,0.0018948738358914852
1761838421494457900,2.499457763671875,-0.0803963097512722,-0.049640046557597815,0.04372231041379273
1761838421504527000,2.509527099609375,-0.08772796781361103,-0.04839804713986814,0.059669601934403176
1761838421514596000,2.51959619140625,-0.10203355654180049,-0.036402379321865734,0.05707856252789497
1761838421524666000,2.529666015625,-0.09803542681634425,-0.03443553622830659,0.04255531246103346
1761838421534734800,2.53973486328125,-0.0947094972640276,-0.035815519344620406,0.01781754237189889
1761838421544805000,2.54980517578125,-0.10144845013022422,-0.05946973198074847,0.0012897475495934486
1761838421554873900,2.559873779296875,-0.08650105636715888,-0.0662342576796189,0.004015373121201992
1761838421564944100,2.569944091796875,-0.06933189490139484,-0.046127289196290076,-0.006296981252357363
1761838421575012900,2.580012939453125,-0.03735913205742836,-0.02777107337042689,0.0012282266207039355
1761838421585082000,2.59008203125,-0.03600888649225235,-0.014334339898638426,0.027261589478328824
1761838421595152000,2.60015185546875,0.012553192102909087,0.010917772920802236,0.040870647309720516
1761838421605221000,2.61022119140625,0.06284896262288094,0.009542319849133491,0.03835910288020968
1761838421615291000,2.620290771484375,0.06832359464168548,0.013067936692014335,0.039572204997017975
1761838421625360100,2.630360107421875,0.08959609977304935,0.01895195322930813,0.0469962905831635
1761838421635430000,2.640429931640625,0.1202893442004919,0.025348705061711368,0.04476860459633171
1761838421645499000,2.650498779296875,0.1244634150147438,0.03866057004481554,0.018174977507442236
1761838421655568000,2.66056787109375,0.12299100437462329,0.050075369234941894,-0.021350319607928395
1761838421665638000,2.670637939453125,0.14746259780824184,0.04477024856414646,-0.06960420903675257
1761838421675707000,2.680706787109375,0.1628834543019533,0.027764278303459285,-0.09905205651298164
1761838421685777000,2.69077685546875,0.15586276188492773,0.0007879355072975159,-0.12467793454825878
1761838421695846100,2.70084619140625,0.14974924744069576,-0.011282076188549399,-0.13632241430841385
1761838421705916000,2.710916015625,0.147956518805027,-0.005403101152554154,-0.13939802236147225
1761838421715985200,2.720985107421875,0.13534195190370082,-0.015657624391652643,-0.1267311407510191
1761838421726054000,2.731053955078125,0.08608838391304016,-0.0254704317452386,-0.10728731235153972
1761838421736124200,2.741124267578125,0.04443944570720196,-0.022477789267897605,-0.06131364281438291
1761838421746193000,2.75119287109375,0.0012456161469221114,-0.02471782327964902,-0.007865472678095101
1761838421756263000,2.761262939453125,-0.033526422026753426,-0.029416685152985154,0.03513013089634478
1761838421766332000,2.771331787109375,-0.055258945885300635,-0.05746544295363128,0.05004457223787904
1761838421776402000,2.78140185546875,-0.0900210471868515,-0.06100413847379386,0.06929682358801365
1761838421786471000,2.791470947265625,-0.11036065538227557,-0.056921764530986546,0.0713319096121937
1761838421796540000,2.801539794921875,-0.12063245854973792,-0.06030808250103145,0.05966631399877369
1761838421806610000,2.81160986328125,-0.12126023505926131,-0.050670047192461785,0.03216017517484724
1761838421816678700,2.8216787109375,-0.14177929147481919,-0.05410597645789385,0.02921630374267697
1761838421826749000,2.8317490234375,-0.16651625784635543,-0.03244659090079367,0.046989641646668315
1761838421836817700,2.841817626953125,-0.15707973645925521,-0.012570398966036737,0.041506534060463306
1761838421846888000,2.851887939453125,-0.11181026966869831,-0.014439151979982853,0.020535715289413926
1761838421856956700,2.861956787109375,-0.07931026808023452,0.0004104439644142985,-0.005274360206350684
1761838421867026000,2.87202587890625,-0.06134966397583484,-0.008212203756533563,-0.02152947556711733
1761838421877095700,2.882095703125,-0.04269114073514938,0.0017534926038235425,-0.026381007251515983
1761838421887165000,2.8921650390625,-0.019703648379445073,-0.006565788256376982,-0.025236732587218282
1761838421897234700,2.902234619140625,-0.006454875227808952,-0.01602349856197834,-0.01228708851262927
1761838421907304000,2.912303955078125,0.0030611411362886426,-0.015185696030966936,-0.014529241416230796
1761838421917372700,2.92237255859375,0.01898059480190277,-0.01814721271768212,-0.007433730197325348
1761838421927442700,2.932442626953125,0.021552491116523742,-0.0033871947528794407,0.00105995738171041
1761838421937511700,2.94251171875,0.024403204372525213,0.0006823927735909819,-0.004319251438602805
1761838421947581700,2.952581787109375,0.034568040034174914,-0.013369221193529665,-0.012923048328608274
1761838421957650700,2.962650634765625,0.018929741397500036,-0.009605265550129116,-0.037681203618645666
1761838421967720700,2.972720703125,0.030331425377726554,0.0017775310665369033,-0.070900532457605
1761838421977790000,2.9827900390625,0.031007132682204244,0.010247618574276566,-0.05772526293359696
1761838421987858700,2.992858642578125,0.0011807342171669005,0.018154336578212676,-0.036170799055695535
1761838421997929000,3.002928955078125,-0.012304185777902602,0.0008210705919191241,-0.03091331691890955
1761838422007997700,3.012997802734375,-0.0030319150418043135,-0.009926021937094628,-0.019714608164876697
1761838422018067700,3.023067626953125,0.01077975268959999,-0.010251381433941423,-0.00698204090707004
1761838422028136700,3.03313671875,0.04078501485288143,-0.006044650459103286,0.013055588667094708
1761838422038206700,3.043206787109375,0.042806876069307324,-0.005074782513640821,0.017868907232955096
1761838422048275700,3.053275634765625,0.023848493099212643,-0.006595671937987208,0.02073284529671073
1761838422058345000,3.063344970703125,0.032013679376244546,0.0068164020165801045,0.016306334091350436
1761838422068414700,3.073414794921875,0.01357785897552967,0.008570077283494173,0.010914411919936537
1761838422078483700,3.083483642578125,-0.001284194591641426,0.011954459024779499,-0.007250920976325869
1761838422088553700,3.0935537109375,-0.011633154648542404,0.012701003075763582,-0.030487931113690137
1761838422098622700,3.103622802734375,-0.017333412116765975,0.004422200356423854,-0.059011576417088506
1761838422108691700,3.113691650390625,-0.03159983787834644,0.0023700901322066784,-0.06734452047646046
1761838422118761700,3.12376171875,-0.04663900157809257,0.003765855339542031,-0.04861015552058816
1761838422128830700,3.133830810546875,-0.041052725878357885,-0.0024058920979499816,-0.05641556857451796
1761838422138900700,3.143900634765625,-0.035620763957500454,-0.011805332877673208,-0.04886807580441236
1761838422148969700,3.1539697265625,-0.027896307185292242,-0.013626155096665024,-0.044832536678016184
1761838422159039700,3.164039794921875,-0.0008440496087074279,-0.010588102575019001,-0.027641309510916468
1761838422169109000,3.17410888671875,0.005167758026719093,-0.0026448519529774783,-0.011967281973734497
1761838422179177700,3.184177734375,0.012381342667341231,-0.01147975418511778,0.012791165577247738
1761838422189247700,3.194247802734375,0.03580371930897236,-0.018418211678788064,0.025694120965898036
1761838422199316700,3.204316650390625,0.03990472488701343,-0.024798889159224926,0.045857203550636765
1761838422209386800,3.21438671875,0.03649813131392002,-0.022104937367513774,0.05104293562546372
1761838422219455700,3.224455810546875,0.018250526961684225,-0.03317844883929938,0.054582946319878096
1761838422229525800,3.23452587890625,-0.010489829832315445,-0.02140537426341325,0.049407954834774136
1761838422239594800,3.2445947265625,-0.011357260316610336,-0.00989781875591725,0.04524776641540229
1761838422249663700,3.254663818359375,-0.02497720486819744,-0.008418101592175662,0.031450346405059094
1761838422259733800,3.264733642578125,0.011645429608225821,0.013357421157881617,-0.011248027788475156
1761838422269802800,3.274802734375,0.021752397602796552,-0.00954279477316886,-0.021801132115349172
1761838422279872800,3.284872802734375,-0.0029009821385145187,-0.02174772142767906,-0.006770443983003496
1761838422289941800,3.294941650390625,-0.012787585380673408,-0.04239314416926354,-0.0015812047768384218
1761838422300010800,3.3050107421875,0.029755671316385266,-0.08172481840867549,-0.0005632599059492349
1761838422310080800,3.315080810546875,-0.028251696494221684,0.04292842008974403,-0.03310322817862034
1761838422320149800,3.325149658203125,-0.06207564016282558,0.01892294633053243,-0.028209830113872885
1761838422330219800,3.3352197265625,-0.07150573180913924,-0.013801438598334789,-0.05409910832569003
1761838422340288800,3.345288818359375,-0.07508826647102833,0.008624912743270397,-0.08486344522796571
1761838422350358800,3.35535888671875,-0.058767246267199515,-0.007805997575819492,-0.09954290876984595
1761838422360427800,3.365427734375,-0.05270166261792183,-0.0017496932115405796,-0.0875124253667891
1761838422370496800,3.375496826171875,-0.03182254071831703,-0.008937120497599243,-0.06833470055758953
1761838422380566800,3.38556689453125,-0.012189619487524032,0.00031534955948591233,-0.017321356352791188
1761838422390635800,3.3956357421875,-0.014096914413571356,-0.01063015161845833,0.047723362748697394
1761838422400705800,3.405705810546875,-0.021146832925081252,-0.027077830409258603,0.08162132150158286
1761838422410774800,3.41577490234375,-0.019379238730669022,-0.04683861580342054,0.0898017053477466
1761838422420843800,3.42584375,-0.010095277556777,-0.03173716398980468,0.07464797535762191
1761838422430913800,3.435913818359375,0.004306757283210754,-0.03128536510169506,0.0650062867872417
1761838422440982800,3.445982666015625,0.012024784314632416,-0.027025150373950597,0.04308700818493962
1761838422451052500,3.456052490234375,0.019380407774448393,-0.032584136207960544,0.022353505301102996
1761838422461121800,3.466121826171875,0.044859132423996924,-0.03151058869231492,0.012429346527531743
1761838422471191800,3.47619189453125,0.021865210327506063,-0.020273082297854125,0.001536927243694663
1761838422481260800,3.4862607421875,-0.0065115738511085505,-0.010551204630732535,-0.007145049449056386
1761838422491329800,3.496329833984375,-0.009457564175128936,0.005684219648875295,-0.024624153646826744
1761838422501399800,3.50639990234375,-0.008484335228800773,0.016303521079756318,-0.045897097169607874
1761838422511468500,3.516468505859375,0.0037777649730443954,0.00144523037225008,-0.07975304341167211
1761838422521538800,3.526538818359375,0.022239304336905477,-0.0010256167206913233,-0.11128792629502714
1761838422531607800,3.53660791015625,0.03493979595601558,-0.005147665086761117,-0.1032069111701101
1761838422541676800,3.5466767578125,0.053095045849680896,-0.005405804566293955,-0.07782412117570638
1761838422551746800,3.556746826171875,0.038600656551122665,-0.015552921908162534,-0.04263144643716514
1761838422561815800,3.56681591796875,0.029251228925585744,-0.022127697188593445,-0.004119710278511047
1761838422571885800,3.5768857421875,0.04533259515464306,-0.018738347011245785,0.029618089476600287
1761838422581954800,3.586954833984375,0.020876199290156362,-0.012766761788353323,0.05603935567326843
1761838422592024800,3.59702490234375,-0.016565350353717805,-0.030437516100704668,0.0462766710717231
1761838422602093800,3.60709375,0.0103828623265028,-0.055146023562736804,0.04047711794748902
1761838422612162800,3.617162841796875,-0.0001689268261194229,-0.07695822506137191,0.07888254418745637
1761838422622232600,3.627232666015625,0.014340660041570663,-0.07877802436705678,0.1068044242054224
1761838422632301800,3.6373017578125,0.04676993448138237,-0.07595299354158341,0.08764518490098416
1761838422642371600,3.64737158203125,0.08036474556922912,-0.07958104784563183,0.07199870295785367
1761838422652440800,3.65744091796875,0.08335808216631412,-0.0866901857310906,0.07774696428626775
1761838422662509600,3.667509521484375,0.08281506133079529,-0.10176683189701288,0.079144775320217
1761838422672579800,3.677579833984375,0.07660685434043407,-0.10705737605318426,0.07090279747992753
1761838422682648600,3.687648681640625,0.06237491537034511,-0.12310184433795511,0.044188466620817775
1761838422692718800,3.69771875,0.02780629081428051,-0.11668847016431391,0.03752119075134396
1761838422702787800,3.707787841796875,-0.09189093271195888,-0.04451912334728986,-0.029907281681522725
1761838422712856800,3.71785693359375,-0.0962736778408289,-0.01611592608578503,-0.07472725113891064
1761838422722926800,3.7279267578125,-0.11206921286582947,0.011007241302542388,-0.08105294702909886
1761838422732995800,3.737995849609375,-0.18309388315975664,0.009004157851822674,-0.10116634525321423
1761838422743065900,3.74806591796875,-0.1558990022420883,0.020031820887885986,-0.10332089293859899
1761838422753134800,3.758134765625,-0.12791267868578432,0.034255393888428805,-0.10216222442276775
1761838422763204900,3.768204833984375,-0.12161445532441138,0.030331498442962766,-0.07118380637839436
1761838422773273600,3.778273681640625,-0.12426058591902256,0.010754399052634835,-0.04214819296486676
1761838422783342800,3.7883427734375,-0.0922778862029314,0.020885040183737873,-0.013636895686388015
1761838422793413600,3.79841357421875,-0.06835398977994918,0.03862845787350088,0.007125467965751886
1761838422803482600,3.808482666015625,-0.08260171084105968,0.02915310231335461,0.012230828280746935
1761838422813552600,3.818552734375,-0.07752338466346263,0.031348639596253634,-0.0024703356362879274
1761838422823621600,3.82862158203125,-0.060413844430446624,0.025960845610685644,-0.016315174984931943
1761838422833690600,3.838690673828125,-0.05663374136984348,0.026851620437949895,-0.04049143873378634
1761838422843760600,3.8487607421875,-0.022421675166487694,0.029900998071208596,-0.07852401307336986
1761838422853829600,3.85882958984375,-0.005440729749202728,0.01382913032285869,-0.08013605137988924
1761838422863899600,3.868899658203125,-0.03205401138663292,-0.004686440783180296,-0.05037044319137931
1761838422873968600,3.87896875,-0.06047931088209152,-0.01224584318678826,-0.020786621310561894
1761838422884037600,3.88903759765625,-0.03515139288008213,-0.011860898989811538,-0.01730265165232122
1761838422894107600,3.899107666015625,-0.018173954594135282,-0.0012150748781859875,-0.02038863496892154
1761838422904176600,3.9091767578125,0.002381342178583145,-0.01702109476458281,-0.001792436374723911
1761838422914246700,3.91924658203125,0.025316227564215657,-0.03859488439746201,0.03290646349750459
1761838422924315600,3.929315673828125,0.017836685463786126,-0.0433427365116775,0.045425534135103224
1761838422934384600,3.939384521484375,0.03845043442547321,-0.05735591816455125,0.06923683702908456
1761838422944454700,3.94945458984375,0.012217676538228988,-0.045939913398027415,0.08160524714961648
1761838422954523600,3.959523681640625,0.022110124999284744,-0.02742229646537453,0.06914134076535701
1761838422964593700,3.96959375,0.03901099091768265,-0.00822736479304731,0.041146030184999106
1761838422974662700,3.97966259765625,0.054708910787105554,0.006915515009500086,0.01834405046403408
1761838422984732700,3.989732666015625,0.049801849523186684,0.016433540667593477,0.005552008103951811
1761838422994801400,3.999801513671875,0.08528115918338298,0.032527547182515264,-0.004643368826434016
1761838423004870700,4.00987060546875,0.08135960182547569,0.024801300312019884,0.0039057022016495465
1761838423014940700,4.019940673828125,0.075372344109416,0.02153769540619105,0.027511107259988784
1761838423025009700,4.030009765625,0.053422962629795075,0.026550335936434567,0.018036665015295147
1761838423035079700,4.04007958984375,0.03731587743759155,0.02443626639191061,0.0006636515405029058
1761838423045148700,4.050148681640625,0.030936405533552168,0.03671747315302491,-0.017800152845680713
1761838423055217700,4.0602177734375,-0.015136778855323791,0.031125790625810622,-0.037871173232793806
1761838423065287700,4.07028759765625,-0.03083820585608482,0.036340273871086536,-0.06472527788877487
1761838423075356700,4.080356689453125,-0.02451192544400692,0.036446656855009495,-0.08641644682362676
1761838423085426700,4.0904267578125,-0.017557868522405623,0.021329276819899677,-0.09397606842294334
1761838423095495700,4.10049560546875,-0.014174655824899672,0.0014225436164066194,-0.07354805129170418
1761838423105564700,4.110564697265625,-0.013803484424948692,0.0162257431358099,-0.043148382983356715
1761838423115634700,4.120634765625,-0.007491232538223266,0.03732354928739369,-0.011065437763184308
1761838423125703700,4.13070361328125,-0.030825930896401402,0.02122256504241377,0.005601034877449273
1761838423135773700,4.140773681640625,-0.012309446474909782,0.006911971345543861,0.019452450097352265
1761838423145842400,4.150842529296875,-0.037222353935241696,0.00769884740691632,0.018082476918399332
1761838423155912700,4.16091259765625,-0.031739538609981535,0.011696356077864765,0.023160803095996378
1761838423165981400,4.1709814453125,-0.029565701702237126,-0.0017728548914194106,0.027348025652766225
1761838423176050700,4.18105078125,-0.01253916357755661,-0.010163849280960858,0.0020085633434355258
1761838423186120700,4.19112060546875,0.004420154529809952,-0.005064626445807516,-0.003419891446083784
1761838423196189700,4.201189697265625,0.02386836684346199,-0.019568221964128316,-0.008782149131596088
1761838423206259700,4.211259765625,0.06440086823999881,-0.026728651645407078,-0.016448445975780487
1761838423216328700,4.22132861328125,0.0897550897270441,-0.03849080296847969,-0.02224909507855773
1761838423226397700,4.231397705078125,0.06998772846162318,-0.05144673065338284,-0.021789076351374385
1761838423236467700,4.2414677734375,0.06225859551429748,-0.04654909480493515,-0.011311083087325095
1761838423246536700,4.25153662109375,0.06653378861546516,-0.04809953911732882,-0.01953983611986041
1761838423256606500,4.2616064453125,0.04553893138170242,-0.043433775795996186,-0.03189531369358301
1761838423266675700,4.27167578125,0.025548867276310918,-0.032149069258943196,-0.032281390401721
1761838423276744700,4.28174462890625,0.008797638961672783,-0.03911543767284602,-0.029330431641638278
1761838423286814700,4.291814697265625,0.020887305206060407,-0.042494595249742265,-0.04854249711185694
1761838423296883500,4.301883544921875,0.013838555738329886,-0.04511226693484932,-0.05565145233422517
1761838423306953700,4.31195361328125,-0.04714812014400959,-0.03943411170057952,-0.04362637575864792
1761838423317022500,4.3220224609375,-0.10835399173498153,-0.032891265928372736,-0.03915492943301797
1761838423327091700,4.332091796875,-0.12887947789132595,-0.012176686940714717,-0.0576195375367999
1761838423337161500,4.342161376953125,-0.14218436514437197,0.013277195528522133,-0.0506890076212585
1761838423347230700,4.352230712890625,-0.14958207418024538,0.022894480310007927,-0.02439852819740772
1761838423357300700,4.36230078125,-0.1317097328811884,0.031244302438944577,0.008663345057517289
1761838423367369700,4.37236962890625,-0.08392214578986168,0.03297350085172802,0.011607143424451351
1761838423377438500,4.3824384765625,-0.03691197281181812,0.0058384603625163435,0.029860300734639165
1761838423387508700,4.3925087890625,-0.0073883566856384275,-0.010897022393718361,0.0429147203579545
1761838423397577500,4.402577392578125,0.02485913144648075,-0.014395532033964991,0.050690615056455134
1761838423407647500,4.4126474609375,0.06932721872627735,-0.009809555950574577,0.046011371199041605
1761838423417716700,4.422716796875,0.0962859528005123,-0.014449673373997211,0.02353095158264041
1761838423427786500,4.432786376953125,0.12084756260514258,-0.004494425342418253,0.021202508635073898
1761838423437855700,4.442855712890625,0.1400046830177307,0.007956585027649999,0.03679769878238439
1761838423447924700,4.4529248046875,0.11453647976219654,0.0000567351559177041,0.024546266105026006
1761838423457994800,4.462994873046875,0.10092296495139598,-0.0007557502707466483,-0.006877922945469617
1761838423468063500,4.4730634765625,0.11577040547132492,-0.018694507869519292,-0.05664207080677151
1761838423478133800,4.4831337890625,0.09902502237558364,-0.017214790705777704,-0.06780351629033685
1761838423488202500,4.493202392578125,0.0674947426021099,-0.010410444453172385,-0.06754720344170928
1761838423498271700,4.503271728515625,0.06932604968249798,-0.012747326435521244,-0.07581365813612938
1761838423508341500,4.513341552734375,0.028169278907775878,0.0022630495611578225,-0.060286783984676
1761838423518410800,4.52341064453125,-0.02131634427309036,0.01044153371118009,-0.03546396596059203
1761838423528480500,4.53348046875,-0.06973521500527859,-0.0034834582015872,-0.020965411943569778
1761838423538549800,4.5435498046875,-0.09854162277281284,-0.005138568464852869,-0.021612185414507983
1761838423548618500,4.553618408203125,-0.12806465437710285,-0.008892258442565798,-0.009313917920738457
1761838423558688800,4.563688720703125,-0.1273129592269659,0.016196480508707464,-0.006999430433288216
1761838423568757500,4.573757568359375,-0.10192951164543627,0.03290142199620604,0.0016832038465887306
1761838423578827500,4.58382763671875,-0.07461714182794094,0.012796024415455758,-0.00564947712905705
1761838423588896800,4.593896728515625,-0.030709026518464088,-0.005443542760796845,-0.005001753810048103
1761838423598966500,4.603966552734375,-0.017051088044047355,-0.008368709492497146,0.00018916589654982088
1761838423609035800,4.614035888671875,-0.007476034969091415,-0.00424340972341597,0.0015791589502245186
1761838423619104500,4.6241044921875,-0.0025455928295850753,-0.012173435537703335,0.00044474809281527995
1761838423629176600,4.634176513671875,-0.03934592196047306,0.009765132286958396,-0.017899667697399854
1761838423639245800,4.644245849609375,-0.023124854999780654,0.03205770118106156,-0.03047309887073934
1761838423649315600,4.654315673828125,0.015147884771227835,0.006932210415974259,-0.03417699488997459
1761838423659384800,4.664384765625,0.014217325922846793,0.0033937706241384145,-0.018321400240808725
1761838423669453600,4.67445361328125,0.016132219633460045,0.00005012275204062462,0.0048718438200652595
1761838423679523600,4.684523681640625,0.03599076631367206,-0.005275858043693005,-0.0003474251981824636
1761838423689592600,4.694592529296875,0.06097381640076637,-0.01642159450147301,-0.01991093445457518
1761838423699662600,4.70466259765625,0.06043430269658565,-0.030597528968006372,-0.03741809570305049
1761838423709731600,4.714731689453125,0.03462240056991577,-0.025975641321018338,-0.03830561912730336
1761838423719800800,4.72480078125,0.00448211385011673,-0.013496939226426183,-0.03373020097054541
1761838423729870600,4.73487060546875,-0.001589315018057823,-0.003480791320465505,-0.036343379143625495
1761838423739939600,4.744939697265625,-0.01961187844276428,-0.0009282938260585069,-0.039027576726302506
1761838423750009600,4.755009521484375,-0.020222119295597075,0.002375387361831963,-0.029799948849529027
1761838423760078600,4.76507861328125,-0.058416533133387565,-0.004534684287570417,-0.03425561308413744
1761838423770147600,4.775147705078125,-0.06168810214996338,-0.012451412228867411,0.0001223842706531286
1761838423780217600,4.785217529296875,-0.04812134909033775,-0.020021336026489735,0.00985569664724171
1761838423790287000,4.795287109375,-0.05483867464661598,-0.008785802393406629,0.015299568201601504
1761838423800357000,4.805357177734375,-0.010378770673274994,-0.021552783377468583,0.0020743220560252664
1761838423810426000,4.815426025390625,0.014021511089801788,-0.008549472886882722,0.01905227179862559
1761838423820496100,4.82549609375,0.0162649061024189,-0.012354819986596703,0.02916479275114834
1761838423830564900,4.83556494140625,0.0105658176779747,-0.01774465979877859,0.022619681956619023
1761838423840634000,4.845634033203125,0.016232757398486137,-0.0291294291768223,-0.0016387801829725504
1761838423850704000,4.855703857421875,0.017772972577810287,-0.016888262165151536,-0.010131079522520302
1761838423860773000,4.865773193359375,-0.0038701194316148758,0.002027341109141707,-0.012252747851610183
1761838423870843000,4.8758427734375,-0.02088555164039135,-0.011693506533652543,-0.014626710441336035
1761838423880912100,4.885912109375,-0.023237667724490166,0.00818666745647788,-0.003911912746727466
1761838423890980900,4.89598095703125,-0.022588848426938056,0.008805310811474919,-0.011341989682242273
1761838423901051100,4.906051025390625,-0.02092296104133129,-0.01903448041360825,-0.013999883779883385
1761838423911120000,4.916119873046875,-0.0017179098337888716,-0.030722433989308774,-0.0005197860904037952
1761838423921190100,4.926190185546875,0.021168460234999655,-0.031702348404750225,0.0010144377395510673
1761838423931259000,4.9362587890625,0.024060674545168876,-0.03615249621402472,0.028619141567125916
1761838423941328100,4.946328125,0.039568624800443646,-0.010004165207222103,0.04724931549616158
1761838423951398100,4.956398193359375,0.030241993528604506,-0.00868015006184578,0.0714129389591515
1761838423961467100,4.966467041015625,0.0033551556468009946,-0.018837313873693345,0.09535933947488665
1761838423971537200,4.976537109375,-0.02017886467576027,-0.0158078830499202,0.09996771005317569
1761838423981606000,4.98660595703125,-0.08753858272135258,-0.01608311979472637,0.0716349842119962
1761838423991676200,4.99667626953125,-0.08764028953015804,0.019087635372951627,0.0013460077814757823
1761838424001745000,5.006744873046875,-0.08103051600158213,0.04578830303288996,-0.04373582748249173
1761838424011814100,5.016814208984375,-0.09043781129419803,0.06664247315432877,-0.057797816713154315
1761838424021884000,5.0268837890625,-0.07659457938075065,0.070626391691342,-0.07158076980672776
1761838424031953200,5.036953125,-0.05321428831517696,0.049525699462927876,-0.08167107892744242
1761838424042023000,5.04702294921875,-0.044235447567701335,0.04293273093868047,-0.07918605717867612
1761838424052092200,5.057092041015625,-0.04432838654816151,0.025678521537967024,-0.06432736461237072
1761838424062161000,5.067160888671875,-0.0627542700767517,0.007160064355097711,-0.07261003978922963
1761838424072231200,5.077231201171875,-0.025696751314401627,0.0034652284251525996,-0.08221746076382697
1761838424082300000,5.0872998046875,0.01455167244374752,0.012802198427915572,-0.07869739687889814
1761838424092370000,5.097369873046875,0.024035540103912352,0.019992256062477825,-0.04849288581646979
1761838424102439000,5.10743896484375,0.04241933805644512,0.02493522888999432,-0.02585150348469615
1761838424112508200,5.117508056640625,0.07615326535403728,0.012967545057460665,0.008397825989127158
1761838424122578000,5.127577880859375,0.09830839853882789,-0.0018036518884822724,0.03315758871436119
1761838424132647000,5.13764697265625,0.05657061300575733,-0.0245914569536224,0.050506271465495224
1761838424142717200,5.14771728515625,0.051321021914482116,-0.027041334323771295,0.03938742301464081
1761838424152786000,5.157785888671875,0.07295651513934134,-0.019128332709521054,0.03033018326871097
1761838424162855000,5.16785498046875,0.04560732044279575,-0.03455627653114497,0.009101517279073596
1761838424172925000,5.177925048828125,0.03463935170471668,-0.04671794856581837,0.008614318284019828
1761838424182994200,5.187994140625,0.01883855598270893,-0.04457125539332628,-0.00019727613776922225
1761838424193064000,5.19806396484375,0.01700724890232086,-0.045124724557623265,-0.002493278120458126
1761838424203133200,5.20813330078125,0.013873042529821395,-0.04232902942448854,0.01179163314588368
1761838424213203000,5.218202880859375,-0.010376432585716248,-0.02279807073082775,0.04163490968048572
1761838424223272200,5.228272216796875,-0.03470598720014095,-0.005582622437924146,0.07651508440375328
1761838424233341000,5.2383408203125,-0.05630056389272212,-0.010854717621952295,0.06307955650836229
1761838424243411000,5.248410888671875,-0.05914952358305454,-0.038390374801307914,0.038777401357516644
1761838424253480000,5.25847998046875,-0.051043958538770674,-0.05063716783616692,0.026441505267098545
1761838424263550000,5.268550048828125,-0.10635551139414309,-0.040949155906029044,0.011083192615583538
1761838424273619000,5.278618896484375,-0.0854331348747015,0.006790573455579579,0.006270166310667991
1761838424283688200,5.288688232421875,-0.08236205686628818,0.02177402491271496,0.0008734948989003896
1761838424293758000,5.298758056640625,-0.11273147616684435,0.017448782124742865,-0.021505364039167762
1761838424303827000,5.308826904296875,-0.06698211690485477,0.02394501227624714,-0.03355857073068619
1761838424313897200,5.318897216796875,-0.05942015721797943,0.031606340684369204,-0.0471360643800348
1761838424323966000,5.328966064453125,-0.05953413898646831,0.017800737367570398,-0.05522869687750935
1761838424334035000,5.339034912109375,-0.02212298448085785,0.02845931136291474,-0.05927768000736832
1761838424344105000,5.34910498046875,0.024184008663892746,0.014061952698044477,-0.09064465897791087
1761838424354174000,5.359174072265625,0.08023615075349808,-0.005848689495585859,-0.09744798231720923
1761838424364244000,5.369243896484375,0.11160393344163894,-0.004428374368883669,-0.07317812200076877
1761838424374313200,5.379313232421875,0.13352818048000334,-0.014783691101334989,-0.04673873562552035
1761838424384383000,5.389383056640625,0.17488544226288794,-0.006250146435946226,0.0006834522195160389
1761838424394452000,5.399451904296875,0.15155425103604792,-0.005357179651595652,0.04313084732666611
1761838424404521000,5.40952099609375,0.11946049216091632,-0.008250343809835612,0.045015711225196715
1761838424414591000,5.419591064453125,0.08763444431126118,-0.02030687496960163,0.023266163166612387
1761838424424660000,5.429659912109375,0.020114567267894744,-0.018958675231039522,0.021602248542383313
1761838424434730000,5.43972998046875,-0.022370237240195275,-0.00876238498520106,0.02425816987864673
1761838424444799000,5.449799072265625,-0.05864215858280658,-0.023939167057350278,0.031951646990701556
1761838424454868000,5.459867919921875,-0.08530454005897045,-0.034452158569544554,0.011925342528149484
1761838424464938000,5.46993798828125,-0.11228197883367538,-0.031160825406573712,-0.0236544318318367
1761838424475007000,5.480007080078125,-0.11644786634147167,-0.013206249184161424,-0.046260742850229145
1761838424485077000,5.490076904296875,-0.12493746226727961,-0.00835705558732152,-0.04882664781548082
1761838424495146000,5.50014599609375,-0.1355126322954893,-0.011270933740027248,-0.05163030705936253
1761838424505215000,5.510215087890625,-0.09916881476044655,-0.007855389675498009,-0.039439226267114276
1761838424515285000,5.520284912109375,-0.08129179728627205,-0.01115881513506174,-0.0019015958376228808
1761838424525354000,5.53035400390625,-0.058278001445531843,-0.019153722879104315,0.025463380949944256
1761838424535424000,5.540424072265625,-0.007000818672776222,-0.021110775231011212,0.037734687371551986
1761838424545493200,5.5504931640625,0.03963759838342666,-0.027427411031909286,0.05522511668093502
1761838424555563000,5.56056298828125,0.06372223832607268,-0.027824374460242687,0.06527743187882006
1761838424565632000,5.570632080078125,0.057037645995616906,-0.02548372961822897,0.06704736416079103
1761838424575701000,5.580700927734375,0.05851473281085491,0.0070878393691033124,0.06926533247120678
1761838424585771000,5.59077099609375,0.05081541047990322,0.03168375330213457,0.05766951415836811
1761838424595840000,5.600840087890625,0.0338806422919035,0.03980736545976251,0.03003383067063987
1761838424605910000,5.610909912109375,0.02641629776060581,0.050684989033266896,0.0031377135038375852
1761838424615979000,5.62097900390625,0.00701309363245964,0.041720067213289434,-0.03181983730457723
1761838424626048000,5.631048095703125,-0.015240823751688002,0.023845278228819367,-0.07520955476313829
1761838424636118000,5.641117919921875,-0.0048310734182596205,0.019989735311828554,-0.11271006805263459
1761838424646187000,5.65118701171875,-0.016279519149661064,0.00470193061325699,-0.1255463148806244
1761838424656257000,5.661257080078125,-0.031336218506097795,0.014632665258087216,-0.12220138836689293
1761838424666326000,5.671325927734375,-0.030530747342109678,0.03059212214052677,-0.11663805515132844
1761838424676395000,5.68139501953125,-0.027214170140028,0.014318119416199624,-0.07658252361677587
1761838424686465000,5.691465087890625,-0.04441372674405575,0.012166603938117623,-0.026100071418285367
1761838424696534000,5.701533935546875,-0.032900399082899094,0.01860423577018082,0.029733605615049598
1761838424706604000,5.71160400390625,-0.027753683844208715,0.007117942246422171,0.06120974404849112
1761838424716673000,5.721673095703125,-0.006757657566666603,0.007985299665480852,0.06961962580159306
1761838424726742000,5.731741943359375,0.027006080347299573,-0.011153408307582139,0.043796617759019135
1761838424736812000,5.74181201171875,0.08412439036369324,-0.005693389336019754,0.015151172706857324
1761838424746881000,5.751881103515625,0.12917875309884547,-0.013580854650214315,0.007086304999142885
1761838424756951000,5.761950927734375,0.161446114975214,-0.013543737510219216,-0.010396087134256958
1761838424767020000,5.77202001953125,0.19290742116570472,-0.009535159455984831,-0.011535393362492322
1761838424777090000,5.782090087890625,0.2172813994437456,0.0042728184809908264,-0.011702566622942685
1761838424787159000,5.792158935546875,0.20519290224313735,-0.010887925771810114,-0.009949585475772618
1761838424797226800,5.802226806640625,0.12317045259475708,-0.02081347278486937,0.010808321196958423
1761838424807296500,5.812296630859375,0.012956512206792831,-0.0023386720806360243,0.003955021236091852
1761838424817365800,5.82236572265625,-0.04455751912891864,0.027044366531074046,-0.007863865242898463
1761838424827435500,5.832435546875,-0.12781272544264793,0.05478917294908315,-0.015337196798250078
1761838424837504500,5.84250439453125,-0.23261750026345251,0.04891713911052793,-0.0486523141618818
1761838424847573500,5.852573486328125,-0.2800976288408041,0.04040332205891609,-0.0749031922277063
1761838424857643500,5.8626435546875,-0.30611119101941586,0.06001757512185722,-0.10091434325352311
1761838424867712500,5.87271240234375,-0.2911906852632761,0.0685060020038858,-0.08556399471275508
1761838424877782500,5.882782470703125,-0.24045067810714243,0.056273602820560334,-0.07061418979689478
1761838424887851800,5.892851806640625,-0.20533318749666213,0.03892773308102041,-0.04310184042789042
1761838424897921500,5.902921630859375,-0.14828911176025866,0.03799242499228567,-0.02922565609291196
1761838424907990800,5.91299072265625,-0.08014262725114822,0.02994856353998184,-0.03617357553467154
1761838424918059500,5.9230595703125,0.013731003710627555,0.008185279216989874,-0.03844992296881974
1761838424928129800,5.9331298828125,0.03849544261097908,-0.027203575680777428,-0.018539134644716977
1761838424938198500,5.943198486328125,0.07560965999662876,-0.03402933004759252,0.02374517885521054
1761838424948268500,5.9532685546875,0.13811550827026367,-0.03163629743121564,0.06236994693428278
1761838424958337500,5.963337646484375,0.15215572406053543,-0.05549816146865487,0.08026289262995123
1761838424968406800,5.97340673828125,0.14641045840680597,-0.05878390514105558,0.08644289643913507
1761838424978476500,5.9834765625,0.13970949946343897,-0.07074008119888603,0.06133497786335647
1761838424988545500,5.993545654296875,0.13924129742980002,-0.07925831869728862,0.04512801249325275
1761838424998615600,6.003615478515625,0.11922317627370357,-0.0598068184480071,0.04384579066298902
1761838425008684500,6.0136845703125,0.05948270106017589,-0.056340676707401866,0.07162687397077679
1761838425018754600,6.023754638671875,0.009476853397488593,-0.05445698185265064,0.062241790509968996
1761838425028823600,6.033823486328125,-0.0267260943621397,-0.05149462491571903,0.03753149294964969
1761838425038892500,6.043892578125,-0.07293021165430545,-0.043262510882318014,0.0018967735320329665
1761838425048962600,6.053962646484375,-0.11791326271891593,-0.04220891017615795,-0.04488726253993809
1761838425059031600,6.064031494140625,-0.12782149327099324,-0.008359466740116476,-0.07186484744511544
1761838425069101600,6.0741015625,-0.11970189970135688,0.01287109894566238,-0.08455518299639224
1761838425079170800,6.0841708984375,-0.1198971300125122,0.030667306268587706,-0.09484269518963992
1761838425089239600,6.094239501953125,-0.09006371728479862,0.041873759937658905,-0.09148995069563388
1761838425099309600,6.1043095703125,-0.07058160270154476,0.03885426598601043,-0.07818221389837562
1761838425109378600,6.114378662109375,-0.04394727827608585,0.012292933731526135,-0.052485827910155054
1761838425119448600,6.124448486328125,-0.03068096946775913,0.008774696477502585,-0.023521745362877846
1761838425129517600,6.134517578125,-0.010736498069763184,-0.001679331389069557,0.023013284384086726
1761838425139587600,6.144587646484375,0.006784545573592185,-0.01924224141277373,0.0387062358174473
1761838425149656600,6.154656494140625,0.05666939720511436,-0.0008062018163502216,0.03654978843592107
1761838425159725600,6.1647255859375,0.09688625678122043,0.01733399663865566,0.02902260780148208
1761838425169795600,6.174795654296875,0.10670037930905818,0.024032398298755288,0.018135960671305656
1761838425179864600,6.184864501953125,0.11995908933281897,0.02931837587766349,-0.007479834361374378
1761838425189934600,6.1949345703125,0.12333236515820026,0.011260302748158573,-0.04216857816576958
1761838425200003600,6.205003662109375,0.130045014539361,0.002523380997776985,-0.05981836275532841
1761838425210072600,6.215072509765625,0.11465163057446479,0.0029914369009435174,-0.055134881114214655
1761838425220142600,6.225142578125,0.07918108874261379,0.0009819967746734618,-0.07079670675694942
1761838425230211600,6.235211669921875,0.06491817011237144,-0.011976707389205693,-0.07290332364737986
1761838425240281600,6.245281494140625,0.05043605577349662,0.003062310180068016,-0.05885952766053378
1761838425250350600,6.2553505859375,-0.011061492240428924,0.009411094684898853,-0.02981953033283353
1761838425260420600,6.265420654296875,-0.04134615586698055,0.014701163917034863,-0.0029211481437087057
1761838425270489600,6.275489501953125,-0.029032033216953277,-0.004416647398471832,0.0031344255682080983
1761838425280558600,6.28555859375,-0.042943069669604296,-0.005996902327239513,0.008908259729295969
1761838425290628600,6.295628662109375,-0.030209260302782058,-0.013727277383580804,0.002434095279127359
1761838425300697600,6.305697509765625,-0.000709025052189827,-0.007775821633264422,0.012885785058140755
1761838425310767600,6.315767578125,0.005463526102900505,-0.01253653322905302,0.02960238045081496
1761838425320836600,6.325836669921875,-0.0026315175473690033,-0.017569558960199357,0.04271664050258696
1761838425330905600,6.335905517578125,-0.034122049832344056,-0.019545681338757274,0.04386588360294699
1761838425340975600,6.3459755859375,-0.010119827476143836,-0.026529475811496374,0.015781287303939462
1761838425351044600,6.356044677734375,-0.01886252138018608,-0.015984700921550393,0.00040463527813553807
1761838425361114600,6.366114501953125,-0.03539163137674332,-0.01540383229367435,-0.007781520721688866
1761838425371183600,6.37618359375,-0.047636195921897884,0.003715586457028985,-0.009184811648353934
1761838425381253400,6.38625341796875,-0.03718202192485332,0.028620602871850132,-0.01672843196094036
1761838425391322600,6.396322509765625,-0.03361526935398578,0.023403087419271468,-0.02713905907720327
1761838425401391600,6.4063916015625,-0.020081834042072293,0.015976152288913727,-0.0259564982291311
1761838425411461600,6.416461669921875,-0.016128712502121924,0.024711247408390043,-0.018308906085416674
1761838425421530400,6.4265302734375,-0.012046411624550819,0.03291523132584989,-0.03230199479833245
1761838425431600600,6.4366005859375,0.015409750577807425,0.04291662005409598,-0.043246509595587845
1761838425441669600,6.446669677734375,0.03977262293994426,0.044542686885967846,-0.047277372546866536
1761838425451738600,6.456738525390625,0.03666413553059101,0.025841347416862843,-0.038126317037642
1761838425461808600,6.46680859375,0.05777239001095295,0.028696444587036966,-0.04319200292937457
1761838425471877600,6.476877685546875,0.09085399087965487,0.03856302795447409,-0.06167122408039868
1761838425481947600,6.48694775390625,0.12732932583987713,0.053893137424811714,-0.08732800871059299
1761838425492016600,6.4970166015625,0.13184768004715441,0.029701310780644415,-0.09065401132814585
1761838425502086700,6.507086669921875,0.15317454571425915,0.06602218583151698,-0.09685966103523969
1761838425512155600,6.51715576171875,0.2429793198019266,0.07902531365901232,-0.1430796334836632
1761838425522224600,6.527224609375,0.2918780830055475,0.012414368154108523,-0.12055223292037844
1761838425532294400,6.53729443359375,0.20929624590873716,0.05374839519187808,-0.06978022319078445
1761838425542363600,6.54736376953125,0.13408464531898498,-0.04111621956862509,-0.039273806572332974
1761838425552433400,6.557433349609375,0.06817454155981541,-0.03261171833463013,-0.0070353054642677305
1761838425562502700,6.567502685546875,0.0032049335211515426,0.014563874338194727,0.011316489914804696
1761838425572572700,6.57757275390625,-0.055607320931553836,-0.014275047459453344,0.03835764157548546
1761838425582641700,6.5876416015625,-0.14714461790025232,-0.025943748345412312,0.04418152542337775
1761838425592710400,6.59771044921875,-0.14909224483668804,-0.025635120787657797,0.032139863039180636
1761838425602780700,6.60778076171875,-0.20713526848256586,-0.06477843284811824,0.05407580051533877
1761838425612849700,6.617849609375,-0.3058253598153591,-0.04374832163788378,0.057934083378687495
1761838425622919700,6.627919677734375,-0.2408873159587383,-0.012124956753477453,0.02877674328163266
1761838425632988700,6.63798876953125,-0.22651450721323488,-0.022155169717408715,0.0485915238853544
1761838425643057700,6.6480576171875,-0.26517244690954683,-0.021628990418836473,0.06389372243545949
1761838425653127700,6.658127685546875,-0.19923662418723107,-0.02400839636866003,0.0563530247323215
1761838425663196700,6.66819677734375,-0.17398235594332218,-0.04279544135984033,0.05913286470919847
1761838425673266700,6.6782666015625,-0.18915128350257873,-0.07985745363421738,0.09506313300728797
1761838425683335400,6.68833544921875,-0.19516426018178462,-0.10381594644654542,0.1265204936750233
1761838425693405700,6.69840576171875,-0.1345586925715208,-0.07360398273002355,0.148738389897719
1761838425703474400,6.708474365234375,-0.10067512767016887,-0.08232066540997475,0.15339228011816738
1761838425713543700,6.718543701171875,-0.11489888333380222,-0.1029557859532535,0.15857538184449077
1761838425723613400,6.728613525390625,-0.045589784786105154,-0.08283855180423706,0.14434497724436224
1761838425733682700,6.7386826171875,-0.050450084298849104,-0.05052804490588605,0.15200667097866535
1761838425743752400,6.74875244140625,-0.09373276118636131,-0.01583089859932661,0.20345131927281618
1761838425753821700,6.75882177734375,-0.13075579315721989,0.0009257365427911282,0.1894846071101725
1761838425763890400,6.768890380859375,-0.08891279368400573,0.008910013294965028,0.09857157951965928
1761838425773960700,6.778960693359375,-0.012563713496923446,0.026380349664390085,-0.013585311629623174
1761838425784029400,6.789029541015625,0.03817161748409271,0.034237712101265784,-0.1245478053625673
1761838425794099700,6.799099609375,0.03682020287513733,0.06326083135940135,-0.18833938259780406
1761838425804168700,6.809168701171875,0.06517126809060574,0.12396299121193587,-0.2359273554638028
1761838425814238700,6.81923876953125,0.09334054699838161,0.06339665963351726,-0.16446414762213826
1761838425824307700,6.8293076171875,-0.0038262802898883816,0.04330635002404451,-0.10201667847223579
1761838425834376700,6.839376708984375,-0.023199673801660537,0.011632350930944084,-0.06906257644072175
1761838425844446700,6.84944677734375,-0.0926829598724842,0.01618687243014574,-0.040886721661686894
1761838425854515700,6.859515625,-0.042075639185309405,0.053721434119716284,0.015320903250575064
1761838425864585700,6.869585693359375,0.023316578179597855,0.05816957263499498,0.0161744513399899
1761838425874654700,6.87965478515625,0.037710429713129996,0.004632409041002392,-0.027613398590683937
1761838425884724700,6.889724853515625,-0.01589841087758541,-0.06248034850619733,-0.016145663636922835
1761838425894793700,6.899793701171875,0.045693829682469364,-0.046559433535858986,-0.003031330519914627
1761838425904862700,6.90986279296875,0.1704606115579605,-0.022568097899854183,-0.02409574585855007
1761838425914932700,6.9199326171875,0.20443886900544164,-0.05424859979897737,-0.0416981841750443
1761838425925001700,6.930001708984375,0.11620938141047954,-0.08683109203912318,-0.014736819752305745
1761838425935071700,6.94007177734375,0.07721767971515656,-0.08175006244778632,0.040027766744792456
1761838425945140700,6.950140625,0.12135434308350085,-0.042793505131080746,0.08893339808061719
1761838425955209700,6.960209716796875,0.13787702333927154,-0.02614990190938115,0.07475304316729307
1761838425965279700,6.97027978515625,0.15828034442067146,-0.050384763977676626,0.053015258611738676
1761838425975348700,6.9803486328125,0.16627601934969424,-0.07129333116747438,0.03654123980328441
1761838425985418800,6.990418701171875,0.13735621433556078,-0.07338730777204036,0.03639905485361814
1761838425995487700,7.00048779296875,0.12417583024501799,-0.06143208156228065,0.02592354580760002
1761838426005557800,7.010557861328125,0.13837678955495356,-0.01736578001640737,0.024649872609972954
1761838426015626800,7.020626708984375,0.0917027166634798,0.019052125668153164,-0.005351005639135837
1761838426025695700,7.03069580078125,0.0630640666782856,-0.009421579546295106,-0.08220452821701764
1761838426035765800,7.040765869140625,0.055042672786116596,-0.0053221814034506675,-0.1419151928141713
1761838426045834800,7.050834716796875,0.1285375325858593,0.017202333083003757,-0.13961626822203396
1761838426055904500,7.060904541015625,0.07453764685094356,0.012849362037889658,-0.08975845072790979
1761838426065973800,7.070973876953125,-0.0078080434024333945,0.01049074314776808,-0.055458706241101025
1761838426076043500,7.08104345703125,-0.07096388001739978,-0.03649652387872338,-0.06926087549179792
1761838426086112800,7.09111279296875,-0.08895487926006317,-0.025306473355181512,-0.06372822967544198
1761838426096181500,7.101181396484375,-0.06157996560037136,0.012084917004033923,-0.017133797891438006
1761838426106251800,7.111251708984375,-0.08353402325510978,0.03078296853750944,0.05443973845690488
1761838426116320500,7.121320556640625,-0.13875380617380143,-0.0022090908842161295,0.12327990431860089
1761838426126390800,7.131390869140625,-0.22747838380932806,-0.016711371228285133,0.16837562197744846
1761838426136459800,7.141459716796875,-0.2351537407428026,-0.0171378164794296,0.14794760484620928
1761838426146529800,7.15152978515625,-0.2050076088041067,0.004903590665198862,0.09555369300320744
1761838426156598800,7.161598876953125,-0.18231237739324568,0.015396635367907583,0.07418123462870717
1761838426166667800,7.171667724609375,-0.22312135764360427,0.006888590469956398,0.04132496694847941
1761838426176737800,7.18173779296875,-0.19735387918055056,-0.009191424052231013,-0.013188713527470827
1761838426186806800,7.191806884765625,-0.08551555246114731,-0.013887290250882506,-0.027763620716333388
1761838426196876800,7.201876708984375,-0.05324760606288909,-0.001689706652611494,-0.026400515669584273
1761838426206945500,7.211945556640625,0.015313304466009139,0.0050817237110808485,-0.02691416428014636
1761838426217014800,7.222014892578125,0.09670388595163822,-0.001688647206686437,-0.014702186830341815
1761838426227084500,7.23208447265625,0.15817863761186599,0.0005548939364030957,0.0024083763159811495
1761838426237153800,7.24215380859375,0.1838233664780855,-0.00843969236947596,0.022862112410366533
1761838426247223600,7.2522236328125,0.16706921555399895,-0.015395210595801472,0.04280702219977975
1761838426257292800,7.262292724609375,0.17304127570092678,-0.011922054592519998,0.028239859925955534
1761838426267362800,7.27236279296875,0.11575286981463431,0.0022387188374996185,-0.010693243449926376
1761838426277431800,7.282431884765625,0.061759998342394824,0.01616798506658524,-0.04366451581194997
1761838426287500500,7.29250048828125,0.044994156980514524,0.04568159125540405,-0.09350187503993511
1761838426297570800,7.30257080078125,0.014911737927794455,0.04167469370160252,-0.10797361411526799
1761838426307639800,7.312639892578125,-0.022338088536262513,0.031276012751460074,-0.09947218162119388
1761838426317709600,7.32270947265625,-0.008144143489003181,0.04040324899367988,-0.08250584925115108
1761838426327778800,7.33277880859375,0.04181728051006794,0.013944135004654527,-0.035044279243797063
1761838426337848600,7.3428486328125,0.043335283857584,-0.014640848564542829,0.01180778056308627
1761838426347917800,7.352917724609375,0.02878010428249836,-0.038921559068560596,0.0589683217972517
1761838426357986800,7.36298681640625,-0.06274374868273734,-0.013464900120347737,0.09570639934688806
1761838426368056800,7.373056884765625,-0.05009001881480217,0.02652706465870142,0.10376096485629677
1761838426378125600,7.38312548828125,-0.04924947633743286,0.04697367689255625,0.07468640767186879
1761838426388195800,7.39319580078125,-0.03942483241558075,0.02765036960020661,0.0077563132151961325
1761838426398264600,7.4032646484375,-0.03454875081181526,0.014089863618277012,-0.030211890651285645
1761838426408334800,7.4133349609375,-0.025108137771487234,0.01090436544995755,-0.039655426301062106
1761838426418403600,7.423403564453125,-0.036110593301057814,0.0083143854893744,-0.0564826424613595
1761838426428472800,7.433472900390625,-0.029057752180099487,0.0224831595627591,-0.08487389355674385
1761838426438542800,7.44354296875,-0.025586861199140547,0.006738185681216418,-0.10696063768044113
1761838426448611800,7.45361181640625,-0.03667407240271568,0.01125014668032527,-0.07465425896793604
1761838426458681900,7.463681884765625,-0.01953530607521534,-0.006654599050991237,-0.06886120864972471
1761838426468750600,7.47375048828125,-0.11039572669565677,0.0612474091777578,-0.059618164008110756
1761838426478820900,7.48382080078125,-0.06201251179873943,-0.04343078012131154,-0.02508198041692376
1761838426488889600,7.4938896484375,-0.04689677573144436,-0.019992475258186457,-0.0311060630120337
1761838426498958800,7.503958740234375,-0.017550854259729385,-0.028151231794431804,0.007558744816482067
1761838426509028600,7.514028564453125,0.025742928543686865,-0.05025353881344199,0.03349120458289981
1761838426519097900,7.524097900390625,0.04193769201934337,-0.06421681690998375,0.08533683489337562
1761838426529167600,7.534167724609375,0.04060615115463734,-0.06367379607446491,0.11055807765051721
1761838426539236900,7.54423681640625,0.04995324069261551,-0.058977601082250475,0.11972791092544793
1761838426549306600,7.554306640625,-0.019904139387607572,-0.05116531989611685,0.12677169195711613
1761838426559376000,7.5643759765625,-0.10480769743025302,-0.03283065831493586,0.11362667144089937
1761838426569444600,7.574444580078125,-0.16732932779490947,-0.004641688326001167,0.06257891350984573
1761838426579514600,7.5845146484375,-0.13036825514435768,0.018376783689856527,-0.000043400750309228896
1761838426589583600,7.59458349609375,-0.14907763178944586,0.03245207079350948,-0.03263166514411568
1761838426599653600,7.604653564453125,-0.1318622930943966,0.04518463805131614,-0.06467398609295487
1761838426609722600,7.61472265625,-0.040216275054216384,0.056748965247347946,-0.09169307205229997
1761838426619792600,7.624792724609375,0.018428221616148946,0.04992631615307182,-0.08926584490537642
1761838426629862000,7.63486181640625,0.07408055073320866,0.028063480445742604,-0.07498831322789191
1761838426639930600,7.6449306640625,0.0921428616464138,-0.0035000074775889513,-0.041972178810834884
1761838426650001000,7.6550009765625,0.12679273474514483,-0.00075191434584558,-0.04602510746344924
1761838426660069600,7.665069580078125,0.15361936687231062,0.02040401520114392,-0.061518298541009424
1761838426670140000,7.675139892578125,0.160038001742959,0.018219949160329995,-0.06946355845704674
1761838426680208600,7.685208740234375,0.11532792240083217,-0.004655388057790697,-0.05083469970226288
1761838426690278000,7.69527783203125,0.07908639619648457,-0.007776479220390319,-0.030054508132487532
1761838426700347600,7.70534765625,0.06376783103346824,-0.012916764718294144,-0.010234101505577563
1761838426710417000,7.7154169921875,0.014481529816985129,-0.026698256507143376,-0.006675386110693216
1761838426720486700,7.725486572265625,0.02207096203267574,-0.036203970672935244,0.015059329704940318
1761838426730555600,7.7355556640625,0.0235977332085371,-0.025929098765552043,0.029934535014629362
1761838426740625700,7.745625732421875,-0.046156186497211454,-0.033534386137500406,0.0697299543082714
1761838426750694700,7.755694580078125,-0.0968961936533451,-0.026880298543162644,0.07268763507008552
1761838426760765000,7.765764892578125,-0.12918459831774234,-0.005802841059863567,0.034151422057300804
1761838426770833700,7.775833740234375,-0.10539923358261584,0.017024163504503666,0.0009593465514481067
1761838426780902700,7.785902587890625,-0.08805354650616645,0.018201646318659184,-0.029449966368079183
1761838426790976500,7.7959765625,-0.06872574570178985,0.019407441911846398,-0.043040246433764695
1761838426801045800,7.806045654296875,-0.05407762714624405,0.012528861379250883,-0.043614100798964495
1761838426811115500,7.816115478515625,0.0337801045268774,-0.020840579987503587,-0.04450461989790201
1761838426821184500,7.8261845703125,0.014137246423959731,-0.046931079859845334,-0.04148074203208089
1761838426831254500,7.836254638671875,0.03274608530402184,-0.07096687569208443,-0.06829378402531147
1761838426841323500,7.846323486328125,0.060790276527404784,-0.05612944510951638,-0.05622063052430749
1761838426851392500,7.856392578125,0.012505845829844474,-0.04906484048552811,-0.026628479206562042
1761838426861462500,7.866462646484375,-0.010649404308199882,-0.03978679759576916,0.004591273313015699
1761838426871531500,7.876531494140625,-0.00992401264309883,-0.031211350017413497,0.04499824863374233
1761838426881601500,7.8866015625,-0.05977788461446762,-0.04329425772745162,0.07382832953780889
1761838426891670800,7.8966708984375,-0.06201426536440849,-0.054246005983091886,0.07853489979356527
1761838426901739500,7.906739501953125,-0.01592588340640068,-0.08000161134526133,0.07111337149068712
1761838426911809800,7.916809814453125,-0.021660627666115758,-0.07959222682677208,0.0669600512035191
1761838426921878500,7.92687841796875,0.008054711639881133,-0.055372233534045516,0.05879895657971501
1761838426931948500,7.936948486328125,-0.014164718952775001,-0.0568721897682175,0.08795096291452646
1761838426942017500,7.947017578125,-0.05976210252344608,-0.031337935539148744,0.08356514904573559
1761838426952087600,7.957087646484375,-0.09906827699542045,-0.0197780653225258,0.07699146974384784
1761838426962156500,7.967156494140625,-0.11727788742482662,0.018927220646850762,0.038111411729454994
1761838426972226600,7.9772265625,-0.05664075563251972,0.051759048005566,-0.00220247848033905
1761838426982295600,7.987295654296875,-0.024077625679969787,0.08725125367995351,-0.020413111823052166
1761838426992364500,7.997364501953125,0.004420154529809952,0.11043492619488388,-0.044045477953553194
1761838427002432500,8.0074326171875,0.0038350481182336804,0.11218834573347121,-0.04078019254729152
1761838427012501800,8.017501708984375,0.04128478106856346,0.09754212687406688,-0.043491497332602734
1761838427022571500,8.027571533203124,0.07339666012227535,0.08501637076735497,-0.06418050348758697
1761838427032640800,8.037640869140626,0.0693418317735195,0.0942039588946849,-0.06751271665021777
1761838427042709500,8.04770947265625,0.09532675237953663,0.11950791149921715,-0.066130322381109
1761838427052779800,8.05777978515625,0.0875812528192997,0.12184165167640894,-0.056523266732692715
1761838427062848500,8.0678486328125,0.06156359898746013,0.12141356245744973,-0.07784662526845931
1761838427072918500,8.07791845703125,0.10735445930361748,0.10423070125989616,-0.1064655476398766
1761838427082987500,8.087987548828124,0.1200017594307661,0.07913414432834834,-0.13284165952056645
1761838427093057500,8.0980576171875,0.06188917768001556,0.05227865143287926,-0.14320552488565444
1761838427103126500,8.10812646484375,-0.014148352339863775,0.05393745149057358,-0.12090996031686663
1761838427113196500,8.118196533203125,-0.02799742947220802,0.0672429597981274,-0.09005611850023269
1761838427123265500,8.128265625,-0.02066927854120731,0.07078527204748243,-0.05760317092388868
1761838427133334500,8.13833447265625,-0.06639233431816101,0.043322314778156575,-0.006474164450168609
1761838427143404500,8.148404541015625,-0.04648936397433281,0.03168846600987017,0.017354016513377427
1761838427153473500,8.1584736328125,0.009588497078418731,-0.013378244750201702,0.02859919475764036
1761838427163543800,8.168543701171876,0.031029344514012337,-0.05317147208675742,0.021822540229558943
1761838427173612500,8.178612548828125,0.021446108132600783,-0.07612199343293904,0.03186813342571258
1761838427183682600,8.1886826171875,-0.014676175606250763,-0.046941199395060536,0.03546601178720593
1761838427193751600,8.19875146484375,-0.042022447693347925,-0.02047854174207896,0.03222834504023194
1761838427203820800,8.20882080078125,-0.06802724204361438,0.000245279997959733,0.01326806237399578
1761838427213890600,8.218890625,-0.056440849146246905,-0.007471176130883396,-0.015450813240557908
1761838427223959800,8.228959716796876,-0.009159458011388778,0.0012226371301338075,-0.04689999060183763
1761838427234029600,8.239029541015626,0.0402677129805088,0.0013248188629746435,-0.042098289408534766
1761838427244098600,8.2490986328125,0.05121346988677978,-0.014210567388497292,-0.03806464997828007
1761838427254168600,8.25916845703125,0.04718845215439796,-0.010023710157908499,-0.01897708767056465
1761838427264237600,8.269237548828125,0.05158522580862045,0.009037840925715863,-0.014090776933729648
1761838427274306600,8.279306640625,0.042973464807868005,0.020081066857092083,-0.022057079637795685
1761838427284376600,8.28937646484375,0.02761982833147049,0.0348696898618713,-0.029868630171567198
1761838427294445600,8.299445556640626,0.019852701461315153,0.03986095881052315,-0.038148382738977665
1761838427304515600,8.309515625,-0.021599837389588355,0.020880437073856593,-0.03960340385288
1761838427314584600,8.31958447265625,-0.07162906592786311,0.004022496981732547,-0.020522271285951136
1761838427324654600,8.329654541015625,-0.11992986323833466,0.006324234585464,0.0056724926784634585
1761838427334723600,8.3397236328125,-0.12317922042310238,-0.00742010353077203,-0.009733312376588582
1761838427344792600,8.34979248046875,-0.10834288581907749,-0.028246910721249876,-0.039228286930173634
1761838427354862600,8.359862548828126,-0.06955752035081386,-0.02511149877235293,-0.03882277486920357
1761838427364931600,8.369931640625,-0.06220365045666694,-0.013692717526853084,-0.017113924147188663
1761838427375001600,8.380001708984375,-0.02726853067576885,-0.017958083353750407,0.01347936703711748
1761838427385070600,8.390070556640625,0.013681903871893882,-0.020600999077968297,0.04138166557177901
1761838427395140600,8.400140625,0.04108487458229065,-0.031041838669404385,0.03640796881243586
1761838427405209600,8.410209716796874,0.044108021795749665,-0.051228959716856474,0.04385112442523241
1761838427415278600,8.420278564453126,0.03123392717540264,-0.044808461682684715,0.04310045218840241
1761838427425348600,8.4303486328125,0.061140989661216734,-0.03231218739878386,0.019896394472569225
1761838427435417600,8.44041748046875,0.04217500790655613,-0.001127761920914054,-0.001739244882762432
1761838427445487600,8.450487548828125,0.06888590469956397,-0.01521799086537212,-0.0433494585134089
1761838427455556600,8.460556640625,0.12606734308004378,-0.04375142691042274,-0.06630246407762169
1761838427465626600,8.470626708984375,0.12444997101128101,-0.059013403047993775,-0.05100099617987871
1761838427475695600,8.480695556640624,0.08762275387346743,-0.058314899389818306,0.007650222492218017
1761838427485765600,8.490765625,-0.007366144853830337,-0.06964402959048747,0.03870046366378665
1761838427495834600,8.500834716796875,-0.013543956705927849,-0.023277378680370747,0.01999167154058814
1761838427505903400,8.5109033203125,0.0365337871491909,0.007376775845699012,-0.013197189094871282
1761838427515973600,8.5209736328125,-0.04641512969434261,-0.024881781669706105,-0.04354498108550906
1761838427526042600,8.531042724609375,-0.046126960402727124,-0.03306841259356588,-0.05192863241881132
1761838427536112600,8.541112548828124,-0.019503157371282578,-0.022753172143176195,-0.01896452044993639
1761838427546181600,8.551181640625,-0.11086217516362666,-0.009197013542801141,0.00942863034158945
1761838427556251600,8.561251708984376,-0.14979308658242224,0.00225439133066684,0.022922610425949095
1761838427566320600,8.571320556640625,-0.11735153718292712,0.020874263061396777,0.007668634931743144
1761838427576389600,8.5813896484375,-0.08045008576512336,0.019404921161197124,0.0031648937717080115
1761838427586459600,8.591459716796875,-0.03855857097506523,-0.0011816840652376414,0.0023690672188997268
1761838427596528600,8.601528564453124,0.0542582444101572,-0.01707644168101251,0.009104805214703082
1761838427606598700,8.6115986328125,0.0700789138764143,-0.03242741127628833,0.036076252640038727
1761838427616667400,8.62166748046875,0.06343289999067783,-0.05850132534001022,0.030704204212874172
1761838427626737700,8.631737548828125,0.08758359090685844,-0.08157949165385216,0.02041515764966607
1761838427636807700,8.6418076171875,0.009659224227070808,-0.04907415630314499,-0.00023848493099212645
1761838427646876700,8.651876708984375,-0.029678514426946637,0.00569970947895199,0.003833148422092199
1761838427656946700,8.66194677734375,-0.07755611788928508,0.04287614191323519,-0.007252163085341453
1761838427667015700,8.672015625,-0.07838730801641941,0.05139872679319232,-0.03785378370657563
1761838427677085700,8.682085693359374,-0.05921499003469944,0.07329268829114735,-0.04440539730712771
1761838427687154400,8.692154541015626,-0.05166179817616939,0.07740268089324236,-0.03691679511740804
1761838427697223700,8.7022236328125,-0.011932429856061934,0.05518036422375589,-0.04767769697606563
1761838427707293400,8.71229345703125,0.054452890199422836,0.03438888407498598,-0.05806713517382741
1761838427717362700,8.72236279296875,0.09815817641317844,0.020560740132816134,-0.03330737244859338
1761838427727432400,8.732432373046874,0.08835399075746536,0.03798964851330965,-0.03371434581428766
1761838427737501700,8.742501708984374,0.0909399155974388,0.03673259765692055,-0.04398264185041189
1761838427747571700,8.75257177734375,0.07588380076289176,0.03583338379487395,-0.0404344478495419
1761838427757640700,8.762640625,0.13385843534767627,0.025345965115353464,-0.03814282978102564
1761838427767709400,8.77270947265625,0.0944429552823305,0.012791457838192582,-0.014414748191088437
1761838427777779500,8.782779541015625,0.057333998593688006,-0.02403269055970013,-0.021324089188128708
1761838427787848700,8.7928486328125,0.08456102821528912,-0.038610374227538706,0.02238777289688587
1761838427797915000,8.802914794921875,0.13223054188489913,-0.03199877406805753,0.027861820393800734
1761838427807983900,8.81298388671875,0.09723989252448081,0.048074952665343874,0.04304039256423711
1761838427818054000,8.823053955078125,0.05791618239581585,-0.09384582963939755,0.0011085457637906074
1761838427828123000,8.833122802734374,0.06961188088655472,-0.15634082772545516,-0.03066036507114768
1761838427838193000,8.84319287109375,0.16042787784337997,0.0027308132033795115,-0.0446530884578824
1761838427848262000,8.853261962890626,0.08988777619600295,-0.01403941207267344,-0.03671104341223836
1761838427858331000,8.863330810546875,0.015379939961433409,-0.06300375132579356,-0.02369096444994211
1761838427868401000,8.87340087890625,-0.053318333211541176,-0.03424563967939466,-0.030718963390588758
1761838427878470000,8.883469970703125,-0.1429670399546623,0.02963686724230647,-0.03358019804060459
1761838427888540000,8.893539794921875,-0.15093874948620795,0.04594236108344048,-0.04648585684299469
1761838427898609000,8.90360888671875,-0.18522329640388488,0.01949636230431497,-0.02524082424044609
1761838427908679000,8.913678955078124,-0.23824469249546526,-0.0048251551341265434,0.01267243456840515
1761838427918748000,8.923747802734376,-0.2709463541358709,-0.04780344224758446,0.05680741743631661
1761838427928817000,8.93381689453125,-0.32108021209239956,-0.06413589716088026,0.1051329107966274
1761838427938887000,8.943886962890625,-0.36411446717679496,-0.04230331046134233,0.12603066433146595
1761838427948955600,8.95395556640625,-0.37125323301553725,-0.003824051800183952,0.10697210892252623
1761838427959026000,8.96402587890625,-0.32811434851288795,0.027033077952079473,0.06424691978730261
1761838427969095000,8.974094970703124,-0.24477204843759534,0.034516711705736815,0.03282587254196405
1761838427979165000,8.9841650390625,-0.16998364169597624,0.034971579333767294,0.032333997371792794
1761838427989234000,8.99423388671875,-0.14141279624998568,0.017798545410484073,0.08360219312049448
1761838427999304000,9.004303955078125,-0.12056523853242397,-0.052238502085581416,0.13081249178051949
1761838428009373000,9.014373046875,-0.19067863920032976,-0.07041461210418493,0.17940131225213407
1761838428019442000,9.02444189453125,-0.17924305295050144,-0.049536257389560336,0.1864939008615911
1761838428029512000,9.034511962890624,-0.0722001438140869,0.0660614583959803,0.09823065712749958
1761838428039581000,9.044580810546876,0.07551555197238921,0.052748497434332964,-0.03578267652094364
1761838428049651000,9.05465087890625,0.14264263030588625,-0.021154322111792863,-0.043343174903094764
1761838428059719700,9.0647197265625,0.11024667361378669,-0.025742599750123916,-0.023238836768269537
1761838428069790000,9.0747900390625,-0.032121231403946876,0.10175821019914001,-0.027253333106637
1761838428079858700,9.084858642578125,0.10556932945251464,0.020292809911631047,-0.02656695827767253
1761838428089928000,9.094927978515624,0.14676467867195606,0.07012903662845492,-0.10831833589971065
1761838428099998000,9.104998046875,0.18006956690251827,0.018193828338384628,-0.10997326349988579
1761838428110067000,9.11506689453125,0.11954115618169307,0.003308393895626068,-0.09995514283254742
1761838428120137000,9.125136962890625,0.1199234334975481,0.07172777706198394,-0.12699936323314903
1761838428130206000,9.1352060546875,0.2673556361675262,0.015492533490434288,-0.14186974623724818
1761838428140276000,9.14527587890625,0.2752560340285301,0.04445515473298728,-0.19618366635739803
1761838428150345000,9.155344970703124,0.30073709676563737,0.007736512536182999,-0.20924729220047592
1761838428160415000,9.1654150390625,0.3861608792901039,-0.045104047095775604,-0.1417624864704907
1761838428170483700,9.175483642578126,0.3120867582976818,0.06813282130993903,-0.10369622905701398
1761838428180553000,9.185552978515625,0.24637422293722627,0.012663228348642587,0.0034969022050499914
1761838428190622700,9.195622802734375,0.2199000575095415,-0.09358842081222683,0.07814122430086136
1761838428200692000,9.20569189453125,0.12654723555147648,-0.001394267369993031,0.06538958701640367
1761838428210761700,9.21576171875,0.004099836534261703,0.017425839640572666,0.007463613878935575
1761838428220831000,9.2258310546875,0.08042787393331527,-0.11781210389938204,-0.03795519825443625
1761838428230901000,9.23590087890625,0.06263327404558658,-0.03705258685890585,-0.03964271294996142
1761838428240970000,9.245969970703126,0.04658405652046203,-0.0187424751970917,-0.004800824410468339
1761838428251040000,9.2560400390625,-0.006822539496421813,-0.013498656259477137,0.03387640450820326
1761838428261109000,9.26610888671875,-0.17243512650132178,-0.010814860535599291,0.09986424967870115
1761838428271178000,9.276177978515625,-0.2881020715981722,-0.03346373205408454,0.09651669281646609
1761838428281247700,9.286247802734374,-0.2911398318588734,-0.024565628392621875,0.04492284530997276
1761838428291317000,9.29631689453125,-0.2841232310950756,0.03084149379171431,0.012305500952154397
1761838428301386800,9.30638671875,-0.24762685334682463,0.04615136419162154,-0.03389028690308332
1761838428311456000,9.3164560546875,-0.23190204547047613,0.01604969244915992,-0.06720803461521864
1761838428321525800,9.32652587890625,-0.17757833460867403,-0.023107721201889215,-0.04462006297111511
1761838428331595000,9.336594970703125,-0.09603636195361613,-0.04486260302271693,-0.0021140695445239542
1761838428341664800,9.346664794921875,-0.05835106668174266,-0.06858885798174888,0.06747910664156079
1761838428351734000,9.356734130859374,-0.044265258184075354,-0.07660250695887953,0.14124533072859047
1761838428361802800,9.366802734375,-0.03606383154988289,-0.06602894436586648,0.1565465063653886
1761838428371873000,9.376873046875,0.020436638829112053,-0.05052380712218582,0.10914704180881381
1761838428381941800,9.386941650390625,0.11291033986508846,-0.07183843436222523,0.022934739255160094
1761838428392011800,9.39701171875,0.1481400586783886,-0.12019636868741362,0.02622632814645767
1761838428402080800,9.407080810546875,0.1433604231864214,-0.1250170303095132,0.10079641596227884
1761838428412150800,9.41715087890625,0.15924071388542652,-0.1349373896908015,0.18762568137049673
1761838428422220000,9.427219970703124,0.11381810235977172,-0.1370984036495909,0.2481822952724993
1761838428432289800,9.437289794921876,0.13667992250919342,-0.0916142711950466,0.21510113279521464
1761838428442359000,9.447359130859375,0.20310849718451499,-0.021670454940386115,0.11125818874388932
1761838428452427800,9.457427734375,0.03976853128671646,0.013956775290518999,0.05868804355114698
1761838428462498000,9.467498046875,-0.08155775474607944,0.000615647680312395,0.024121757082641124
1761838428472566800,9.47756689453125,-0.1294476331681013,-0.016998006149940192,-0.024987580131739375
1761838428482637000,9.487636962890624,-0.10487550196945666,0.06367354034613817,-0.0861615952797234
1761838428492705800,9.497705810546876,-0.0453916318655014,0.011460538027994334,-0.1452170108385384
1761838428502775800,9.50777587890625,-0.08216215038001537,-0.03085230744667351,-0.07024667165875434
1761838428512844800,9.5178447265625,-0.25156945349276066,0.15360131975896654,-0.12047858316227793
1761838428522914800,9.527914794921875,-0.16819734280109405,0.09271982128415256,-0.11972060440182686
1761838428532983800,9.53798388671875,-0.11651683992445468,0.06733856565970928,-0.12129092245846985
1761838428543052800,9.548052734375,-0.15267244141101835,0.12762045427355914,-0.11840411497578024
1761838428553123000,9.558123046875,-0.06730652655363083,0.10440222190190106,-0.14949161941781638
1761838428563191800,9.56819189453125,-0.04384206433594227,0.08661379602663219,-0.1441105109013617
1761838428573262000,9.578261962890625,-0.06963292367458343,0.06016005233246833,-0.09729776019155978
1761838428583330800,9.588330810546875,-0.016039280652999876,0.05517481126580387,-0.06261603064984082
1761838428593400800,9.59840087890625,0.04857026190161705,0.07257591832391917,-0.029248160185664892
1761838428603469800,9.6084697265625,0.11962649637758731,-0.018832199307158588,-0.04582870810851455
1761838428613539800,9.618539794921874,0.1923468646734953,-0.03755341252051294,-0.039960985118895766
1761838428623608800,9.62860888671875,0.2139005248337984,-0.03708948480319232,-0.019495120195299386
1761838428633678800,9.638678955078126,0.22879998780190944,-0.03109013479053974,0.0293839153945446
1761838428643747800,9.648747802734375,0.1700076070934534,-0.012253697699680923,0.11055822378098965
1761838428653816800,9.65881689453125,0.030436054795980452,-0.010977540284022688,0.13979571644216776
1761838428663886800,9.668886962890625,-0.03988602018654346,-0.06956789561435579,0.07494388956427574
1761838428673955800,9.678955810546874,-0.037163901746273036,-0.0390370021417737,0.020403321081399917
1761838428684026000,9.689026123046874,-0.06310965938568115,-0.03521704199481755,-0.020198153898119926
1761838428694094800,9.6990947265625,-0.11856325106024741,-0.027482904078811404,-0.06180003809183836
1761838428704164900,9.709164794921875,-0.126973352009058,-0.004801043606176972,-0.06129910283237695
1761838428714233900,9.71923388671875,-0.09990180521011352,0.010586933531239628,-0.03629384091347456
1761838428724304000,9.729303955078125,-0.07913958768844603,0.006084361414983868,-0.041160862427949904
1761838428734372900,9.739372802734374,-0.02567512400448322,-0.019907244660146532,-0.06331278074234724
1761838428744442000,9.749442138671874,0.028714053308963775,0.005436930356919765,-0.05649973972663283
1761838428754512000,9.759511962890626,0.02619067231118679,-0.013965068194828926,-0.016228373484313486
1761838428764580900,9.769580810546875,-0.022467267873883246,-0.021350100412219762,0.05076631064116954
1761838428774651000,9.77965087890625,-0.009448211824893952,-0.030252916781418025,0.0813245305120945
1761838428784720000,9.789719970703125,-0.0016635492980480193,-0.011718092985637486,0.06505977054014801
1761838428794790100,9.7997900390625,-0.03026888153553009,-0.00031553222257643936,0.038647710563242434
1761838428804859400,9.809859375,-0.03388707203269005,-0.011957089373283087,0.017637217368930577
1761838428814929200,9.81992919921875,-0.04748129762113094,-0.018161496971361338,-0.0005194938294589519
1761838428824998400,9.829998291015626,-0.08531155432164668,-0.027313465796038508,-0.009029548021405934
1761838428835067400,9.8400673828125,-0.08963175560832023,-0.034612427165172995,0.017730448610335587
1761838428845137400,9.850137451171875,-0.14791151061952112,-0.014089023368060588,0.0717693511813879
1761838428855206100,9.8602060546875,-0.13195406303107737,-0.026945874592661855,0.08916662231460214
1761838428865276400,9.8702763671875,-0.14204641797840595,-0.03879822494983673,0.08552724289894104
1761838428875345200,9.88034521484375,-0.051337973049283024,0.022586291143670677,0.02721606983616948
1761838428885415400,9.89041552734375,0.05302782583236694,-0.06093330172728747,-0.06060659052357077
1761838428895484400,9.900484375,0.07740998741686343,-0.08148370312917977,-0.0376132529489696
1761838428905554200,9.91055419921875,0.02675999663174152,-0.06654463880304247,0.029642712461203334
1761838428915623400,9.92062353515625,0.09092354898452758,-0.03152227913010865,0.008158464275300502
1761838428925693200,9.930693115234375,0.1312602355480194,0.008650741304270923,-0.021620295655727387
1761838428935762400,9.940762451171874,0.08791384577453136,0.04274769322797656,-0.0635758155927062
1761838428945831400,9.95083154296875,0.11873159336447715,0.05924487371630966,-0.14103855611011384
1761838428955901400,9.9609013671875,0.14145195921659467,0.07882719727102666,-0.16045067419707773
1761838428965970200,9.97097021484375,0.05378595072329044,0.06819978559892624,-0.10915829385519027
1761838428976040400,9.98104052734375,0.0055921209186315535,0.05013758428357541,-0.06789397105276584
1761838428986109200,9.991109130859375,0.023782442125678063,0.05633574480395764,-0.08179916228652
1761838428996179500,10.001179443359375,0.020134441012144087,0.08490874567441642,-0.1430579331085086
1761838429006248200,10.011248291015624,0.07016893024742603,0.09076149029061198,-0.16341449243873357
1761838429016318200,10.021318115234376,0.12035539517402648,0.07855864599533378,-0.11259718226268887
1761838429026387500,10.031387451171875,0.04490706321895122,0.021289237070456147,-0.08905527089461683
1761838429036456400,10.04145654296875,0.03925824367702007,-0.0246461462829262,-0.03681070439442992
1761838429046526500,10.0515263671875,0.003919803792238235,-0.02624605576023459,0.0641597529605031
1761838429056595200,10.06159521484375,-0.03766483700573444,-0.03672587565518915,0.10379998169243335
1761838429066665500,10.07166552734375,-0.03858487446010112,-0.055699163933470845,0.07816957361251116
1761838429076734200,10.081734130859376,-0.015002923342585562,-0.06492500171195716,0.008077654124051332
1761838429086804500,10.091804443359376,-0.05519757108688354,-0.0495657392123714,0.00649374593347311
1761838429096873200,10.101873291015625,-0.09370002796053886,-0.015396270041726529,0.07834975248500704
1761838429106943500,10.111943603515625,-0.06610124241709708,0.013339520175009965,0.07658712672665714
1761838429117012200,10.12201220703125,-0.02680675838291645,-0.008404401860386133,0.056619858974963425
1761838429127082200,10.132082275390625,0.12714227883517742,-0.0410352998195216,0.03684928283914923
1761838429137151200,10.142151123046874,0.143525258359313,-0.08016856541000306,0.03506429911851883
1761838429147220500,10.152220458984376,0.10489479119181633,-0.05340641335379332,0.02678454655110836
1761838429157290500,10.16229052734375,0.11323825664520264,-0.03206570182442665,0.026216975796222685
1761838429167359200,10.172359130859375,0.040083588585257526,0.02470850746203214,0.04900017775148153
1761838429177429500,10.182429443359375,0.11587269680202007,0.14177815896365792,0.014083178149163721
1761838429187498200,10.192498291015625,-0.264599615457654,0.08187832846995442,-0.00589008095189929
1761838429197568500,10.202568603515624,-0.2593184601843357,0.017434205610118804,-0.10351546566262841
1761838429207637200,10.21263720703125,-0.21077099463641644,-0.011947079435922204,-0.11415405631586908
1761838429217707500,10.22270751953125,-0.04843406830132007,0.02003204008359462,-0.14038886002972722
1761838429227776300,10.2327763671875,0.07697510313093661,-0.018568945261090992,-0.08593260882943868
1761838429237845500,10.242845458984375,0.12094517776072025,-0.07671974013037978,0.017286358104646207
1761838429247915300,10.252915283203125,0.1355962189257145,-0.07916242057476192,0.08556246034279465
