time,seconds_elapsed,z,y,x
1761384991356495000,0.0744951171875,0.3403720557689667,-0.8970715403556824,0.33777564764022827
1761384991366564400,0.084564453125,0.46098291873931885,-1.0227659940719604,0.3232708275318146
1761384991376633000,0.094633056640625,0.6359123587608337,-0.9799274802207947,0.22620582580566406
1761384991386702300,0.104702392578125,0.8151560425758362,-0.8572526574134827,0.1536441445350647
1761384991396771000,0.11477099609375,0.9706510901451111,-0.7522926926612854,0.12000203877687454
1761384991406840300,0.12484033203125,1.0592021942138672,-0.6523558497428894,0.07426035404205322
1761384991416909300,0.134909423828125,1.1067416667938232,-0.5609633922576904,0.01437198743224144
1761384991426977300,0.144977294921875,1.1485451459884644,-0.47297829389572144,-0.05459962412714958
1761384991437046300,0.15504638671875,1.1776084899902344,-0.2878957986831665,-0.13212211430072784
1761384991447115300,0.165115234375,1.206854224205017,-0.043842755258083344,-0.2255641222000122
1761384991457184300,0.175184326171875,1.2499357461929321,0.22806492447853088,-0.31334859132766724
1761384991467253200,0.185253173828125,1.2822003364562988,0.46366360783576965,-0.3743860125541687
1761384991477322200,0.195322265625,1.235716462135315,0.6709566116333008,-0.4076731204986572
1761384991487391200,0.20539111328125,1.1546623706817627,0.7893284559249878,-0.4324493706226349
1761384991497460200,0.215460205078125,1.057345986366272,0.8339145183563232,-0.4756072163581848
1761384991507528200,0.225528076171875,0.9507654309272766,0.7679576277732849,-0.5479719638824463
1761384991517597200,0.23559716796875,0.8707166910171509,0.5653043985366821,-0.6469078660011292
1761384991527666400,0.24566650390625,0.8028320074081421,0.3832513689994812,-0.7456995248794556
1761384991537735200,0.255735107421875,0.7593846917152405,0.33636799454689026,-0.8046406507492065
1761384991547804400,0.265804443359375,0.7256652116775513,0.3297431766986847,-0.8505050539970398
1761384991557873200,0.275873046875,0.7123610973358154,0.3351621925830841,-0.885758638381958
1761384991567942100,0.285942138671875,0.6881572008132935,0.34947705268859863,-0.9218255877494812
1761384991578011400,0.296011474609375,0.6381150484085083,0.354833722114563,-0.9530157446861267
1761384991588079000,0.3060791015625,0.6077276468276978,0.309051513671875,-0.9257843494415283
1761384991598148400,0.3161484375,0.5819506645202637,0.3333057165145874,-0.8313174843788147
1761384991608217300,0.32621728515625,0.5564224123954773,0.46805453300476074,-0.6884121894836426
1761384991618286000,0.3362861328125,0.5330981612205505,0.6392723321914673,-0.5023000836372375
1761384991628355300,0.346355224609375,0.5069425106048584,0.7596254348754883,-0.31545934081077576
1761384991638424000,0.356424072265625,0.48096975684165955,0.799765408039093,-0.13646961748600006
1761384991648493300,0.366493408203125,0.4442576766014099,0.7616272568702698,0.009451109915971756
1761384991658562300,0.376562255859375,0.39038699865341187,0.6810191869735718,0.12315689772367477
1761384991668630000,0.386630126953125,0.30851349234580994,0.6197832822799683,0.18244512379169464
1761384991678699300,0.39669921875,0.20145495235919952,0.5900275111198425,0.2545858919620514
1761384991688768300,0.406768310546875,0.08948858827352524,0.5166249871253967,0.3117293119430542
1761384991698837200,0.416837158203125,-0.013507029041647911,0.39491960406303406,0.3565540611743927
1761384991708906200,0.42690625,-0.10492915660142899,0.2703475058078766,0.40009063482284546
1761384991718975200,0.436975341796875,-0.17549945414066315,0.17942294478416443,0.4342067837715149
1761384991729044000,0.4470439453125,-0.20841491222381592,0.13785012066364288,0.45189449191093445
1761384991739113200,0.45711328125,-0.1882055103778839,0.14719168841838837,0.40281906723976135
1761384991749181000,0.467180908203125,-0.10862721502780914,0.1838260442018509,0.2704043984413147
1761384991759250200,0.477250244140625,0.031459055840969086,0.21667586266994476,0.06089484319090843
1761384991769319200,0.487319091796875,0.19314688444137573,0.1889539659023285,-0.19590383768081665
1761384991779388200,0.49738818359375,0.2382296770811081,0.07685139030218124,-0.49309954047203064
1761384991789457200,0.50745703125,0.09909318387508392,-0.11334280669689178,-0.8018742799758911
1761384991799526000,0.51752587890625,-0.14881035685539246,-0.2956860065460205,-1.1157983541488647
1761384991809595100,0.52759521484375,-0.394839882850647,-0.34985870122909546,-1.4219729900360107
1761384991819664100,0.5376640625,-0.5635393857955933,-0.21976247429847717,-1.6915323734283447
1761384991829732000,0.547732177734375,-0.6187528371810913,-0.031030358746647835,-1.8416211605072021
1761384991839801000,0.557801025390625,-0.5742822885513306,0.050239197909832,-1.8235670328140259
1761384991849870000,0.5678701171875,-0.47607409954071045,-0.00649829488247633,-1.6372523307800293
1761384991859939000,0.57793896484375,-0.374267578125,-0.10049189627170563,-1.2987927198410034
1761384991870008000,0.588008056640625,-0.2811225652694702,-0.12339922785758972,-0.8771671056747437
1761384991880077000,0.5980771484375,-0.25764307379722595,-0.10017913579940796,-0.4491867125034332
1761384991890146000,0.60814599609375,-0.3119221329689026,-0.033318694680929184,-0.047668732702732086
1761384991900215000,0.618215087890625,-0.41318508982658386,0.08988765627145767,0.30635884404182434
1761384991910283000,0.628282958984375,-0.518585205078125,0.19967305660247803,0.6128806471824646
1761384991920352000,0.63835205078125,-0.5506638288497925,0.21338248252868652,0.8525486588478088
1761384991930421000,0.6484208984375,-0.45711973309516907,0.09893544018268585,0.9920526742935181
1761384991940490000,0.658489990234375,-0.26376011967658997,-0.06495602428913116,1.0286775827407837
1761384991950559200,0.668559326171875,-0.05812906101346016,-0.19364029169082642,0.9492844343185425
1761384991960628000,0.6786279296875,0.09233208000659943,-0.2530010938644409,0.795853853225708
1761384991970697200,0.688697265625,0.16183702647686005,-0.274700790643692,0.6032349467277527
1761384991980766000,0.698765869140625,0.17649586498737335,-0.2947607636451721,0.41404640674591064
1761384991990834000,0.708833984375,0.16773369908332825,-0.31624287366867065,0.26359498500823975
1761384992000903200,0.718903076171875,0.1592501997947693,-0.32750776410102844,0.15590232610702515
1761384992010972000,0.728971923828125,0.1571027636528015,-0.31747618317604065,0.08172974735498428
1761384992021041200,0.739041259765625,0.15383772552013397,-0.28764504194259644,0.036910347640514374
1761384992031110100,0.749110107421875,0.14222432672977448,-0.24287422001361847,-0.0004458269104361534
1761384992041179100,0.75917919921875,0.12060346454381943,-0.1826564073562622,-0.028707025572657585
1761384992051248000,0.769248046875,0.09361566603183746,-0.12190109491348267,-0.053341250866651535
1761384992061316900,0.77931689453125,0.06311634927988052,-0.05362190306186676,-0.0602731928229332
1761384992071386000,0.78938623046875,0.033685293048620224,0.014456534758210182,-0.06263386458158493
1761384992081454000,0.7994541015625,0.01151927188038826,0.05048085004091263,-0.05280919373035431
1761384992091523000,0.809523193359375,-0.00517078535631299,0.07410769164562225,-0.034616004675626755
1761384992101592000,0.819592041015625,-0.0006916149286553264,0.13812555372714996,-0.03463651239871979
1761384992111661000,0.8296611328125,0.0233889352530241,0.2688990831375122,-0.037521082907915115
1761384992121730000,0.83972998046875,0.05275455117225647,0.410165399312973,-0.04734761267900467
1761384992131799000,0.849799072265625,0.0836346447467804,0.49260491132736206,-0.05830291658639908
1761384992141868000,0.859867919921875,0.10093267261981964,0.5165416598320007,-0.06127393990755081
1761384992151937000,0.86993701171875,0.11990077048540115,0.4940521717071533,-0.053163815289735794
1761384992162005200,0.880005126953125,0.13612182438373566,0.4268507659435272,-0.023096194490790367
1761384992172074000,0.890073974609375,0.13370756804943085,0.35544681549072266,0.02848641946911812
1761384992182143000,0.90014306640625,0.1275053322315216,0.27841195464134216,0.08765307068824768
1761384992192212200,0.910212158203125,0.1121910884976387,0.14162693917751312,0.1642700731754303
1761384992202281000,0.920281005859375,0.07491935044527054,-0.08670422434806824,0.23053325712680817
1761384992212350200,0.93035009765625,0.03294676914811134,-0.24010547995567322,0.29626309871673584
1761384992222419000,0.9404189453125,0.006345517933368683,-0.2608424425125122,0.34832149744033813
1761384992232488200,0.95048828125,-0.02566165290772915,-0.2915739417076111,0.3665470778942108
1761384992242556200,0.96055615234375,-0.0701574832201004,-0.3494226038455963,0.33890557289123535
1761384992252625000,0.970625,-0.11225711554288864,-0.38841092586517334,0.27864062786102295
1761384992262694100,0.980694091796875,-0.14344404637813568,-0.36116865277290344,0.20395469665527344
1761384992272763100,0.99076318359375,-0.15531907975673676,-0.26254746317863464,0.13308462500572205
1761384992282832100,1.00083203125,-0.14609308540821075,-0.14016135036945343,0.07036983966827393
1761384992292901000,1.010901123046875,-0.11847223341464996,-0.05486355349421501,0.01676298677921295
1761384992302970000,1.02097021484375,-0.08500375598669052,-0.0062624616548419,-0.014149121940135956
1761384992313039000,1.0310390625,-0.051914770156145096,0.009215923957526684,-0.010493302717804909
1761384992323107800,1.04110791015625,-0.033560000360012054,-0.004521725699305534,0.016968149691820145
1761384992333176000,1.051176025390625,-0.03279770538210869,-0.026775125414133072,0.06029606610536575
1761384992343245000,1.0612451171875,-0.036688048392534256,-0.025959398597478867,0.11003406345844269
1761384992353314000,1.07131396484375,-0.031205380335450172,0.025007855147123337,0.15706665813922882
1761384992363383000,1.081383056640625,-0.005264861509203911,0.06555954366922379,0.17476096749305725
1761384992373452300,1.091452392578125,0.03859023004770279,0.07047954201698303,0.15756167471408844
1761384992383521000,1.10152099609375,0.10031777620315552,0.056885432451963425,0.12513048946857452
1761384992393590000,1.111590087890625,0.15355277061462402,0.029824521392583847,0.08585444837808609
1761384992403659000,1.121658935546875,0.1793348342180252,-0.00514944177120924,0.04940110817551613
1761384992413727000,1.13172705078125,0.1745934635400772,-0.03147009760141373,0.02073732018470764
1761384992423796200,1.141796142578125,0.14979304373264313,-0.025920337066054344,-0.007112686987966299
1761384992433865000,1.151864990234375,0.12220250815153122,0.0016986718401312828,-0.026746883988380432
1761384992443934000,1.161933837890625,0.11054398864507675,0.03480469435453415,-0.04159720242023468
1761384992454003200,1.172003173828125,0.10382989048957825,0.05965811014175415,-0.04983249679207802
1761384992464072000,1.182072021484375,0.10105487704277039,0.09294069558382034,-0.048189058899879456
1761384992474141200,1.19214111328125,0.0865287333726883,0.11136450618505478,-0.0394001342356205
1761384992484210000,1.2022099609375,0.06218317896127701,0.1044730395078659,-0.025677399709820747
1761384992494279200,1.212279052734375,0.03138858452439308,0.075436532497406,-0.01791299507021904
1761384992504347100,1.22234716796875,0.009375160560011864,0.05517227202653885,-0.015014678239822388
1761384992514415900,1.232415771484375,-0.001107582706026733,0.038534462451934814,-0.01521318033337593
1761384992524485000,1.242485107421875,0.0122138150036335,0.03584733232855797,-0.027100197970867157
1761384992534554000,1.25255419921875,0.036386821419000626,0.04095679521560669,-0.04010981321334839
1761384992544623000,1.262623046875,0.06759081780910492,0.03073611482977867,-0.04510163888335228
1761384992554692000,1.272692138671875,0.08755520731210709,0.04834600165486336,-0.0406419113278389
1761384992564761000,1.282760986328125,0.11453169584274292,0.10158392786979675,-0.019506001845002174
1761384992574830000,1.292830078125,0.13547959923744202,0.151913583278656,0.018046896904706955
1761384992584899000,1.302899169921875,0.15665200352668762,0.1929244101047516,0.06370013952255249
1761384992594967000,1.312967041015625,0.17249852418899536,0.22382722795009613,0.1145533099770546
1761384992605036000,1.3230361328125,0.18103954195976257,0.2324414849281311,0.15452229976654053
1761384992615105300,1.333105224609375,0.18037228286266327,0.20739470422267914,0.18526360392570496
1761384992625174000,1.343174072265625,0.16521011292934418,0.14893805980682373,0.19332605600357056
1761384992635243300,1.3532431640625,0.14360041916370392,0.07437088340520859,0.19684569537639618
1761384992645312000,1.36331201171875,0.11897125095129013,0.02779245935380459,0.19469599425792694
1761384992655381000,1.373381103515625,0.09814909100532532,-0.008955664001405239,0.18974803388118744
1761384992665450000,1.383449951171875,0.0900789126753807,-0.039291467517614365,0.1732228547334671
1761384992675518000,1.39351806640625,0.08616603910923004,-0.056805409491062164,0.15140250325202942
1761384992685587200,1.403587158203125,0.07287446409463882,-0.07349677383899689,0.11723840236663818
1761384992695656000,1.413656005859375,0.05518202483654022,-0.11408281326293945,0.06942001730203629
1761384992705725200,1.42372509765625,0.027076618745923042,-0.1711522340774536,0.01788918301463127
1761384992715794200,1.433794189453125,0.003486969042569399,-0.205897718667984,-0.01507021114230156
1761384992725863000,1.44386279296875,-0.028729822486639023,-0.21498894691467285,-0.033879321068525314
1761384992735932000,1.453931884765625,-0.061260346323251724,-0.22530974447727203,-0.049692198634147644
1761384992746001000,1.4640009765625,-0.09334397315979004,-0.2233983874320984,-0.06920118629932404
1761384992756070000,1.47406982421875,-0.11468245089054108,-0.19185036420822144,-0.08723027259111404
1761384992766137900,1.484137939453125,-0.12854580581188202,-0.1372033655643463,-0.10469368100166321
1761384992776206800,1.494206787109375,-0.13155706226825714,-0.08869114518165588,-0.12231522053480148
1761384992786275800,1.50427587890625,-0.13466709852218628,-0.06361056119203568,-0.14421865344047546
1761384992796345000,1.514344970703125,-0.13149593770503998,-0.05959733948111534,-0.15917211771011353
1761384992806413800,1.524413818359375,-0.12257114797830582,-0.04604557529091835,-0.17326822876930237
1761384992816483000,1.534483154296875,-0.10419408231973648,-0.019016671925783157,-0.18557173013687134
1761384992826551800,1.5445517578125,-0.07280206680297852,0.011896767653524876,-0.18975262343883514
1761384992836621000,1.55462109375,-0.036030106246471405,0.038301981985569,-0.1916763335466385
1761384992846690000,1.56468994140625,0.004749014507979155,0.04767710715532303,-0.1879657506942749
1761384992856757800,1.5747578125,0.040846310555934906,0.044822294265031815,-0.1844681352376938
1761384992866827000,1.584826904296875,0.06523660570383072,0.02398545667529106,-0.1750274896621704
1761384992876896000,1.59489599609375,0.06732247024774551,-0.022997859865427017,-0.16533735394477844
1761384992886965000,1.604965087890625,0.05302955210208893,-0.053307563066482544,-0.1536274254322052
1761384992897034000,1.615033935546875,0.02455589734017849,-0.0644494965672493,-0.1425950676202774
1761384992907103000,1.62510302734375,-0.0018552030669525266,-0.06215411797165871,-0.12226768583059311
1761384992917172000,1.635171875,-0.024239953607320786,-0.04113366827368736,-0.09630218893289566
1761384992927241000,1.645240966796875,-0.034224677830934525,-0.0328027680516243,-0.07488451898097992
1761384992937310000,1.65531005859375,-0.03081543743610382,-0.035882703959941864,-0.045795783400535583
1761384992947379000,1.66537890625,-0.02208852395415306,-0.051459796726703644,-0.021906433627009392
1761384992957447200,1.675447265625,-0.020240308716893196,-0.07289259135723114,-0.015772473067045212
1761384992967516000,1.685515869140625,-0.0341595858335495,-0.10293145477771759,-0.017774371430277824
1761384992977585000,1.6955849609375,-0.055295780301094055,-0.12736685574054718,-0.029747776687145233
1761384992987654000,1.70565380859375,-0.07193654030561447,-0.1413756161928177,-0.042508844286203384
1761384992997723000,1.715722900390625,-0.08545072376728058,-0.1841934621334076,-0.061587270349264145
1761384993007791900,1.7257919921875,-0.09674226492643356,-0.26083096861839294,-0.07845652848482132
1761384993017860900,1.73586083984375,-0.10664460808038712,-0.35141903162002563,-0.10447581857442856
1761384993027930000,1.74593017578125,-0.1137312799692154,-0.41818636655807495,-0.12733213603496552
1761384993037998800,1.755998779296875,-0.10818380117416382,-0.43477264046669006,-0.15778832137584686
1761384993048066800,1.76606689453125,-0.09723661094903946,-0.3924451470375061,-0.17643152177333832
1761384993058136000,1.776135986328125,-0.07257090508937836,-0.282213419675827,-0.18838748335838318
1761384993068204800,1.786204833984375,-0.043510228395462036,-0.15207460522651672,-0.18336236476898193
1761384993078274000,1.796274169921875,-0.003539190860465169,-0.028043605387210846,-0.1750216782093048
1761384993088342800,1.8063427734375,0.02631724253296852,0.04951510205864906,-0.16085898876190186
1761384993098412000,1.816412109375,0.04803485795855522,0.0419352650642395,-0.13731934130191803
1761384993108481000,1.82648095703125,0.039026979357004166,-0.034169889986515045,-0.10746956616640091
1761384993118550000,1.836550048828125,0.011155616492033005,-0.13124540448188782,-0.08029986172914505
1761384993128619000,1.846618896484375,-0.010867126286029816,-0.20221199095249176,-0.05704646185040474
1761384993138687000,1.85668701171875,0.0006004711613059044,-0.2020176649093628,-0.03257474675774574
1761384993148756000,1.866755859375,0.03909885883331299,-0.1253761500120163,-0.02600579336285591
1761384993158825000,1.876824951171875,0.08742621541023254,-0.039527006447315216,-0.03223942965269089
1761384993168894000,1.88689404296875,0.13074226677417755,0.032867029309272766,-0.0470908097922802
1761384993178963000,1.896962890625,0.16037951409816742,0.08129370957612991,-0.05036526173353195
1761384993189032000,1.907031982421875,0.17344577610492706,0.12359029799699783,-0.03344061225652695
1761384993199101000,1.917100830078125,0.166588693857193,0.14475969970226288,-0.017955198884010315
1761384993209170000,1.927169921875,0.15893077850341797,0.16440849006175995,0.010790962725877762
1761384993219239000,1.937239013671875,0.16598036885261536,0.17407624423503876,0.042210713028907776
1761384993229307000,1.947306884765625,0.17899470031261444,0.16069118678569794,0.06124938279390335
1761384993239376100,1.957376220703125,0.19504453241825104,0.12382829189300537,0.05980028957128525
1761384993249444900,1.96744482421875,0.20949697494506836,0.06322300434112549,0.05062756687402725
1761384993259513900,1.977513916015625,0.21476979553699493,0.017685534432530403,0.03183756023645401
1761384993269583000,1.9875830078125,0.2216428816318512,-0.0036136293783783913,-0.008021172136068344
1761384993279651800,1.99765185546875,0.2265830636024475,-0.008534260094165802,-0.06300363689661026
1761384993289721000,2.00772119140625,0.23571264743804932,0.0017458084039390087,-0.11378718167543411
1761384993299789800,2.017789794921875,0.24231448769569397,0.00019796565175056458,-0.14374303817749023
1761384993309859000,2.027859130859375,0.23951204121112823,-0.00127449631690979,-0.15461592376232147
1761384993319927800,2.037927734375,0.21693243086338043,-0.002771458588540554,-0.14650899171829224
1761384993329995800,2.047995849609375,0.18233637511730194,-0.01891127973794937,-0.12846821546554565
1761384993340065000,2.05806494140625,0.14801552891731262,-0.011326144449412823,-0.10520151257514954
1761384993350134000,2.068134033203125,0.11891277879476547,0.0052885194309055805,-0.07816004008054733
1761384993360203000,2.078203125,0.0956849753856659,0.014054914005100727,-0.05709105357527733
1761384993370272000,2.08827197265625,0.07869187742471695,0.027008796110749245,-0.033114880323410034
1761384993380341000,2.098341064453125,0.0658416822552681,0.040661223232746124,-0.027503542602062225
1761384993390410000,2.108409912109375,0.06387972831726074,0.05807563289999962,-0.029658306390047073
1761384993400478700,2.118478759765625,0.06626909226179123,0.06499794870615005,-0.051580846309661865
1761384993410548000,2.1285478515625,0.06670771539211273,0.06753966957330704,-0.08686240017414093
1761384993420616000,2.138615966796875,0.06662396341562271,0.06541750580072403,-0.11212949454784393
1761384993430685000,2.148684814453125,0.06510835886001587,0.07076326757669449,-0.1246655285358429
1761384993440754000,2.15875390625,0.05661748722195625,0.07829509675502777,-0.1219642236828804
1761384993450823200,2.1688232421875,0.053612641990184784,0.08391036838293076,-0.10489868372678757
1761384993460892000,2.178891845703125,0.05157211422920227,0.09682793915271759,-0.07755398750305176
1761384993470961000,2.1889609375,0.056290969252586365,0.11866878718137741,-0.05193144083023071
1761384993481030000,2.19902978515625,0.0538986511528492,0.13032571971416473,-0.04085056111216545
1761384993491099000,2.209098876953125,0.058889150619506836,0.11878011375665665,-0.03460358455777168
1761384993501168000,2.219168212890625,0.0802883729338646,0.09869157522916794,-0.02677358314394951
1761384993511236900,2.22923681640625,0.11590255796909332,0.062185488641262054,-0.024608701467514038
1761384993521304800,2.239304931640625,0.15729765594005585,0.00022845901548862457,-0.026414521038532257
1761384993531374000,2.2493740234375,0.189583420753479,-0.07736779749393463,-0.028730936348438263
1761384993541442800,2.25944287109375,0.19933247566223145,-0.14322252571582794,-0.022862199693918228
1761384993551512000,2.269511962890625,0.18632933497428894,-0.19959551095962524,-0.009908851236104965
1761384993561580800,2.279580810546875,0.14868195354938507,-0.2556573450565338,0.009572088718414307
1761384993571650000,2.289650146484375,0.11061899363994598,-0.2844591736793518,0.04004611074924469
1761384993581719000,2.299718994140625,0.06654269248247147,-0.27077463269233704,0.08011901378631592
1761384993591788000,2.3097880859375,0.007511334493756294,-0.23453567922115326,0.10156199336051941
1761384993601857000,2.31985693359375,-0.05224752426147461,-0.16571584343910217,0.09357522428035736
1761384993611925800,2.32992578125,-0.10208085924386978,-0.0880572572350502,0.05367974191904068
1761384993621994000,2.339993896484375,-0.137700617313385,-0.012704143300652504,-0.003070160746574402
1761384993632063000,2.35006298828125,-0.15444231033325195,0.03848261013627052,-0.055684369057416916
1761384993642132000,2.360132080078125,-0.15906867384910583,0.056440092623233795,-0.07793565839529037
1761384993652201000,2.370200927734375,-0.15161076188087463,0.07249922305345535,-0.05870496854186058
1761384993662270000,2.38027001953125,-0.1385231465101242,0.08499251306056976,-0.006891809403896332
1761384993672339000,2.3903388671875,-0.1221148744225502,0.06624945253133774,0.043512508273124695
1761384993682408000,2.400407958984375,-0.10274555534124374,0.0354551300406456,0.08182075619697571
1761384993692477000,2.410476806640625,-0.07752995193004608,0.015495269559323788,0.0965653508901596
1761384993702546000,2.4205458984375,-0.05222592130303383,-0.007586080580949783,0.08676491677761078
1761384993712614100,2.4306142578125,-0.024268321692943573,-0.03724011033773422,0.050760846585035324
1761384993722683000,2.440682861328125,0.00532126147300005,-0.06382831931114197,0.012416386976838112
1761384993732755700,2.450755615234375,0.03259123116731644,-0.08230772614479065,-0.01737213507294655
1761384993742824400,2.460824462890625,0.05109930410981178,-0.08724413067102432,-0.022550806403160095
1761384993752893700,2.470893798828125,0.0545227974653244,-0.08327442407608032,-0.011786840856075287
1761384993762962700,2.480962646484375,0.05143887177109718,-0.07550668716430664,0.003024427220225334
1761384993773031400,2.491031494140625,0.052041277289390564,-0.061221759766340256,0.019091544672846794
1761384993783100700,2.5011005859375,0.0621759295463562,-0.043271489441394806,0.028177088126540184
1761384993793169400,2.51116943359375,0.0841137170791626,-0.017457468435168266,0.03909871354699135
1761384993803238700,2.52123876953125,0.09020853787660599,0.0014401990920305252,0.04929669573903084
1761384993813306600,2.531306640625,0.09522832930088043,-0.006554078310728073,0.06014401838183403
1761384993823375400,2.541375244140625,0.0964302197098732,-0.03122015669941902,0.06418296694755554
1761384993833444600,2.551444580078125,0.0982787162065506,-0.05029771104454994,0.07848787307739258
1761384993843513600,2.561513671875,0.09929466992616653,-0.05454558506608009,0.09785754233598709
1761384993853582600,2.57158251953125,0.08591548353433609,-0.04748714342713356,0.11938733607530594
1761384993863651600,2.581651611328125,0.06930284947156906,-0.041425108909606934,0.1333216428756714
1761384993873720600,2.591720458984375,0.059238504618406296,-0.03221483156085014,0.1342545449733734
1761384993883789600,2.60178955078125,0.06088770925998688,-0.019599441438913345,0.11203866451978683
1761384993893858600,2.611858642578125,0.07511831074953079,0.00038998015224933624,0.08591172844171524
1761384993903926500,2.621926513671875,0.10221191495656967,0.008566751144826412,0.05901597440242767
1761384993913995500,2.63199560546875,0.1270269900560379,0.00440369825810194,0.046866100281476974
1761384993924064500,2.642064453125,0.1490660458803177,-0.0214339978992939,0.053862813860177994
1761384993934133500,2.652133544921875,0.16653825342655182,-0.06838978826999664,0.08228140324354172
1761384993944202800,2.66220263671875,0.18248039484024048,-0.10370217263698578,0.1247258335351944
1761384993954271500,2.672271484375,0.17569147050380707,-0.12444154173135757,0.17157509922981262
1761384993964340700,2.6823408203125,0.14651870727539062,-0.12542103230953217,0.19459815323352814
1761384993974409500,2.692409423828125,0.09512902051210403,-0.1127433255314827,0.19571667909622192
1761384993984478500,2.702478515625,0.03642662987112999,-0.0452374666929245,0.1686629205942154
1761384993994547700,2.712547607421875,-0.017761772498488426,0.040177833288908005,0.12617884576320648
1761384994004615400,2.722615478515625,-0.06565617024898529,0.11862889677286148,0.07607255131006241
1761384994014684700,2.7326845703125,-0.10321499407291412,0.17810100317001343,0.030641157180070877
1761384994024753700,2.742753662109375,-0.1278262734413147,0.2265608012676239,-0.005022972822189331
1761384994034822400,2.752822509765625,-0.13996656239032745,0.24187344312667847,-0.029465464875102043
1761384994044891600,2.7628916015625,-0.14010006189346313,0.24446342885494232,-0.04663322493433952
1761384994054960400,2.77296044921875,-0.12397727370262146,0.23014867305755615,-0.057290397584438324
1761384994065029600,2.783029541015625,-0.0948127880692482,0.19895470142364502,-0.07189209759235382
1761384994075098600,2.7930986328125,-0.053764425218105316,0.16142356395721436,-0.07603517919778824
1761384994085167600,2.803167724609375,-0.008967254310846329,0.09917589277029037,-0.06880132108926773
1761384994095236600,2.813236572265625,0.02604825422167778,0.035633400082588196,-0.04937143251299858
1761384994105304600,2.8233046875,0.05671970546245575,-0.006236429326236248,-0.02178066223859787
1761384994115373600,2.83337353515625,0.08087857067584991,-0.032128214836120605,0.006926349829882383
1761384994125442600,2.843442626953125,0.10443078726530075,-0.033832162618637085,0.02793053537607193
1761384994135511600,2.853511474609375,0.12536722421646118,-0.020659100264310837,0.039455629885196686
1761384994145580500,2.86358056640625,0.13922962546348572,0.0016767564229667187,0.03650190681219101
1761384994155649500,2.8736494140625,0.1481887698173523,0.023041434586048126,0.031784649938344955
1761384994165718500,2.883718505859375,0.1406155526638031,0.04101262986660004,0.019874388352036476
1761384994175787800,2.893787841796875,0.1221926137804985,0.05269245058298111,0.011967996135354042
1761384994185856500,2.9038564453125,0.10289714485406876,0.0565292164683342,0.0027026343159377575
1761384994195925500,2.913925537109375,0.0832587331533432,0.05367350950837135,-0.0035773657727986574
1761384994205993700,2.92399365234375,0.07392961531877518,0.05122530460357666,-0.004883240908384323
1761384994216062500,2.9340625,0.06278455257415771,0.04412318766117096,-0.00482118921354413
1761384994226131700,2.944131591796875,0.06204450502991676,0.0386904701590538,-0.0030144713819026947
1761384994236200400,2.954200439453125,0.06757029891014099,0.04107959195971489,0.006027227267622948
1761384994246269400,2.96426953125,0.08284863084554672,0.04816174879670143,0.02270370163023472
1761384994256338700,2.974338623046875,0.09852106869220734,0.059379518032073975,0.05044638365507126
1761384994266407400,2.984407470703125,0.10907428711652756,0.07313565909862518,0.07600441575050354
1761384994276476700,2.9944765625,0.10788172483444214,0.08423811197280884,0.09548570215702057
1761384994286545400,3.00454541015625,0.09325221925973892,0.09276692569255829,0.10068279504776001
1761384994296614700,3.01461474609375,0.07398104667663574,0.09568175673484802,0.10382212698459625
1761384994306682600,3.0246826171875,0.055034514516592026,0.08995770663022995,0.09251834452152252
1761384994316751400,3.03475146484375,0.034517258405685425,0.0888490304350853,0.07090039551258087
1761384994326820600,3.044820556640625,0.013462908565998077,0.08775053173303604,0.04348524659872055
1761384994336889600,3.0548896484375,-0.017030019313097,0.09702631831169128,0.025937942788004875
1761384994346958600,3.06495849609375,-0.04740455746650696,0.11395694315433502,0.019130554050207138
1761384994357027600,3.075027587890625,-0.07437599450349808,0.12147131562232971,0.009460083208978176
1761384994367096600,3.0850966796875,-0.0946064293384552,0.1201096773147583,0.0002526422031223774
1761384994377165600,3.09516552734375,-0.10908390581607819,0.13051624596118927,-0.00895656831562519
1761384994387234600,3.105234619140625,-0.12172553688287735,0.15449705719947815,-0.017097141593694687
1761384994397303600,3.115303466796875,-0.12576821446418762,0.15612560510635376,-0.030262479558587074
1761384994407371500,3.12537158203125,-0.11421826481819153,0.13874714076519012,-0.041918810456991196
1761384994417440800,3.135440673828125,-0.09083517640829086,0.11071870476007462,-0.04802544042468071
1761384994427509500,3.145509521484375,-0.05797498673200607,0.06730431318283081,-0.0463072694838047
1761384994437578800,3.155578857421875,-0.02311367727816105,0.020935749635100365,-0.03021351993083954
1761384994447647500,3.1656474609375,-0.0021730423904955387,0.002595956437289715,-0.006313737016171217
1761384994457716500,3.175716552734375,0.003767937421798706,0.0036798627115786076,0.016126858070492744
1761384994467785500,3.185785400390625,0.0013430448016151786,0.029684152454137802,0.032537199556827545
1761384994477854500,3.1958544921875,-0.005452543497085571,0.06564907729625702,0.039925605058670044
1761384994487923700,3.205923828125,-0.004441340919584036,0.07719414681196213,0.035960957407951355
1761384994497991700,3.21599169921875,0.0006783198332414031,0.08836743980646133,0.02751527540385723
1761384994508060700,3.226060791015625,0.0064341966062784195,0.09053116291761398,0.020633837208151817
1761384994518129700,3.236129638671875,0.013882791623473167,0.08678968995809555,0.015129614621400833
1761384994528198400,3.246198486328125,0.015159902162849903,0.08577492088079453,0.01562478020787239
1761384994538267600,3.256267578125,0.009519859217107296,0.08628784120082855,0.017925752326846123
1761384994548336400,3.26633642578125,0.0031170607544481754,0.07907235622406006,0.02373550832271576
1761384994558405600,3.276405517578125,-0.004231666214764118,0.06562764942646027,0.022100860252976418
1761384994568474600,3.286474609375,-0.009775315411388874,0.06493513286113739,0.021609675139188766
1761384994578543600,3.296543701171875,-0.003570416010916233,0.06965239346027374,0.013560803607106209
1761384994588612600,3.306612548828125,0.0004941712832078338,0.08147235959768295,0.005781934130936861
1761384994598680600,3.3166806640625,0.011326844803988934,0.09485340863466263,-0.00880526378750801
1761384994608749600,3.32674951171875,0.02594747580587864,0.096495620906353,-0.027744416147470474
1761384994618818600,3.336818603515625,0.03890508413314819,0.08733247965574265,-0.04247622191905975
1761384994628887600,3.346887451171875,0.05165170878171921,0.06946445256471634,-0.05028980225324631
1761384994638956500,3.35695654296875,0.06009739264845848,0.06055804714560509,-0.03713059052824974
1761384994649025800,3.36702587890625,0.060977209359407425,0.04588150978088379,-0.01613597944378853
1761384994659094500,3.377094482421875,0.060253627598285675,0.03981350362300873,0.012097257189452648
1761384994669163500,3.38716357421875,0.06906601041555405,0.032874953001737595,0.03182478994131088
1761384994679232500,3.397232421875,0.08160656690597534,0.02719070203602314,0.047359541058540344
1761384994689301500,3.407301513671875,0.10025842487812042,0.0204684566706419,0.04371119290590286
1761384994699369700,3.41736962890625,0.10892674326896667,0.018292121589183807,0.03615846857428551
1761384994709438500,3.4274384765625,0.11124246567487717,0.02314320206642151,0.024581503123044968
1761384994719507700,3.4375078125,0.10353048145771027,0.014058627188205719,0.016205329447984695
1761384994729572900,3.44757275390625,0.0868610143661499,0.002639592159539461,0.021363824605941772
1761384994739641900,3.457641845703125,0.06635095179080963,-0.012314590625464916,0.025951385498046875
1761384994749710800,3.4677109375,0.04574074596166611,-0.02872685343027115,0.032506756484508514
1761384994759779800,3.47777978515625,0.028984401375055313,-0.033576469868421555,0.031015653163194656
1761384994769848800,3.487848876953125,0.022969411686062813,-0.03856118768453598,0.025472212582826614
1761384994779917800,3.497917724609375,0.031884077936410904,-0.027150075882673264,0.015862194821238518
1761384994789986800,3.50798681640625,0.05030924454331398,-0.0305625032633543,0.008774781599640846
1761384994800054800,3.5180546875,0.07384678721427917,-0.030465563759207726,0.007626958657056093
1761384994810124000,3.5281240234375,0.09758739173412323,-0.026756390929222107,0.023939073085784912
1761384994820192800,3.53819287109375,0.112752765417099,-0.026441071182489395,0.04890887439250946
1761384994830261800,3.54826171875,0.10430575162172318,-0.030329018831253052,0.07706300914287567
1761384994840330800,3.558330810546875,0.08284067362546921,-0.030152451246976852,0.09732354432344437
1761384994850399700,3.568399658203125,0.0615292564034462,-0.020973604172468185,0.10958686470985413
1761384994860469000,3.578468994140625,0.035706449300050735,-0.01242325734347105,0.09868334978818893
1761384994870537700,3.588537841796875,0.026793237775564194,0.003019239753484726,0.07727881520986557
1761384994880607000,3.59860693359375,0.01791372522711754,0.011699280701577663,0.058592211455106735
1761384994890675700,3.60867578125,0.019353080540895462,-0.002148505300283432,0.04120330885052681
1761384994900743700,3.61874365234375,0.023450352251529694,-0.008952614851295948,0.028307218104600906
1761384994910813000,3.62881298828125,0.014215933158993721,-0.025203220546245575,0.02431839518249035
1761384994920881700,3.638881591796875,-0.005878683179616928,-0.03329576551914215,0.026587674394249916
1761384994930951000,3.648950927734375,-0.03202983736991882,-0.035587891936302185,0.02996768243610859
1761384994941019600,3.65901953125,-0.058692075312137604,-0.026973629370331764,0.028557008132338524
1761384994951089000,3.6690888671875,-0.07636898756027222,-0.016492610797286034,0.014102490618824959
1761384994961158000,3.679157958984375,-0.08944271504878998,0.009644185192883015,0.011011624708771706
1761384994971227000,3.689226806640625,-0.09327764809131622,0.03531794995069504,0.001997722312808037
1761384994981295900,3.6992958984375,-0.09664734452962875,0.05439470708370209,0.004098956473171711
1761384994991364600,3.709364501953125,-0.09699755162000656,0.06743445992469788,0.013415228575468063
1761384995001432800,3.719432861328125,-0.09437619894742966,0.06583869457244873,0.0180193018168211
1761384995011501800,3.729501708984375,-0.08757862448692322,0.053158216178417206,0.018340829759836197
1761384995021570800,3.73957080078125,-0.07060656696557999,0.043033141642808914,0.010876786895096302
1761384995031639800,3.749639892578125,-0.04589476063847542,0.03063206374645233,0.009511873126029968
1761384995041708800,3.759708740234375,-0.018849827349185944,0.022669214755296707,0.009394960477948189
1761384995051777800,3.76977783203125,0.0036443008575588465,0.010885912925004959,0.017203085124492645
1761384995061846800,3.7798466796875,0.02408725768327713,0.005683160852640867,0.03047041967511177
1761384995071915800,3.789915771484375,0.026290951296687126,-0.002639271318912506,0.04490000009536743
1761384995081984800,3.79998486328125,0.01512112282216549,-0.003224101848900318,0.053591758012771606
1761384995092054000,3.810053955078125,0.004423509817570448,-0.0006248448044061661,0.056013401597738266
1761384995102121700,3.820121826171875,-0.00504296226426959,0.014546651393175125,0.04614958539605141
1761384995112190700,3.830190673828125,-0.014377061277627945,0.038737304508686066,0.02413386106491089
1761384995122260000,3.840260009765625,-0.021010464057326317,0.05098225176334381,-0.004930546972900629
1761384995132328700,3.85032861328125,-0.027591777965426445,0.045415911823511124,-0.039516471326351166
1761384995142398000,3.86039794921875,-0.030681312084197998,0.03203831985592842,-0.062256406992673874
1761384995152466700,3.870466796875,-0.030158039182424545,0.012070192955434322,-0.08024901896715164
1761384995162536000,3.880535888671875,-0.02567407488822937,-0.016764916479587555,-0.08327676355838776
1761384995172604700,3.890604736328125,-0.01982332579791546,-0.03255895525217056,-0.06537061184644699
1761384995182674000,3.900673828125,-0.016426462680101395,-0.034383755177259445,-0.0457572266459465
1761384995192743000,3.910742919921875,-0.01507556438446045,-0.03358815982937813,-0.028779659420251846
1761384995202811000,3.920810791015625,-0.019017042592167854,-0.02999155968427658,-0.015394876711070538
1761384995212880000,3.9308798828125,-0.02559731900691986,-0.0301196426153183,-0.009045815095305443
1761384995222948900,3.940948974609375,-0.04196324199438095,-0.029074620455503464,-0.006482522469013929
1761384995233017900,3.951017822265625,-0.05584147945046425,-0.022455554455518723,-0.017051253467798233
1761384995243086800,3.9610869140625,-0.0693674087524414,-0.0024405689910054207,-0.02268144115805626
1761384995253155600,3.971155517578125,-0.07958833128213882,0.017231464385986328,-0.030874289572238922
1761384995263224800,3.981224853515625,-0.0841711014509201,0.040150631219148636,-0.03761075809597969
1761384995273293800,3.9912939453125,-0.08641854673624039,0.060070157051086426,-0.041303228586912155
1761384995283362800,4.00136279296875,-0.08117957413196564,0.08250249177217484,-0.04067046195268631
1761384995293431800,4.011431884765625,-0.06444407254457474,0.08822622895240784,-0.037645868957042694
1761384995303500000,4.0215,-0.0423254519701004,0.08458302170038223,-0.03660670295357704
1761384995313568800,4.03156884765625,-0.019781792536377907,0.07233274728059769,-0.023041624575853348
1761384995323637800,4.0416376953125,-0.0062103234231472015,0.05063197761774063,-0.011293623596429825
1761384995333706800,4.051706787109375,0.002691044704988599,0.014647029340267181,0.004656149074435234
1761384995343775700,4.061775634765625,0.0034697530791163445,-0.011471922509372234,0.013289318419992924
1761384995353845000,4.071844970703125,0.0026113130152225494,-0.035215698182582855,0.015212228521704674
1761384995363913700,4.081913818359375,-0.003608233295381069,-0.048815928399562836,0.013368789106607437
1761384995373983000,4.09198291015625,-0.004982619546353817,-0.04979591816663742,0.004837844055145979
1761384995384051700,4.1020517578125,-0.007143508642911911,-0.029468543827533722,-0.0005025933496654034
1761384995394121000,4.112120849609375,0.0001753066899254918,0.01236025057733059,-0.010798430070281029
1761384995404189000,4.12218896484375,0.00799914076924324,0.05431222915649414,-0.019039848819375038
1761384995414257700,4.132257568359375,0.01131955161690712,0.08846971392631531,-0.0272507406771183
1761384995424327000,4.142326904296875,0.011946460232138634,0.08409014344215393,-0.030280884355306625
1761384995434396000,4.15239599609375,0.015768056735396385,0.06538089364767075,-0.03338295966386795
1761384995444465000,4.16246484375,0.007560993079096079,0.05548299103975296,-0.03309587389230728
1761384995454534000,4.172533935546875,-0.013507592491805553,0.03670067712664604,-0.0232260562479496
1761384995464602600,4.1826025390625,-0.035814229398965836,0.020970717072486877,-0.010780304670333862
1761384995474671900,4.192671875,-0.04430811479687691,0.005699352361261845,-0.013126815669238567
1761384995484740600,4.20274072265625,-0.042063068598508835,-0.006598326377570629,-0.03206668421626091
1761384995494808800,4.212808837890625,-0.03574386611580849,-0.00925380177795887,-0.05690186843276024
1761384995504877800,4.2228779296875,-0.014803961850702763,-0.0003039836883544922,-0.07914432138204575
1761384995514946800,4.23294677734375,0.009776606224477291,0.023417215794324875,-0.0907718613743782
1761384995525015800,4.243015869140625,0.041419751942157745,0.04228038340806961,-0.09221050143241882
1761384995535084800,4.253084716796875,0.07622455060482025,0.05705351382493973,-0.07575948536396027
1761384995545153800,4.26315380859375,0.11311651766300201,0.056323274970054626,-0.048791784793138504
1761384995555222800,4.273222900390625,0.14519630372524261,0.03710908442735672,-0.0171524528414011
1761384995565291800,4.283291748046875,0.1694451868534088,-0.002051101066172123,0.020172016695141792
1761384995575360800,4.29336083984375,0.17792367935180664,-0.04536093771457672,0.05461187660694122
1761384995585430000,4.303429931640625,0.16051939129829407,-0.07463148236274719,0.08478496223688126
1761384995595498800,4.313498779296875,0.12752075493335724,-0.08404502272605896,0.09155174344778061
1761384995605566700,4.323566650390625,0.08776669204235077,-0.06976941227912903,0.07688944041728973
1761384995615636000,4.333635986328125,0.05066494271159172,-0.034718338400125504,0.04946080595254898
1761384995625704700,4.34370458984375,0.0234527625143528,-0.0019177822396159172,0.007647843100130558
1761384995635774000,4.35377392578125,-0.0014963331632316113,0.029060587286949158,-0.0395427942276001
1761384995645842700,4.3638427734375,-0.01320971455425024,0.0413457490503788,-0.08169557899236679
1761384995655912000,4.373911865234375,-0.018134865909814835,0.038772840052843094,-0.09918732941150665
1761384995665981000,4.38398095703125,-0.015725504606962204,0.021039651706814766,-0.08907584100961685
1761384995676049700,4.394049560546875,-0.00735660083591938,0.0005396786145865917,-0.058929443359375
1761384995686119000,4.404118896484375,0.0028401105664670467,-0.024256478995084763,-0.01909894123673439
1761384995696187000,4.414186767578125,0.015414655208587646,-0.04357381910085678,0.01048382930457592
1761384995706256000,4.424255859375,0.02747504599392414,-0.052850142121315,0.030786702409386635
1761384995716324900,4.434324951171875,0.04679058492183685,-0.05695027858018875,0.03248102590441704
1761384995726394400,4.444394287109375,0.06582099944353104,-0.05500643700361252,0.0230459775775671
1761384995736463600,4.454463623046875,0.08048011362552643,-0.05069948732852936,0.006061765365302563
1761384995746532400,4.464532470703125,0.09441377222537994,-0.04385116696357727,-0.008958462625741959
1761384995756601600,4.4746015625,0.10441108793020248,-0.03501823544502258,-0.019109847024083138
1761384995766670600,4.484670654296875,0.11428768932819366,-0.023167705163359642,-0.02123185433447361
1761384995776739600,4.494739501953125,0.1183520033955574,-0.01812451332807541,-0.0198330357670784
1761384995786808600,4.50480859375,0.1153399646282196,-0.022455081343650818,-0.0013610832393169403
1761384995796876500,4.51487646484375,0.10216987878084183,-0.02911776304244995,0.017682941630482674
1761384995806945500,4.524945556640625,0.07786639779806137,-0.030932709574699402,0.03404860198497772
1761384995817014500,4.5350146484375,0.048236697912216187,-0.03549925982952118,0.042560748755931854
1761384995827083500,4.54508349609375,0.01908041164278984,-0.029987048357725143,0.03523865342140198
1761384995837152500,4.555152587890625,0.008005142211914062,-0.01768888719379902,0.01811116561293602
1761384995847221200,4.56522119140625,0.005964362062513828,0.005437205079942942,-0.004139543976634741
1761384995857290500,4.57529052734375,0.0075727952644228935,0.02149667590856552,-0.027695724740624428
1761384995867359500,4.585359375,0.005438538268208504,0.03705992549657822,-0.040245868265628815
1761384995877428500,4.595428466796875,0.005017030984163284,0.04599142074584961,-0.042528774589300156
1761384995887497500,4.60549755859375,0.0044228797778487206,0.04416954889893532,-0.03461625799536705
1761384995897565700,4.615565673828125,0.006141444202512503,0.04108233377337456,-0.018335092812776566
1761384995907634400,4.625634521484375,0.009919670410454273,0.03417303040623665,-0.0037987602408975363
1761384995917703400,4.635703369140625,0.0199888925999403,0.012340346351265907,0.012301341630518436
1761384995927772400,4.6457724609375,0.034575559198856354,-0.0033949408680200577,0.01650593802332878
1761384995937841400,4.65584130859375,0.050200894474983215,-0.014882475137710571,0.023224856704473495
1761384995947910700,4.66591064453125,0.06547892093658447,-0.012913867831230164,0.02492368593811989
1761384995957979400,4.6759794921875,0.06515970081090927,-0.008300766348838806,0.02742108330130577
1761384995968048600,4.686048583984375,0.051586903631687164,0.0012756953947246075,0.025340359658002853
1761384995978117400,4.696117431640625,0.03570825234055519,0.011259473860263824,0.015379014424979687
1761384995988186600,4.7061865234375,0.017155874520540237,0.02164233848452568,0.002032050397247076
1761384995998254600,4.716254638671875,0.005480589810758829,0.03832554072141647,-0.012317230924963951
1761384996008323300,4.7263232421875,0.0031639058142900467,0.05107622221112251,-0.02023986726999283
1761384996018392600,4.736392578125,-0.000528606353327632,0.05566270276904106,-0.0197762381285429
1761384996028461600,4.746461669921875,-0.005904463119804859,0.053887706249952316,-0.014890403486788273
1761384996038530600,4.756530517578125,-0.014464129693806171,0.045390091836452484,-0.017170868813991547
1761384996048599600,4.766599609375,-0.027554098516702652,0.04260282963514328,-0.02074642851948738
1761384996058668300,4.776668212890625,-0.03282919153571129,0.038835495710372925,-0.029709143564105034
1761384996068737500,4.786737548828125,-0.03235914185643196,0.040766552090644836,-0.03477980196475983
1761384996078806500,4.796806640625,-0.02408028580248356,0.032646242529153824,-0.04211919382214546
1761384996088875500,4.80687548828125,-0.0070704082027077675,0.017131466418504715,-0.0397053025662899
1761384996098943500,4.816943603515625,0.00456943828612566,-0.0016214922070503235,-0.027176925912499428
1761384996109012500,4.827012451171875,0.014790650457143784,-0.030980711802840233,-0.011583052575588226
1761384996119081500,4.83708154296875,0.030845431610941887,-0.05906416103243828,0.0042983852326869965
1761384996129150500,4.847150390625,0.039193376898765564,-0.07612809538841248,0.015897251665592194
1761384996139219500,4.857219482421875,0.0442236065864563,-0.07792440056800842,0.026776030659675598
1761384996149288400,4.867288330078125,0.038289815187454224,-0.07135438174009323,0.03702201321721077
1761384996159357400,4.877357421875,0.019145198166370392,-0.058392271399497986,0.04375593364238739
1761384996169426400,4.887426513671875,-0.0036245626397430897,-0.04794549196958542,0.04621616378426552
1761384996179495700,4.89749560546875,-0.02916591614484787,-0.03016197308897972,0.03685113042593002
1761384996189564400,4.907564453125,-0.049583569169044495,-0.0009103473275899887,0.02467568963766098
1761384996199632400,4.91763232421875,-0.06005421280860901,0.025385770946741104,0.012957233935594559
1761384996209701600,4.92770166015625,-0.06529637426137924,0.03964140638709068,-0.0008592463564127684
1761384996219770400,4.937770263671875,-0.05812402069568634,0.04447564855217934,-0.008839097805321217
1761384996229839600,4.947839599609375,-0.046473488211631775,0.03413059562444687,-0.007331482134759426
1761384996239908400,4.957908447265625,-0.032611578702926636,0.0028200135566294193,-0.004476025700569153
1761384996249977600,4.9679775390625,-0.023945119231939316,-0.024132773280143738,0.003847950603812933
1761384996260046600,4.978046630859375,-0.01766623742878437,-0.02559441700577736,0.018505068495869637
1761384996270115300,4.988115234375,-0.010549739003181458,-0.007957899942994118,0.0259238351136446
1761384996280184600,4.9981845703125,-0.008366587571799755,0.008710067719221115,0.02900361828505993
1761384996290253300,5.00825341796875,-0.0017643446335569024,0.017270267009735107,0.02828882820904255
1761384996300321500,5.018321533203125,0.004030809737741947,0.015087462961673737,0.017480909824371338
1761384996310390500,5.028390625,0.010050885379314423,0.0051453495398163795,0.004829561337828636
1761384996320459500,5.03845947265625,0.020475909113883972,-0.006889451295137405,-0.007268059998750687
1761384996330528500,5.048528564453125,0.0322076641023159,-0.02219703420996666,-0.01818622276186943
1761384996340597500,5.058597412109375,0.04537960886955261,-0.02529519610106945,-0.0159708634018898
1761384996350666500,5.06866650390625,0.04552767798304558,-0.03095334582030773,-0.008059144020080566
1761384996360735500,5.078735595703125,0.03762580081820488,-0.03236331790685654,-0.0021291805896908045
1761384996370804500,5.088804443359375,0.027950536459684372,-0.031273551285266876,-0.0013012038543820381
1761384996380873500,5.09887353515625,0.01934625394642353,-0.03059987910091877,-0.007932391948997974
1761384996390942500,5.1089423828125,0.0135637316852808,-0.01579536870121956,-0.014280835166573524
1761384996401010400,5.119010498046875,0.011547772213816643,-0.002973472699522972,-0.017419511452317238
1761384996411079400,5.129079345703125,0.017952941358089447,0.007621115073561668,-0.01611349731683731
1761384996421148400,5.1391484375,0.02208755537867546,0.008914039470255375,-0.012557784095406532
1761384996431217400,5.149217529296875,0.02684902213513851,-0.0008067646995186806,-0.0034614913165569305
1761384996441286700,5.15928662109375,0.022888466715812683,-0.010414411313831806,0.005093268118798733
1761384996451355400,5.16935546875,0.021314803510904312,-0.01588720828294754,0.01569930836558342
1761384996461424600,5.179424560546875,0.011313737370073795,0.004440195392817259,0.0290964525192976
1761384996471493400,5.189493408203125,0.002152996603399515,0.0372503399848938,0.03223338723182678
1761384996481562400,5.199562255859375,-0.010259867645800114,0.06131574511528015,0.027289850637316704
1761384996491630600,5.209630615234375,-0.02363772504031658,0.05664908513426781,0.015013208612799644
1761384996501699300,5.21969921875,-0.018849121406674385,0.033365413546562195,-0.0005012312904000282
1761384996511768600,5.2297685546875,-0.00570216029882431,-0.014161355793476105,-0.018220840021967888
1761384996521837600,5.239837646484375,0.01720794290304184,-0.061701301485300064,-0.03293454274535179
1761384996531906600,5.249906494140625,0.0456094890832901,-0.09358199685811996,-0.04214295372366905
1761384996541975600,5.2599755859375,0.08118151873350143,-0.13597780466079712,-0.0404236726462841
1761384996552044300,5.270044189453125,0.13264816999435425,-0.19544033706188202,-0.026063375174999237
1761384996562113500,5.280113525390625,0.1836409717798233,-0.24099266529083252,0.01046155858784914
1761384996572182500,5.2901826171875,0.2074110060930252,-0.267258882522583,0.06510216742753983
1761384996582251500,5.30025146484375,0.19516070187091827,-0.2708036005496979,0.11691589653491974
1761384996592319500,5.310319580078125,0.1673698127269745,-0.2677156627178192,0.16095313429832458
1761384996602388500,5.320388427734375,0.13812869787216187,-0.25460436940193176,0.18298661708831787
1761384996612457500,5.33045751953125,0.10218055546283722,-0.2254161387681961,0.1837003380060196
1761384996622526500,5.3405263671875,0.06242779269814491,-0.18827614188194275,0.17328664660453796
1761384996632595500,5.350595458984375,0.009137940593063831,-0.14797160029411316,0.15056216716766357
1761384996642664400,5.36066455078125,-0.05329318717122078,-0.11236840486526489,0.13083340227603912
1761384996652733400,5.3707333984375,-0.11239539086818695,-0.06960655748844147,0.11606563627719879
1761384996662802400,5.380802490234375,-0.15997976064682007,-0.04062352702021599,0.10689152777194977
1761384996672871700,5.39087158203125,-0.189703568816185,-0.03467562049627304,0.10104455798864365
1761384996682940400,5.4009404296875,-0.20576082170009613,-0.032244376838207245,0.10104847699403763
1761384996693008400,5.41100830078125,-0.20509928464889526,-0.03053462877869606,0.10465812683105469
1761384996703077600,5.42107763671875,-0.19766102731227875,-0.02166241779923439,0.11107956618070602
1761384996713146400,5.431146484375,-0.19051949679851532,-0.025552764534950256,0.11234137415885925
1761384996723215600,5.441215576171875,-0.18032243847846985,-0.03880930319428444,0.10691896080970764
1761384996733284400,5.451284423828125,-0.1718735545873642,-0.06720445305109024,0.09783252328634262
1761384996743353300,5.461353271484375,-0.1656976044178009,-0.09209980815649033,0.0788240060210228
1761384996753422300,5.47142236328125,-0.16023732721805573,-0.11461204290390015,0.05912220478057861
1761384996763491300,5.4814912109375,-0.15615656971931458,-0.13671867549419403,0.03650104999542236
1761384996773560300,5.491560302734375,-0.15611448884010315,-0.17598778009414673,0.017968909814953804
1761384996783628500,5.501628662109375,-0.1586691439151764,-0.21652981638908386,0.003969190176576376
1761384996793697300,5.511697265625,-0.17481403052806854,-0.26300889253616333,-0.006755359470844269
1761384996803766300,5.521766357421875,-0.2044295072555542,-0.27802664041519165,-0.018100116401910782
1761384996813835300,5.531835205078125,-0.24579399824142456,-0.2705974876880646,-0.03535100817680359
1761384996823904300,5.541904296875,-0.2957472503185272,-0.21604306995868683,-0.03014431893825531
1761384996833973500,5.551973388671875,-0.34559229016304016,-0.20472383499145508,-0.030411433428525925
1761384996844042200,5.562042236328125,-0.37581807374954224,-0.22973686456680298,-0.002906908979639411
1761384996854111500,5.572111572265625,-0.39576783776283264,-0.2532437741756439,0.030241457745432854
1761384996864180200,5.58218017578125,-0.4193771779537201,-0.267824649810791,0.05222424119710922
1761384996874249500,5.59224951171875,-0.43977007269859314,-0.27157172560691833,0.07433939725160599
1761384996884317400,5.6023173828125,-0.44694945216178894,-0.23319706320762634,0.07957540452480316
1761384996894386200,5.61238623046875,-0.44137707352638245,-0.13186058402061462,0.068341925740242
1761384996904455400,5.622455322265625,-0.40467649698257446,-0.005665394477546215,0.04196690768003464
1761384996914524400,5.6325244140625,-0.3631921708583832,0.09137806296348572,0.013421284034848213
1761384996924595500,5.642595458984375,-0.3133142292499542,0.13288448750972748,-0.0009726551361382008
1761384996934664200,5.652664306640625,-0.260282963514328,0.1063183844089508,0.003144592046737671
1761384996944733400,5.6627333984375,-0.2301328480243683,0.05786801502108574,0.019526734948158264
1761384996954802200,5.67280224609375,-0.22661054134368896,0.016068369150161743,0.04644463211297989
1761384996964871400,5.682871337890625,-0.24427530169487,0.006313917692750692,0.0645899847149849
1761384996974939400,5.692939453125,-0.26673826575279236,0.02142069861292839,0.06410103291273117
1761384996985008400,5.70300830078125,-0.2812725901603699,0.03714163228869438,0.052245013415813446
1761384996995077400,5.713077392578125,-0.27827945351600647,0.04031185805797577,0.035332344472408295
1761384997005146400,5.723146484375,-0.2673586905002594,0.04148022457957268,0.020556200295686722
1761384997015215400,5.73321533203125,-0.25320345163345337,0.037859126925468445,-0.001823674188926816
1761384997025284400,5.743284423828125,-0.23052744567394257,0.04336925968527794,-0.02976672537624836
1761384997035353300,5.753353271484375,-0.1956392377614975,0.07365845143795013,-0.06593591719865799
1761384997045422300,5.76342236328125,-0.14295007288455963,0.12612397968769073,-0.11033961176872253
1761384997055491300,5.7734912109375,-0.09101098030805588,0.17116335034370422,-0.1575276255607605
1761384997065559300,5.783559326171875,-0.04308466985821724,0.19634243845939636,-0.1876089721918106
1761384997075628300,5.793628173828125,0.0034306307788938284,0.21456485986709595,-0.19597449898719788
1761384997085697500,5.803697509765625,0.0386657752096653,0.21156702935695648,-0.1899557113647461
1761384997095766300,5.813766357421875,0.06649021804332733,0.16508767008781433,-0.16825281083583832
1761384997105835500,5.82383544921875,0.08236242830753326,0.10497094690799713,-0.13537687063217163
1761384997115904300,5.833904296875,0.09078281372785568,0.06330152601003647,-0.10088253021240234
1761384997125973500,5.843973388671875,0.08783174306154251,0.037610091269016266,-0.07977477461099625
1761384997136042200,5.854042236328125,0.07127779722213745,0.013099157251417637,-0.06679479777812958
1761384997146111200,5.864111328125,0.044433511793613434,-0.013037038967013359,-0.06790801882743835
1761384997156180500,5.874180419921875,0.02202886901795864,-0.014106031507253647,-0.08013138920068741
1761384997166248400,5.88424853515625,0.005123109556734562,0.003285381942987442,-0.10000506043434143
1761384997176317400,5.8943173828125,0.043924566358327866,0.07545171678066254,-0.1274057924747467
1761384997186386400,5.904386474609375,0.09895237535238266,0.003793833777308464,-0.1859656125307083
1761384997196455400,5.914455322265625,0.07192608714103699,-0.202937513589859,-0.24717862904071808
1761384997206524400,5.9245244140625,0.043328605592250824,-0.2619786560535431,-0.2674357295036316
1761384997216593200,5.93459326171875,0.09083008021116257,-0.1807783544063568,-0.22802895307540894
1761384997226662400,5.944662353515625,0.1059325784444809,-0.2013726830482483,-0.18068255484104156
1761384997236731400,5.9547314453125,0.09058238565921783,-0.20023098587989807,-0.11776165664196014
1761384997246800400,5.96480029296875,0.17254674434661865,-0.13801109790802002,-0.036005109548568726
1761384997256869400,5.974869384765625,0.24390268325805664,-0.1643580198287964,0.03250976651906967
1761384997266937300,5.984937255859375,0.26297667622566223,-0.29079973697662354,0.08325275778770447
1761384997277006300,5.99500634765625,0.25549691915512085,-0.37871360778808594,0.1266135424375534
1761384997287075300,6.005075439453125,0.2511458694934845,-0.37365901470184326,0.16313765943050385
1761384997297144300,6.015144287109375,0.23313464224338531,-0.29872754216194153,0.18637214601039886
1761384997307213300,6.02521337890625,0.1933925449848175,-0.21617893874645233,0.19921913743019104
1761384997317282600,6.035282470703125,0.1280585378408432,-0.15227586030960083,0.20214435458183289
1761384997327351300,6.045351318359375,0.059143975377082825,-0.0898711159825325,0.1976218968629837
1761384997337420500,6.055420654296875,0.009995603002607822,-0.05471258983016014,0.17890946567058563
1761384997347489300,6.0654892578125,-0.010680785402655602,-0.07199303060770035,0.14852023124694824
1761384997357558300,6.075558349609375,-0.027500510215759277,-0.13384760916233063,0.125620499253273
1761384997367626500,6.08562646484375,-0.041779644787311554,-0.1669558435678482,0.13085028529167175
1761384997377695200,6.0956953125,-0.05239474028348923,-0.1570744514465332,0.15006020665168762
1761384997387764500,6.105764404296875,-0.06884924322366714,-0.136307030916214,0.15660694241523743
1761384997397833500,6.11583349609375,-0.08245053887367249,-0.13602234423160553,0.14514043927192688
1761384997407902500,6.12590234375,-0.0931818038225174,-0.15637801587581635,0.12998957931995392
1761384997417971500,6.135971435546875,-0.11037810146808624,-0.1534338891506195,0.1215103343129158
1761384997428040200,6.146040283203125,-0.1220177412033081,-0.14382687211036682,0.1227828711271286
1761384997438109400,6.156109375,-0.12453043460845947,-0.14029952883720398,0.12011651694774628
1761384997448178200,6.16617822265625,-0.12298410385847092,-0.13940897583961487,0.10003430396318436
1761384997458246400,6.176246337890625,-0.11350537836551666,-0.14006918668746948,0.07694017142057419
1761384997468315400,6.1863154296875,-0.08991113305091858,-0.14144515991210938,0.05231958255171776
1761384997478384400,6.19638427734375,-0.02155684120953083,-0.06877228617668152,0.019856180995702744
1761384997488453400,6.206453369140625,0.001978781074285507,-0.05217607691884041,-0.035036757588386536
1761384997498522400,6.2165224609375,-0.028041435405611992,-0.017453517764806747,-0.10208290070295334
1761384997508591400,6.22659130859375,-0.05498449504375458,0.04341115802526474,-0.15479741990566254
1761384997518660400,6.236660400390625,-0.05492404103279114,0.08601827174425125,-0.19616402685642242
1761384997528729300,6.246729248046875,-0.05170587822794914,0.08585406839847565,-0.21439407765865326
1761384997538798300,6.25679833984375,-0.038910720497369766,0.09153219312429428,-0.20756946504116058
1761384997548867600,6.26686767578125,-0.02953137271106243,0.10674335807561874,-0.1689286231994629
1761384997558935300,6.276935302734375,-0.031191319227218628,0.11104463040828705,-0.12155125290155411
1761384997569004300,6.28700439453125,-0.0294672679156065,0.1345994770526886,-0.0645628571510315
1761384997579073500,6.297073486328125,-0.01563454233109951,0.15617667138576508,0.005223417188972235
1761384997589142300,6.307142333984375,-0.008749674074351788,0.15455420315265656,0.0737110897898674
1761384997599211500,6.31721142578125,-0.011065025813877583,0.11089034378528595,0.13377468287944794
1761384997609280300,6.3272802734375,-0.02151646465063095,0.0787302553653717,0.1854814738035202
1761384997619349500,6.337349609375,-0.025378847494721413,0.07974172383546829,0.216166153550148
1761384997629418500,6.34741845703125,-0.02591549977660179,0.08791530877351761,0.22524891793727875
1761384997639487200,6.3574873046875,-0.015396813862025738,0.11633870005607605,0.21821658313274384
1761384997649556500,6.367556396484375,0.04759854078292847,0.188004732131958,0.18533073365688324
1761384997659624400,6.37762451171875,0.040555279701948166,0.18186907470226288,0.1133153885602951
1761384997669693400,6.387693359375,0.025034064427018166,0.25675785541534424,0.054520487785339355
1761384997679762400,6.397762451171875,0.02590491808950901,0.32816383242607117,0.021797694265842438
1761384997689831200,6.4078310546875,0.016543840989470482,0.38392359018325806,0.011617006734013557
1761384997699900400,6.417900390625,0.013680675998330116,0.397714763879776,0.015321196988224983
1761384997709969400,6.427969482421875,0.03165263682603836,0.3533628284931183,0.03364269435405731
1761384997720038400,6.438038330078125,0.05606796219944954,0.29767584800720215,0.06460326910018921
1761384997730108200,6.448108154296875,0.080202117562294,0.2527823746204376,0.09163208305835724
1761384997740177200,6.45817724609375,0.08664856851100922,0.2058020830154419,0.11672225594520569
1761384997750245000,6.4682451171875,0.07021823525428772,0.1513524353504181,0.09884421527385712
1761384997760314000,6.478314208984375,0.04789908230304718,0.09285077452659607,0.05447249487042427
1761384997770383000,6.488383056640625,0.03741906210780144,0.06355318427085876,-0.022926032543182373
1761384997780452400,6.498452392578125,0.05339483171701431,0.0643923431634903,-0.1165848821401596
1761384997790521000,6.50852099609375,0.06454762071371078,0.053617995232343674,-0.21275216341018677
1761384997800590300,6.51859033203125,0.06584831327199936,0.012563236989080906,-0.294734388589859
1761384997810659000,6.5286591796875,0.05653567612171173,-0.027796290814876556,-0.35074958205223083
1761384997820728300,6.538728271484375,0.05960496887564659,-0.03539002686738968,-0.3796563148498535
1761384997830797300,6.54879736328125,0.0632997676730156,-0.004990897141396999,-0.37383994460105896
1761384997840866000,6.558865966796875,0.06623537093400955,0.04945290461182594,-0.33954110741615295
1761384997850934300,6.568934326171875,0.06290090829133987,0.09269080311059952,-0.2761644721031189
1761384997861003300,6.579003173828125,0.05054624006152153,0.09901154786348343,-0.2022356539964676
1761384997871072300,6.589072265625,0.03102419711649418,0.07144318521022797,-0.12178263068199158
1761384997881141200,6.599141357421875,0.00589194567874074,0.01706995815038681,-0.05434286594390869
1761384997891210200,6.609210205078125,-0.025570856407284737,-0.039557911455631256,-0.014410599134862423
1761384997901279200,6.619279296875,-0.05942842364311218,-0.10752391815185547,-0.011225191876292229
1761384997911348200,6.62934814453125,-0.0801738053560257,-0.15379974246025085,-0.03195764869451523
1761384997921417200,6.639417236328125,-0.09281236678361893,-0.15937000513076782,-0.05953627824783325
1761384997931486200,6.649486328125,-0.1022924929857254,-0.1552101969718933,-0.07845080643892288
1761384997941555200,6.65955517578125,-0.10206478834152222,-0.147744819521904,-0.10021656006574631
1761384997951623200,6.669623046875,-0.06807491183280945,-0.12989139556884766,-0.11968216300010681
1761384997961692200,6.679692138671875,-0.018605628982186317,-0.09743039309978485,-0.11135765165090561
1761384997971761200,6.68976123046875,0.023239918053150177,-0.05498602241277695,-0.08490724861621857
1761384997981830100,6.699830078125,0.029383298009634018,-0.022819295525550842,-0.027539830654859543
1761384997991899100,6.709899169921875,0.0051411474123597145,-0.005408294498920441,0.04564512521028519
1761384998001968000,6.719968017578125,-0.038084618747234344,-0.008938313461840153,0.13186122477054596
1761384998012037400,6.730037353515625,-0.08050954341888428,-0.029633164405822754,0.20370632410049438
1761384998022106000,6.740106201171875,-0.10173387080430984,-0.05266205221414566,0.24734994769096375
1761384998032175400,6.75017529296875,-0.11087048798799515,-0.053444020450115204,0.25514504313468933
1761384998042244000,6.760244140625,-0.12353914231061935,-0.03200903534889221,0.22449524700641632
1761384998052312000,6.77031201171875,-0.14476265013217926,0.013547860085964203,0.16854481399059296
1761384998062381300,6.78038134765625,-0.17000223696231842,0.07503385841846466,0.09271370619535446
1761384998072450000,6.790449951171875,-0.18829090893268585,0.11145911365747452,0.008301915600895882
1761384998082519300,6.800519287109375,-0.2050970494747162,0.11535318940877914,-0.08629702776670456
1761384998092588300,6.81058837890625,-0.20953775942325592,0.10478005558252335,-0.17840155959129333
1761384998102657300,6.8206572265625,-0.19929656386375427,0.0841970220208168,-0.26245734095573425
1761384998112726300,6.830726318359375,-0.17645904421806335,0.06693779677152634,-0.3300968110561371
1761384998122795000,6.840794921875,-0.13540694117546082,0.04028567671775818,-0.3588813245296478
1761384998132864300,6.8508642578125,-0.09235000610351562,0.01482631079852581,-0.33168283104896545
1761384998142933200,6.860933349609375,-0.05468837916851044,-0.012298517860472202,-0.26042115688323975
1761384998153001200,6.871001220703125,-0.02924882434308529,-0.036760635673999786,-0.15502409636974335
1761384998163070200,6.8810703125,0.043713800609111786,-0.029886750504374504,-0.04699775576591492
1761384998173139200,6.89113916015625,0.06394284963607788,-0.15670643746852875,0.020152924582362175
1761384998183208200,6.901208251953125,0.07223460078239441,-0.22637046873569489,0.09308252483606339
1761384998193277200,6.911277099609375,0.06013393774628639,-0.25070691108703613,0.15648241341114044
1761384998203346200,6.92134619140625,0.037948474287986755,-0.24701739847660065,0.20861326158046722
1761384998213415200,6.931415283203125,0.025174256414175034,-0.19915983080863953,0.22612977027893066
1761384998223484200,6.941484130859375,0.033840980380773544,-0.12556231021881104,0.20981605350971222
1761384998233553200,6.95155322265625,0.08056548982858658,-0.015204532071948051,0.17904819548130035
1761384998243621000,6.96162109375,0.1392165571451187,0.12254960834980011,0.1448068767786026
1761384998253690400,6.9716904296875,0.17508386075496674,0.25055086612701416,0.11175819486379623
1761384998263759000,6.981759033203125,0.17998169362545013,0.3186119496822357,0.08688533306121826
1761384998273828400,6.991828369140625,0.155246764421463,0.29522597789764404,0.08405803143978119
1761384998283897000,7.00189697265625,0.12215352058410645,0.23471467196941376,0.11124837398529053
1761384998293966300,7.01196630859375,0.08407459408044815,0.2123732566833496,0.1555408388376236
1761384998304035000,7.02203515625,0.03890712186694145,0.19152362644672394,0.2047419399023056
1761384998314104300,7.032104248046875,0.0028141618240624666,0.14753292500972748,0.2294139415025711
1761384998324173300,7.04217333984375,-0.003261307254433632,0.10445816069841385,0.2343471795320511
1761384998334241000,7.052240966796875,0.014837690629065037,0.05717766657471657,0.21093721687793732
1761384998344310300,7.062310302734375,0.03354613110423088,-0.013617142103612423,0.15839970111846924
1761384998354379300,7.072379150390625,0.03238469734787941,-0.09105432778596878,0.07129310071468353
1761384998364448300,7.0824482421875,0.018174871802330017,-0.13801971077919006,-0.042463019490242004
1761384998374517200,7.092517333984375,-0.005144694820046425,-0.15025775134563446,-0.16017402708530426
1761384998384586000,7.1025859375,-0.02484969049692154,-0.13547320663928986,-0.256716787815094
1761384998394655200,7.1126552734375,-0.04391849413514137,-0.12206313759088516,-0.32809966802597046
1761384998404724200,7.12272412109375,-0.06583205610513687,-0.11834483593702316,-0.3702463209629059
1761384998414793200,7.132793212890625,-0.07372447848320007,-0.09634386003017426,-0.3826918303966522
1761384998424862200,7.1428623046875,-0.07277239859104156,-0.08411116153001785,-0.3751865029335022
1761384998434930200,7.15293017578125,-0.03909365460276604,-0.08656704425811768,-0.3485189378261566
1761384998444999200,7.162999267578125,0.020752638578414917,-0.13441286981105804,-0.3213387131690979
1761384998455068200,7.173068115234375,0.04405553638935089,-0.24401812255382538,-0.3009262979030609
1761384998465137200,7.18313720703125,0.06190484017133713,-0.3093973994255066,-0.2703090012073517
1761384998475206100,7.1932060546875,0.06765040010213852,-0.3289053440093994,-0.23309680819511414
1761384998485275400,7.203275390625,0.06907732039690018,-0.3086234927177429,-0.18380914628505707
1761384998495344000,7.21334423828125,0.07062171399593353,-0.26646390557289124,-0.133268803358078
1761384998505413400,7.223413330078125,0.07846259325742722,-0.19835114479064941,-0.07205285876989365
1761384998515482000,7.233482177734375,0.08521274477243423,-0.12929753959178925,0.011959374882280827
1761384998525551400,7.24355126953125,0.0947420671582222,-0.06497021019458771,0.11437816172838211
1761384998535619300,7.253619384765625,0.09247081726789474,-0.020859982818365097,0.22075770795345306
1761384998545688000,7.26368798828125,0.07325930893421173,0.01691083237528801,0.30740392208099365
1761384998555757300,7.27375732421875,0.038740918040275574,0.08572987467050552,0.37190791964530945
1761384998565826300,7.283826416015625,0.016828428953886032,0.1792859137058258,0.4104475975036621
1761384998575895300,7.293895263671875,0.009804830886423588,0.25331979990005493,0.42644384503364563
1761384998585964300,7.30396435546875,0.004267852287739515,0.2575172185897827,0.42264965176582336
1761384998596033000,7.314032958984375,-0.0065198540687561035,0.20230266451835632,0.39751654863357544
1761384998606102300,7.324102294921875,-0.018665466457605362,0.1053984984755516,0.3427894115447998
1761384998616171000,7.3341708984375,-0.01758500374853611,0.010523603297770023,0.2543669641017914
1761384998626240300,7.344240234375,-0.005562429316341877,-0.056944653391838074,0.14646978676319122
1761384998636308200,7.35430810546875,0.004934499505907297,-0.11280682682991028,0.03055921196937561
1761384998646377000,7.364376953125,-0.007315775379538536,-0.14126244187355042,-0.08273991197347641
1761384998656446200,7.3744462890625,-0.025010505691170692,-0.16000595688819885,-0.1600552201271057
1761384998666515200,7.38451513671875,-0.04022541269659996,-0.1413385272026062,-0.21080708503723145
1761384998676584200,7.394584228515625,-0.05101717263460159,-0.10536106675863266,-0.22098849713802338
1761384998686653200,7.404653076171875,-0.06665045768022537,-0.06558994948863983,-0.20450033247470856
1761384998696722200,7.41472216796875,-0.07877979427576065,-0.016440745443105698,-0.16790618002414703
1761384998706791200,7.424791259765625,-0.0747791975736618,0.017019744962453842,-0.1104106605052948
1761384998716860400,7.4348603515625,-0.06829016655683517,0.04891212284564972,-0.03810124099254608
1761384998726927000,7.444927001953125,-0.058236733078956604,0.0978703424334526,0.03629389405250549
1761384998736995800,7.454995849609375,-0.0721588209271431,0.13357234001159668,0.10247024148702621
1761384998747065000,7.465065185546875,-0.09209071844816208,0.10718519985675812,0.1575271040201187
1761384998757134000,7.475134033203125,-0.12185060977935791,0.03663991764187813,0.19293880462646484
1761384998767203000,7.485203125,-0.14267146587371826,-0.035423360764980316,0.21130982041358948
1761384998777272000,7.49527197265625,-0.15039782226085663,-0.08277089893817902,0.20004864037036896
1761384998787340800,7.5053408203125,-0.1414749026298523,-0.08133918046951294,0.16782411932945251
1761384998797410000,7.51541015625,-0.13288463652133942,-0.05836028978228569,0.12575317919254303
1761384998807478800,7.525478759765625,-0.13510730862617493,-0.012296653352677822,0.07494112849235535
1761384998817548000,7.535548095703125,-0.1349758505821228,-0.01441810093820095,0.03746657073497772
1761384998827616000,7.545615966796875,-0.1329830139875412,-0.014995208010077477,0.012474935501813889
1761384998837685000,7.55568505859375,-0.1251254677772522,-0.01621166244149208,0.004109425935894251
1761384998847754000,7.56575390625,-0.12320347130298615,-0.02010839805006981,0.004284129943698645
1761384998857823000,7.575822998046875,-0.11935825645923615,-0.0013617677614092827,0.023814337328076363
1761384998867892000,7.58589208984375,-0.11374883353710175,0.016533875837922096,0.05477464944124222
1761384998877961000,7.5959609375,-0.11114665865898132,0.021267112344503403,0.09132973104715347
1761384998888030000,7.606030029296875,-0.11516422778367996,0.001582503318786621,0.12551385164260864
1761384998898099000,7.616098876953125,-0.12580738961696625,-0.043333400040864944,0.13972778618335724
1761384998908168200,7.626168212890625,-0.13730478286743164,-0.07076261937618256,0.14092114567756653
1761384998918236000,7.63623583984375,-0.14755722880363464,-0.04635309427976608,0.13041555881500244
1761384998928305000,7.646304931640625,-0.16015423834323883,0.02107468619942665,0.09719821810722351
1761384998938374100,7.6563740234375,-0.1638614386320114,0.07381924241781235,0.032043926417827606
1761384998948443000,7.66644287109375,-0.16305236518383026,0.11296185106039047,-0.06577584147453308
1761384998958512000,7.67651220703125,-0.15283039212226868,0.15843157470226288,-0.1812169849872589
1761384998968580900,7.686580810546875,-0.11934088915586472,0.23973123729228973,-0.2930079698562622
1761384998978650000,7.696650146484375,-0.07441172748804092,0.3274734914302826,-0.39360857009887695
1761384998988719000,7.706718994140625,-0.032479457557201385,0.3667982518672943,-0.4670844078063965
1761384998998787800,7.716787841796875,0.001483042724430561,0.3408892750740051,-0.4994652271270752
1761384999008857000,7.726857177734375,0.02586987614631653,0.27666181325912476,-0.4749937057495117
1761384999018925000,7.736925048828125,0.04419807344675064,0.21554730832576752,-0.3937365412712097
1761384999028994000,7.746994140625,0.059323497116565704,0.14604386687278748,-0.28401803970336914
1761384999039063000,7.75706298828125,0.07603134214878082,0.07547842711210251,-0.1636287122964859
1761384999049132000,7.767132080078125,0.09304654598236084,0.006564080715179443,-0.035339709371328354
1761384999059201000,7.777200927734375,0.10567917674779892,-0.02066931128501892,0.1028730645775795
1761384999069270000,7.78727001953125,0.09262862056493759,-0.0025430386886000633,0.2233233004808426
1761384999079339000,7.797339111328125,0.06173764169216156,0.005242180544883013,0.30738526582717896
1761384999089408000,7.807407958984375,0.03652336448431015,0.001455698162317276,0.33692023158073425
1761384999099477000,7.81747705078125,0.02548915334045887,-0.026590649038553238,0.31876036524772644
1761384999109546000,7.8275458984375,0.03260112553834915,-0.04996388405561447,0.2766624689102173
1761384999119614000,7.837614013671875,0.03884565457701683,-0.05519683659076691,0.22666358947753906
1761384999129683000,7.847682861328125,0.036275967955589294,-0.044112756848335266,0.17950619757175446
1761384999139752000,7.857751953125,0.02647934854030609,-0.03993597626686096,0.12548616528511047
1761384999149821000,7.867821044921875,0.002427541883662343,-0.04124252498149872,0.06502149999141693
1761384999159890000,7.877889892578125,-0.017846446484327316,-0.02617526426911354,-0.002673042006790638
1761384999169959200,7.887959228515625,-0.029394179582595825,0.0014505037106573582,-0.047342244535684586
1761384999180028000,7.89802783203125,-0.029678381979465485,0.010074752382934093,-0.06384348124265671
1761384999190097200,7.90809716796875,-0.03348910063505173,-0.0005022585391998291,-0.05284702777862549
1761384999200166000,7.918165771484375,-0.04105484485626221,0.0022823819890618324,-0.014919952489435673
1761384999210233900,7.92823388671875,-0.05531846731901169,0.018570274114608765,0.03879307955503464
1761384999220303000,7.93830322265625,-0.06913686543703079,0.020352769643068314,0.08071669936180115
1761384999230371800,7.948371826171875,-0.08014611154794693,0.004215877037495375,0.1014038696885109
1761384999240441000,7.958441162109375,-0.0929679423570633,-0.037498146295547485,0.09611453860998154
1761384999250510000,7.968510009765625,-0.10612288862466812,-0.09573827683925629,0.07108401507139206
1761384999260579000,7.9785791015625,-0.119757741689682,-0.10744553804397583,0.05061575770378113
1761384999270648000,7.98864794921875,-0.13209538161754608,-0.08291435986757278,0.020622175186872482
1761384999280716800,7.998716796875,-0.1343206763267517,-0.02261556312441826,-0.004723465535789728
1761384999290786000,8.0087861328125,-0.12156014144420624,0.028965339064598083,-0.03190848231315613
1761384999300854000,8.01885400390625,-0.09948218613862991,0.054299868643283844,-0.0545162670314312
1761384999310923000,8.028923095703124,-0.07739952206611633,0.07585256546735764,-0.07401885837316513
1761384999320992000,8.038991943359376,-0.05621252954006195,0.09655774384737015,-0.09213460236787796
1761384999331061000,8.04906103515625,-0.038610901683568954,0.10279513150453568,-0.10026895999908447
1761384999341130000,8.0591298828125,-0.014505256898701191,0.11830060184001923,-0.09516552090644836
1761384999351199000,8.069198974609375,0.02500353381037712,0.1456025242805481,-0.07920759171247482
1761384999361268000,8.07926806640625,0.07451064884662628,0.1545172929763794,-0.042462002485990524
1761384999371337000,8.0893369140625,0.11298080533742905,0.14696162939071655,0.002839168533682823
1761384999381406000,8.099406005859375,0.1404469609260559,0.11316555738449097,0.050569888204336166
1761384999391475000,8.109474853515625,0.16004329919815063,0.06373009830713272,0.088981993496418
1761384999401543000,8.11954296875,0.17866143584251404,0.020574597641825676,0.11996261030435562
1761384999411612200,8.129612060546876,0.19667160511016846,-0.030594047158956528,0.14471057057380676
1761384999421681000,8.139680908203125,0.20204003155231476,-0.08169011771678925,0.16719727218151093
1761384999431750100,8.149750244140625,0.19585564732551575,-0.10384655743837357,0.1814904510974884
1761384999441819000,8.15981884765625,0.18329782783985138,-0.11365868896245956,0.17720092833042145
1761384999451888000,8.16988818359375,0.16599154472351074,-0.09470684081315994,0.15531213581562042
1761384999461956900,8.179956787109376,0.14860539138317108,-0.06139503791928291,0.11212890595197678
1761384999472026000,8.190026123046875,0.1371964067220688,-0.04217260703444481,0.057176440954208374
1761384999482095000,8.20009521484375,0.12731994688510895,-0.03993464633822441,-0.0023434259928762913
1761384999492162800,8.210162841796874,0.11158651858568192,-0.07203985005617142,-0.036650530993938446
1761384999502232000,8.220232177734376,0.08148667216300964,-0.11434668302536011,-0.03336525708436966
1761384999512301000,8.230301025390625,0.0330088809132576,-0.14349311590194702,-0.006407944019883871
1761384999522370000,8.2403701171875,-0.026427078992128372,-0.1718064546585083,0.019609585404396057
1761384999532439000,8.25043896484375,-0.0723988339304924,-0.20203626155853271,0.027432886883616447
1761384999542507800,8.2605078125,-0.10101363807916641,-0.2305385023355484,0.020175635814666748
1761384999552577000,8.270576904296876,-0.11202314496040344,-0.2272883802652359,-0.006124146748334169
1761384999562646000,8.28064599609375,-0.11271174252033234,-0.18038775026798248,-0.05426808446645737
1761384999572715000,8.290715087890625,-0.10806213319301605,-0.11419621109962463,-0.10215651243925095
1761384999582784000,8.300783935546875,-0.1107829287648201,-0.0559658519923687,-0.13753020763397217
1761384999592852000,8.31085205078125,-0.12408994883298874,-0.013853550888597965,-0.1658284217119217
1761384999602921000,8.3209208984375,-0.13403387367725372,-0.006914458237588406,-0.18999888002872467
1761384999612990000,8.330989990234375,-0.1366235315799713,0.013387084938585758,-0.1939440816640854
1761384999623059000,8.341058837890625,-0.1415061056613922,0.044588640332221985,-0.17782384157180786
1761384999633128000,8.3511279296875,-0.13541465997695923,0.05696168541908264,-0.14294736087322235
1761384999643197200,8.361197265625,-0.12844140827655792,0.06859109550714493,-0.10680034011602402
1761384999653266000,8.371265869140625,-0.12478543072938919,0.05629048869013786,-0.0701318085193634
1761384999663335200,8.381335205078125,-0.12135739624500275,0.006011699326336384,-0.051975611597299576
1761384999673404000,8.39140380859375,-0.11696930229663849,-0.03977176919579506,-0.044391460716724396
1761384999683473200,8.40147314453125,-0.11548607051372528,-0.04924124851822853,-0.04758407175540924
1761384999693541000,8.411541015625,-0.10880446434020996,-0.02626163139939308,-0.053012922406196594
1761384999703609900,8.42160986328125,-0.09374252706766129,0.01721198484301567,-0.05144394561648369
1761384999713679000,8.43167919921875,-0.06586722284555435,0.06359279900789261,-0.04349600896239281
1761384999723748000,8.441748046875,-0.04987133666872978,0.04184393212199211,-0.029070546850562096
1761384999733817300,8.4518173828125,-0.039897266775369644,-0.01719168946146965,-0.02325340360403061
1761384999743886600,8.461886474609376,-0.021961940452456474,-0.08595716953277588,-0.010543201118707657
1761384999753955300,8.471955322265625,0.003588693216443062,-0.14717605710029602,0.004907394293695688
1761384999764024300,8.4820244140625,0.027380913496017456,-0.16900993883609772,0.026139670982956886
1761384999774093300,8.49209326171875,0.05050034821033478,-0.15313003957271576,0.05169057101011276
1761384999784161300,8.502161376953126,0.0671323612332344,-0.11007042974233627,0.07895870506763458
1761384999794230500,8.51223046875,0.06938353180885315,-0.06555036455392838,0.08723953366279602
1761384999804299300,8.52229931640625,0.06818559020757675,-0.06348865479230881,0.05672571063041687
1761384999814368300,8.5323681640625,0.0719265267252922,-0.05150016397237778,0.002853158861398697
1761384999824437500,8.5424375,0.07360280305147171,-0.041866958141326904,-0.07518886029720306
1761384999834506200,8.55250634765625,0.07222194969654083,-0.02457239106297493,-0.16115356981754303
1761384999844575500,8.562575439453125,0.07055123150348663,-0.005356242880225182,-0.23210425674915314
1761384999854644200,8.572644287109375,0.06009805575013161,0.010757479816675186,-0.26824095845222473
1761384999864713500,8.58271337890625,0.034714989364147186,0.020112738013267517,-0.264443963766098
1761384999874781400,8.592781494140626,0.0006084160413593054,0.01984056457877159,-0.2313920110464096
1761384999884850200,8.60285009765625,-0.04287479817867279,-0.010082566179335117,-0.19463713467121124
1761384999894919400,8.61291943359375,-0.08004266768693924,-0.08247420936822891,-0.18137352168560028
1761384999904988400,8.622988525390625,-0.10436541587114334,-0.12975727021694183,-0.17622284591197968
1761384999915057400,8.633057373046874,-0.12477828562259674,-0.1450084000825882,-0.15804490447044373
1761384999925126400,8.64312646484375,-0.152003675699234,-0.11761637032032013,-0.1183340921998024
1761384999935195400,8.6531953125,-0.17868615686893463,-0.11238592118024826,-0.07723353058099747
1761384999945264400,8.663264404296875,-0.17740604281425476,-0.10653991997241974,-0.059444379061460495
1761384999955333400,8.67333349609375,-0.14763696491718292,-0.07526721805334091,-0.054744962602853775
1761384999965402400,8.68340234375,-0.11770724505186081,-0.06413042545318604,-0.083265520632267
1761384999975470300,8.69347021484375,-0.09074833244085312,-0.05616117641329765,-0.1433432400226593
1761384999985539300,8.703539306640625,-0.058870311826467514,0.01131618395447731,-0.24360762536525726
1761384999995608300,8.7136083984375,-0.034626491367816925,0.13532069325447083,-0.3454248011112213
1761385000005677600,8.723677490234374,-0.014270184561610222,0.2691512107849121,-0.4363042414188385
1761385000015746300,8.733746337890626,0.006908869370818138,0.385008305311203,-0.5028929114341736
1761385000025815300,8.743815185546875,0.034184109419584274,0.46694955229759216,-0.5137552618980408
1761385000035884300,8.75388427734375,0.0473952516913414,0.4890676438808441,-0.4795418679714203
1761385000045953300,8.763953369140625,0.027652820572257042,0.41251447796821594,-0.39494070410728455
1761385000056022500,8.7740224609375,-0.003977542743086815,0.29397478699684143,-0.28612902760505676
1761385000066090200,8.78409033203125,-0.007899779826402664,0.1759900152683258,-0.15950427949428558
1761385000076159500,8.794159423828125,0.03311236575245857,0.06605391949415207,-0.026568325236439705
1761385000086228500,8.804228515625,0.0885709747672081,-0.07599365711212158,0.07746584713459015
1761385000096297200,8.814297119140624,0.10733667761087418,-0.19055220484733582,0.12116246670484543
1761385000106366500,8.824366455078126,0.13954278826713562,-0.25363683700561523,0.12122920900583267
1761385000116435200,8.834435302734375,0.16655923426151276,-0.2834562361240387,0.09150700271129608
1761385000126504400,8.84450439453125,0.1812426596879959,-0.28226137161254883,0.044656362384557724
1761385000136573400,8.854573486328125,0.18300433456897736,-0.25848788022994995,-0.005717328749597073
1761385000146642400,8.864642333984374,0.1600792557001114,-0.24097412824630737,-0.061428289860486984
1761385000156711400,8.87471142578125,0.12408637255430222,-0.20806357264518738,-0.0960930585861206
1761385000166779400,8.884779296875,0.09681697934865952,-0.15606829524040222,-0.10553207248449326
1761385000176848400,8.894848388671875,0.07693914324045181,-0.09997519850730896,-0.09731116145849228
1761385000186917400,8.90491748046875,0.04648457467556,-0.056515634059906006,-0.06761548668146133
1761385000196986400,8.914986328125,0.014809469692409039,-0.03553099185228348,-0.030717123299837112
1761385000207055400,8.925055419921875,0.002738749608397484,-0.01963808387517929,-0.008451638743281364
1761385000217124400,8.935124267578125,-0.0035511041060090065,-0.0010079406201839447,-0.012607768177986145
1761385000227193300,8.945193359375,0.004120824858546257,0.019054505974054337,-0.05635150149464607
1761385000237262300,8.955262451171874,0.026212545111775398,0.05432967469096184,-0.1343269944190979
1761385000247331300,8.965331298828126,0.04615287482738495,0.0803636685013771,-0.2266404628753662
1761385000257399300,8.9753994140625,0.04217757284641266,0.09832721948623657,-0.319000780582428
1761385000267468500,8.985468505859375,0.03556814417243004,0.10104190558195114,-0.3890373706817627
1761385000277537300,8.995537353515624,0.02631046622991562,0.10819941759109497,-0.43766775727272034
1761385000287606500,9.0056064453125,0.016932301223278046,0.14211295545101166,-0.4652681350708008
1761385000297673500,9.015673583984375,0.0072272103279829025,0.21209870278835297,-0.46971505880355835
1761385000307742500,9.025742431640625,-0.008020407520234585,0.31594187021255493,-0.40615710616111755
1761385000317811200,9.035811279296874,-0.03852798417210579,0.31522467732429504,-0.2842378616333008
1761385000327880400,9.04588037109375,-0.054199956357479095,0.19963438808918,-0.12990149855613708
1761385000337949200,9.05594921875,-0.04958150535821915,0.07698623090982437,0.036353521049022675
1761385000348018400,9.066018310546875,-0.036590080708265305,-0.009703359566628933,0.14776436984539032
1761385000358086400,9.07608642578125,-0.02778194099664688,-0.03945166990160942,0.16823714971542358
1761385000368155400,9.0861552734375,-0.02583335153758526,-0.045466285198926926,0.08825734257698059
1761385000378224400,9.096224365234375,-0.03463589772582054,-0.03726481273770332,-0.058065518736839294
1761385000388293400,9.10629345703125,-0.0488264299929142,-0.020734678953886032,-0.22487838566303253
1761385000398362400,9.1163623046875,-0.06583230942487717,-0.020994868129491806,-0.36794766783714294
1761385000408431400,9.126431396484374,-0.08781743049621582,-0.02503669634461403,-0.4662020802497864
1761385000418500400,9.136500244140626,-0.12317781150341034,-0.023921631276607513,-0.5151483416557312
1761385000428569300,9.1465693359375,-0.15947768092155457,-0.022974997758865356,-0.49042028188705444
1761385000438638300,9.156638427734375,-0.1800529956817627,0.010406927205622196,-0.3586188554763794
