time,seconds_elapsed,z,y,x
1761384991347687200,0.065687255859375,0.28971198201179504,-0.7735734581947327,0.26096582412719727
1761384991357756200,0.075756103515625,0.3503923714160919,-0.925378680229187,0.3475446403026581
1761384991367825200,0.0858251953125,0.4788174629211426,-1.0333867073059082,0.31928399205207825
1761384991377894100,0.09589404296875,0.6566367149353027,-0.9735329151153564,0.21840211749076843
1761384991387962400,0.10596240234375,0.8348437547683716,-0.8529492616653442,0.15361087024211884
1761384991398031400,0.11603125,0.9867989420890808,-0.7480505108833313,0.12154374271631241
1761384991408100000,0.12610009765625,1.0645160675048828,-0.648243248462677,0.07327953726053238
1761384991418169300,0.13616943359375,1.1117669343948364,-0.5605344176292419,0.008917595259845257
1761384991428238000,0.146238037109375,1.1506634950637817,-0.4635295867919922,-0.05939275398850441
1761384991438307300,0.156307373046875,1.1809159517288208,-0.26921629905700684,-0.13815760612487793
1761384991448376000,0.1663759765625,1.2095938920974731,-0.01889938861131668,-0.23414751887321472
1761384991458444300,0.1764443359375,1.2531906366348267,0.25332945585250854,-0.3179665207862854
1761384991468513300,0.18651318359375,1.2775065898895264,0.48505139350891113,-0.37450382113456726
1761384991478582000,0.19658203125,1.22527277469635,0.6839146614074707,-0.4068567156791687
1761384991488651300,0.2066513671875,1.1418827772140503,0.7890642881393433,-0.43307605385780334
1761384991498720300,0.21672021484375,1.0443897247314453,0.823087751865387,-0.47879427671432495
1761384991508789200,0.226789306640625,0.9372034072875977,0.7398895025253296,-0.5535635948181152
1761384991518858200,0.236858154296875,0.8603581786155701,0.5282379984855652,-0.6571216583251953
1761384991528927200,0.24692724609375,0.793350338935852,0.36302852630615234,-0.7479996681213379
1761384991538996200,0.256996337890625,0.7535424828529358,0.3301696479320526,-0.80507493019104
1761384991549064200,0.267064208984375,0.7214220762252808,0.32271626591682434,-0.8517670631408691
1761384991559133200,0.27713330078125,0.707344651222229,0.32958748936653137,-0.8862776160240173
1761384991569202200,0.2872021484375,0.6799769401550293,0.34505724906921387,-0.9192310571670532
1761384991579271400,0.297271484375,0.6310567855834961,0.33956554532051086,-0.9478360414505005
1761384991589340200,0.307340087890625,0.6012173891067505,0.2971014380455017,-0.9118354320526123
1761384991599409400,0.317409423828125,0.5768281817436218,0.33424055576324463,-0.8095412850379944
1761384991609478100,0.32747802734375,0.5529955625534058,0.4795982837677002,-0.6607366800308228
1761384991619546000,0.337546142578125,0.5314990282058716,0.6493052840232849,-0.47599664330482483
1761384991629615400,0.347615478515625,0.503065288066864,0.7612882852554321,-0.28697264194488525
1761384991639684000,0.35768408203125,0.4752677381038666,0.7897406816482544,-0.1122562363743782
1761384991649753300,0.36775341796875,0.4358779788017273,0.7436046600341797,0.03123488463461399
1761384991659822300,0.377822265625,0.38115745782852173,0.6604437232017517,0.13854935765266418
1761384991669891300,0.387891357421875,0.29323986172676086,0.6093757152557373,0.1945100873708725
1761384991679960300,0.397960205078125,0.1847059279680252,0.5787925124168396,0.2655075788497925
1761384991690029000,0.408029052734375,0.07489501684904099,0.49559298157691956,0.3233668804168701
1761384991700097300,0.41809716796875,-0.027711521834135056,0.3703770041465759,0.3665907680988312
1761384991710166300,0.428166259765625,-0.11842864006757736,0.24808676540851593,0.4100538194179535
1761384991720235000,0.438235107421875,-0.18362441658973694,0.16271302103996277,0.4431007206439972
1761384991730304000,0.448303955078125,-0.21162116527557373,0.1275683492422104,0.45612677931785583
1761384991740373200,0.458373291015625,-0.182646244764328,0.14225301146507263,0.39686134457588196
1761384991750442000,0.46844189453125,-0.09441811591386795,0.18041718006134033,0.2515488862991333
1761384991760511200,0.47851123046875,0.04808523878455162,0.21032394468784332,0.0382712222635746
1761384991770580000,0.488580078125,0.20639045536518097,0.17080529034137726,-0.22745420038700104
1761384991780648000,0.49864794921875,0.22657641768455505,0.04727723449468613,-0.5238767862319946
1761384991790717200,0.50871728515625,0.0706201046705246,-0.15085263550281525,-0.8377202153205872
1761384991800786000,0.518785888671875,-0.18620821833610535,-0.32060518860816956,-1.1481693983078003
1761384991810855200,0.528855224609375,-0.4227733612060547,-0.35221076011657715,-1.456702470779419
1761384991820924200,0.538924072265625,-0.5778247117996216,-0.20168358087539673,-1.7142081260681152
1761384991830993200,0.5489931640625,-0.6187193989753723,-0.02112952060997486,-1.8434605598449707
1761384991841062100,0.559062255859375,-0.5645847916603088,0.041366081684827805,-1.80675208568573
1761384991851131000,0.569130859375,-0.4640832543373108,-0.023247532546520233,-1.5950922966003418
1761384991861200100,0.5792001953125,-0.36030226945877075,-0.11719373613595963,-1.2428163290023804
1761384991871268000,0.58926806640625,-0.2748779058456421,-0.13020408153533936,-0.8165246248245239
1761384991881337000,0.599337158203125,-0.26409077644348145,-0.10282837599515915,-0.3894819915294647
1761384991891406000,0.609406005859375,-0.32492268085479736,-0.030431674793362617,0.003305249148979783
1761384991901475000,0.61947509765625,-0.42977720499038696,0.09727568924427032,0.34972551465034485
1761384991911544000,0.6295439453125,-0.5292752981185913,0.19835543632507324,0.6494805216789246
1761384991921613000,0.639613037109375,-0.5480340719223022,0.19926144182682037,0.880391001701355
1761384991931682000,0.64968212890625,-0.43669235706329346,0.06995804607868195,1.0098674297332764
1761384991941751000,0.6597509765625,-0.23859712481498718,-0.09365565329790115,1.028928279876709
1761384991951819300,0.6698193359375,-0.03544028103351593,-0.21495544910430908,0.9378412365913391
1761384991961888000,0.679887939453125,0.10392133891582489,-0.2658926546573639,0.7751508355140686
1761384991971957000,0.68995703125,0.16480518877506256,-0.2846817970275879,0.5854557752609253
1761384991982026000,0.70002587890625,0.17606423795223236,-0.30611786246299744,0.39843660593032837
1761384991992095000,0.710094970703125,0.16574981808662415,-0.3250691592693329,0.2520764470100403
1761384992002164200,0.720164306640625,0.15938407182693481,-0.33597081899642944,0.15144412219524384
1761384992012233000,0.73023291015625,0.15552301704883575,-0.32368192076683044,0.0800948366522789
1761384992022302200,0.74030224609375,0.15027578175067902,-0.29208698868751526,0.03416090086102486
1761384992032370200,0.7503701171875,0.13731497526168823,-0.24267123639583588,0.0003741741238627583
1761384992042439000,0.76043896484375,0.11584404110908508,-0.18488197028636932,-0.02732190117239952
1761384992052508200,0.770508056640625,0.08826248347759247,-0.12173522263765335,-0.052498895674943924
1761384992062577000,0.780576904296875,0.057017214596271515,-0.050966776907444,-0.059070244431495667
1761384992072646100,0.790646240234375,0.027394339442253113,0.01377946138381958,-0.05597005784511566
1761384992082715100,0.800715087890625,0.006042446009814739,0.04608919844031334,-0.044925663620233536
1761384992092784000,0.8107841796875,-0.007741809356957674,0.0712592676281929,-0.030245520174503326
1761384992102853000,0.82085302734375,-0.0003126551164314151,0.14380936324596405,-0.027296070009469986
1761384992112921000,0.830921142578125,0.02359827049076557,0.2816210389137268,-0.03335556015372276
1761384992122990000,0.840989990234375,0.05397801473736763,0.4173476994037628,-0.04324094578623772
1761384992133059000,0.85105908203125,0.0857151672244072,0.4899633228778839,-0.05547524243593216
1761384992143128000,0.861128173828125,0.10133993625640869,0.5079119801521301,-0.05817808583378792
1761384992153197000,0.871197021484375,0.12052854150533676,0.4807325303554535,-0.04520636051893234
1761384992163266300,0.881266357421875,0.13215111196041107,0.41019418835639954,-0.01110671367496252
1761384992173335000,0.8913349609375,0.13005121052265167,0.3375186622142792,0.038360171020030975
1761384992183404000,0.901404052734375,0.12394005060195923,0.2561505436897278,0.10074978321790695
1761384992193473000,0.91147314453125,0.1062161847949028,0.10788119584321976,0.17870981991291046
1761384992203541000,0.921541015625,0.06517288088798523,-0.12175440043210983,0.24262063205242157
1761384992213610200,0.9316103515625,0.027885694056749344,-0.25396835803985596,0.30820098519325256
1761384992223679000,0.941678955078125,0.0002716424351092428,-0.2715020775794983,0.3601914644241333
1761384992233748000,0.951748046875,-0.03249163180589676,-0.306750625371933,0.3693801760673523
1761384992243817200,0.961817138671875,-0.07621593773365021,-0.36517903208732605,0.33674660325050354
1761384992253886000,0.971885986328125,-0.11978072673082352,-0.3994179666042328,0.2742113173007965
1761384992263955200,0.981955078125,-0.14693830907344818,-0.36304426193237305,0.20014214515686035
1761384992274024000,0.99202392578125,-0.1587723344564438,-0.2524692714214325,0.1314363181591034
1761384992284092200,1.002092041015625,-0.14510498940944672,-0.13668407499790192,0.06618648022413254
1761384992294161200,1.0121611328125,-0.11586428433656693,-0.05440545082092285,0.015382951125502586
1761384992304230000,1.02222998046875,-0.08165145665407181,-0.009273393079638481,-0.007917577400803566
1761384992314299100,1.032299072265625,-0.050759848207235336,0.0002889529860112816,-0.002916427794843912
1761384992324368100,1.0423681640625,-0.03237525001168251,-0.012852948158979416,0.02610883302986622
1761384992334437000,1.05243701171875,-0.0318111926317215,-0.03754311427474022,0.07033461332321167
1761384992344506000,1.062506103515625,-0.039497073739767075,-0.031010912731289864,0.12245400995016098
1761384992354575000,1.0725751953125,-0.031626902520656586,0.023667512461543083,0.16470931470394135
1761384992364643000,1.08264306640625,-0.00341577036306262,0.06090622767806053,0.17813245952129364
1761384992374712000,1.092712158203125,0.04472352936863899,0.060927797108888626,0.15866075456142426
1761384992384781000,1.102781005859375,0.10675147920846939,0.04448357969522476,0.12621119618415833
1761384992394850000,1.11285009765625,0.1579749882221222,0.01618323102593422,0.08526536077260971
1761384992404919000,1.1229189453125,0.17898866534233093,-0.018071146681904793,0.05339371785521507
1761384992414988000,1.132988037109375,0.17052726447582245,-0.039139147847890854,0.022490128874778748
1761384992425057300,1.143057373046875,0.14377127587795258,-0.032218657433986664,-0.005044293589890003
1761384992435126000,1.1531259765625,0.11856899410486221,-0.0036642432678490877,-0.0242020096629858
1761384992445195000,1.163195068359375,0.10777653008699417,0.030243922024965286,-0.03940705955028534
1761384992455263200,1.17326318359375,0.10281159728765488,0.057015616446733475,-0.045695848762989044
1761384992465332000,1.18333203125,0.09919901937246323,0.09101112931966782,-0.04138845205307007
1761384992475401200,1.193401123046875,0.082002192735672,0.10445290803909302,-0.03323198854923248
1761384992485470000,1.203469970703125,0.056294430047273636,0.09204816818237305,-0.018327608704566956
1761384992495539200,1.213539306640625,0.02574797347187996,0.06370387971401215,-0.009439840912818909
1761384992505608200,1.223608154296875,0.004197141621261835,0.04295146092772484,-0.00926114246249199
1761384992515677000,1.233677001953125,-0.0037707698065787554,0.031260982155799866,-0.013807425275444984
1761384992525746200,1.24374609375,0.014142184518277645,0.031005319207906723,-0.023266972973942757
1761384992535815000,1.25381494140625,0.038485072553157806,0.029197299852967262,-0.03676334023475647
1761384992545883100,1.263883056640625,0.06932714581489563,0.0237607229501009,-0.041971683502197266
1761384992555952000,1.2739521484375,0.09112458676099777,0.04764128848910332,-0.03406688943505287
1761384992566020900,1.284020751953125,0.11354653537273407,0.10367099940776825,-0.010595918633043766
1761384992576090000,1.294090087890625,0.1385461539030075,0.14781315624713898,0.029050827026367188
1761384992586159000,1.3041591796875,0.15599653124809265,0.18664099276065826,0.07475998997688293
1761384992596228000,1.31422802734375,0.17363624274730682,0.2164502739906311,0.12632304430007935
1761384992606297000,1.324297119140625,0.18116526305675507,0.2221696823835373,0.16615808010101318
1761384992616366000,1.334365966796875,0.17904511094093323,0.1948014497756958,0.1918429434299469
1761384992626434000,1.34443408203125,0.16221953928470612,0.1301412284374237,0.1983402520418167
1761384992636503000,1.3545029296875,0.13866360485553741,0.058039866387844086,0.20320478081703186
1761384992646572000,1.364572021484375,0.11411672085523605,0.013592507690191269,0.198784738779068
1761384992656641000,1.37464111328125,0.0942535325884819,-0.020537499338388443,0.191743865609169
1761384992666710000,1.3847099609375,0.08863852173089981,-0.04958859086036682,0.17453451454639435
1761384992676779000,1.394779052734375,0.08310767263174057,-0.06632469594478607,0.15226170420646667
1761384992686848300,1.40484814453125,0.06840089708566666,-0.08403018862009048,0.11781185120344162
1761384992696917000,1.4149169921875,0.04808337241411209,-0.13102379441261292,0.06865842640399933
1761384992706986200,1.424986328125,0.023567112162709236,-0.18446224927902222,0.017170464619994164
1761384992717055000,1.435054931640625,-0.0017963021527975798,-0.21930278837680817,-0.013285445049405098
1761384992727123000,1.445123046875,-0.03346368297934532,-0.2247324436903,-0.030886543914675713
1761384992737192000,1.45519189453125,-0.06842779368162155,-0.23490704596042633,-0.04880509153008461
1761384992747261000,1.465260986328125,-0.0977470651268959,-0.22967979311943054,-0.06635984778404236
1761384992757330000,1.475329833984375,-0.11803688853979111,-0.19362646341323853,-0.0834972932934761
1761384992767399000,1.48539892578125,-0.1288546472787857,-0.13798530399799347,-0.10240626335144043
1761384992777468000,1.495468017578125,-0.13404515385627747,-0.08992855995893478,-0.1210731640458107
1761384992787537000,1.505536865234375,-0.13574372231960297,-0.07090719789266586,-0.14291293919086456
1761384992797606000,1.51560595703125,-0.1321718841791153,-0.06402958184480667,-0.15842320024967194
1761384992807675000,1.5256748046875,-0.12359810620546341,-0.050876230001449585,-0.17129026353359222
1761384992817743000,1.5357431640625,-0.10283689945936203,-0.021864285692572594,-0.18090693652629852
1761384992827811800,1.545811767578125,-0.0706576555967331,0.005809685681015253,-0.18562231957912445
1761384992837880800,1.555880859375,-0.03525039926171303,0.032287366688251495,-0.18634085357189178
1761384992847950000,1.5659501953125,0.007753793615847826,0.03988456726074219,-0.18385133147239685
1761384992858018800,1.576018798828125,0.04192747548222542,0.03301733732223511,-0.17704056203365326
1761384992868088000,1.586088134765625,0.0640527531504631,0.009096559137105942,-0.1703301966190338
1761384992878156800,1.59615673828125,0.06378830224275589,-0.03634096309542656,-0.15884797275066376
1761384992888226000,1.60622607421875,0.04717869684100151,-0.06376779079437256,-0.14735935628414154
1761384992898294000,1.6162939453125,0.018626680597662926,-0.07327447831630707,-0.13380520045757294
1761384992908362800,1.62636279296875,-0.007181480061262846,-0.06856654584407806,-0.11609278619289398
1761384992918432000,1.636431884765625,-0.027535753324627876,-0.0497015081346035,-0.08709228783845901
1761384992928501000,1.6465009765625,-0.03519873321056366,-0.04291258007287979,-0.06743230670690536
1761384992938570000,1.656570068359375,-0.031193073838949203,-0.04571262747049332,-0.039565786719322205
1761384992948639000,1.666638916015625,-0.02117372862994671,-0.06004922091960907,-0.015922240912914276
1761384992958708000,1.6767080078125,-0.02311410754919052,-0.0827430859208107,-0.013471600599586964
1761384992968777000,1.68677685546875,-0.03597664460539818,-0.11666989326477051,-0.01782293990254402
1761384992978846000,1.696845947265625,-0.058705125004053116,-0.1369623839855194,-0.030341926962137222
1761384992988914000,1.706913818359375,-0.0752798393368721,-0.15218953788280487,-0.04083691164851189
1761384992998983000,1.71698291015625,-0.08599427342414856,-0.20032191276550293,-0.05802708491683006
1761384993009052200,1.72705224609375,-0.09982699155807495,-0.2780627906322479,-0.07629077881574631
1761384993019121000,1.737120849609375,-0.10969693958759308,-0.37189286947250366,-0.10214314609766006
1761384993029190100,1.747190185546875,-0.11728934198617935,-0.4321924149990082,-0.12953215837478638
1761384993039259000,1.7572587890625,-0.10850650072097778,-0.44205889105796814,-0.1583038866519928
1761384993049327900,1.767327880859375,-0.09698087722063065,-0.3877921998500824,-0.1722937375307083
1761384993059396900,1.77739697265625,-0.07080413401126862,-0.27326563000679016,-0.1816670000553131
1761384993069465900,1.7874658203125,-0.03949494659900665,-0.14050757884979248,-0.1789950430393219
1761384993079535000,1.79753515625,-0.0031156321056187153,-0.025020930916070938,-0.17012912034988403
1761384993089603000,1.80760302734375,0.030345655977725983,0.04326917603611946,-0.1538657248020172
1761384993099671800,1.817671875,0.04646630212664604,0.02672162465751171,-0.1299191117286682
1761384993109741000,1.827740966796875,0.03538382425904274,-0.05469120666384697,-0.0986139252781868
1761384993119809800,1.837809814453125,0.005259742960333824,-0.15052852034568787,-0.070560984313488
1761384993129879000,1.847879150390625,-0.012469985522329807,-0.2132001519203186,-0.04700479283928871
1761384993139947800,1.85794775390625,0.0025662221014499664,-0.20411264896392822,-0.026399116963148117
1761384993150017000,1.86801708984375,0.042399387806653976,-0.12269502878189087,-0.02190103754401207
1761384993160086000,1.8780859375,0.08980418741703033,-0.0355854257941246,-0.028250280767679214
1761384993170155000,1.888155029296875,0.13348056375980377,0.03038853220641613,-0.042028144001960754
1761384993180223000,1.898222900390625,0.16258758306503296,0.07675203680992126,-0.044489435851573944
1761384993190292000,1.9082919921875,0.17268016934394836,0.11884835362434387,-0.026276344433426857
1761384993200361000,1.91836083984375,0.16302460432052612,0.13762257993221283,-0.009851299226284027
1761384993210430000,1.928429931640625,0.15967755019664764,0.1604943424463272,0.018500713631510735
1761384993220499000,1.9384990234375,0.16801562905311584,0.16272446513175964,0.04668308421969414
1761384993230568000,1.94856787109375,0.18039295077323914,0.14794498682022095,0.06335633248090744
1761384993240637200,1.95863720703125,0.19552023708820343,0.10858586430549622,0.0635526105761528
1761384993250706000,1.968705810546875,0.20679472386837006,0.04838297888636589,0.054246194660663605
1761384993260775000,1.97877490234375,0.21475064754486084,0.004869590047746897,0.033907100558280945
1761384993270844000,1.988843994140625,0.220136359333992,-0.013649765402078629,-0.007967112585902214
1761384993280912000,1.998911865234375,0.22699160873889923,-0.013305419124662876,-0.062139272689819336
1761384993290981000,2.008981201171875,0.23435205221176147,-0.00711676524952054,-0.11527492851018906
1761384993301049900,2.0190498046875,0.23823413252830505,-0.008643821813166142,-0.14092808961868286
1761384993311118800,2.029118896484375,0.2343970537185669,-0.008774316869676113,-0.1481737494468689
1761384993321188000,2.03918798828125,0.2093881070613861,-0.01332805585116148,-0.1394479125738144
1761384993331256800,2.0492568359375,0.17790821194648743,-0.02569657564163208,-0.12198875844478607
1761384993341326000,2.059326171875,0.14274702966213226,-0.0170905701816082,-0.0979907438158989
1761384993351394800,2.069394775390625,0.11307621747255325,-0.004793956410139799,-0.07530727237462997
1761384993361464000,2.079464111328125,0.09229903668165207,0.00771837355569005,-0.0521169975399971
1761384993371532000,2.089531982421875,0.07617945969104767,0.02106880024075508,-0.028983980417251587
1761384993381600800,2.099600830078125,0.06408444046974182,0.03374358266592026,-0.02088237926363945
1761384993391670000,2.109669921875,0.06160770356655121,0.04898671805858612,-0.0285903662443161
1761384993401739000,2.119739013671875,0.06547088176012039,0.058327753096818924,-0.052015531808137894
1761384993411808000,2.12980810546875,0.0648823231458664,0.06106575205922127,-0.08562062680721283
1761384993421877000,2.139876953125,0.06552121788263321,0.05812748521566391,-0.10773791372776031
1761384993431946000,2.149946044921875,0.06300639361143112,0.06454437226057053,-0.1213647797703743
1761384993442015000,2.160014892578125,0.05420811101794243,0.07276741415262222,-0.11787737160921097
1761384993452084000,2.170083984375,0.051898352801799774,0.07804473489522934,-0.09731163829565048
1761384993462152000,2.18015185546875,0.05049832910299301,0.09135468304157257,-0.06945817172527313
1761384993472221000,2.190220947265625,0.05386829003691673,0.11110628396272659,-0.04445881024003029
1761384993482290000,2.2002900390625,0.05241713672876358,0.12062761187553406,-0.03477289527654648
1761384993492359000,2.21035888671875,0.05975973606109619,0.10771527886390686,-0.02857758291065693
1761384993502428200,2.22042822265625,0.08136889338493347,0.08471968024969101,-0.022944996133446693
1761384993512497000,2.230496826171875,0.1198827251791954,0.047451406717300415,-0.018994197249412537
1761384993522566000,2.24056591796875,0.16100859642028809,-0.016157131642103195,-0.02232661098241806
1761384993532635000,2.250634765625,0.19249515235424042,-0.09339652955532074,-0.02424035780131817
1761384993542703900,2.260703857421875,0.19719243049621582,-0.1582554131746292,-0.015679361298680305
1761384993552773000,2.270773193359375,0.17998148500919342,-0.21555252373218536,-0.00490287970751524
1761384993562840800,2.2808408203125,0.14525440335273743,-0.2712687849998474,0.013066001236438751
1761384993572909800,2.290909912109375,0.10619434714317322,-0.2912238538265228,0.05204029753804207
1761384993582979000,2.30097900390625,0.05890006944537163,-0.2746717631816864,0.08858712017536163
1761384993593047800,2.3110478515625,0.00019414443522691727,-0.23804505169391632,0.1052638366818428
1761384993603117000,2.321116943359375,-0.06221064180135727,-0.16557644307613373,0.0953984260559082
1761384993613185800,2.331185791015625,-0.10843885689973831,-0.08568613976240158,0.050214435905218124
1761384993623255000,2.341255126953125,-0.14095711708068848,-0.010695520788431168,-0.007960720919072628
1761384993633324000,2.351323974609375,-0.15553206205368042,0.03526637703180313,-0.05612372234463692
1761384993643393000,2.36139306640625,-0.16077743470668793,0.047577373683452606,-0.07328327000141144
1761384993653461000,2.3714609375,-0.1520976573228836,0.06704960763454437,-0.04969032481312752
1761384993663530000,2.381530029296875,-0.1395602971315384,0.07559462636709213,0.006660832092165947
1761384993673599000,2.391598876953125,-0.12369611114263535,0.05534714460372925,0.05300116539001465
1761384993683668000,2.40166796875,-0.10076336562633514,0.023970846086740494,0.09121965616941452
1761384993693737000,2.411737060546875,-0.07820239663124084,0.006099704187363386,0.10427873581647873
1761384993703806000,2.421805908203125,-0.05166878551244736,-0.021378790959715843,0.08711332827806473
1761384993713875000,2.431875,-0.02220064401626587,-0.04764208570122719,0.05344431474804878
1761384993723947500,2.441947509765625,0.007934089750051498,-0.07490300387144089,0.013878530822694302
1761384993734016800,2.452016845703125,0.03642059117555618,-0.0948743149638176,-0.014548582956194878
1761384993744085500,2.46208544921875,0.05047569051384926,-0.0956367775797844,-0.0169100072234869
1761384993754153500,2.472153564453125,0.0513385534286499,-0.08945318311452866,-0.002722283359616995
1761384993764222700,2.48222265625,0.04879816621541977,-0.08230046182870865,0.012024970725178719
1761384993774291500,2.49229150390625,0.05052895471453667,-0.07151306420564651,0.02353275567293167
1761384993784360700,2.502360595703125,0.06371878832578659,-0.049604836851358414,0.03334677219390869
1761384993794429400,2.512429443359375,0.08467094600200653,-0.022518092766404152,0.04740666225552559
1761384993804498700,2.522498779296875,0.09017463028430939,-0.007741010282188654,0.054555121809244156
1761384993814567700,2.532567626953125,0.09440852701663971,-0.01858407072722912,0.061825551092624664
1761384993824636400,2.542636474609375,0.09525035321712494,-0.04399648681282997,0.0670088604092598
1761384993834705700,2.55270556640625,0.09528683871030807,-0.06091608107089996,0.08496362715959549
1761384993844774400,2.5627744140625,0.09528577327728271,-0.06264420598745346,0.107451893389225
1761384993854842600,2.572842529296875,0.08186130970716476,-0.053591322153806686,0.12606818974018097
1761384993864911600,2.58291162109375,0.06718063354492188,-0.04688575118780136,0.1371314823627472
1761384993874980600,2.592980712890625,0.05650775134563446,-0.036551352590322495,0.13494929671287537
1761384993885049600,2.603049560546875,0.06342877447605133,-0.025105886161327362,0.11527279764413834
1761384993895118600,2.61311865234375,0.07764419168233871,-0.0058669438585639,0.08795569092035294
1761384993905187600,2.6231875,0.10101556032896042,0.00036724991514347494,0.06274833530187607
1761384993915256600,2.633256591796875,0.1269952356815338,-0.008036354556679726,0.05007754638791084
1761384993925325600,2.64332568359375,0.14967630803585052,-0.034504447132349014,0.061943262815475464
1761384993935394600,2.65339453125,0.16646914184093475,-0.08197689056396484,0.09319465607404709
1761384993945463600,2.663463623046875,0.18071572482585907,-0.1168999895453453,0.13678660988807678
1761384993955531500,2.673531494140625,0.1740729957818985,-0.13271810114383698,0.18164995312690735
1761384993965600500,2.6836005859375,0.13874803483486176,-0.1347317099571228,0.2025645524263382
1761384993975669500,2.69366943359375,0.08609653264284134,-0.11440221220254898,0.19933441281318665
1761384993985738500,2.703738525390625,0.026501381769776344,-0.0452556274831295,0.1704620122909546
1761384993995807700,2.713807861328125,-0.025476330891251564,0.04405480995774269,0.12479892373085022
1761384994005876500,2.72387646484375,-0.07407848536968231,0.11809228360652924,0.07469554245471954
1761384994015945700,2.73394580078125,-0.10792406648397446,0.17727544903755188,0.032218921929597855
1761384994026014500,2.744014404296875,-0.13374634087085724,0.22040267288684845,-0.0011438276851549745
1761384994036083500,2.75408349609375,-0.14232492446899414,0.23236186802387238,-0.026011893525719643
1761384994046152700,2.764152587890625,-0.14318512380123138,0.23251020908355713,-0.0432601235806942
1761384994056220400,2.774220458984375,-0.12298664450645447,0.21823379397392273,-0.05419692397117615
1761384994066289700,2.78428955078125,-0.09019487351179123,0.18556800484657288,-0.06725680083036423
1761384994076358700,2.794358642578125,-0.04971855506300926,0.14395903050899506,-0.07214370369911194
1761384994086427600,2.804427734375,-0.007428621407598257,0.08196330815553665,-0.0630311667919159
1761384994096496600,2.81449658203125,0.027880100533366203,0.022233134135603905,-0.041965026408433914
1761384994106565400,2.8245654296875,0.05830937996506691,-0.01960699073970318,-0.012114453129470348
1761384994116634600,2.834634521484375,0.08180298656225204,-0.0415668860077858,0.014198110438883305
1761384994126703600,2.84470361328125,0.10615013539791107,-0.03786429017782211,0.035103391855955124
1761384994136772600,2.854772705078125,0.12568974494934082,-0.02600044198334217,0.045891858637332916
1761384994146841600,2.864841552734375,0.14243704080581665,-0.005089300684630871,0.041374605149030685
1761384994156909600,2.87490966796875,0.14485839009284973,0.01877182349562645,0.03501124680042267
1761384994166978600,2.884978515625,0.13569791615009308,0.03386315703392029,0.023212911561131477
1761384994177047600,2.895047607421875,0.11916474252939224,0.044802892953157425,0.014181599020957947
1761384994187116500,2.905116455078125,0.09785918146371841,0.04627162590622902,0.004354001954197884
1761384994197185500,2.915185546875,0.0806594267487526,0.045829806476831436,0.003314836649224162
1761384994207254500,2.925254638671875,0.07102836668491364,0.04248327761888504,-0.00008868326403899118
1761384994217323500,2.935323486328125,0.060083843767642975,0.03255288302898407,-0.0034320156555622816
1761384994227392800,2.945392822265625,0.06197122484445572,0.027532558888196945,0.003063966752961278
1761384994237461500,2.95546142578125,0.07065792381763458,0.03568529337644577,0.012329370714724064
1761384994247529500,2.965529541015625,0.08118646591901779,0.039872314780950546,0.030016489326953888
1761384994257598700,2.9755986328125,0.09772629290819168,0.05148955434560776,0.05782867968082428
1761384994267667500,2.98566748046875,0.10794031620025635,0.0658077746629715,0.08228155970573425
1761384994277736700,2.99573681640625,0.10356687009334564,0.07693206518888474,0.09879768639802933
1761384994287805400,3.005805419921875,0.08895277231931686,0.0864371508359909,0.1081475093960762
1761384994297874700,3.015874755859375,0.06973434239625931,0.08798950910568237,0.10691366344690323
1761384994307943700,3.025943603515625,0.048717472702264786,0.08161363750696182,0.09538217633962631
1761384994318012400,3.036012451171875,0.03051130287349224,0.08181603997945786,0.07174955308437347
1761384994328081700,3.04608154296875,0.007314904592931271,0.07972412556409836,0.042455047369003296
1761384994338150400,3.056150390625,-0.02015640027821064,0.08855383098125458,0.03068866953253746
1761384994348218600,3.066218505859375,-0.053947389125823975,0.10587876290082932,0.021828865632414818
1761384994358287600,3.07628759765625,-0.08028046041727066,0.11180349439382553,0.013426326215267181
1761384994368356400,3.0863564453125,-0.09606421738862991,0.11295344680547714,0.002772883279249072
1761384994378425600,3.096425537109375,-0.11217687278985977,0.1267150640487671,-0.007923170924186707
1761384994388494600,3.10649462890625,-0.1248234212398529,0.1465364396572113,-0.014059626497328281
1761384994398563600,3.1165634765625,-0.12697738409042358,0.1467127501964569,-0.0256291963160038
1761384994408632600,3.126632568359375,-0.11468344181776047,0.12539467215538025,-0.03687386214733124
1761384994418701600,3.13670166015625,-0.08927980810403824,0.0954575464129448,-0.044806353747844696
1761384994428770600,3.1467705078125,-0.0550033301115036,0.05324351415038109,-0.038108501583337784
1761384994438839600,3.156839599609375,-0.021272530779242516,0.011530954390764236,-0.02123098634183407
1761384994448907500,3.166907470703125,-0.002825880190357566,-0.00618279492482543,0.0015188007382676005
1761384994458976500,3.1769765625,0.002252768026664853,-0.0006964165950194001,0.022829681634902954
1761384994469045800,3.187045654296875,-0.001002413802780211,0.02497086301445961,0.03817348554730415
1761384994479114500,3.197114501953125,-0.006386792752891779,0.06034856289625168,0.044915277510881424
1761384994489183700,3.207183837890625,-0.005350024439394474,0.06950504332780838,0.0404861718416214
1761384994499252500,3.21725244140625,0.0022146848496049643,0.07959229499101639,0.031801071017980576
1761384994509321700,3.22732177734375,0.006701844744384289,0.0815366730093956,0.026761839166283607
1761384994519390500,3.237390380859375,0.013108078390359879,0.07733207195997238,0.018629344180226326
1761384994529459500,3.24745947265625,0.012454804964363575,0.07572325319051743,0.01660827174782753
1761384994539528700,3.25752880859375,0.006743656471371651,0.07616028189659119,0.022967632859945297
1761384994549596700,3.2675966796875,0.0019803266040980816,0.06731299310922623,0.02659326046705246
1761384994559665700,3.277665771484375,-0.005874134600162506,0.05411276966333389,0.02647368609905243
1761384994569734700,3.287734619140625,-0.007713313214480877,0.057501908391714096,0.024648088961839676
1761384994579803400,3.297803466796875,-0.004621915984898806,0.060079317539930344,0.016476977616548538
1761384994589872600,3.30787255859375,-0.00008708536915946752,0.07321828603744507,0.006098638754338026
1761384994599941400,3.31794140625,0.009163937531411648,0.08585765212774277,-0.009121859446167946
1761384994610010600,3.3280107421875,0.026330141350626945,0.08745580911636353,-0.02365579456090927
1761384994620079600,3.33807958984375,0.03838200867176056,0.07848469167947769,-0.038533542305231094
1761384994630148600,3.348148681640625,0.051527105271816254,0.06335394084453583,-0.04442152753472328
1761384994640217600,3.358217529296875,0.05627339333295822,0.04881680756807327,-0.03278244659304619
1761384994650285600,3.36828564453125,0.06084444373846054,0.037288516759872437,-0.008243548683822155
1761384994660354600,3.3783544921875,0.05872403457760811,0.030962176620960236,0.020075973123311996
1761384994670423600,3.388423583984375,0.06931782513856888,0.02365899085998535,0.03945126757025719
1761384994680492500,3.398492431640625,0.08293908834457397,0.017549166455864906,0.050571031868457794
1761384994690561500,3.4085615234375,0.09936627000570297,0.0126420259475708,0.046178147196769714
1761384994700630800,3.418630859375,0.1065051406621933,0.010292585007846355,0.03931038826704025
1761384994710699500,3.428699462890625,0.10996005684137344,0.011751198209822178,0.028475582599639893
1761384994720768800,3.438768798828125,0.0994940996170044,0.00487251952290535,0.020712468773126602
1761384994730833700,3.448833740234375,0.08216410875320435,-0.007211573887616396,0.02694639563560486
1761384994740903000,3.45890283203125,0.06311319023370743,-0.025901371613144875,0.03165433183312416
1761384994750971000,3.468970947265625,0.04109257459640503,-0.03713112324476242,0.03946565091609955
1761384994761039600,3.47903955078125,0.02563505619764328,-0.04136102274060249,0.035889558494091034
1761384994771108900,3.48910888671875,0.022773489356040955,-0.04400154575705528,0.02749234437942505
1761384994781177900,3.499177734375,0.032111331820487976,-0.0353313572704792,0.02021259441971779
1761384994791246800,3.509246826171875,0.051605138927698135,-0.040110666304826736,0.012495552189648151
1761384994801315800,3.51931591796875,0.0774918645620346,-0.037516750395298004,0.012954414822161198
1761384994811384800,3.529384765625,0.09784667193889618,-0.034269824624061584,0.03206792101264
1761384994821453800,3.539453857421875,0.11181575059890747,-0.03442641720175743,0.05325443297624588
1761384994831522800,3.549522705078125,0.09966827183961868,-0.037951111793518066,0.08445656299591064
1761384994841590800,3.5595908203125,0.07962984591722488,-0.0383114367723465,0.10240732878446579
1761384994851659800,3.56965966796875,0.05538230016827583,-0.029085181653499603,0.11188339442014694
1761384994861729000,3.57972900390625,0.034221354871988297,-0.017710287123918533,0.10050103813409805
1761384994871797800,3.5897978515625,0.023543676361441612,-0.002912699244916439,0.0795198604464531
1761384994881867000,3.599866943359375,0.015659919008612633,0.0021052288357168436,0.06227375939488411
1761384994891935700,3.609935791015625,0.018277540802955627,-0.012585832737386227,0.0398896262049675
1761384994902004700,3.620004638671875,0.021914087235927582,-0.01906796731054783,0.03129427134990692
1761384994912073700,3.63007373046875,0.011025486513972282,-0.034260768443346024,0.029275065287947655
1761384994922142700,3.640142822265625,-0.010865164920687675,-0.03930186480283737,0.0324210561811924
1761384994932212000,3.6502119140625,-0.035652536898851395,-0.04301218315958977,0.03371748328208923
1761384994942280700,3.66028076171875,-0.06258774548768997,-0.03621739149093628,0.030237797647714615
1761384994952348700,3.6703486328125,-0.07981786876916885,-0.023552197962999344,0.018016284331679344
1761384994962418000,3.68041796875,-0.09061991423368454,0.007736749015748501,0.014085991308093071
1761384994972486700,3.690486572265625,-0.09582186490297318,0.027652133256196976,0.005462143570184708
1761384994982556000,3.700555908203125,-0.09751909971237183,0.047692954540252686,0.006997189484536648
1761384994992624600,3.710624755859375,-0.10031861066818237,0.057555172592401505,0.016949156299233437
1761384995002694000,3.72069384765625,-0.09613638371229172,0.054420363157987595,0.02317456156015396
1761384995012763000,3.730762939453125,-0.08693436533212662,0.04486707225441933,0.01920245587825775
1761384995022831900,3.740831787109375,-0.0721982941031456,0.03352094069123268,0.018765432760119438
1761384995032900900,3.75090087890625,-0.04355120658874512,0.019870644435286522,0.01426149345934391
1761384995042968800,3.76096875,-0.016045279800891876,0.011929363943636417,0.013201821595430374
1761384995053037800,3.771037841796875,0.0060024987906217575,0.0019121496006846428,0.02423875965178013
1761384995063106800,3.78110693359375,0.022298647090792656,-0.0041673146188259125,0.034379277378320694
1761384995073175800,3.79117578125,0.02382836677134037,-0.011993812397122383,0.051831506192684174
1761384995083244800,3.801244873046875,0.013584517873823643,-0.010834804736077785,0.06042419373989105
1761384995093314000,3.81131396484375,0.006444850005209446,-0.009616142138838768,0.05968383699655533
1761384995103382800,3.8213828125,-0.005994775798171759,0.0109474565833807,0.05217132717370987
1761384995113451800,3.83145166015625,-0.01709350012242794,0.03257125988602638,0.023266440257430077
1761384995123520800,3.841520751953125,-0.02479775808751583,0.04162600636482239,-0.006016347091645002
1761384995133589800,3.85158984375,-0.02996215969324112,0.03857535496354103,-0.03806695714592934
1761384995143658000,3.861657958984375,-0.03193769231438637,0.022234465926885605,-0.06376513093709946
1761384995153726700,3.871726806640625,-0.03245621174573898,-0.0007507451227866113,-0.07705563306808472
1761384995163795700,3.881795654296875,-0.0262470506131649,-0.0280340313911438,-0.0775027796626091
1761384995173865000,3.891864990234375,-0.01913641020655632,-0.04031892865896225,-0.062074821442365646
1761384995183933700,3.90193359375,-0.017585918307304382,-0.042642802000045776,-0.03984088823199272
1761384995194003000,3.9120029296875,-0.01569933444261551,-0.03971119225025177,-0.019697271287441254
1761384995204071700,3.92207177734375,-0.02094283141195774,-0.038661640137434006,-0.007427556440234184
1761384995214141000,3.932140869140625,-0.031685225665569305,-0.03975620120763779,-0.003282346064224839
1761384995224209700,3.942209716796875,-0.04463404789566994,-0.03905259445309639,-0.004225904121994972
1761384995234279000,3.95227880859375,-0.05847795680165291,-0.02544783614575863,-0.012383964844048023
1761384995244347000,3.962346923828125,-0.0715562105178833,-0.00971627701073885,-0.019660785794258118
1761384995254416000,3.972415771484375,-0.08146423101425171,0.012916597537696362,-0.029170135036110878
1761384995264484900,3.98248486328125,-0.08763691037893295,0.033843982964754105,-0.034506842494010925
1761384995274553900,3.992553955078125,-0.08778950572013855,0.05486750975251198,-0.038399588316679
1761384995284622800,4.002622802734375,-0.08134519308805466,0.07383774220943451,-0.03741741180419922
1761384995294691800,4.01269189453125,-0.06437818706035614,0.07968124747276306,-0.03488101810216904
1761384995304760800,4.0227607421875,-0.04066886752843857,0.07436797022819519,-0.03075498342514038
1761384995314829800,4.032829833984375,-0.020312728360295296,0.06130623444914818,-0.018061824142932892
1761384995324898800,4.04289892578125,-0.002663161139935255,0.03846563398838043,-0.0049409628845751286
1761384995334967800,4.0529677734375,0.00015339808305725455,0.00549170421436429,0.009796970523893833
1761384995345035800,4.063035888671875,0.0019883159548044205,-0.024232901632785797,0.01685141772031784
1761384995355105000,4.07310498046875,0.0017366473330184817,-0.04721731320023537,0.018210163339972496
1761384995365173800,4.083173828125,-0.003556119045242667,-0.05981406569480896,0.016410665586590767
1761384995375242800,4.09324267578125,-0.005974003113806248,-0.058889150619506836,0.008669654838740826
1761384995385311700,4.103311767578125,-0.006344182416796684,-0.03286899998784065,0.0019006980583071709
1761384995395380700,4.113380615234375,-0.000556600687559694,0.01053093746304512,-0.0073074474930763245
1761384995405450000,4.123449951171875,0.005789445713162422,0.05228051543235779,-0.014057229273021221
1761384995415518700,4.133518798828125,0.00863476749509573,0.08170924335718155,-0.02225656993687153
1761384995425588000,4.143587890625,0.012064918875694275,0.07647160440683365,-0.027282221242785454
1761384995435656700,4.15365673828125,0.012954148463904858,0.05784785374999046,-0.028324315324425697
1761384995445724700,4.163724609375,0.004851214122027159,0.04609106108546257,-0.026939738541841507
1761384995455794000,4.1737939453125,-0.01768924854695797,0.027591947466135025,-0.015792544931173325
1761384995465862700,4.183862548828125,-0.03911411389708519,0.011864649131894112,-0.005136438645422459
1761384995475932000,4.193931884765625,-0.046712908893823624,-0.004733236040920019,-0.009194829501211643
1761384995486001000,4.2040009765625,-0.0439235158264637,-0.014271081425249577,-0.027713919058442116
1761384995496070000,4.21406982421875,-0.0351950041949749,-0.014577877707779408,-0.054716240614652634
1761384995506139000,4.224138916015625,-0.013045228086411953,-0.005215002223849297,-0.07657253742218018
1761384995516207900,4.234207763671875,0.0116776954382658,0.015987489372491837,-0.08830243349075317
1761384995526276900,4.24427685546875,0.042266763746738434,0.0383889339864254,-0.0860387459397316
1761384995536345600,4.254345703125,0.07996567338705063,0.04970124363899231,-0.06877107173204422
1761384995546413800,4.264413818359375,0.1177348867058754,0.04562421143054962,-0.040227048099040985
1761384995556482800,4.27448291015625,0.14835405349731445,0.023564182221889496,-0.00628905463963747
1761384995566551800,4.2845517578125,0.16772376000881195,-0.015292936004698277,0.029272401705384254
1761384995576620800,4.294620849609375,0.17684347927570343,-0.05828727409243584,0.06348469853401184
1761384995586689800,4.304689697265625,0.15636323392391205,-0.08597030490636826,0.0908883586525917
1761384995596758800,4.3147587890625,0.12149526923894882,-0.0917419046163559,0.09578671306371689
1761384995606827800,4.324827880859375,0.07982106506824493,-0.0747474730014801,0.07911665737628937
1761384995616896800,4.334896728515625,0.04520076885819435,-0.03850771114230156,0.05188530310988426
1761384995626965800,4.3449658203125,0.017546502873301506,-0.005342567339539528,0.006176136899739504
1761384995637035000,4.355034912109375,-0.0041673146188259125,0.02160729095339775,-0.042271025478839874
1761384995647102700,4.365102783203125,-0.014692659489810467,0.03262984752655029,-0.07955075055360794
1761384995657171700,4.375171630859375,-0.018310829997062683,0.029625536873936653,-0.09331236779689789
1761384995667241000,4.385240966796875,-0.017184846103191376,0.008521050214767456,-0.08091508597135544
1761384995677309700,4.395309814453125,-0.007241134997457266,-0.008557802066206932,-0.050625093281269073
1761384995687379000,4.40537890625,0.002754773711785674,-0.03629302605986595,-0.010232397355139256
1761384995697447700,4.41544775390625,0.017478059977293015,-0.05495566129684448,0.017106281593441963
1761384995707517000,4.425516845703125,0.028177842497825623,-0.06537794321775436,0.03622005507349968
1761384995717586000,4.4355859375,0.04760773107409477,-0.06417366117238998,0.03772607445716858
1761384995727655400,4.445655517578125,0.06569379568099976,-0.06019649654626846,0.025074992328882217
1761384995737724400,4.455724365234375,0.08320540934801102,-0.05823986977338791,0.011040667071938515
1761384995747792400,4.46579248046875,0.09645064175128937,-0.05022934824228287,-0.00501100393012166
1761384995757861400,4.475861328125,0.104044109582901,-0.04346172511577606,-0.013656423427164555
1761384995767930600,4.4859306640625,0.11348288506269455,-0.03020557202398777,-0.014165620319545269
1761384995777999400,4.495999267578125,0.1149553507566452,-0.02714054100215435,-0.01124919205904007
1761384995788068600,4.506068603515625,0.11159816384315491,-0.030717432498931885,0.0051622712053358555
1761384995798137300,4.516137451171875,0.09867917001247406,-0.036853089928627014,0.02298920601606369
1761384995808206600,4.52620654296875,0.0733511820435524,-0.041485127061605453,0.03947151079773903
1761384995818275300,4.536275390625,0.04265904799103737,-0.04332830011844635,0.047864992171525955
1761384995828344600,4.546344482421875,0.01631665602326393,-0.039793483912944794,0.03819692134857178
1761384995838413600,4.55641357421875,0.0073236930184066296,-0.021928468719124794,0.019145198166370392
1761384995848481500,4.5664814453125,0.0038573225028812885,-0.0034519892651587725,-0.004227501805871725
1761384995858550500,4.576550537109375,0.006612629164010286,0.014585600234568119,-0.026082200929522514
1761384995868619500,4.58661962890625,0.0038424087688326836,0.03021595999598503,-0.035228028893470764
1761384995878688500,4.5966884765625,0.002382996492087841,0.03831329941749573,-0.03500964865088463
1761384995888757500,4.606757568359375,0.0027268105186522007,0.03627545014023781,-0.02713175304234028
1761384995898826500,4.616826416015625,0.004236023873090744,0.03417155146598816,-0.0114001939073205
1761384995908895500,4.6268955078125,0.010457168333232403,0.021437913179397583,0.0015017564874142408
1761384995918964500,4.636964599609375,0.020486366003751755,0.0005518069956451654,0.014654310420155525
1761384995929033500,4.647033447265625,0.036605414003133774,-0.015929166227579117,0.021803032606840134
1761384995939102500,4.6571025390625,0.05056064575910568,-0.023666180670261383,0.027545340359210968
1761384995949170700,4.667170654296875,0.06363090872764587,-0.018792595714330673,0.03104793094098568
1761384995959239400,4.677239501953125,0.06227482482790947,-0.014453774318099022,0.03237392008304596
1761384995969308400,4.687308349609375,0.04740959405899048,-0.006872287020087242,0.02947959490120411
1761384995979377400,4.69737744140625,0.029928870499134064,0.002633866388350725,0.017825335264205933
1761384995989446400,4.7074462890625,0.014532336965203285,0.01378398947417736,0.004342816770076752
1761384995999515600,4.717515625,0.0035515916533768177,0.028797825798392296,-0.008645686320960522
1761384996009584400,4.72758447265625,0.00008442220860160887,0.042874760925769806,-0.015657523646950722
1761384996019653600,4.737653564453125,-0.002975017298012972,0.052683450281620026,-0.015676431357860565
1761384996029722400,4.747722412109375,-0.006381200160831213,0.045823149383068085,-0.012558668851852417
1761384996039791600,4.75779150390625,-0.01769324392080307,0.036008335649967194,-0.011620969511568546
1761384996049859600,4.767859619140625,-0.029230855405330658,0.03304104134440422,-0.014155233278870583
1761384996059928300,4.77792822265625,-0.03490924835205078,0.03388126939535141,-0.023418772965669632
1761384996069997600,4.78799755859375,-0.03321920707821846,0.030593063682317734,-0.03117815963923931
1761384996080066600,4.798066650390625,-0.02382889948785305,0.02184777520596981,-0.037403032183647156
1761384996090135600,4.808135498046875,-0.008318383246660233,0.007631287910044193,-0.03105485439300537
1761384996100204500,4.81820458984375,0.003640807466581464,-0.016773654147982597,-0.01950552500784397
1761384996110273500,4.8282734375,0.012605274096131325,-0.04349661245942116,-0.0022511701099574566
1761384996120342500,4.838342529296875,0.02839355729520321,-0.06931808590888977,0.008824916556477547
1761384996130411300,4.848411376953125,0.040411073714494705,-0.08711838722229004,0.020675983279943466
1761384996140479500,4.8584794921875,0.04242362454533577,-0.08563527464866638,0.03344158083200455
1761384996150548500,4.868548583984375,0.03311054781079292,-0.07743433862924576,0.04051360487937927
1761384996160617500,4.878617431640625,0.014787468127906322,-0.06450122594833374,0.049202434718608856
1761384996170686500,4.8886865234375,-0.007863515987992287,-0.05343179777264595,0.05012708157300949
1761384996180755500,4.89875537109375,-0.03508394956588745,-0.03599368780851364,0.04156901314854622
1761384996190824400,4.908824462890625,-0.05443234741687775,-0.007220895029604435,0.02780579775571823
1761384996200893400,4.9188935546875,-0.06565624475479126,0.020506341010332108,0.01631212793290615
1761384996210962400,4.92896240234375,-0.06833804398775101,0.033538252115249634,0.003988349810242653
1761384996221031400,4.939031494140625,-0.05907983332872391,0.030647924169898033,-0.004067446105182171
1761384996231100700,4.9491005859375,-0.045395176857709885,0.023968715220689774,-0.0027662254869937897
1761384996241168400,4.95916845703125,-0.03266926482319832,-0.00905394833534956,0.0010135991033166647
1761384996251237400,4.9692373046875,-0.02503903955221176,-0.03305169194936752,0.011214038357138634
1761384996261306600,4.979306640625,-0.019219767302274704,-0.034205906093120575,0.025466211140155792
1761384996271375400,4.989375244140625,-0.009528524242341518,-0.015455654822289944,0.031378161162137985
1761384996281444600,4.999444580078125,-0.008557535707950592,0.003245860803872347,0.034270357340574265
1761384996291513300,5.009513427734375,-0.004167846869677305,0.007363640237599611,0.029865486547350883
1761384996301580500,5.01958056640625,-0.00023089606838766485,0.007222759071737528,0.0188439954072237
1761384996311649500,5.0296494140625,0.01107661984860897,-0.0054570832289755344,0.004969724919646978
1761384996321718500,5.039718505859375,0.020714333280920982,-0.016876451671123505,-0.005975867155939341
1761384996331787500,5.04978759765625,0.03362027928233147,-0.03153182566165924,-0.012594088912010193
1761384996341856500,5.0598564453125,0.04423936456441879,-0.035169705748558044,-0.00875221285969019
1761384996351924500,5.069924560546875,0.044126447290182114,-0.04020707309246063,-0.001609348226338625
1761384996361993500,5.079993408203125,0.034077275544404984,-0.03922649845480919,0.003971305675804615
1761384996372062500,5.0900625,0.026200711727142334,-0.03881663829088211,0.001517469179816544
1761384996382131500,5.10013134765625,0.016438627615571022,-0.038114629685878754,-0.00412390474230051
1761384996392200400,5.110200439453125,0.011288607493042946,-0.02183366008102894,-0.012323511764407158
1761384996402269700,5.120269775390625,0.010905644856393337,-0.009501892141997814,-0.012985839508473873
1761384996412338400,5.13033837890625,0.01576191931962967,0.0017699368763715029,-0.010480870492756367
1761384996422407400,5.140407470703125,0.021883727982640266,-0.003340935567393899,-0.006209160201251507
1761384996432476400,5.150476318359375,0.026449184864759445,-0.010941064916551113,0.002453836612403393
1761384996442545400,5.16054541015625,0.02268986590206623,-0.021952969953417778,0.010790329426527023
1761384996452613600,5.170613525390625,0.018673818558454514,-0.02364620752632618,0.02021445706486702
1761384996462682400,5.180682373046875,0.008381234481930733,0.000886566296685487,0.03380989655852318
1761384996472751400,5.19075146484375,0.0007036071619950235,0.030250314623117447,0.0373590886592865
1761384996482820600,5.200820556640625,-0.013067332096397877,0.05222485587000847,0.031032217666506767
1761384996492889300,5.210889404296875,-0.023723971098661423,0.04661570489406586,0.016707073897123337
1761384996502958600,5.22095849609375,-0.01974201388657093,0.02159450761973858,0.0009672601008787751
1761384996513027300,5.23102734375,-0.0037494644057005644,-0.02816665731370449,-0.017654094845056534
1761384996523096600,5.2410966796875,0.018335863947868347,-0.0768044963479042,-0.03266766667366028
1761384996533165600,5.25116552734375,0.04733848571777344,-0.10487661510705948,-0.03917776420712471
1761384996543234600,5.261234619140625,0.08352126181125641,-0.15233440697193146,-0.03664189949631691
1761384996553302500,5.271302490234375,0.1387975662946701,-0.21244914829730988,-0.019846409559249878
1761384996563371500,5.28137158203125,0.18608704209327698,-0.2534503638744354,0.024689100682735443
1761384996573440500,5.2914404296875,0.20426738262176514,-0.2748994827270508,0.07654830068349838
1761384996583509500,5.301509521484375,0.18696029484272003,-0.2778412103652954,0.1266213208436966
1761384996593578500,5.31157861328125,0.16102351248264313,-0.2735348641872406,0.16794586181640625
1761384996603647500,5.3216474609375,0.12996439635753632,-0.26008325815200806,0.19030976295471191
1761384996613716500,5.331716552734375,0.09776037931442261,-0.2280033379793167,0.18820133805274963
1761384996623785500,5.341785400390625,0.05317959934473038,-0.19036434590816498,0.17415794730186462
1761384996633854500,5.3518544921875,-0.0007451524725183845,-0.1513570249080658,0.152817502617836
1761384996643923500,5.36192333984375,-0.0649971067905426,-0.11528531461954117,0.1306043416261673
1761384996653991400,5.371991455078125,-0.11942200362682343,-0.07356715947389603,0.11934184283018112
1761384996664060700,5.382060791015625,-0.1653791069984436,-0.050280746072530746,0.11176781356334686
1761384996674129400,5.39212939453125,-0.1944909244775772,-0.0431583896279335,0.10548807680606842
1761384996684198400,5.402198486328125,-0.20867039263248444,-0.040827590972185135,0.10344063490629196
1761384996694267400,5.412267333984375,-0.20568737387657166,-0.03710875287652016,0.10876669734716415
1761384996704336400,5.42233642578125,-0.19889898598194122,-0.02857225574553013,0.11396704614162445
1761384996714405600,5.432405517578125,-0.191949725151062,-0.038649123162031174,0.11410126835107803
1761384996724474400,5.442474365234375,-0.1801561862230301,-0.051299940794706345,0.10990998893976212
1761384996734543400,5.45254345703125,-0.1741640716791153,-0.07973583787679672,0.10083180665969849
1761384996744612400,5.4626123046875,-0.16534288227558136,-0.10366301238536835,0.08138034492731094
1761384996754680300,5.472680419921875,-0.15830761194229126,-0.12569613754749298,0.06166736036539078
1761384996764749300,5.482749267578125,-0.15634380280971527,-0.14795324206352234,0.04171016067266464
1761384996774818300,5.492818359375,-0.15766392648220062,-0.1914019137620926,0.019834958016872406
1761384996784887300,5.50288720703125,-0.1616211235523224,-0.23186971247196198,0.008201736956834793
1761384996794956500,5.51295654296875,-0.1780427098274231,-0.27286189794540405,-0.002972354181110859
1761384996805025300,5.523025390625,-0.21028771996498108,-0.28443998098373413,-0.016529176384210587
1761384996815094500,5.533094482421875,-0.25512975454330444,-0.27368026971817017,-0.030647924169898033
1761384996825163300,5.543163330078125,-0.30394071340560913,-0.2160569280385971,-0.027177292853593826
1761384996835232300,5.553232177734375,-0.3507031500339508,-0.21516530215740204,-0.0226158294826746
1761384996845301500,5.563301513671875,-0.381433367729187,-0.23957796394824982,0.006640858482569456
1761384996855369200,5.573369140625,-0.4022126793861389,-0.26556962728500366,0.03546345233917236
1761384996865438500,5.5834384765625,-0.4215365946292877,-0.27741989493370056,0.061170414090156555
1761384996875507500,5.593507568359375,-0.44283947348594666,-0.27908676862716675,0.08329781889915466
1761384996885576200,5.603576171875,-0.44890081882476807,-0.23026782274246216,0.08280060440301895
1761384996895645400,5.6136455078125,-0.436979204416275,-0.12567484378814697,0.07182279229164124
1761384996905714200,5.623714111328125,-0.40154582262039185,-0.00029774141148664057,0.0408419705927372
1761384996915783400,5.633783447265625,-0.355582058429718,0.09066225588321686,0.013393303379416466
1761384996925853200,5.643853271484375,-0.30591943860054016,0.12559840083122253,0.002668753731995821
1761384996935922400,5.65392236328125,-0.2572941184043884,0.0909472182393074,0.008086422458291054
1761384996945991200,5.6639912109375,-0.23059779405593872,0.044491834938526154,0.02791019342839718
1761384996956060400,5.674060302734375,-0.2287311851978302,0.0059990365989506245,0.053168945014476776
1761384996966129400,5.68412939453125,-0.24820926785469055,-0.0004679173871409148,0.06707117706537247
1761384996976197400,5.694197265625,-0.2702104449272156,0.01811748556792736,0.0680869072675705
1761384996986266400,5.704266357421875,-0.28327643871307373,0.029817549511790276,0.054493602365255356
1761384996996335400,5.71433544921875,-0.2817957401275635,0.03224848210811615,0.03945446386933327
1761384997006404400,5.724404296875,-0.2697845995426178,0.033786460757255554,0.020862670615315437
1761384997016473300,5.734473388671875,-0.2535251975059509,0.03067588619887829,-0.0006372944335453212
1761384997026542300,5.744542236328125,-0.22985050082206726,0.035707928240299225,-0.0320064015686512
1761384997036611300,5.754611328125,-0.1932584047317505,0.06994659453630447,-0.0660834088921547
1761384997046680600,5.7646806640625,-0.13780367374420166,0.12334004044532776,-0.10997869819402695
1761384997056749300,5.774749267578125,-0.08942229300737381,0.16623957455158234,-0.1605398803949356
1761384997066817300,5.7848173828125,-0.03808639943599701,0.1905108243227005,-0.18563777208328247
1761384997076886500,5.794886474609375,0.006161489523947239,0.20619817078113556,-0.1918908804655075
1761384997086955300,5.804955322265625,0.04049203172326088,0.20058183372020721,-0.18178124725818634
1761384997097024500,5.8150244140625,0.06606476753950119,0.1463276445865631,-0.15826579928398132
1761384997107093200,5.82509326171875,0.08270499855279922,0.0877775251865387,-0.12492728978395462
1761384997117162500,5.83516259765625,0.09264711290597916,0.04682210087776184,-0.0903533324599266
1761384997127231200,5.845231201171875,0.08343923091888428,0.027033748105168343,-0.07272373884916306
1761384997137300200,5.85530029296875,0.06615185737609863,0.000049801110435510054,-0.06332197785377502
1761384997147369500,5.865369384765625,0.03930399566888809,-0.02317562699317932,-0.06304074823856354
1761384997157438200,5.875438232421875,0.017853565514087677,-0.021943116560578346,-0.07790811359882355
1761384997167506400,5.88550634765625,0.002413090318441391,0.0006687197601422668,-0.09795106202363968
1761384997177575400,5.895575439453125,0.0525718629360199,0.07534854859113693,-0.12510518729686737
1761384997187644400,5.90564453125,0.09714359045028687,-0.0307517871260643,-0.18745538592338562
1761384997197713400,5.91571337890625,0.06620299071073532,-0.22868883609771729,-0.24958373606204987
1761384997207782100,5.9257822265625,0.04337596893310547,-0.2647640109062195,-0.2576102316379547
1761384997217851400,5.935851318359375,0.09361384063959122,-0.18329951167106628,-0.21913021802902222
1761384997227920400,5.94592041015625,0.1013396680355072,-0.21539141237735748,-0.16912643611431122
1761384997237989400,5.9559892578125,0.09512092173099518,-0.2019091546535492,-0.10268136858940125
1761384997248058400,5.966058349609375,0.1803857535123825,-0.14300189912319183,-0.026562901213765144
1761384997258127400,5.97612744140625,0.2480958253145218,-0.18697547912597656,0.04519331082701683
1761384997268195300,5.9861953125,0.2601844370365143,-0.3122495114803314,0.09367349743843079
1761384997278264300,5.996264404296875,0.2569945156574249,-0.3930114805698395,0.13443823158740997
1761384997288333300,6.006333251953125,0.2477315068244934,-0.3736923635005951,0.17248016595840454
1761384997298402300,6.01640234375,0.2286030799150467,-0.29694297909736633,0.19243095815181732
1761384997308471600,6.026471435546875,0.18497171998023987,-0.2154308259487152,0.20574596524238586
1761384997318540300,6.036540283203125,0.11937965452671051,-0.15452246367931366,0.20702588558197021
1761384997328609500,6.046609619140625,0.049729473888874054,-0.09157013148069382,0.20133870840072632
1761384997338678300,6.05667822265625,0.004265318624675274,-0.05986892431974411,0.18049708008766174
1761384997348747300,6.066747314453125,-0.017369136214256287,-0.08392605930566788,0.14922091364860535
1761384997358816500,6.07681640625,-0.03183649107813835,-0.1469620168209076,0.12875612080097198
1761384997368884200,6.08688427734375,-0.044193826615810394,-0.1783447116613388,0.1370910108089447
1761384997378953500,6.096953369140625,-0.05690376088023186,-0.16113562881946564,0.15511980652809143
1761384997389022500,6.1070224609375,-0.07148723304271698,-0.14236140251159668,0.16012895107269287
1761384997399091500,6.117091552734375,-0.08571996539831161,-0.15024062991142273,0.1460738480091095
1761384997409160400,6.127160400390625,-0.0955749899148941,-0.1650342345237732,0.12999795377254486
1761384997419229200,6.137229248046875,-0.11251642554998398,-0.1599305421113968,0.12579947710037231
1761384997429298400,6.14729833984375,-0.12369398027658463,-0.15219193696975708,0.1261371672153473
1761384997439367200,6.1573671875,-0.12668737769126892,-0.1493562012910843,0.12368252873420715
1761384997449436400,6.1674365234375,-0.12297279387712479,-0.14659662544727325,0.10349869728088379
1761384997459504400,6.17750439453125,-0.11258353292942047,-0.14868640899658203,0.08106502145528793
1761384997469573400,6.187573486328125,-0.08345814049243927,-0.14557690918445587,0.05392075702548027
1761384997479642400,6.197642333984375,-0.016340624541044235,-0.06970078498125076,0.017304688692092896
1761384997489711400,6.20771142578125,-0.00004420847471919842,-0.05715223401784897,-0.038711708039045334
1761384997499780400,6.2177802734375,-0.03549887239933014,-0.017580324783921242,-0.10179906338453293
1761384997509849300,6.227849365234375,-0.05613171309232712,0.04346838220953941,-0.15744714438915253
1761384997519918300,6.23791845703125,-0.05680469423532486,0.07958803325891495,-0.19513700902462006
1761384997529987300,6.2479873046875,-0.05434339866042137,0.07925353944301605,-0.21109811961650848
1761384997540056600,6.258056640625,-0.04027072340250015,0.0897328183054924,-0.19789710640907288
1761384997550125300,6.268125244140625,-0.03057575225830078,0.09847650676965714,-0.1578543484210968
1761384997560193300,6.278193359375,-0.029700636863708496,0.10419084876775742,-0.11012197285890579
1761384997570262500,6.288262451171875,-0.029206354171037674,0.12694703042507172,-0.0528847873210907
1761384997580331300,6.298331298828125,-0.014289723709225655,0.1493908166885376,0.01979580894112587
1761384997590400500,6.308400390625,-0.009821738116443157,0.14304983615875244,0.08515404164791107
1761384997600469200,6.31846923828125,-0.01576964184641838,0.09749007225036621,0.1481870710849762
1761384997610538500,6.32853857421875,-0.022520754486322403,0.0673510804772377,0.1950901299715042
1761384997620607500,6.338607421875,-0.02689872495830059,0.07423348724842072,0.22473298013210297
1761384997630676200,6.34867626953125,-0.02575409971177578,0.08239047974348068,0.2289186716079712
1761384997640745500,6.358745361328125,-0.01008166279643774,0.11945661902427673,0.21899625658988953
1761384997650814200,6.368814208984375,0.04890202730894089,0.17805522680282593,0.1821005642414093
1761384997660882400,6.37888232421875,0.036738839000463486,0.17668262124061584,0.10970066487789154
1761384997670951400,6.388951416015625,0.023808659985661507,0.2577255368232727,0.05060671642422676
1761384997681020200,6.399020263671875,0.022765234112739563,0.32818958163261414,0.022729014977812767
1761384997691089400,6.40908935546875,0.01315255369991064,0.37809351086616516,0.013532586395740509
1761384997701158400,6.419158447265625,0.0122481444850564,0.3857860565185547,0.021522868424654007
1761384997711227400,6.429227294921875,0.031805332750082016,0.33650797605514526,0.041244909167289734
1761384997721296400,6.43929638671875,0.059850018471479416,0.28218722343444824,0.07202625274658203
1761384997731366100,6.4493662109375,0.0808599591255188,0.2403433620929718,0.10016229003667831
1761384997741435400,6.459435302734375,0.08346852660179138,0.18915393948554993,0.11801185458898544
1761384997751503000,6.469503173828125,0.06705094128847122,0.13476420938968658,0.10095004737377167
1761384997761572000,6.479572021484375,0.04687882587313652,0.07805405557155609,0.05126158893108368
1761384997771641300,6.489641357421875,0.0382150299847126,0.053535398095846176,-0.029469208791851997
1761384997781710000,6.4997099609375,0.05107010900974274,0.05595408007502556,-0.12598270177841187
1761384997791779300,6.509779296875,0.06161143258213997,0.04107952490448952,-0.22210150957107544
1761384997801848000,6.51984814453125,0.06195870786905289,-0.0013020194601267576,-0.3011435866355896
1761384997811917300,6.529917236328125,0.056046757847070694,-0.040338899940252304,-0.3539447486400604
1761384997821986300,6.539986328125,0.058513909578323364,-0.041420143097639084,-0.37505218386650085
1761384997832055000,6.550054931640625,0.060694240033626556,-0.009185508824884892,-0.36710265278816223
1761384997842124300,6.560124267578125,0.06180424615740776,0.047570981085300446,-0.32566943764686584
1761384997852192300,6.570192138671875,0.06061514467000961,0.08923187106847763,-0.2618292272090912
1761384997862261200,6.58026123046875,0.046543799340724945,0.08769363164901733,-0.18795979022979736
1761384997872330200,6.590330322265625,0.028621524572372437,0.05545952916145325,-0.10747931897640228
1761384997882399000,6.60039892578125,0.0033832797780632973,0.0028671592008322477,-0.04372217878699303
1761384997892468200,6.61046826171875,-0.031385619193315506,-0.056288041174411774,-0.0067511131055653095
1761384997902537200,6.620537109375,-0.06420934945344925,-0.12171285599470139,-0.007213171571493149
1761384997912606200,6.630606201171875,-0.08285094052553177,-0.16615541279315948,-0.030589867383241653
1761384997922675200,6.64067529296875,-0.0939059853553772,-0.1675109714269638,-0.05461903661489487
1761384997932744200,6.650744140625,-0.1047743484377861,-0.16309837996959686,-0.0765317901968956
1761384997942813200,6.660813232421875,-0.10160252451896667,-0.15410780906677246,-0.09762243181467056
1761384997952881200,6.670881103515625,-0.06302903592586517,-0.1351277232170105,-0.11357130110263824
1761384997962950100,6.6809501953125,-0.01263749785721302,-0.10042327642440796,-0.10689955204725266
1761384997973019100,6.69101904296875,0.023862721398472786,-0.058274224400520325,-0.07397009432315826
1761384997983088000,6.701088134765625,0.027846544981002808,-0.027286216616630554,-0.014279603026807308
1761384997993157000,6.7111572265625,-0.0008191883680410683,-0.013013802468776703,0.06012272462248802
1761384998003226400,6.721226318359375,-0.04434935376048088,-0.01852281764149666,0.14838308095932007
1761384998013295000,6.731295166015625,-0.08543287217617035,-0.04187128320336342,0.2149794101715088
1761384998023364400,6.7413642578125,-0.10473892837762833,-0.060207679867744446,0.2549803555011749
1761384998033433000,6.75143310546875,-0.11472418159246445,-0.05862443149089813,0.2571127414703369
1761384998043502000,6.761502197265625,-0.12555553019046783,-0.03434306010603905,0.22274386882781982
1761384998053570300,6.7715703125,-0.14989282190799713,0.0116188395768404,0.1643764227628708
1761384998063639000,6.78163916015625,-0.17424637079238892,0.07010851055383682,0.08438865095376968
1761384998073708300,6.791708251953125,-0.19241870939731598,0.1056947410106659,-0.0010250506456941366
1761384998083777300,6.80177734375,-0.20668606460094452,0.1066737174987793,-0.09293659776449203
1761384998093846000,6.811845947265625,-0.2093108743429184,0.09647327661514282,-0.18381670117378235
1761384998103915300,6.821915283203125,-0.1993037909269333,0.07530274242162704,-0.2689305245876312
1761384998113984000,6.83198388671875,-0.17526023089885712,0.05483901500701904,-0.3310474455356598
1761384998124053200,6.84205322265625,-0.12928155064582825,0.027828700840473175,-0.3529468774795532
1761384998134122200,6.852122314453125,-0.08799483627080917,0.004424842074513435,-0.32085365056991577
1761384998144191200,6.862191162109375,-0.051239751279354095,-0.021467475220561028,-0.2454792708158493
1761384998154259200,6.87225927734375,-0.022774821147322655,-0.04241403564810753,-0.13891926407814026
1761384998164328200,6.882328125,0.04754994064569473,-0.049858368933200836,-0.03460618108510971
1761384998174397200,6.892397216796875,0.0636008158326149,-0.17489564418792725,0.03564428165555
1761384998184466200,6.902466064453125,0.06903845816850662,-0.24178199470043182,0.1056305542588234
1761384998194535200,6.91253515625,0.053274139761924744,-0.2592528760433197,0.1703760027885437
1761384998204604200,6.922604248046875,0.033299632370471954,-0.2533819377422333,0.21793179214000702
1761384998214673400,6.93267333984375,0.024173513054847717,-0.19942761957645416,0.23099006712436676
1761384998224742100,6.9427421875,0.03616146743297577,-0.12313338369131088,0.20902778208255768
1761384998234811400,6.952811279296875,0.08527041971683502,-0.006938866339623928,0.18130667507648468
1761384998244879400,6.96287939453125,0.14367461204528809,0.13078944385051727,0.14417102932929993
1761384998254948000,6.972947998046875,0.17492839694023132,0.25470152497291565,0.11179684102535248
1761384998265017300,6.983017333984375,0.1752288043498993,0.3126170337200165,0.08927395194768906
1761384998275086000,6.993086181640625,0.14872050285339355,0.2764779329299927,0.08950937539339066
1761384998285155300,7.0031552734375,0.1152472272515297,0.22389808297157288,0.12139247357845306
1761384998295224000,7.01322412109375,0.07584576308727264,0.20412437617778778,0.16722974181175232
1761384998305293000,7.02329296875,0.02984551340341568,0.17873139679431915,0.21193702518939972
1761384998315362300,7.0333623046875,-0.0024810009635984898,0.133014515042305,0.23698031902313232
1761384998325431000,7.04343115234375,-0.0038392129354178905,0.09009154140949249,0.23711428046226501
1761384998335499300,7.053499267578125,0.01691080629825592,0.043113913387060165,0.21141530573368073
1761384998345568300,7.063568359375,0.03316940367221832,-0.029948843643069267,0.1531091183423996
1761384998355637200,7.07363720703125,0.02930968627333641,-0.10772353410720825,0.06392039358615875
1761384998365706200,7.083706298828125,0.012831908650696278,-0.15070748329162598,-0.05325443297624588
1761384998375775000,7.09377490234375,-0.006717557553201914,-0.15870815515518188,-0.16716422140598297
1761384998385844200,7.10384423828125,-0.02894589677453041,-0.13948120176792145,-0.26227155327796936
1761384998395913200,7.113913330078125,-0.04820321500301361,-0.13152261078357697,-0.3283272683620453
1761384998405982200,7.123982177734375,-0.06758037209510803,-0.12275628000497818,-0.3678637742996216
1761384998416051200,7.13405126953125,-0.07433974742889404,-0.10328564047813416,-0.38258305191993713
1761384998426120200,7.1441201171875,-0.07275755703449249,-0.09256881475448608,-0.3677026629447937
1761384998436188200,7.154188232421875,-0.03262319043278694,-0.09051605314016342,-0.34165534377098083
1761384998446257200,7.164257080078125,0.02226722240447998,-0.15804849565029144,-0.31458961963653564
1761384998456326100,7.174326171875,0.04632009565830231,-0.26267024874687195,-0.2924076318740845
1761384998466395100,7.18439501953125,0.06216004490852356,-0.3238334655761719,-0.2627594470977783
1761384998476464400,7.19446435546875,0.06625651568174362,-0.33589836955070496,-0.22070494294166565
1761384998486533000,7.204533203125,0.06734202057123184,-0.3129267394542694,-0.1739736646413803
1761384998496602400,7.214602294921875,0.07022090256214142,-0.266362726688385,-0.12204867601394653
1761384998506671000,7.224671142578125,0.07856804877519608,-0.19495457410812378,-0.05784732103347778
1761384998516740000,7.234739990234375,0.08443418890237808,-0.13048769533634186,0.026977555826306343
1761384998526809000,7.24480908203125,0.09537632018327713,-0.06771832704544067,0.13029782474040985
1761384998536877000,7.254876953125,0.09117092192173004,-0.027777835726737976,0.23884692788124084
1761384998546946300,7.2649462890625,0.06687597185373306,0.011894476599991322,0.3220004141330719
1761384998557015300,7.275015380859375,0.033610958606004715,0.08950191736221313,0.3846089243888855
1761384998567084300,7.285084228515625,0.014086257666349411,0.18331150710582733,0.41837114095687866
1761384998577153300,7.2951533203125,0.008098673075437546,0.2512913644313812,0.43227100372314453
1761384998587222000,7.305221923828125,0.0030897995457053185,0.24499723315238953,0.42573851346969604
1761384998597291300,7.315291259765625,-0.010126137174665928,0.18324199318885803,0.39590179920196533
1761384998607360000,7.325360107421875,-0.020724453032016754,0.08079498261213303,0.33606696128845215
1761384998617429200,7.33542919921875,-0.01908314786851406,-0.00794287770986557,0.2447783201932907
1761384998627498200,7.345498291015625,-0.007533816155046225,-0.07327315211296082,0.1394156813621521
1761384998637566200,7.355566162109375,0.0015731292078271508,-0.12255600839853287,0.01902242749929428
1761384998647635200,7.36563525390625,-0.010324276052415371,-0.15084916353225708,-0.08830802142620087
1761384998657704200,7.3757041015625,-0.029580796137452126,-0.17102819681167603,-0.16370397806167603
1761384998667773200,7.385773193359375,-0.043526437133550644,-0.14934447407722473,-0.20731483399868011
1761384998677842200,7.39584228515625,-0.05645608529448509,-0.10774004459381104,-0.21554027497768402
1761384998687911200,7.4059111328125,-0.06964299082756042,-0.06742963939905167,-0.20028169453144073
1761384998697980200,7.415980224609375,-0.080153688788414,-0.021622205153107643,-0.15928232669830322
1761384998708049400,7.42604931640625,-0.07722394913434982,0.00917166005820036,-0.09690550714731216
1761384998718118100,7.4361181640625,-0.0686405822634697,0.04370327293872833,-0.024338362738490105
1761384998728184800,7.446184814453125,-0.06330201029777527,0.09630336612462997,0.0522293820977211
1761384998738254000,7.456254150390625,-0.07684178650379181,0.12364710867404938,0.11426958441734314
1761384998748323000,7.466322998046875,-0.10016574710607529,0.09147612005472183,0.16624116897583008
1761384998758392000,7.47639208984375,-0.12531344592571259,0.01992257498204708,0.20085453987121582
1761384998768461000,7.4864609375,-0.14442375302314758,-0.0537889301776886,0.21374371647834778
1761384998778529800,7.49652978515625,-0.15184998512268066,-0.08889365196228027,0.20043163001537323
1761384998788599000,7.50659912109375,-0.1433531641960144,-0.09025825560092926,0.170114204287529
1761384998798668000,7.51666796875,-0.1358334720134735,-0.05949608236551285,0.12365137040615082
1761384998808737000,7.526737060546875,-0.1357429176568985,-0.01997051201760769,0.0721820518374443
1761384998818806000,7.536805908203125,-0.13722576200962067,-0.026369288563728333,0.0385655015707016
1761384998828874000,7.5468740234375,-0.13082033395767212,-0.02201768383383751,0.015162707306444645
1761384998838943000,7.55694287109375,-0.1270546168088913,-0.02455035038292408,0.006293315906077623
1761384998849012000,7.567011962890625,-0.12401115894317627,-0.028202077373862267,0.010522415861487389
1761384998859081000,7.5770810546875,-0.12036556005477905,-0.009297095239162445,0.031808529049158096
1761384998869150000,7.58714990234375,-0.11671676486730576,0.01016928069293499,0.06413717567920685
1761384998879219000,7.597218994140625,-0.11325465142726898,0.01278903242200613,0.1036134734749794
1761384998889288000,7.607287841796875,-0.11909469962120056,-0.009563145227730274,0.13330133259296417
1761384998899357200,7.617357177734375,-0.12976811826229095,-0.060268666595220566,0.14413639903068542
1761384998909426000,7.627426025390625,-0.14094726741313934,-0.0797523558139801,0.14570526778697968
1761384998919494000,7.637493896484375,-0.15018364787101746,-0.04643327742815018,0.1317247450351715
1761384998929563100,7.647563232421875,-0.1628562957048416,0.02171488292515278,0.09482211619615555
1761384998939631900,7.6576318359375,-0.1647024005651474,0.07007841765880585,0.023852068930864334
1761384998949701000,7.667701171875,-0.16576765477657318,0.1118844598531723,-0.07474960386753082
1761384998959769900,7.677769775390625,-0.15327557921409607,0.15922027826309204,-0.18967805802822113
1761384998969839000,7.687839111328125,-0.11739587038755417,0.24413198232650757,-0.3042203485965729
1761384998979908000,7.697908203125,-0.06883392482995987,0.3278098404407501,-0.39801183342933655
1761384998989976800,7.707976806640625,-0.02954004891216755,0.35795333981513977,-0.4704945385456085
1761384999000046000,7.718046142578125,0.002329467097297311,0.3239612877368927,-0.4942006766796112
1761384999010114800,7.72811474609375,0.026082467287778854,0.2595924139022827,-0.46251198649406433
1761384999020183000,7.73818310546875,0.0454268716275692,0.19742652773857117,-0.37651610374450684
1761384999030252000,7.748251953125,0.059172775596380234,0.12840405106544495,-0.2649509608745575
1761384999040320800,7.75832080078125,0.0744079202413559,0.058750398457050323,-0.14390364289283752
1761384999050390000,7.76839013671875,0.09660296887159348,-0.008761533536016941,-0.014705709181725979
1761384999060459000,7.778458984375,0.10382413119077682,-0.027147730812430382,0.12420263886451721
1761384999070528000,7.788528076171875,0.08783610910177231,-0.009078982286155224,0.24176815152168274
1761384999080597000,7.798596923828125,0.0571487732231617,-0.0007736482657492161,0.3167835474014282
1761384999090666000,7.808666015625,0.03341441601514816,-0.00977273564785719,0.339026540517807
1761384999100735000,7.81873486328125,0.025909893214702606,-0.036725789308547974,0.3196650743484497
1761384999110804000,7.828803955078125,0.03195340558886528,-0.058396998792886734,0.27442169189453125
1761384999120872000,7.838871826171875,0.03868800774216652,-0.06148253381252289,0.22755619883537292
1761384999130941000,7.84894091796875,0.0325949601829052,-0.04826446622610092,0.17921635508537292
1761384999141010000,7.859010009765625,0.022608106955885887,-0.05236813426017761,0.12497229874134064
1761384999151079000,7.869078857421875,-0.002320145955309272,-0.04956462234258652,0.05985134840011597
1761384999161148200,7.879148193359375,-0.0221449825912714,-0.031737688928842545,-0.003440005239099264
1761384999171217000,7.889216796875,-0.032708942890167236,-0.004190217703580856,-0.046295326203107834
1761384999181286100,7.8992861328125,-0.030479878187179565,0.00047830372932367027,-0.06079490855336189
1761384999191355000,7.90935498046875,-0.034928422421216965,-0.009430519305169582,-0.04338795319199562
1761384999201424000,7.919423828125,-0.046177882701158524,-0.0025949841365218163,-0.003370230318978429
1761384999211492000,7.9294921875,-0.05794026330113411,0.01098447386175394,0.04639013484120369
1761384999221560800,7.939560791015625,-0.07046404480934143,0.011409248225390911,0.08943427354097366
1761384999231630000,7.949630126953125,-0.08233162760734558,-0.009095760062336922,0.10749183595180511
1761384999241699000,7.959698974609375,-0.0966450497508049,-0.052987582981586456,0.09630177170038223
1761384999251767800,7.969767822265625,-0.10929879546165466,-0.10952728986740112,0.07456957548856735
1761384999261837000,7.979837158203125,-0.1243605688214302,-0.11556654423475266,0.04964451864361763
1761384999271905800,7.98990576171875,-0.13400466740131378,-0.08397585898637772,0.020976921543478966
1761384999281975000,7.99997509765625,-0.13567793369293213,-0.022523418068885803,-0.005141764879226685
1761384999292044000,8.0100439453125,-0.12059938162565231,0.024573786184191704,-0.02894829399883747
1761384999302112000,8.020112060546875,-0.09992553293704987,0.04743888974189758,-0.05198889970779419
1761384999312181000,8.030180908203125,-0.07508223503828049,0.06972208619117737,-0.07187578827142715
1761384999322250000,8.04025,-0.05727927014231682,0.09029793739318848,-0.08870376646518707
1761384999332319000,8.050319091796876,-0.035649605095386505,0.09462957084178925,-0.09518297761678696
1761384999342388000,8.060387939453125,-0.011687282472848892,0.11553831398487091,-0.08934053033590317
1761384999352457000,8.07045703125,0.029340045526623726,0.1401461809873581,-0.06876548379659653
1761384999362526000,8.08052587890625,0.07934276014566422,0.1479274183511734,-0.031930502504110336
1761384999372595000,8.090594970703124,0.11666536331176758,0.13633973896503448,0.015910523012280464
1761384999382664000,8.100663818359376,0.14086177945137024,0.09858090430498123,0.0580742210149765
1761384999392733200,8.110733154296875,0.16199102997779846,0.05062482878565788,0.09909595549106598
1761384999402801200,8.12080126953125,0.1802041232585907,0.007457117084413767,0.1304948925971985
1761384999412870000,8.130869873046874,0.19553914666175842,-0.04333975166082382,0.1505567580461502
1761384999422939100,8.140939208984374,0.20010939240455627,-0.09338374435901642,0.1751078963279724
1761384999433007900,8.1510078125,0.1922069936990738,-0.11698494106531143,0.18596400320529938
1761384999443077000,8.1610771484375,0.1827426552772522,-0.11887072771787643,0.17944858968257904
1761384999453145900,8.171145751953125,0.1613750457763672,-0.10073672980070114,0.15683621168136597
1761384999463214800,8.18121484375,0.14530712366104126,-0.06832312792539597,0.10922741889953613
1761384999473284000,8.1912841796875,0.13232262432575226,-0.05120965838432312,0.054000385105609894
1761384999483352800,8.201352783203125,0.12250567227602005,-0.05057023465633392,-0.005940979812294245
1761384999493421000,8.211421142578125,0.10743937641382217,-0.08930830657482147,-0.0341276116669178
1761384999503490000,8.221489990234375,0.07500926405191422,-0.12605006992816925,-0.026706978678703308
1761384999513559000,8.23155908203125,0.02231888845562935,-0.15705886483192444,-0.0008159925346262753
1761384999523628000,8.2416279296875,-0.03602378070354462,-0.1826728731393814,0.02725372463464737
1761384999533696800,8.25169677734375,-0.07703113555908203,-0.2171861082315445,0.03087429329752922
1761384999543766000,8.26176611328125,-0.10343983769416809,-0.23848873376846313,0.02279932238161564
1761384999553835000,8.2718349609375,-0.11383069306612015,-0.2329360395669937,-0.010214287787675858
1761384999563904000,8.281904052734374,-0.11462271958589554,-0.18186727166175842,-0.05651494115591049
1761384999573973000,8.291972900390626,-0.10889586061239243,-0.11623366177082062,-0.10162729024887085
1761384999584042000,8.3020419921875,-0.11560942232608795,-0.06131315976381302,-0.13614745438098907
1761384999594110000,8.31210986328125,-0.12587936222553253,-0.018500979989767075,-0.16937437653541565
1761384999604179000,8.322178955078124,-0.13598953187465668,-0.013000487349927425,-0.1863541603088379
1761384999614248000,8.332248046875,-0.13953766226768494,0.009951434098184109,-0.18714219331741333
1761384999624317000,8.34231689453125,-0.14197231829166412,0.03467888385057449,-0.1695922315120697
1761384999634386200,8.35238623046875,-0.13620418310165405,0.0494714118540287,-0.13529178500175476
1761384999644455000,8.362454833984375,-0.12836302816867828,0.06113472580909729,-0.09810473024845123
1761384999654524200,8.372524169921874,-0.1263137310743332,0.04384681582450867,-0.06331212818622589
1761384999664593000,8.382593017578126,-0.1227264478802681,-0.010267018340528011,-0.04701012000441551
1761384999674662000,8.392661865234375,-0.1191578134894371,-0.05138915404677391,-0.04135942459106445
1761384999684731000,8.40273095703125,-0.11472605168819427,-0.05440651625394821,-0.04373816028237343
1761384999694798800,8.412798828125,-0.11079016327857971,-0.029080387204885483,-0.048951029777526855
1761384999704868000,8.4228681640625,-0.08954639732837677,0.013974404893815517,-0.04406120255589485
1761384999714937000,8.43293701171875,-0.06423118710517883,0.05684996768832207,-0.035830967128276825
1761384999725006000,8.443006103515625,-0.050165433436632156,0.02677755244076252,-0.023555394262075424
1761384999735075600,8.45307568359375,-0.04043664038181305,-0.038300782442092896,-0.019957195967435837
1761384999745144300,8.463144287109374,-0.021103154867887497,-0.10365475714206696,-0.0048946235328912735
1761384999755213300,8.47321337890625,0.006091714836657047,-0.16130900382995605,0.010120011866092682
1761384999765282300,8.4832822265625,0.03014618344604969,-0.17933513224124908,0.0325414314866066
1761384999775351300,8.493351318359375,0.05201340094208717,-0.1559360772371292,0.06169398874044418
1761384999785419500,8.50341943359375,0.06785494834184647,-0.1160336583852768,0.08798711001873016
1761384999795488300,8.51348828125,0.06590418517589569,-0.07082490622997284,0.09140714257955551
1761384999805557200,8.52355712890625,0.06716146320104599,-0.06982435286045074,0.059426043182611465
1761384999815626500,8.53362646484375,0.07062862813472748,-0.057228934019804,-0.0002426139690214768
1761384999825695200,8.5436953125,0.07195701450109482,-0.0490407794713974,-0.08174892514944077
1761384999835764500,8.553764404296874,0.07218684256076813,-0.03226259723305702,-0.16519641876220703
1761384999845833200,8.563833251953126,0.06876974552869797,-0.012855078093707561,-0.2327301800251007
1761384999855902500,8.57390234375,0.05525180324912071,0.005688778590410948,-0.2627567946910858
1761384999865971200,8.58397119140625,0.03002314642071724,0.010605240240693092,-0.25539395213127136
1761384999876039200,8.5940390625,-0.004080228973180056,0.008883239701390266,-0.2221933901309967
1761384999886108400,8.6041083984375,-0.049184322357177734,-0.02647102251648903,-0.19057074189186096
1761384999896177400,8.614177490234376,-0.08647231012582779,-0.09649670869112015,-0.17562508583068848
1761384999906246400,8.624246337890625,-0.10960932075977325,-0.14279523491859436,-0.17285513877868652
1761384999916315400,8.6343154296875,-0.12981551885604858,-0.151619091629982,-0.15061268210411072
1761384999926384400,8.64438427734375,-0.1566721647977829,-0.12390516698360443,-0.10668117552995682
1761384999936453400,8.654453369140626,-0.1797495186328888,-0.12091976404190063,-0.0689641535282135
1761384999946522400,8.6645224609375,-0.17691458761692047,-0.11254172772169113,-0.05452422797679901
1761384999956591400,8.67459130859375,-0.14572204649448395,-0.08019869774580002,-0.05193110927939415
1761384999966660400,8.684660400390625,-0.11621075868606567,-0.07309498637914658,-0.0854635015130043
1761384999976728300,8.694728271484376,-0.0880741998553276,-0.06222422420978546,-0.14952769875526428
1761384999986797300,8.70479736328125,-0.056645434349775314,0.015441274270415306,-0.2512522041797638
1761384999996866600,8.714866455078125,-0.032754216343164444,0.14488394558429718,-0.3513156771659851
1761385000006935300,8.724935302734375,-0.017413876950740814,0.27812430262565613,-0.44163066148757935
1761385000017004300,8.73500439453125,0.0070525831542909145,0.39058586955070496,-0.5033321380615234
1761385000027073300,8.7450732421875,0.03738785162568092,0.463769793510437,-0.5091314315795898
1761385000037142300,8.755142333984375,0.04298768192529678,0.4763966500759125,-0.46507129073143005
1761385000047211500,8.76521142578125,0.023610521107912064,0.3909009099006653,-0.3786658048629761
1761385000057280300,8.7752802734375,-0.007315437309443951,0.26961150765419006,-0.2672103941440582
1761385000067348500,8.785348388671874,-0.006917827297002077,0.15454430878162384,-0.13749980926513672
1761385000077417500,8.79541748046875,0.03894180804491043,0.03981825336813927,-0.00603525573387742
1761385000087486200,8.805486328125,0.09000552445650101,-0.10196498036384583,0.08996930718421936
1761385000097555500,8.815555419921875,0.10978162288665771,-0.2073313444852829,0.12856143712997437
1761385000107624200,8.825624267578124,0.1434919238090515,-0.2696991264820099,0.12152349948883057
1761385000117693400,8.835693359375,0.16651521623134613,-0.2935408055782318,0.09179197251796722
1761385000127762400,8.845762451171876,0.17961743474006653,-0.2884216606616974,0.043830037117004395
1761385000137831400,8.85583154296875,0.17842672765254974,-0.26515576243400574,-0.008262190967798233
1761385000147900400,8.865900390625,0.154013529419899,-0.24937734007835388,-0.05919754505157471
1761385000157969400,8.875969482421874,0.11883077770471573,-0.2081308364868164,-0.09179596602916718
1761385000168037400,8.886037353515626,0.09358188509941101,-0.1564553827047348,-0.10189307481050491
1761385000178106400,8.8961064453125,0.07198631018400192,-0.10307418555021286,-0.0910249799489975
1761385000188175400,8.90617529296875,0.04104011133313179,-0.06337285041809082,-0.05793307349085808
1761385000198244400,8.916244384765625,0.011316836811602116,-0.042154379189014435,-0.02364114671945572
1761385000208313300,8.926313232421874,-0.0008857673965394497,-0.023387081921100616,-0.0008532768115401268
1761385000218382300,8.93638232421875,-0.0032418658956885338,-0.006800381932407618,-0.010805509984493256
1761385000228451300,8.946451416015625,0.005781989078968763,0.01655660569667816,-0.05868195369839668
1761385000238520300,8.956520263671875,0.02810247428715229,0.05116758123040199,-0.13998399674892426
1761385000248589300,8.96658935546875,0.04481301084160805,0.07252160459756851,-0.23572011291980743
1761385000258657500,8.976657470703126,0.038598526269197464,0.09057437628507614,-0.3250901997089386
1761385000268726300,8.986726318359375,0.03175846114754677,0.09184496849775314,-0.389460951089859
1761385000278795500,8.99679541015625,0.024867799133062363,0.10497568547725677,-0.43398818373680115
1761385000288864300,9.0068642578125,0.014001836068928242,0.13930436968803406,-0.462205171585083
1761385000298932200,9.01693212890625,0.005203550215810537,0.2177879810333252,-0.46231305599212646
1761385000309001500,9.02700146484375,-0.012418586760759354,0.31783390045166016,-0.3892447054386139
1761385000319070500,9.037070556640625,-0.044982921332120895,0.2997550368309021,-0.26383456587791443
1761385000329138200,9.04713818359375,-0.055684834718704224,0.176033616065979,-0.10296739637851715
1761385000339207400,9.05720751953125,-0.049683667719364166,0.05396522954106331,0.05812801793217659
1761385000349276400,9.0672763671875,-0.03699583560228348,-0.025252891704440117,0.1592562347650528
1761385000359345400,9.077345458984375,-0.028251079842448235,-0.04874436929821968,0.16692693531513214
1761385000369414400,9.087414306640625,-0.027711521834135056,-0.05149941146373749,0.07812276482582092
1761385000379483400,9.0974833984375,-0.03562137857079506,-0.04381166398525238,-0.0723050907254219
1761385000389552400,9.107552490234376,-0.05206852778792381,-0.02779514528810978,-0.23961152136325836
1761385000399621400,9.117621337890625,-0.06949704885482788,-0.03227032348513603,-0.3774136006832123
1761385000409690400,9.1276904296875,-0.0912497490644455,-0.030061762779951096,-0.4732320010662079
1761385000419758300,9.13775830078125,-0.12604981660842896,-0.035055987536907196,-0.5099106431007385
1761385000429827300,9.147827392578124,-0.16625475883483887,-0.02894403412938118,-0.47660863399505615
1761385000439896300,9.157896240234376,-0.17902754247188568,0.005694637540727854,-0.3319401144981384
