time,seconds_elapsed,z,y,x
1761838927641159700,0.06515966796875,-0.9793853759765625,-0.26580810546875,0.1913604736328125
1761838927651229700,0.075229736328125,-0.97039794921875,-0.270904541015625,0.201904296875
1761838927661299700,0.0852998046875,-0.9528961181640625,-0.27838134765625,0.209381103515625
1761838927671369700,0.09536962890625,-0.923980712890625,-0.278167724609375,0.2111053466796875
1761838927681439700,0.105439697265625,-0.9083709716796875,-0.27947998046875,0.212738037109375
1761838927691509800,0.115509765625,-0.8989410400390625,-0.286651611328125,0.2207183837890625
1761838927701579800,0.125579833984375,-0.885498046875,-0.2896575927734375,0.2246246337890625
1761838927711649500,0.1356494140625,-0.8787689208984375,-0.29449462890625,0.227325439453125
1761838927721719800,0.1457197265625,-0.8746185302734375,-0.2983856201171875,0.2275543212890625
1761838927731790800,0.155790771484375,-0.879669189453125,-0.2950286865234375,0.22100830078125
1761838927741860600,0.165860595703125,-0.8840179443359375,-0.2874755859375,0.2088623046875
1761838927751930600,0.1759306640625,-0.8853302001953125,-0.278778076171875,0.2005462646484375
1761838927762001000,0.1860009765625,-0.8958892822265625,-0.27899169921875,0.2020416259765625
1761838927772070700,0.196070556640625,-0.8909454345703125,-0.2713470458984375,0.20367431640625
1761838927782140700,0.206140625,-0.8849334716796875,-0.260711669921875,0.20458984375
1761838927792211000,0.2162109375,-0.896270751953125,-0.259368896484375,0.21124267578125
1761838927802280700,0.22628076171875,-0.9035491943359375,-0.256622314453125,0.2222747802734375
1761838927812350700,0.236350830078125,-0.9048309326171875,-0.2570343017578125,0.23065185546875
1761838927822420700,0.246420654296875,-0.9039306640625,-0.2573699951171875,0.238006591796875
1761838927832490800,0.25649072265625,-0.9060211181640625,-0.265655517578125,0.2494659423828125
1761838927842561800,0.266561767578125,-0.9038238525390625,-0.2731781005859375,0.2572784423828125
1761838927852631800,0.2766318359375,-0.9105224609375,-0.27838134765625,0.268585205078125
1761838927862701600,0.28670166015625,-0.929290771484375,-0.2857666015625,0.27581787109375
1761838927872771800,0.296771728515625,-0.9489898681640625,-0.291351318359375,0.27685546875
1761838927882841900,0.306841796875,-0.957733154296875,-0.292999267578125,0.2738494873046875
1761838927892911600,0.31691162109375,-0.967803955078125,-0.2941131591796875,0.2624969482421875
1761838927902981600,0.326981689453125,-0.98187255859375,-0.2947540283203125,0.2534942626953125
1761838927913052000,0.337052001953125,-0.99273681640625,-0.2933502197265625,0.244964599609375
1761838927923121700,0.34712158203125,-1.0048980712890625,-0.2828521728515625,0.2309417724609375
1761838927933191700,0.357191650390625,-1.018157958984375,-0.2716827392578125,0.2237091064453125
1761838927943261700,0.36726171875,-1.0265045166015625,-0.264312744140625,0.218231201171875
1761838927953332700,0.377332763671875,-1.0329742431640625,-0.2562103271484375,0.2138214111328125
1761838927963402800,0.38740283203125,-1.0387115478515625,-0.2482757568359375,0.2090301513671875
1761838927973472800,0.39747265625,-1.04315185546875,-0.238983154296875,0.20513916015625
1761838927983542800,0.407542724609375,-1.0435333251953125,-0.2284393310546875,0.200775146484375
1761838927993612800,0.41761279296875,-1.026336669921875,-0.2221221923828125,0.19525146484375
1761838928003682800,0.427682861328125,-1.0155792236328125,-0.223419189453125,0.191192626953125
1761838928013752600,0.437752685546875,-1.0209808349609375,-0.21771240234375,0.1827239990234375
1761838928023822800,0.44782275390625,-1.0313262939453125,-0.2115478515625,0.1726531982421875
1761838928033892600,0.457892578125,-1.0310516357421875,-0.2119140625,0.166229248046875
1761838928043962600,0.467962646484375,-1.0355224609375,-0.2141571044921875,0.1572418212890625
1761838928054033000,0.478032958984375,-1.0598297119140625,-0.2132568359375,0.14422607421875
1761838928064104000,0.48810400390625,-1.0761871337890625,-0.207855224609375,0.1223297119140625
1761838928074173700,0.498173583984375,-1.083587646484375,-0.19482421875,0.0954437255859375
1761838928084243700,0.50824365234375,-1.0883636474609375,-0.1779327392578125,0.0672454833984375
1761838928094313700,0.518313720703125,-1.089508056640625,-0.1614227294921875,0.040496826171875
1761838928104383700,0.5283837890625,-1.0765380859375,-0.1424102783203125,0.0163421630859375
1761838928114453800,0.538453857421875,-1.0507965087890625,-0.126220703125,-0.0048980712890625
1761838928124523500,0.5485234375,-1.0255126953125,-0.1184844970703125,-0.0228729248046875
1761838928134593800,0.55859375,-0.9942169189453125,-0.1114501953125,-0.0321502685546875
1761838928144663800,0.568663818359375,-0.9659423828125,-0.1083984375,-0.022125244140625
1761838928154733600,0.578733642578125,-0.9517822265625,-0.122344970703125,-0.0026397705078125
1761838928164803800,0.588803955078125,-0.9305877685546875,-0.1423492431640625,0.0054931640625
1761838928174875000,0.598875,-0.9097442626953125,-0.153656005859375,0.009429931640625
1761838928184944600,0.608944580078125,-0.891357421875,-0.1636810302734375,0.0103302001953125
1761838928195014700,0.6190146484375,-0.875518798828125,-0.1792449951171875,0.0097198486328125
1761838928205085000,0.6290849609375,-0.8749542236328125,-0.1964569091796875,0.0114288330078125
1761838928215154700,0.63915478515625,-0.8834381103515625,-0.2130279541015625,0.009185791015625
1761838928225224700,0.649224609375,-0.8812255859375,-0.216339111328125,-0.000518798828125
1761838928235294700,0.659294677734375,-0.88348388671875,-0.210693359375,-0.015777587890625
1761838928245364700,0.66936474609375,-0.891448974609375,-0.2053985595703125,-0.03350830078125
1761838928255434800,0.679434814453125,-0.89813232421875,-0.20050048828125,-0.04864501953125
1761838928265504800,0.6895048828125,-0.904083251953125,-0.19476318359375,-0.0610504150390625
1761838928275574500,0.699574462890625,-0.9141998291015625,-0.1869964599609375,-0.06719970703125
1761838928285645300,0.709645263671875,-0.9273834228515625,-0.17364501953125,-0.07476806640625
1761838928295715300,0.71971533203125,-0.9341888427734375,-0.1590423583984375,-0.0792388916015625
1761838928305785300,0.729785400390625,-0.944091796875,-0.145477294921875,-0.077911376953125
1761838928315855400,0.73985546875,-0.950164794921875,-0.133575439453125,-0.076080322265625
1761838928325925400,0.74992529296875,-0.961090087890625,-0.1228179931640625,-0.06768798828125
1761838928335995400,0.759995361328125,-0.9787445068359375,-0.116973876953125,-0.0564727783203125
1761838928346065400,0.7700654296875,-0.9825439453125,-0.1115570068359375,-0.0508880615234375
1761838928356135400,0.780135498046875,-0.98095703125,-0.1039886474609375,-0.05291748046875
1761838928366205400,0.790205322265625,-0.9801177978515625,-0.1005096435546875,-0.0523223876953125
1761838928376275200,0.800275146484375,-0.984405517578125,-0.1073760986328125,-0.0484161376953125
1761838928386346200,0.81034619140625,-0.9986114501953125,-0.126922607421875,-0.0421295166015625
1761838928396416500,0.82041650390625,-1.0037689208984375,-0.1452484130859375,-0.049346923828125
1761838928406486300,0.830486328125,-1.0059356689453125,-0.1636505126953125,-0.0606689453125
1761838928416556300,0.840556396484375,-1.0082855224609375,-0.181182861328125,-0.077667236328125
1761838928426626600,0.85062646484375,-1.0140228271484375,-0.1963958740234375,-0.095428466796875
1761838928436696300,0.8606962890625,-1.0169219970703125,-0.21185302734375,-0.1096954345703125
1761838928446766300,0.870766357421875,-1.0126800537109375,-0.2205352783203125,-0.124114990234375
1761838928456836400,0.88083642578125,-1.0089111328125,-0.2226104736328125,-0.1375732421875
1761838928466906400,0.89090625,-0.9964752197265625,-0.227447509765625,-0.1462249755859375
1761838928476976400,0.900976318359375,-1.0057373046875,-0.2354583740234375,-0.1479034423828125
1761838928487047400,0.91104736328125,-1.0157318115234375,-0.236328125,-0.148193359375
1761838928497117200,0.9211171875,-1.0042266845703125,-0.225555419921875,-0.149383544921875
1761838928507187500,0.9311875,-0.996002197265625,-0.2154693603515625,-0.147247314453125
1761838928517257500,0.941257568359375,-0.999664306640625,-0.2140350341796875,-0.137939453125
1761838928527327200,0.9513271484375,-0.99755859375,-0.2155609130859375,-0.1250152587890625
1761838928537397500,0.9613974609375,-0.9928131103515625,-0.213287353515625,-0.116607666015625
1761838928547467500,0.971467529296875,-0.9869537353515625,-0.210357666015625,-0.1115264892578125
1761838928557537300,0.981537353515625,-0.9729766845703125,-0.2077789306640625,-0.10772705078125
1761838928567607300,0.991607177734375,-0.962005615234375,-0.2041168212890625,-0.1015777587890625
1761838928577677300,1.00167724609375,-0.9558563232421875,-0.205078125,-0.0909881591796875
1761838928587747300,1.011747314453125,-0.950347900390625,-0.213226318359375,-0.08026123046875
1761838928597818400,1.021818359375,-0.95452880859375,-0.2234039306640625,-0.0739593505859375
1761838928607888400,1.031888427734375,-0.9561004638671875,-0.226531982421875,-0.0724639892578125
1761838928617958400,1.04195849609375,-0.958465576171875,-0.2239837646484375,-0.07879638671875
1761838928628028400,1.0520283203125,-0.9655303955078125,-0.2249755859375,-0.0861968994140625
1761838928638098400,1.062098388671875,-0.974639892578125,-0.228363037109375,-0.0934906005859375
1761838928648168400,1.07216845703125,-0.978546142578125,-0.2331085205078125,-0.1033935546875
1761838928658238500,1.082238525390625,-0.98028564453125,-0.2388458251953125,-0.11016845703125
1761838928668308200,1.09230810546875,-0.9917449951171875,-0.2410736083984375,-0.110870361328125
1761838928678378200,1.102378173828125,-1.0096282958984375,-0.2373046875,-0.1076202392578125
1761838928688448500,1.112448486328125,-1.0248565673828125,-0.2332000732421875,-0.10321044921875
1761838928698519600,1.12251953125,-1.0417327880859375,-0.2274169921875,-0.0976715087890625
1761838928708589300,1.13258935546875,-1.058349609375,-0.2218780517578125,-0.08892822265625
1761838928718659300,1.142659423828125,-1.0680389404296875,-0.2214508056640625,-0.0766754150390625
1761838928728729300,1.152729248046875,-1.0742950439453125,-0.22503662109375,-0.0682373046875
1761838928738799400,1.16279931640625,-1.0839691162109375,-0.22711181640625,-0.064666748046875
1761838928748869400,1.172869384765625,-1.097076416015625,-0.2256622314453125,-0.071014404296875
1761838928758939400,1.182939453125,-1.0974273681640625,-0.22119140625,-0.0903472900390625
1761838928769009400,1.193009521484375,-1.08782958984375,-0.206024169921875,-0.111328125
1761838928779079400,1.203079345703125,-1.086395263671875,-0.1841888427734375,-0.1256103515625
1761838928789149200,1.213149169921875,-1.0863189697265625,-0.1622467041015625,-0.1278533935546875
1761838928799220200,1.22322021484375,-1.084686279296875,-0.1448516845703125,-0.1208953857421875
1761838928809290500,1.23329052734375,-1.0788421630859375,-0.12628173828125,-0.1120147705078125
1761838928819360300,1.2433603515625,-1.0663299560546875,-0.1049957275390625,-0.0997467041015625
1761838928829430300,1.25343017578125,-1.0577392578125,-0.0907440185546875,-0.0805206298828125
1761838928839500500,1.26350048828125,-1.0460052490234375,-0.0820770263671875,-0.057647705078125
1761838928849570300,1.2735703125,-1.02996826171875,-0.0778350830078125,-0.0325164794921875
1761838928859640300,1.283640380859375,-1.019317626953125,-0.0777435302734375,-0.0071868896484375
1761838928869710300,1.29371044921875,-1.0003509521484375,-0.083099365234375,0.00909423828125
1761838928879780400,1.3037802734375,-0.99365234375,-0.0916290283203125,0.0261993408203125
1761838928889851400,1.313851318359375,-0.9992523193359375,-0.1077423095703125,0.0444183349609375
1761838928899921400,1.32392138671875,-0.98944091796875,-0.1259307861328125,0.055999755859375
1761838928909991200,1.3339912109375,-0.9816131591796875,-0.139923095703125,0.0559539794921875
1761838928920061400,1.3440615234375,-0.9810333251953125,-0.1525726318359375,0.05029296875
1761838928930131500,1.35413134765625,-0.9725189208984375,-0.1590118408203125,0.0402679443359375
1761838928940201200,1.364201171875,-0.96099853515625,-0.15374755859375,0.0271148681640625
1761838928950271500,1.374271484375,-0.9523162841796875,-0.1497955322265625,0.01904296875
1761838928960341500,1.384341552734375,-0.92864990234375,-0.1477508544921875,0.012969970703125
1761838928970411300,1.394411376953125,-0.90203857421875,-0.1402740478515625,0.0146942138671875
1761838928980481300,1.404481201171875,-0.883697509765625,-0.135467529296875,0.0307464599609375
1761838928990552300,1.41455224609375,-0.8586578369140625,-0.1380462646484375,0.0491485595703125
1761838929000622300,1.424622314453125,-0.8332977294921875,-0.1342926025390625,0.06829833984375
1761838929010692400,1.4346923828125,-0.843994140625,-0.1461639404296875,0.098480224609375
1761838929020762400,1.444762451171875,-0.856903076171875,-0.149749755859375,0.1259918212890625
1761838929030832400,1.454832275390625,-0.8543853759765625,-0.14984130859375,0.1485137939453125
1761838929040902400,1.46490234375,-0.85797119140625,-0.15283203125,0.16119384765625
1761838929050972400,1.474972412109375,-0.8667755126953125,-0.1562042236328125,0.1685638427734375
1761838929061042400,1.48504248046875,-0.8753509521484375,-0.158477783203125,0.1703948974609375
1761838929071112400,1.495112548828125,-0.8924407958984375,-0.161834716796875,0.1681976318359375
1761838929081182500,1.505182373046875,-0.9106903076171875,-0.16400146484375,0.1610870361328125
1761838929091253200,1.515253173828125,-0.923248291015625,-0.1629791259765625,0.14678955078125
1761838929101323300,1.5253232421875,-0.9408416748046875,-0.1637725830078125,0.1300048828125
1761838929111393500,1.5353935546875,-0.9626617431640625,-0.1666717529296875,0.115234375
1761838929121463300,1.54546337890625,-0.9796600341796875,-0.167816162109375,0.10235595703125
1761838929131533300,1.555533203125,-0.9915771484375,-0.16259765625,0.0877838134765625
1761838929141603600,1.565603515625,-1.003936767578125,-0.15789794921875,0.0800323486328125
1761838929151673300,1.57567333984375,-1.012939453125,-0.1544036865234375,0.073974609375
1761838929161743400,1.585743408203125,-1.0169830322265625,-0.14874267578125,0.0645294189453125
1761838929171813400,1.5958134765625,-1.0087127685546875,-0.1417694091796875,0.0581512451171875
1761838929181883400,1.60588330078125,-1.006500244140625,-0.14019775390625,0.056427001953125
1761838929191954400,1.615954345703125,-1.0075225830078125,-0.142486572265625,0.060150146484375
1761838929202024400,1.6260244140625,-0.997314453125,-0.1440887451171875,0.0631561279296875
1761838929212094200,1.63609423828125,-0.9878692626953125,-0.14752197265625,0.06793212890625
1761838929222164500,1.64616455078125,-0.987579345703125,-0.1566162109375,0.0745391845703125
1761838929232234500,1.656234375,-0.9844207763671875,-0.1680145263671875,0.07647705078125
1761838929242304300,1.66630419921875,-0.9801025390625,-0.182952880859375,0.0789337158203125
1761838929252374500,1.67637451171875,-0.983551025390625,-0.2047271728515625,0.0818023681640625
1761838929262444300,1.6864443359375,-0.9805908203125,-0.2234344482421875,0.07745361328125
1761838929272514300,1.696514404296875,-0.9724273681640625,-0.2367095947265625,0.0702056884765625
1761838929282589400,1.70658935546875,-0.9687957763671875,-0.24853515625,0.064422607421875
1761838929292659500,1.716659423828125,-0.96099853515625,-0.2581787109375,0.05657958984375
1761838929302729500,1.7267294921875,-0.964508056640625,-0.2706451416015625,0.052032470703125
1761838929312799500,1.736799560546875,-0.9693450927734375,-0.2770538330078125,0.0450439453125
1761838929322869200,1.746869140625,-0.9668121337890625,-0.27960205078125,0.03790283203125
1761838929332939300,1.756939208984375,-0.9731903076171875,-0.2841949462890625,0.03179931640625
1761838929343009500,1.767009521484375,-0.98321533203125,-0.2884521484375,0.026763916015625
1761838929353079300,1.777079345703125,-0.9958038330078125,-0.2912750244140625,0.0228424072265625
1761838929363149300,1.7871494140625,-1.011383056640625,-0.2890625,0.0186614990234375
1761838929373219600,1.797219482421875,-1.0144805908203125,-0.2850341796875,0.0107879638671875
1761838929383290400,1.807290283203125,-1.016021728515625,-0.28045654296875,0.0059051513671875
1761838929393360400,1.8173603515625,-1.02667236328125,-0.276763916015625,0.0089263916015625
1761838929403430400,1.827430419921875,-1.03924560546875,-0.2721710205078125,0.0142059326171875
1761838929413500400,1.83750048828125,-1.0511627197265625,-0.2664794921875,0.0171661376953125
1761838929423570400,1.8475703125,-1.0575408935546875,-0.25701904296875,0.0178680419921875
1761838929433640400,1.857640380859375,-1.063507080078125,-0.2480926513671875,0.0179290771484375
1761838929443710200,1.867710205078125,-1.069976806640625,-0.240386962890625,0.0146026611328125
1761838929453780500,1.877780517578125,-1.078033447265625,-0.2337493896484375,0.0108642578125
1761838929463850500,1.8878505859375,-1.0721893310546875,-0.2328948974609375,0.0029296875
1761838929473921300,1.89792138671875,-1.0744781494140625,-0.224456787109375,-0.0000152587890625
1761838929483991300,1.9079912109375,-1.083984375,-0.2136383056640625,-0.000335693359375
1761838929494061600,1.9180615234375,-1.0854949951171875,-0.199951171875,0.00152587890625
1761838929504131300,1.92813134765625,-1.0780487060546875,-0.18951416015625,0.00506591796875
1761838929514201300,1.938201416015625,-1.0741729736328125,-0.1798553466796875,0.0054473876953125
1761838929524271600,1.948271728515625,-1.0662994384765625,-0.171142578125,0.00750732421875
1761838929534341400,1.95834130859375,-1.064666748046875,-0.1663970947265625,0.0094757080078125
1761838929544411400,1.968411376953125,-1.0632171630859375,-0.1650390625,0.01123046875
1761838929554481400,1.9784814453125,-1.05865478515625,-0.1634979248046875,0.008880615234375
1761838929564551400,1.988551513671875,-1.051116943359375,-0.16253662109375,0.0035247802734375
1761838929574622500,1.99862255859375,-1.0427093505859375,-0.161376953125,-0.0003662109375
1761838929584692500,2.0086923828125,-1.03924560546875,-0.162017822265625,-0.008026123046875
1761838929594762200,2.01876220703125,-1.0299835205078125,-0.1624298095703125,-0.0235443115234375
1761838929604832500,2.02883251953125,-1.0126495361328125,-0.1627349853515625,-0.0394134521484375
1761838929614902500,2.038902587890625,-0.9923248291015625,-0.164764404296875,-0.0589141845703125
1761838929624972300,2.04897216796875,-0.9512176513671875,-0.1597900390625,-0.0820159912109375
1761838929635042300,2.059042236328125,-0.9031219482421875,-0.1493377685546875,-0.10626220703125
1761838929645112600,2.069112548828125,-0.8589630126953125,-0.1400909423828125,-0.123748779296875
1761838929655182300,2.079182373046875,-0.828399658203125,-0.13739013671875,-0.13525390625
1761838929665253400,2.08925341796875,-0.8402252197265625,-0.1284637451171875,-0.1409912109375
1761838929675323400,2.099323486328125,-0.874969482421875,-0.111053466796875,-0.137847900390625
1761838929685393400,2.109393310546875,-0.8767242431640625,-0.0858154296875,-0.1437835693359375
1761838929695463400,2.11946337890625,-0.8450775146484375,-0.052215576171875,-0.1540985107421875
1761838929705533400,2.129533447265625,-0.83642578125,-0.0282135009765625,-0.1458282470703125
1761838929715603500,2.139603515625,-0.8432769775390625,-0.0199737548828125,-0.123077392578125
1761838929725673500,2.149673583984375,-0.8451690673828125,-0.0149383544921875,-0.0997314453125
1761838929735743200,2.1597431640625,-0.851104736328125,-0.011199951171875,-0.0916900634765625
1761838929745813200,2.169813232421875,-0.8653564453125,-0.0121917724609375,-0.0879058837890625
1761838929755884300,2.17988427734375,-0.8720703125,-0.019927978515625,-0.0904083251953125
1761838929765954600,2.18995458984375,-0.867645263671875,-0.020965576171875,-0.10211181640625
1761838929776024300,2.2000244140625,-0.8784637451171875,-0.0229339599609375,-0.1090850830078125
1761838929786094300,2.21009423828125,-0.89739990234375,-0.0308380126953125,-0.11260986328125
1761838929796164600,2.22016455078125,-0.90728759765625,-0.0382843017578125,-0.1114044189453125
1761838929806234400,2.230234375,-0.911285400390625,-0.0511474609375,-0.10595703125
1761838929816304400,2.240304443359375,-0.93121337890625,-0.0739898681640625,-0.091888427734375
1761838929826374400,2.25037451171875,-0.9601898193359375,-0.0988006591796875,-0.075836181640625
1761838929836444400,2.2604443359375,-0.9758758544921875,-0.122039794921875,-0.0596923828125
1761838929846514400,2.270514404296875,-1.00341796875,-0.1490325927734375,-0.052459716796875
1761838929856585500,2.28058544921875,-1.03466796875,-0.1765899658203125,-0.053558349609375
1761838929866655200,2.2906552734375,-1.061126708984375,-0.203460693359375,-0.0615692138671875
1761838929876725500,2.3007255859375,-1.0844879150390625,-0.218994140625,-0.082916259765625
1761838929886795500,2.31079541015625,-1.10028076171875,-0.22119140625,-0.108856201171875
1761838929896865300,2.320865234375,-1.1017913818359375,-0.2153472900390625,-0.1273956298828125
1761838929906935600,2.330935546875,-1.0813751220703125,-0.204559326171875,-0.14801025390625
1761838929917005300,2.34100537109375,-1.063262939453125,-0.1942138671875,-0.15667724609375
1761838929927075300,2.351075439453125,-1.0531158447265625,-0.1862640380859375,-0.148529052734375
1761838929937145300,2.361145263671875,-1.0495758056640625,-0.193756103515625,-0.128875732421875
1761838929947216400,2.37121630859375,-1.0290679931640625,-0.2046661376953125,-0.10784912109375
1761838929957286400,2.381286376953125,-1.011474609375,-0.2140960693359375,-0.0818939208984375
1761838929967356400,2.3913564453125,-0.9998321533203125,-0.21148681640625,-0.0571136474609375
1761838929977426200,2.40142626953125,-0.982635498046875,-0.2105712890625,-0.0445709228515625
1761838929987496400,2.411496337890625,-0.9538116455078125,-0.2025299072265625,-0.039825439453125
1761838929997566500,2.42156640625,-0.9315032958984375,-0.185821533203125,-0.043243408203125
1761838930007636200,2.43163623046875,-0.9081878662109375,-0.1717987060546875,-0.0446319580078125
1761838930017706500,2.44170654296875,-0.89654541015625,-0.16412353515625,-0.0428314208984375
1761838930027776500,2.451776611328125,-0.890380859375,-0.1587371826171875,-0.032989501953125
1761838930037847600,2.46184765625,-0.8808746337890625,-0.161773681640625,-0.0222015380859375
1761838930047917300,2.471917236328125,-0.8763275146484375,-0.166412353515625,-0.009796142578125
1761838930057987300,2.4819873046875,-0.874298095703125,-0.172332763671875,-0.0011138916015625
1761838930068057300,2.492057373046875,-0.862213134765625,-0.180206298828125,0.00311279296875
1761838930078127400,2.50212744140625,-0.859649658203125,-0.1884613037109375,0.00726318359375
1761838930088197400,2.512197265625,-0.8768310546875,-0.197113037109375,0.015411376953125
1761838930098267400,2.522267333984375,-0.8895416259765625,-0.205902099609375,0.022705078125
1761838930108337400,2.53233740234375,-0.896209716796875,-0.2133331298828125,0.0282135009765625
1761838930118407400,2.542407470703125,-0.904388427734375,-0.21795654296875,0.0326080322265625
1761838930128477400,2.5524775390625,-0.9185791015625,-0.2244873046875,0.0366668701171875
1761838930138548500,2.562548583984375,-0.9333038330078125,-0.235076904296875,0.0368804931640625
1761838930148618500,2.572618408203125,-0.9516143798828125,-0.2478485107421875,0.0377655029296875
1761838930158688300,2.582688232421875,-0.97686767578125,-0.2547760009765625,0.03173828125
1761838930168758300,2.59275830078125,-1.002838134765625,-0.2563018798828125,0.0171051025390625
1761838930178828500,2.60282861328125,-1.026947021484375,-0.253387451171875,0.00616455078125
1761838930188898300,2.612898193359375,-1.0408935546875,-0.247314453125,-0.0001983642578125
1761838930198968300,2.62296826171875,-1.0572509765625,-0.2382049560546875,-0.0126190185546875
1761838930209038600,2.63303857421875,-1.0777130126953125,-0.2238006591796875,-0.0227813720703125
1761838930219108400,2.6431083984375,-1.1053466796875,-0.2175140380859375,-0.0260467529296875
1761838930229179400,2.653179443359375,-1.1342926025390625,-0.2211151123046875,-0.0221710205078125
1761838930239249400,2.66324951171875,-1.1604156494140625,-0.2179107666015625,-0.0209808349609375
1761838930249319400,2.6733193359375,-1.1766510009765625,-0.20892333984375,-0.025146484375
1761838930259389400,2.683389404296875,-1.19384765625,-0.1944580078125,-0.0312347412109375
1761838930269459500,2.69345947265625,-1.2144775390625,-0.1769256591796875,-0.036102294921875
1761838930279524900,2.70352490234375,-1.22039794921875,-0.162109375,-0.039947509765625
1761838930289595000,2.713594970703125,-1.21002197265625,-0.140228271484375,-0.0425262451171875
1761838930299665000,2.723664794921875,-1.181182861328125,-0.113525390625,-0.0410308837890625
1761838930309735000,2.73373486328125,-1.145843505859375,-0.092315673828125,-0.0329437255859375
1761838930319806000,2.743805908203125,-1.1114501953125,-0.075103759765625,-0.012603759765625
1761838930329876000,2.7538759765625,-1.08135986328125,-0.0657501220703125,0.0091094970703125
1761838930339945700,2.76394580078125,-1.055908203125,-0.0722198486328125,0.0381927490234375
1761838930350016000,2.77401611328125,-1.0257110595703125,-0.071014404296875,0.0464324951171875
1761838930360086000,2.7840859375,-0.9916229248046875,-0.0678863525390625,0.0455780029296875
1761838930370155800,2.79415576171875,-0.972564697265625,-0.0777740478515625,0.052337646484375
1761838930380225800,2.804225830078125,-0.96435546875,-0.0953521728515625,0.0510711669921875
1761838930390295800,2.8142958984375,-0.9512939453125,-0.1116790771484375,0.04058837890625
1761838930400365800,2.82436572265625,-0.9344635009765625,-0.1231689453125,0.028533935546875
1761838930410436900,2.834436767578125,-0.9222869873046875,-0.13079833984375,0.0182952880859375
1761838930420507000,2.8445068359375,-0.910308837890625,-0.135040283203125,0.0123443603515625
1761838930430577000,2.854576904296875,-0.90216064453125,-0.14007568359375,0.0152587890625
1761838930440647000,2.86464697265625,-0.89794921875,-0.1483001708984375,0.024749755859375
1761838930450717000,2.874717041015625,-0.8877410888671875,-0.151580810546875,0.0352630615234375
1761838930460787000,2.884786865234375,-0.8970489501953125,-0.152313232421875,0.049163818359375
1761838930470857000,2.89485693359375,-0.9167633056640625,-0.1475830078125,0.0681610107421875
1761838930480926700,2.9049267578125,-0.9401092529296875,-0.13494873046875,0.0902252197265625
1761838930490996700,2.914996826171875,-0.95745849609375,-0.120819091796875,0.1110076904296875
1761838930501067800,2.92506787109375,-0.9765777587890625,-0.109375,0.13031005859375
1761838930511138000,2.935137939453125,-0.9908447265625,-0.1079254150390625,0.1461944580078125
1761838930521207800,2.945207763671875,-1.0003814697265625,-0.1018829345703125,0.1528472900390625
1761838930531277800,2.95527783203125,-0.997772216796875,-0.084014892578125,0.1488037109375
1761838930541348000,2.96534814453125,-0.99993896484375,-0.069549560546875,0.1400604248046875
1761838930551417900,2.97541796875,-1.0135650634765625,-0.0628204345703125,0.1316375732421875
1761838930561488000,2.98548779296875,-1.0187225341796875,-0.0583038330078125,0.1182098388671875
1761838930571558000,2.995557861328125,-1.0224609375,-0.0564117431640625,0.104278564453125
1761838930581628000,3.0056279296875,-1.0221405029296875,-0.057769775390625,0.0930023193359375
1761838930591698000,3.015697998046875,-1.01361083984375,-0.056915283203125,0.07989501953125
1761838930601769000,3.02576904296875,-1.000640869140625,-0.052703857421875,0.0714874267578125
1761838930611838700,3.035838623046875,-0.98516845703125,-0.0528717041015625,0.0666961669921875
1761838930621909000,3.045908935546875,-0.97076416015625,-0.058013916015625,0.0642852783203125
1761838930631978800,3.055978759765625,-0.9527740478515625,-0.0631561279296875,0.0658111572265625
1761838930642048800,3.066048828125,-0.932952880859375,-0.06671142578125,0.069305419921875
1761838930652119000,3.076119140625,-0.922454833984375,-0.0738677978515625,0.074066162109375
1761838930662188800,3.086188720703125,-0.912078857421875,-0.089202880859375,0.0786285400390625
1761838930672258800,3.0962587890625,-0.8985595703125,-0.101837158203125,0.0807952880859375
1761838930682328800,3.106328857421875,-0.8912200927734375,-0.1129302978515625,0.084075927734375
1761838930692399900,3.11639990234375,-0.8917999267578125,-0.126220703125,0.087066650390625
1761838930702470000,3.126469970703125,-0.904571533203125,-0.138519287109375,0.08807373046875
1761838930712540000,3.136539794921875,-0.9141693115234375,-0.149932861328125,0.0870361328125
1761838930722609700,3.146609619140625,-0.926025390625,-0.1586761474609375,0.083099365234375
1761838930732680000,3.156679931640625,-0.938751220703125,-0.1699676513671875,0.0814361572265625
1761838930742750000,3.16675,-0.9475555419921875,-0.1809234619140625,0.07684326171875
1761838930752819700,3.17681982421875,-0.956451416015625,-0.1891326904296875,0.0747528076171875
1761838930762890000,3.186889892578125,-0.9747467041015625,-0.200592041015625,0.0752105712890625
1761838930772960000,3.1969599609375,-0.9880523681640625,-0.2166900634765625,0.073150634765625
1761838930783030800,3.20703076171875,-1.0008697509765625,-0.220550537109375,0.06402587890625
1761838930793100800,3.217100830078125,-1.022308349609375,-0.22344970703125,0.05902099609375
1761838930803170800,3.2271708984375,-1.0557708740234375,-0.222808837890625,0.050323486328125
1761838930813240800,3.23724072265625,-1.0622100830078125,-0.2127532958984375,0.03460693359375
1761838930823310800,3.247310791015625,-1.0527801513671875,-0.19866943359375,0.015472412109375
1761838930833380900,3.257380859375,-1.060089111328125,-0.187347412109375,0.00628662109375
1761838930843451000,3.267450927734375,-1.0744171142578125,-0.1852569580078125,0.0067596435546875
1761838930853521000,3.27752099609375,-1.089141845703125,-0.1870574951171875,0.0106048583984375
1761838930863591000,3.2875908203125,-1.1023101806640625,-0.17608642578125,0.0160369873046875
1761838930873661000,3.297660888671875,-1.11724853515625,-0.1613922119140625,0.020294189453125
1761838930883732000,3.30773193359375,-1.1291351318359375,-0.1566925048828125,0.020751953125
1761838930893802000,3.317802001953125,-1.1344146728515625,-0.156982421875,0.0238037109375
1761838930903871700,3.327871826171875,-1.124053955078125,-0.1606292724609375,0.026611328125
1761838930913941800,3.337941650390625,-1.120269775390625,-0.1762847900390625,0.0291595458984375
1761838930924012000,3.348011962890625,-1.133758544921875,-0.1858062744140625,0.030975341796875
1761838930934081800,3.358081787109375,-1.13067626953125,-0.200531005859375,0.03912353515625
1761838930944151800,3.36815185546875,-1.1329193115234375,-0.227935791015625,0.0464630126953125
1761838930954222000,3.37822216796875,-1.1432037353515625,-0.24334716796875,0.03857421875
1761838930964292900,3.38829296875,-1.15216064453125,-0.23284912109375,0.0148773193359375
1761838930974363000,3.39836279296875,-1.1601104736328125,-0.2154998779296875,-0.0191650390625
1761838930984433000,3.408432861328125,-1.1740875244140625,-0.2024078369140625,-0.0486602783203125
1761838930994502700,3.418502685546875,-1.17425537109375,-0.1848297119140625,-0.072662353515625
1761838931004573000,3.428572998046875,-1.160980224609375,-0.154937744140625,-0.0972442626953125
1761838931014643000,3.438642822265625,-1.1435546875,-0.1253509521484375,-0.111663818359375
1761838931024712700,3.448712646484375,-1.1104278564453125,-0.1085052490234375,-0.110809326171875
1761838931034783000,3.458782958984375,-1.0962066650390625,-0.107086181640625,-0.0963897705078125
1761838931044853000,3.46885302734375,-1.0912628173828125,-0.119659423828125,-0.0725555419921875
1761838931054923800,3.478923828125,-1.0734405517578125,-0.1255035400390625,-0.0556488037109375
1761838931064993800,3.488993896484375,-1.0279541015625,-0.12750244140625,-0.057769775390625
1761838931075064000,3.49906396484375,-0.978424072265625,-0.133941650390625,-0.0580291748046875
1761838931085133800,3.5091337890625,-0.9143829345703125,-0.1314544677734375,-0.0632781982421875
1761838931095203800,3.519203857421875,-0.8528289794921875,-0.12188720703125,-0.0513153076171875
1761838931105273900,3.52927392578125,-0.8148193359375,-0.1166229248046875,-0.029052734375
1761838931115344000,3.53934375,-0.780609130859375,-0.1148834228515625,-0.0055389404296875
1761838931125414000,3.549413818359375,-0.7470550537109375,-0.11614990234375,0.019317626953125
1761838931135484000,3.55948388671875,-0.74267578125,-0.1304473876953125,0.05029296875
1761838931145554700,3.5695546875,-0.75836181640625,-0.143585205078125,0.0793304443359375
1761838931155625000,3.579625,-0.7825927734375,-0.15826416015625,0.10400390625
1761838931165695000,3.589695068359375,-0.8079681396484375,-0.1763763427734375,0.1181793212890625
1761838931175764700,3.5997646484375,-0.8055572509765625,-0.1830596923828125,0.105255126953125
1761838931185835000,3.6098349609375,-0.78167724609375,-0.1765289306640625,0.0741119384765625
1761838931195905000,3.619905029296875,-0.78680419921875,-0.1740264892578125,0.0477142333984375
1761838931205974800,3.629974853515625,-0.8195648193359375,-0.1746368408203125,0.033416748046875
1761838931216044800,3.640044921875,-0.832672119140625,-0.16986083984375,0.0212554931640625
1761838931226114800,3.65011474609375,-0.8332672119140625,-0.1622772216796875,0.0092620849609375
1761838931236185900,3.660185791015625,-0.8438720703125,-0.154296875,0.0056304931640625
1761838931246255900,3.670255859375,-0.85821533203125,-0.1637115478515625,0.0097503662109375
1761838931256326000,3.680325927734375,-0.8880767822265625,-0.1912841796875,0.0252685546875
1761838931266396000,3.69039599609375,-0.9315948486328125,-0.22674560546875,0.0457000732421875
1761838931276466000,3.7004658203125,-0.9631195068359375,-0.2651824951171875,0.054412841796875
1761838931286536000,3.710535888671875,-0.976531982421875,-0.2859954833984375,0.050201416015625
1761838931296606000,3.72060595703125,-0.983062744140625,-0.3008575439453125,0.050140380859375
1761838931306676000,3.730676025390625,-0.99169921875,-0.324493408203125,0.05291748046875
1761838931316746000,3.74074609375,-0.9975128173828125,-0.334930419921875,0.0501556396484375
1761838931326817000,3.750817138671875,-0.9876708984375,-0.328948974609375,0.042938232421875
1761838931336886800,3.76088671875,-0.9757537841796875,-0.32501220703125,0.047149658203125
1761838931346957000,3.77095703125,-0.9632415771484375,-0.3270263671875,0.06439208984375
1761838931357027000,3.781027099609375,-0.9437713623046875,-0.3303680419921875,0.0849609375
1761838931367096800,3.791096923828125,-0.925811767578125,-0.32568359375,0.1047821044921875
1761838931377167000,3.8011669921875,-0.9195556640625,-0.319976806640625,0.1238250732421875
1761838931387237000,3.811237060546875,-0.9156036376953125,-0.3114776611328125,0.140472412109375
1761838931397307000,3.821306884765625,-0.90777587890625,-0.3045654296875,0.151214599609375
1761838931407377000,3.831376953125,-0.904571533203125,-0.291015625,0.1572418212890625
1761838931417448000,3.841447998046875,-0.8984222412109375,-0.2678070068359375,0.1603240966796875
1761838931427518000,3.85151806640625,-0.9019775390625,-0.2462615966796875,0.1696319580078125
1761838931437588000,3.861587890625,-0.90460205078125,-0.223114013671875,0.175384521484375
1761838931447658000,3.871657958984375,-0.8958282470703125,-0.2110137939453125,0.18414306640625
1761838931457728000,3.88172802734375,-0.882843017578125,-0.20599365234375,0.198272705078125
1761838931467798000,3.891798095703125,-0.888671875,-0.1971282958984375,0.2105865478515625
1761838931477868000,3.901867919921875,-0.9165802001953125,-0.187835693359375,0.222747802734375
1761838931487938000,3.91193798828125,-0.9340667724609375,-0.186004638671875,0.2357025146484375
1761838931498008000,3.922008056640625,-0.9789886474609375,-0.1839447021484375,0.251556396484375
1761838931508079000,3.9320791015625,-1.0137939453125,-0.1595611572265625,0.2458953857421875
1761838931518148900,3.94214892578125,-1.01800537109375,-0.1176300048828125,0.22314453125
1761838931528219000,3.952218994140625,-1.0448150634765625,-0.08660888671875,0.2050628662109375
1761838931538289200,3.9622890625,-1.0751800537109375,-0.0699462890625,0.1904296875
1761838931548359000,3.97235888671875,-1.1014862060546875,-0.0469207763671875,0.1725616455078125
1761838931558429000,3.982428955078125,-1.09912109375,-0.0153350830078125,0.1506805419921875
1761838931568499200,3.992499267578125,-1.1061248779296875,0.008209228515625,0.1323394775390625
1761838931578569000,4.00256884765625,-1.1074676513671875,0.0245819091796875,0.116912841796875
1761838931588637000,4.012636962890625,-1.1087799072265625,0.0414276123046875,0.1054229736328125
1761838931598707000,4.02270703125,-1.107025146484375,0.0576629638671875,0.09552001953125
1761838931608777000,4.03277685546875,-1.0996856689453125,0.0712127685546875,0.0874176025390625
1761838931618848000,4.042847900390625,-1.0883026123046875,0.0808868408203125,0.0818023681640625
1761838931628918000,4.05291796875,-1.0728607177734375,0.094696044921875,0.071685791015625
1761838931638988000,4.062988037109375,-1.05706787109375,0.100494384765625,0.0643310546875
1761838931649058000,4.07305810546875,-1.044403076171875,0.1021575927734375,0.0592193603515625
1761838931659128000,4.083128173828125,-1.0336761474609375,0.106292724609375,0.0510406494140625
1761838931669198000,4.093197998046875,-1.026275634765625,0.1090850830078125,0.0398712158203125
1761838931679267800,4.103267822265625,-1.0160675048828125,0.1072540283203125,0.0242919921875
1761838931689337900,4.113337890625,-1.005615234375,0.1083221435546875,0.0115509033203125
1761838931699408100,4.123408203125,-0.98748779296875,0.11627197265625,-0.0072021484375
1761838931709479200,4.133479248046875,-0.968414306640625,0.1227264404296875,-0.0213165283203125
1761838931719549000,4.143548828125,-0.944732666015625,0.130126953125,-0.02880859375
1761838931729619000,4.153618896484375,-0.91583251953125,0.130401611328125,-0.028350830078125
1761838931739689000,4.16368896484375,-0.8874664306640625,0.127044677734375,-0.01885986328125
1761838931749759000,4.173759033203125,-0.875762939453125,0.123931884765625,-0.0043487548828125
1761838931759829000,4.1838291015625,-0.8666839599609375,0.1179046630859375,0.013031005859375
1761838931769899000,4.19389892578125,-0.8495330810546875,0.1114501953125,0.0281524658203125
1761838931779969000,4.203968994140625,-0.860198974609375,0.11181640625,0.04901123046875
1761838931790040000,4.2140400390625,-0.8758544921875,0.106414794921875,0.0691986083984375
1761838931800110000,4.224110107421875,-0.8839874267578125,0.1038970947265625,0.0901947021484375
1761838931810179800,4.234179931640625,-0.9019622802734375,0.11029052734375,0.10595703125
1761838931820250000,4.24425,-0.9261932373046875,0.116851806640625,0.1184234619140625
1761838931830319900,4.25431982421875,-0.9536590576171875,0.1203765869140625,0.1331787109375
1761838931840390000,4.264389892578125,-0.98895263671875,0.12127685546875,0.1451873779296875
1761838931850460200,4.274460205078125,-1.022308349609375,0.1163177490234375,0.1519012451171875
1761838931860530000,4.284530029296875,-1.0585174560546875,0.1139068603515625,0.150421142578125
1761838931870600000,4.294599853515625,-1.0932769775390625,0.1162261962890625,0.1374969482421875
1761838931880671000,4.3046708984375,-1.133087158203125,0.1200103759765625,0.123382568359375
1761838931890741000,4.314740966796875,-1.1914215087890625,0.1292724609375,0.1153564453125
1761838931900811000,4.32481103515625,-1.25408935546875,0.1384124755859375,0.1077728271484375
1761838931910881000,4.334881103515625,-1.30084228515625,0.1434326171875,0.1081695556640625
1761838931920950800,4.34495068359375,-1.3390045166015625,0.1547698974609375,0.1143341064453125
1761838931931021000,4.35502099609375,-1.3685302734375,0.166046142578125,0.1190185546875
1761838931941091000,4.365091064453125,-1.383514404296875,0.1761932373046875,0.12384033203125
1761838931951160800,4.375160888671875,-1.38348388671875,0.183807373046875,0.1328277587890625
1761838931961231000,4.385231201171875,-1.36456298828125,0.1934967041015625,0.13458251953125
1761838931971302100,4.39530224609375,-1.3318023681640625,0.195526123046875,0.1334228515625
1761838931981372000,4.405371826171875,-1.2985382080078125,0.1875,0.1354217529296875
1761838931991442000,4.41544189453125,-1.269012451171875,0.17620849609375,0.1387481689453125
1761838932001512000,4.425511962890625,-1.231109619140625,0.1656494140625,0.1448211669921875
1761838932011582000,4.43558203125,-1.1995697021484375,0.1586151123046875,0.1482391357421875
1761838932021652000,4.44565185546875,-1.16046142578125,0.1519775390625,0.1489410400390625
1761838932031722000,4.455721923828125,-1.1099853515625,0.1444549560546875,0.145233154296875
1761838932041792000,4.4657919921875,-1.064697265625,0.1359100341796875,0.1423187255859375
1761838932051863000,4.475863037109375,-1.0214691162109375,0.125152587890625,0.143798828125
1761838932061933000,4.48593310546875,-0.9909515380859375,0.1126556396484375,0.14971923828125
1761838932072002800,4.4960029296875,-0.9676513671875,0.096954345703125,0.1531982421875
1761838932082073000,4.506072998046875,-0.951385498046875,0.08526611328125,0.1617431640625
1761838932092143000,4.51614306640625,-0.9478302001953125,0.0748291015625,0.1732177734375
1761838932102212900,4.526212890625,-0.9435272216796875,0.06854248046875,0.1858978271484375
1761838932112283000,4.536282958984375,-0.9413299560546875,0.0644683837890625,0.187530517578125
1761838932122353200,4.546353271484375,-0.9413604736328125,0.0616607666015625,0.181488037109375
1761838932132423000,4.5564228515625,-0.9469757080078125,0.0640716552734375,0.1784820556640625
1761838932142494000,4.566493896484375,-0.951904296875,0.06268310546875,0.1768646240234375
1761838932152564000,4.57656396484375,-0.9588775634765625,0.0648345947265625,0.1750640869140625
1761838932162634000,4.586634033203125,-0.9668731689453125,0.0688323974609375,0.1759185791015625
1761838932172704000,4.5967041015625,-0.9735565185546875,0.062744140625,0.1770172119140625
1761838932182774000,4.60677392578125,-0.977142333984375,0.067291259765625,0.16387939453125
1761838932192844000,4.616843994140625,-0.97454833984375,0.0764312744140625,0.1445159912109375
1761838932202914000,4.6269140625,-0.979522705078125,0.0841064453125,0.1307525634765625
1761838932212984000,4.636984130859375,-0.989776611328125,0.09124755859375,0.1150360107421875
1761838932223053800,4.6470537109375,-0.991119384765625,0.08544921875,0.0988006591796875
1761838932233124000,4.6571240234375,-0.9944915771484375,0.072113037109375,0.0885772705078125
1761838932243195100,4.667195068359375,-1.0152435302734375,0.0553741455078125,0.0729827880859375
1761838932253265000,4.677264892578125,-1.037750244140625,0.036468505859375,0.04595947265625
1761838932263335000,4.6873349609375,-1.0323486328125,0.01080322265625,0.0211029052734375
1761838932273405200,4.6974052734375,-1.004425048828125,-0.000732421875,-0.006561279296875
1761838932283476000,4.70747607421875,-0.9766387939453125,-0.0313720703125,-0.03173828125
1761838932293546000,4.7175458984375,-0.9452362060546875,-0.0876312255859375,-0.0414276123046875
1761838932303615700,4.72761572265625,-0.9161834716796875,-0.1129302978515625,-0.018310546875
1761838932313686000,4.73768603515625,-0.9141082763671875,-0.1327056884765625,0.013092041015625
1761838932323757000,4.747757080078125,-0.9180908203125,-0.1735992431640625,0.0360260009765625
1761838932333826800,4.757826904296875,-0.898681640625,-0.2035064697265625,0.055572509765625
1761838932343896800,4.767896728515625,-0.89599609375,-0.2198486328125,0.0572967529296875
1761838932353966800,4.777966796875,-0.900634765625,-0.22442626953125,0.050628662109375
1761838932364036900,4.788036865234375,-0.8959197998046875,-0.22900390625,0.0311737060546875
1761838932374107000,4.79810693359375,-0.8858489990234375,-0.2274322509765625,0.000396728515625
1761838932384177000,4.808177001953125,-0.8719329833984375,-0.22296142578125,-0.0183868408203125
1761838932394247000,4.818246826171875,-0.8632965087890625,-0.2269439697265625,-0.0207977294921875
1761838932404317000,4.82831689453125,-0.861724853515625,-0.2288970947265625,-0.0143280029296875
1761838932414388000,4.838387939453125,-0.8706817626953125,-0.2205047607421875,-0.0014801025390625
1761838932424457700,4.848457763671875,-0.8810272216796875,-0.20208740234375,0.0135498046875
1761838932434528000,4.858528076171875,-0.9111785888671875,-0.2052001953125,0.0354461669921875
1761838932444598000,4.868597900390625,-0.9473724365234375,-0.2136688232421875,0.06494140625
1761838932454667800,4.878667724609375,-0.9757843017578125,-0.2061767578125,0.0881500244140625
1761838932464737800,4.88873779296875,-1.014251708984375,-0.196533203125,0.1002655029296875
1761838932474808000,4.89880810546875,-1.050933837890625,-0.2009124755859375,0.104339599609375
1761838932484877800,4.9088779296875,-1.0731048583984375,-0.2090911865234375,0.0936279296875
1761838932494947800,4.91894775390625,-1.087432861328125,-0.2037200927734375,0.0689239501953125
1761838932505019000,4.929018798828125,-1.11663818359375,-0.183929443359375,0.0417327880859375
1761838932515089000,4.9390888671875,-1.1396484375,-0.153350830078125,0.015777587890625
1761838932525159000,4.949158935546875,-1.155029296875,-0.1145782470703125,-0.0093231201171875
1761838932535229000,4.95922900390625,-1.1644439697265625,-0.0759429931640625,-0.034027099609375
1761838932545298700,4.969298583984375,-1.1672515869140625,-0.0493316650390625,-0.048797607421875
1761838932555369000,4.979368896484375,-1.156646728515625,-0.0371246337890625,-0.0474090576171875
1761838932565438700,4.989438720703125,-1.1420440673828125,-0.0294647216796875,-0.04779052734375
1761838932575508700,4.9995087890625,-1.1097259521484375,-0.0188140869140625,-0.0586090087890625
1761838932585579000,5.0095791015625,-1.0828704833984375,-0.01025390625,-0.066070556640625
1761838932595650000,5.019650146484375,-1.0439910888671875,-0.00738525390625,-0.0794830322265625
1761838932605719800,5.0297197265625,-0.990478515625,-0.0081634521484375,-0.0917510986328125
1761838932615789800,5.039789794921875,-0.9578399658203125,-0.0074462890625,-0.099029541015625
1761838932625860000,5.049860107421875,-0.9596710205078125,-0.012237548828125,-0.09344482421875
1761838932635929900,5.059929931640625,-0.9639129638671875,-0.0141143798828125,-0.0913238525390625
1761838932645999900,5.069999755859375,-0.9439544677734375,0.0020904541015625,-0.0927581787109375
1761838932656069600,5.080069580078125,-0.917449951171875,0.017608642578125,-0.09503173828125
1761838932666140000,5.090139892578125,-0.9048919677734375,0.0148773193359375,-0.0909576416015625
1761838932676210000,5.1002099609375,-0.9013519287109375,0.0005340576171875,-0.0837249755859375
1761838932686281000,5.110281005859375,-0.903411865234375,-0.018280029296875,-0.0817718505859375
1761838932696350700,5.120350830078125,-0.9019775390625,-0.04461669921875,-0.0819854736328125
1761838932706421000,5.1304208984375,-0.88970947265625,-0.065704345703125,-0.0897674560546875
1761838932716490800,5.14049072265625,-0.8843536376953125,-0.076812744140625,-0.0980987548828125
1761838932726560800,5.150560791015625,-0.883758544921875,-0.086090087890625,-0.105133056640625
1761838932736631000,5.160631103515625,-0.8888702392578125,-0.09912109375,-0.1107635498046875
1761838932746700800,5.17070068359375,-0.888946533203125,-0.1183929443359375,-0.1088104248046875
1761838932756770800,5.180770751953125,-0.8797454833984375,-0.1312713623046875,-0.104248046875
1761838932766840800,5.1908408203125,-0.882598876953125,-0.1470794677734375,-0.0954132080078125
1761838932776910800,5.200910888671875,-0.8889923095703125,-0.1668853759765625,-0.0855865478515625
1761838932786982000,5.21098193359375,-0.8949432373046875,-0.190277099609375,-0.074310302734375
1761838932797052000,5.221052001953125,-0.9024810791015625,-0.2091827392578125,-0.0699005126953125
1761838932807121700,5.23112158203125,-0.9044036865234375,-0.22430419921875,-0.072601318359375
1761838932817192000,5.24119189453125,-0.90985107421875,-0.2391510009765625,-0.07818603515625
1761838932827262000,5.251261962890625,-0.9219207763671875,-0.257781982421875,-0.0854949951171875
1761838932837331700,5.261331787109375,-0.925079345703125,-0.271270751953125,-0.0912933349609375
1761838932847402000,5.271402099609375,-0.937408447265625,-0.2854461669921875,-0.0916290283203125
1761838932857472000,5.281471923828125,-0.96514892578125,-0.301666259765625,-0.08917236328125
1761838932867541800,5.291541748046875,-0.978790283203125,-0.3159332275390625,-0.08526611328125
1761838932877612800,5.30161279296875,-0.9900665283203125,-0.332427978515625,-0.0759124755859375
1761838932887682800,5.311682861328125,-1.01434326171875,-0.353790283203125,-0.0611419677734375
1761838932897752800,5.3217529296875,-1.0385894775390625,-0.3635406494140625,-0.0520172119140625
1761838932907822800,5.33182275390625,-1.0631561279296875,-0.3602447509765625,-0.050048828125
1761838932917892900,5.341892822265625,-1.0863800048828125,-0.34716796875,-0.0512542724609375
1761838932927963000,5.351962890625,-1.10003662109375,-0.3293609619140625,-0.0517578125
1761838932938033000,5.362032958984375,-1.1247711181640625,-0.316192626953125,-0.0479736328125
1761838932948103000,5.37210302734375,-1.1480865478515625,-0.3004302978515625,-0.0426788330078125
1761838932958172700,5.382172607421875,-1.1558990478515625,-0.2810516357421875,-0.0400543212890625
1761838932968243700,5.39224365234375,-1.1654815673828125,-0.2667999267578125,-0.034881591796875
1761838932978314000,5.40231396484375,-1.1685028076171875,-0.2584991455078125,-0.022674560546875
1761838932988383700,5.4123837890625,-1.1524810791015625,-0.253662109375,-0.00439453125
1761838932998453800,5.422453857421875,-1.1528472900390625,-0.2484283447265625,0.0106201171875
1761838933008524000,5.43252392578125,-1.1779632568359375,-0.227325439453125,0.0020904541015625
1761838933018593800,5.44259375,-1.2273712158203125,-0.1981353759765625,-0.00201416015625
1761838933028663800,5.452663818359375,-1.2657470703125,-0.1520843505859375,-0.0165252685546875
1761838933038734000,5.462734130859375,-1.233062744140625,-0.0753936767578125,-0.057159423828125
1761838933048803800,5.472803955078125,-1.2027740478515625,-0.009033203125,-0.0780181884765625
1761838933058873900,5.482873779296875,-1.1606903076171875,0.0120086669921875,-0.0644073486328125
1761838933068945000,5.49294482421875,-1.112030029296875,0.0100555419921875,-0.0335235595703125
1761838933079014700,5.5030146484375,-1.084320068359375,0.0109405517578125,0.0038909912109375
1761838933089085000,5.5130849609375,-1.046112060546875,0.01007080078125,0.0232086181640625
1761838933099155000,5.523155029296875,-0.9814300537109375,0.00958251953125,0.0405426025390625
1761838933109224700,5.533224609375,-0.9114990234375,0.00811767578125,0.050323486328125
1761838933119295000,5.543294921875,-0.8449554443359375,-0.01715087890625,0.07049560546875
1761838933129365000,5.553364990234375,-0.8015594482421875,-0.0743865966796875,0.112091064453125
1761838933139434800,5.563434814453125,-0.78460693359375,-0.1440582275390625,0.1719207763671875
1761838933149505000,5.573505126953125,-0.7727508544921875,-0.203460693359375,0.23138427734375
1761838933159574800,5.58357470703125,-0.770721435546875,-0.254364013671875,0.281646728515625
1761838933169645800,5.593645751953125,-0.78021240234375,-0.2828826904296875,0.325408935546875
1761838933179715800,5.6037158203125,-0.8061065673828125,-0.2856292724609375,0.3419036865234375
1761838933189785900,5.613785888671875,-0.824493408203125,-0.271453857421875,0.341949462890625
1761838933199855900,5.62385595703125,-0.8441925048828125,-0.2530059814453125,0.3393707275390625
1761838933209926000,5.63392578125,-0.871063232421875,-0.228363037109375,0.33563232421875
1761838933219996000,5.643995849609375,-0.9074859619140625,-0.199920654296875,0.333251953125
1761838933230066000,5.65406591796875,-0.9541168212890625,-0.17791748046875,0.329132080078125
1761838933240136000,5.664135986328125,-0.9879608154296875,-0.156829833984375,0.3121185302734375
1761838933250205700,5.674205810546875,-1.00848388671875,-0.1362762451171875,0.290985107421875
1761838933260276700,5.68427685546875,-1.033721923828125,-0.12005615234375,0.2655487060546875
1761838933270346800,5.6943466796875,-1.0387725830078125,-0.0851287841796875,0.2250518798828125
1761838933280417000,5.7044169921875,-1.0230560302734375,-0.06005859375,0.1818084716796875
1761838933290486500,5.714486572265625,-0.9979705810546875,-0.0455780029296875,0.1501312255859375
1761838933300556500,5.724556640625,-0.967864990234375,-0.0457916259765625,0.131103515625
1761838933310626800,5.734626708984375,-0.9367828369140625,-0.0561065673828125,0.129302978515625
1761838933320696600,5.744696533203125,-0.9238739013671875,-0.0701446533203125,0.149993896484375
1761838933330766600,5.7547666015625,-0.9071502685546875,-0.08734130859375,0.1719818115234375
1761838933340836900,5.7648369140625,-0.8644256591796875,-0.0993804931640625,0.1745758056640625
1761838933350906600,5.77490673828125,-0.844207763671875,-0.1226348876953125,0.1808319091796875
1761838933360977700,5.784977783203125,-0.847686767578125,-0.14019775390625,0.1975860595703125
1761838933371047700,5.795047607421875,-0.8486175537109375,-0.15020751953125,0.2081146240234375
1761838933381117700,5.80511767578125,-0.848663330078125,-0.1629180908203125,0.210662841796875
1761838933391187700,5.815187744140625,-0.8487548828125,-0.1656341552734375,0.2025604248046875
1761838933401257700,5.8252578125,-0.846343994140625,-0.1614990234375,0.18902587890625
1761838933411327500,5.835327392578125,-0.854766845703125,-0.1612701416015625,0.1800689697265625
1761838933421397800,5.845397705078125,-0.8676605224609375,-0.168365478515625,0.1728973388671875
1761838933431467800,5.8554677734375,-0.8853607177734375,-0.178558349609375,0.1690521240234375
1761838933441537500,5.86553759765625,-0.9121856689453125,-0.1880645751953125,0.1655120849609375
1761838933451607800,5.87560791015625,-0.929107666015625,-0.1929473876953125,0.1619415283203125
1761838933461678800,5.885678955078125,-0.9505462646484375,-0.1948699951171875,0.1606292724609375
1761838933471748600,5.89574853515625,-0.9702606201171875,-0.20025634765625,0.16253662109375
1761838933481818600,5.905818603515625,-0.9836883544921875,-0.2125244140625,0.167205810546875
1761838933491888600,5.915888671875,-1.002899169921875,-0.2226715087890625,0.1673126220703125
1761838933501958700,5.925958740234375,-1.0280609130859375,-0.2331390380859375,0.1688079833984375
1761838933512028700,5.936028564453125,-1.0572357177734375,-0.238983154296875,0.16180419921875
1761838933522098400,5.946098388671875,-1.079681396484375,-0.2360687255859375,0.147979736328125
1761838933532168700,5.956168701171875,-1.0816802978515625,-0.233642578125,0.129669189453125
1761838933542238700,5.96623876953125,-1.0886688232421875,-0.237945556640625,0.1161956787109375
1761838933552308500,5.97630859375,-1.0885772705078125,-0.24444580078125,0.1155853271484375
1761838933562379500,5.986379638671875,-1.0913543701171875,-0.2524261474609375,0.1168670654296875
1761838933572449800,5.99644970703125,-1.1190338134765625,-0.2319183349609375,0.1120758056640625
1761838933582519800,6.006519775390625,-1.1542205810546875,-0.2100982666015625,0.1119384765625
1761838933592589600,6.016589599609375,-1.1711883544921875,-0.2205657958984375,0.1074676513671875
1761838933602659600,6.02665966796875,-1.187774658203125,-0.2249603271484375,0.0911712646484375
1761838933612729600,6.0367294921875,-1.192474365234375,-0.206329345703125,0.0623626708984375
1761838933622799600,6.046799560546875,-1.1685028076171875,-0.190765380859375,0.024993896484375
1761838933632869600,6.05686962890625,-1.1364288330078125,-0.17425537109375,-0.012359619140625
1761838933642939600,6.066939697265625,-1.1250457763671875,-0.1494598388671875,-0.0411529541015625
1761838933653009700,6.077009765625,-1.0990447998046875,-0.117706298828125,-0.0660400390625
1761838933663079700,6.08707958984375,-1.0828399658203125,-0.10931396484375,-0.0737762451171875
1761838933673150500,6.097150390625,-1.074005126953125,-0.11175537109375,-0.070709228515625
1761838933683220700,6.107220703125,-1.0623931884765625,-0.1141357421875,-0.0633087158203125
1761838933693290800,6.117290771484375,-1.0412139892578125,-0.1288299560546875,-0.050567626953125
1761838933703360500,6.127360595703125,-1.0057830810546875,-0.1412353515625,-0.0368804931640625
1761838933713430500,6.137430419921875,-0.959381103515625,-0.14654541015625,-0.029998779296875
1761838933723500800,6.147500732421875,-0.9129180908203125,-0.1480712890625,-0.0235137939453125
1761838933733570600,6.157570556640625,-0.871185302734375,-0.15087890625,-0.0223541259765625
1761838933743640600,6.167640625,-0.841644287109375,-0.1495361328125,-0.0205230712890625
1761838933753710800,6.1777109375,-0.838958740234375,-0.149505615234375,-0.0072021484375
1761838933763780600,6.187780517578125,-0.8344573974609375,-0.14459228515625,0.001983642578125
1761838933773851600,6.1978515625,-0.8394927978515625,-0.146453857421875,0.0110321044921875
1761838933783921700,6.207921630859375,-0.8475799560546875,-0.1527252197265625,0.014312744140625
1761838933793991700,6.21799169921875,-0.8583526611328125,-0.1613922119140625,0.015106201171875
1761838933804061700,6.228061767578125,-0.87103271484375,-0.171417236328125,-0.0001068115234375
1761838933814131700,6.238131591796875,-0.8727264404296875,-0.1702880859375,-0.036956787109375
1761838933824201500,6.248201416015625,-0.888336181640625,-0.1621246337890625,-0.0725555419921875
1761838933834271700,6.258271728515625,-0.910369873046875,-0.15283203125,-0.0973968505859375
1761838933844341800,6.268341796875,-0.927520751953125,-0.14947509765625,-0.121795654296875
1761838933854411500,6.27841162109375,-0.93707275390625,-0.1443023681640625,-0.141387939453125
1761838933864481800,6.288481689453125,-0.9418792724609375,-0.13311767578125,-0.154022216796875
1761838933874551600,6.298551513671875,-0.95574951171875,-0.12322998046875,-0.1572723388671875
1761838933884622600,6.30862255859375,-0.98126220703125,-0.121307373046875,-0.15167236328125
1761838933894692600,6.318692626953125,-0.9997711181640625,-0.1409454345703125,-0.1399078369140625
1761838933904762600,6.3287626953125,-0.9990386962890625,-0.1772003173828125,-0.130859375
1761838933914832600,6.33883251953125,-1.0018310546875,-0.2269439697265625,-0.1138763427734375
1761838933924902700,6.348902587890625,-1.0130462646484375,-0.2749176025390625,-0.0888671875
1761838933934972700,6.35897265625,-1.017120361328125,-0.3096771240234375,-0.069549560546875
1761838933945042700,6.369042724609375,-1.004302978515625,-0.3346405029296875,-0.0645294189453125
1761838933955112700,6.37911279296875,-0.99615478515625,-0.3473052978515625,-0.049896240234375
1761838933965182500,6.389182373046875,-0.999298095703125,-0.3422698974609375,-0.0448760986328125
1761838933975252700,6.399252685546875,-0.98291015625,-0.33074951171875,-0.0445556640625
1761838933985322800,6.40932275390625,-0.9568634033203125,-0.31988525390625,-0.0408477783203125
1761838933995393800,6.419393798828125,-0.9317474365234375,-0.3065643310546875,-0.0269317626953125
1761838934005463600,6.429463623046875,-0.9121856689453125,-0.298919677734375,0.002532958984375
1761838934015533600,6.439533447265625,-0.9010009765625,-0.29052734375,0.028594970703125
1761838934025603800,6.449603759765625,-0.8941497802734375,-0.27899169921875,0.048583984375
1761838934035673600,6.459673583984375,-0.885101318359375,-0.2756195068359375,0.057403564453125
1761838934045743600,6.46974365234375,-0.8814544677734375,-0.2736358642578125,0.0686798095703125
1761838934055813600,6.479813720703125,-0.8871917724609375,-0.27899169921875,0.075897216796875
1761838934065883600,6.489883544921875,-0.8870697021484375,-0.2790985107421875,0.0755767822265625
1761838934075953700,6.49995361328125,-0.8853607177734375,-0.2757415771484375,0.0694427490234375
1761838934086023700,6.510023681640625,-0.8936309814453125,-0.2713165283203125,0.060455322265625
1761838934096094700,6.5200947265625,-0.9044952392578125,-0.26983642578125,0.0543212890625
1761838934106164700,6.530164794921875,-0.9127349853515625,-0.2756805419921875,0.05206298828125
1761838934116234500,6.540234375,-0.921173095703125,-0.2824249267578125,0.0507659912109375
1761838934126304500,6.550304443359375,-0.931976318359375,-0.28662109375,0.04913330078125
1761838934136374800,6.560374755859375,-0.947174072265625,-0.29144287109375,0.05029296875
1761838934146444500,6.570444580078125,-0.9477081298828125,-0.304595947265625,0.0548858642578125
1761838934156514600,6.5805146484375,-0.9577178955078125,-0.3067169189453125,0.0557403564453125
1761838934166584800,6.590584716796875,-0.966827392578125,-0.3054046630859375,0.0565032958984375
1761838934176654600,6.600654541015625,-0.9708251953125,-0.294464111328125,0.05816650390625
1761838934186724600,6.610724609375,-0.9908447265625,-0.2990875244140625,0.07177734375
1761838934196794600,6.620794677734375,-0.98712158203125,-0.3074798583984375,0.086578369140625
1761838934206865700,6.63086572265625,-0.98992919921875,-0.3177337646484375,0.1018524169921875
1761838934216935700,6.640935791015625,-1.004058837890625,-0.3258514404296875,0.109283447265625
1761838934227005700,6.651005615234375,-1.035980224609375,-0.3339385986328125,0.113037109375
1761838934237075500,6.661075439453125,-1.0803680419921875,-0.32659912109375,0.1048583984375
1761838934247145700,6.671145751953125,-1.1200714111328125,-0.30242919921875,0.07867431640625
1761838934257215700,6.6812158203125,-1.1378326416015625,-0.2639617919921875,0.03839111328125
1761838934267285500,6.691285400390625,-1.1623992919921875,-0.22552490234375,0.018157958984375
1761838934277355800,6.701355712890625,-1.163360595703125,-0.186981201171875,0.0105438232421875
1761838934287425500,6.711425537109375,-1.1269989013671875,-0.1441497802734375,-0.00103759765625
1761838934297495600,6.72149560546875,-1.0858612060546875,-0.1184234619140625,-0.0007781982421875
1761838934307565600,6.731565673828125,-1.079681396484375,-0.115875244140625,0.027069091796875
1761838934317635600,6.741635498046875,-1.0830078125,-0.1307830810546875,0.072540283203125
1761838934327706600,6.75170654296875,-1.0448150634765625,-0.1458282470703125,0.095489501953125
1761838934337776400,6.7617763671875,-1.0003204345703125,-0.1576385498046875,0.10162353515625
1761838934347846400,6.771846435546875,-0.9626312255859375,-0.1737823486328125,0.110748291015625
1761838934357916700,6.781916748046875,-0.9303131103515625,-0.193328857421875,0.1223907470703125
1761838934367986400,6.791986328125,-0.9020233154296875,-0.2128753662109375,0.1302337646484375
1761838934378056400,6.802056396484375,-0.8743896484375,-0.2324676513671875,0.13134765625
1761838934388126700,6.812126708984375,-0.8505401611328125,-0.245513916015625,0.12847900390625
1761838934398196500,6.822196533203125,-0.839324951171875,-0.25103759765625,0.1300048828125
1761838934408266500,6.8322666015625,-0.8310699462890625,-0.25164794921875,0.131866455078125
1761838934418336500,6.84233642578125,-0.8227996826171875,-0.2546234130859375,0.135986328125
1761838934428406500,6.852406494140625,-0.8291473388671875,-0.2557220458984375,0.153045654296875
1761838934438476500,6.8624765625,-0.847198486328125,-0.2513885498046875,0.178924560546875
1761838934448547600,6.872547607421875,-0.8721466064453125,-0.2424163818359375,0.200225830078125
1761838934458617300,6.882617431640625,-0.9038238525390625,-0.2317047119140625,0.21923828125
1761838934468687600,6.8926875,-0.93084716796875,-0.2082672119140625,0.233154296875
1761838934478757600,6.902757568359375,-0.961090087890625,-0.1780548095703125,0.23883056640625
1761838934488827400,6.912827392578125,-0.9888763427734375,-0.151885986328125,0.2401123046875
1761838934498897700,6.922897705078125,-1.0143890380859375,-0.130279541015625,0.2338714599609375
1761838934508967700,6.9329677734375,-1.03009033203125,-0.11029052734375,0.2224578857421875
1761838934519037400,6.943037353515625,-1.0433349609375,-0.091522216796875,0.21331787109375
1761838934529107500,6.953107421875,-1.052947998046875,-0.0712738037109375,0.1977996826171875
1761838934539177500,6.963177490234375,-1.050811767578125,-0.0588531494140625,0.1765899658203125
1761838934549247500,6.97324755859375,-1.0384674072265625,-0.0587921142578125,0.1546478271484375
1761838934559318500,6.983318603515625,-1.01177978515625,-0.0674285888671875,0.1390380859375
1761838934569388500,6.993388427734375,-0.99346923828125,-0.077545166015625,0.1262359619140625
1761838934579458600,7.00345849609375,-0.964447021484375,-0.1081390380859375,0.125152587890625
1761838934589528600,7.013528564453125,-0.9388885498046875,-0.147186279296875,0.1274566650390625
1761838934599598600,7.0235986328125,-0.92071533203125,-0.18109130859375,0.1242828369140625
1761838934609668600,7.033668701171875,-0.896636962890625,-0.2133636474609375,0.116455078125
1761838934619738600,7.043738525390625,-0.8777923583984375,-0.2415008544921875,0.109405517578125
1761838934629808400,7.053808349609375,-0.87298583984375,-0.2682037353515625,0.10272216796875
1761838934639878400,7.06387841796875,-0.8655242919921875,-0.29278564453125,0.097900390625
1761838934649948700,7.07394873046875,-0.8606719970703125,-0.3123779296875,0.098236083984375
1761838934660018400,7.084018310546875,-0.8658447265625,-0.32904052734375,0.1016387939453125
1761838934670088400,7.09408837890625,-0.8838043212890625,-0.3386688232421875,0.1090240478515625
1761838934680158700,7.10415869140625,-0.9006805419921875,-0.3392181396484375,0.1137237548828125
1761838934690229500,7.1142294921875,-0.91351318359375,-0.333740234375,0.1165618896484375
1761838934700299500,7.124299560546875,-0.938568115234375,-0.326751708984375,0.1242828369140625
1761838934710369500,7.13436962890625,-0.9667510986328125,-0.320648193359375,0.1305389404296875
1761838934720439600,7.144439453125,-0.9771270751953125,-0.311737060546875,0.1313934326171875
1761838934730509600,7.154509521484375,-0.98272705078125,-0.300506591796875,0.1255645751953125
1761838934740579600,7.16457958984375,-0.994873046875,-0.2982940673828125,0.123199462890625
1761838934750649300,7.1746494140625,-1.0164794921875,-0.3017425537109375,0.126495361328125
1761838934760719600,7.1847197265625,-1.0362701416015625,-0.300262451171875,0.1222991943359375
1761838934770789600,7.19478955078125,-1.0499725341796875,-0.29656982421875,0.11480712890625
1761838934780859400,7.204859375,-1.06463623046875,-0.295501708984375,0.110687255859375
1761838934790929700,7.2149296875,-1.060333251953125,-0.287078857421875,0.10113525390625
1761838934800999700,7.224999755859375,-1.0712432861328125,-0.2844085693359375,0.094573974609375
1761838934811070500,7.235070556640625,-1.0819091796875,-0.2785491943359375,0.0904541015625
1761838934821140500,7.245140380859375,-1.0854949951171875,-0.2689056396484375,0.083831787109375
1761838934831210500,7.25521044921875,-1.0952301025390625,-0.26123046875,0.0807342529296875
1761838934841280500,7.265280517578125,-1.096588134765625,-0.253631591796875,0.0797882080078125
1761838934851350500,7.2753505859375,-1.0903167724609375,-0.24493408203125,0.0750579833984375
1761838934861420500,7.285420654296875,-1.0828094482421875,-0.2388763427734375,0.0733184814453125
1761838934871490600,7.295490478515625,-1.0728912353515625,-0.2407989501953125,0.082550048828125
1761838934881560600,7.305560546875,-1.0594940185546875,-0.245361328125,0.092315673828125
1761838934891630300,7.31563037109375,-1.05419921875,-0.246490478515625,0.0975189208984375
1761838934901700600,7.32570068359375,-1.0450439453125,-0.255096435546875,0.098297119140625
1761838934911770600,7.3357705078125,-1.03173828125,-0.2679443359375,0.0969390869140625
1761838934921840400,7.34584033203125,-1.0238800048828125,-0.2730255126953125,0.085205078125
1761838934931910400,7.355910400390625,-1.0225067138671875,-0.270416259765625,0.062255859375
1761838934941981400,7.3659814453125,-1.0263824462890625,-0.2635040283203125,0.0343780517578125
1761838934952051700,7.3760517578125,-1.0271759033203125,-0.2552337646484375,0.00714111328125
1761838934962121500,7.38612158203125,-1.036376953125,-0.2431182861328125,-0.01483154296875
1761838934972191500,7.39619140625,-1.0435943603515625,-0.2285308837890625,-0.0308074951171875
1761838934982261500,7.406261474609375,-1.042144775390625,-0.2099609375,-0.0438995361328125
1761838934992331500,7.41633154296875,-1.0384979248046875,-0.1887664794921875,-0.0510711669921875
1761838935002401500,7.426401611328125,-1.033782958984375,-0.17401123046875,-0.0502777099609375
1761838935012471600,7.436471435546875,-1,-0.152496337890625,-0.061248779296875
1761838935022541600,7.44654150390625,-0.963226318359375,-0.1376190185546875,-0.0647430419921875
1761838935032611600,7.456611572265625,-0.9297332763671875,-0.133514404296875,-0.063446044921875
1761838935042681300,7.466681396484375,-0.88726806640625,-0.1363372802734375,-0.058837890625
1761838935052751600,7.476751708984375,-0.8518524169921875,-0.14312744140625,-0.05224609375
1761838935062821600,7.486821533203125,-0.833099365234375,-0.153778076171875,-0.0370330810546875
1761838935072891400,7.496891357421875,-0.8074493408203125,-0.16192626953125,-0.0320587158203125
1761838935082962400,7.50696240234375,-0.78521728515625,-0.1665496826171875,-0.02178955078125
1761838935093032700,7.51703271484375,-0.7865447998046875,-0.171417236328125,-0.0155792236328125
1761838935103102500,7.5271025390625,-0.793670654296875,-0.1830596923828125,-0.013641357421875
1761838935113172500,7.53717236328125,-0.791015625,-0.196197509765625,-0.0204925537109375
1761838935123242500,7.547242431640625,-0.8021087646484375,-0.20159912109375,-0.032196044921875
1761838935133312500,7.5573125,-0.817779541015625,-0.2074737548828125,-0.043792724609375
1761838935143382500,7.567382568359375,-0.8340911865234375,-0.2087554931640625,-0.0588836669921875
1761838935153452500,7.57745263671875,-0.857391357421875,-0.211151123046875,-0.0730743408203125
1761838935163522600,7.5875224609375,-0.8743438720703125,-0.2117767333984375,-0.090484619140625
1761838935173592600,7.597592529296875,-0.888519287109375,-0.208587646484375,-0.1026458740234375
1761838935183662300,7.607662353515625,-0.9081878662109375,-0.2114410400390625,-0.1022186279296875
1761838935193732600,7.617732666015625,-0.93603515625,-0.2229766845703125,-0.099609375
1761838935203802600,7.627802734375,-0.9710235595703125,-0.231964111328125,-0.1019287109375
1761838935213873700,7.637873779296875,-1.0099639892578125,-0.2337493896484375,-0.1057281494140625
1761838935223943400,7.647943359375,-1.049041748046875,-0.23626708984375,-0.1141510009765625
1761838935234013400,7.658013427734375,-1.0829620361328125,-0.241546630859375,-0.125274658203125
1761838935244083700,7.668083740234375,-1.1088409423828125,-0.249908447265625,-0.1347198486328125
1761838935254153500,7.678153564453125,-1.1182861328125,-0.2540130615234375,-0.1471710205078125
1761838935264223500,7.688223388671875,-1.111541748046875,-0.254119873046875,-0.158935546875
1761838935274293500,7.69829345703125,-1.0989990234375,-0.2540740966796875,-0.165069580078125
1761838935284363800,7.70836376953125,-1.081817626953125,-0.2557373046875,-0.165618896484375
1761838935294433500,7.71843359375,-1.0609130859375,-0.257965087890625,-0.15765380859375
1761838935304503600,7.728503662109375,-1.0347137451171875,-0.26361083984375,-0.1371917724609375
1761838935314573800,7.73857373046875,-1.004638671875,-0.2718353271484375,-0.1077728271484375
1761838935324643600,7.7486435546875,-0.9688720703125,-0.2866363525390625,-0.0756378173828125
1761838935334713600,7.758713623046875,-0.9349822998046875,-0.2932891845703125,-0.0504150390625
1761838935344783600,7.76878369140625,-0.9095916748046875,-0.292083740234375,-0.0291748046875
1761838935354854700,7.778854736328125,-0.9012908935546875,-0.2926025390625,-0.0098724365234375
1761838935364924700,7.788924560546875,-0.896240234375,-0.289459228515625,0.0057830810546875
1761838935374994700,7.79899462890625,-0.899261474609375,-0.2801361083984375,0.0166015625
1761838935385064700,7.809064697265625,-0.908843994140625,-0.2674560546875,0.0222930908203125
1761838935395134700,7.819134765625,-0.9328460693359375,-0.2511138916015625,0.024444580078125
1761838935405204500,7.82920458984375,-0.9603271484375,-0.2330780029296875,0.020263671875
1761838935415274500,7.8392744140625,-0.976287841796875,-0.21142578125,0.0155487060546875
1761838935425344800,7.8493447265625,-0.996612548828125,-0.194091796875,0.01788330078125
1761838935435414500,7.85941455078125,-1.0102691650390625,-0.18780517578125,0.0328216552734375
1761838935445484500,7.869484619140625,-1.03118896484375,-0.1858673095703125,0.0481109619140625
1761838935455554800,7.879554931640625,-1.0565643310546875,-0.178375244140625,0.0527801513671875
1761838935465624600,7.88962451171875,-1.066375732421875,-0.16552734375,0.0454559326171875
1761838935475694600,7.899694580078125,-1.0633087158203125,-0.154815673828125,0.0299224853515625
1761838935485764900,7.909764892578125,-1.059112548828125,-0.142333984375,0.0191650390625
1761838935495834600,7.919834716796875,-1.0275726318359375,-0.128021240234375,0.0036163330078125
1761838935505905700,7.92990576171875,-0.991363525390625,-0.115020751953125,0.0010986328125
1761838935515975700,7.9399755859375,-0.971588134765625,-0.1169281005859375,0.0239410400390625
1761838935526045400,7.95004541015625,-0.9578399658203125,-0.1292877197265625,0.043701171875
1761838935536115700,7.96011572265625,-0.9511260986328125,-0.1413116455078125,0.0690765380859375
1761838935546185700,7.970185791015625,-0.946044921875,-0.1472930908203125,0.0893707275390625
1761838935556255500,7.98025537109375,-0.9451446533203125,-0.158843994140625,0.10223388671875
1761838935566325800,7.99032568359375,-0.9526824951171875,-0.1742401123046875,0.11700439453125
1761838935576395800,8.000395751953125,-0.968231201171875,-0.183837890625,0.112884521484375
1761838935586465500,8.010465576171875,-0.9992218017578125,-0.193115234375,0.1089935302734375
1761838935596535800,8.020535888671875,-0.9965972900390625,-0.181915283203125,0.07989501953125
1761838935606605800,8.030605712890624,-0.99737548828125,-0.163482666015625,0.0400238037109375
1761838935616675600,8.040675537109376,-1.0005645751953125,-0.1507110595703125,0.0081024169921875
1761838935626745600,8.05074560546875,-0.9946746826171875,-0.1381683349609375,-0.011322021484375
1761838935636815600,8.060815673828126,-0.984619140625,-0.130889892578125,-0.01873779296875
1761838935646885600,8.0708857421875,-0.969451904296875,-0.12945556640625,-0.0206298828125
1761838935656955600,8.08095556640625,-0.967803955078125,-0.134368896484375,-0.0066986083984375
1761838935667026700,8.091026611328125,-0.9794158935546875,-0.1315765380859375,0.022186279296875
1761838935677096700,8.1010966796875,-0.991424560546875,-0.1186676025390625,0.047821044921875
1761838935687166700,8.111166748046875,-1.0152587890625,-0.1090240478515625,0.06927490234375
1761838935697236500,8.121236572265625,-1.02947998046875,-0.09698486328125,0.0754241943359375
1761838935707306500,8.131306396484375,-1.0293426513671875,-0.072265625,0.0825347900390625
1761838935717376800,8.141376708984374,-1.0335693359375,-0.06268310546875,0.0916748046875
1761838935727446500,8.151446533203124,-1.0203094482421875,-0.06378173828125,0.0931549072265625
1761838935737516500,8.1615166015625,-1.010986328125,-0.064697265625,0.09161376953125
1761838935747586800,8.1715869140625,-1.004638671875,-0.0706024169921875,0.0932159423828125
1761838935757656600,8.181656494140626,-0.999725341796875,-0.0807037353515625,0.0977783203125
1761838935767726600,8.1917265625,-0.9913177490234375,-0.0976104736328125,0.0970916748046875
1761838935777796900,8.201796875,-0.99163818359375,-0.1122894287109375,0.084503173828125
1761838935787866600,8.21186669921875,-0.9930419921875,-0.124481201171875,0.0593719482421875
1761838935797936600,8.2219365234375,-0.984222412109375,-0.1216278076171875,0.0264129638671875
1761838935808006700,8.232006591796875,-0.9816436767578125,-0.1158599853515625,0.0003509521484375
1761838935818077400,8.242077392578125,-0.967254638671875,-0.1143035888671875,-0.022430419921875
1761838935828147700,8.252147705078125,-0.9571533203125,-0.111297607421875,-0.0391387939453125
1761838935838217700,8.2622177734375,-0.9510650634765625,-0.101043701171875,-0.0480499267578125
1761838935848287500,8.27228759765625,-0.938995361328125,-0.0897674560546875,-0.0501556396484375
1761838935858357800,8.282357666015624,-0.931610107421875,-0.0795135498046875,-0.04052734375
1761838935868427800,8.292427734375,-0.9254608154296875,-0.071197509765625,-0.024810791015625
1761838935878497500,8.30249755859375,-0.9187774658203125,-0.067535400390625,-0.0084381103515625
1761838935888567800,8.31256787109375,-0.9161529541015625,-0.0664825439453125,0.0074920654296875
1761838935898637800,8.322637939453125,-0.913970947265625,-0.0609588623046875,0.0141754150390625
1761838935908707600,8.33270751953125,-0.9487457275390625,-0.05010986328125,0.0166778564453125
1761838935918777600,8.342777587890625,-0.9922943115234375,-0.043792724609375,0.0125885009765625
1761838935928847600,8.35284765625,-1.0072174072265625,-0.0291900634765625,-0.010986328125
1761838935938917600,8.362917724609375,-1.0237579345703125,-0.00579833984375,-0.0373992919921875
1761838935948987600,8.372987548828124,-1.0566253662109375,0.011962890625,-0.0453948974609375
1761838935959057700,8.3830576171875,-1.0761871337890625,0.01788330078125,-0.051605224609375
1761838935969127700,8.393127685546874,-1.0940399169921875,0.0178070068359375,-0.0547943115234375
1761838935979198700,8.40319873046875,-1.1128692626953125,0.02117919921875,-0.0611419677734375
1761838935989268500,8.4132685546875,-1.1309356689453125,0.030303955078125,-0.0693817138671875
1761838935999338800,8.4233388671875,-1.16009521484375,0.041778564453125,-0.067169189453125
1761838936009408800,8.43340869140625,-1.1905517578125,0.0491180419921875,-0.0606231689453125
1761838936019478500,8.443478515625,-1.2056884765625,0.0550384521484375,-0.0582122802734375
1761838936029548500,8.453548583984375,-1.219268798828125,0.063201904296875,-0.05908203125
1761838936039618800,8.463618896484375,-1.2257537841796875,0.067596435546875,-0.05999755859375
1761838936049688600,8.4736884765625,-1.2221527099609375,0.0682830810546875,-0.059539794921875
1761838936059758600,8.483758544921875,-1.21807861328125,0.074462890625,-0.0614776611328125
1761838936069828900,8.493828857421875,-1.1801300048828125,0.093109130859375,-0.0790252685546875
1761838936079898600,8.503898681640624,-1.1551513671875,0.10284423828125,-0.0916595458984375
1761838936089968600,8.51396875,-1.118011474609375,0.1137847900390625,-0.0924072265625
1761838936100038700,8.52403857421875,-1.0800628662109375,0.121124267578125,-0.0768890380859375
1761838936110108700,8.534108642578126,-1.040740966796875,0.122711181640625,-0.0523681640625
1761838936120178700,8.5441787109375,-1.0020294189453125,0.1156463623046875,-0.0272216796875
1761838936130248400,8.55424853515625,-0.9572601318359375,0.107635498046875,-0.0088043212890625
1761838936140318700,8.564318603515625,-0.92462158203125,0.099609375,0.0104827880859375
1761838936150389800,8.5743896484375,-0.8956451416015625,0.0930328369140625,0.025787353515625
1761838936160459800,8.584459716796875,-0.87615966796875,0.08062744140625,0.0431976318359375
1761838936170529500,8.594529541015625,-0.881103515625,0.0542144775390625,0.0685577392578125
1761838936180601600,8.6046015625,-0.8871002197265625,0.0296783447265625,0.0906829833984375
1761838936190671600,8.614671630859375,-0.879913330078125,0.0194244384765625,0.0985870361328125
1761838936200742000,8.624741943359375,-0.8632049560546875,0.0186920166015625,0.0926055908203125
1761838936210811600,8.634811767578125,-0.8558349609375,0.011566162109375,0.0861663818359375
1761838936220881700,8.644881591796874,-0.869873046875,-0.001495361328125,0.0873870849609375
1761838936230951400,8.654951416015624,-0.8845672607421875,-0.00738525390625,0.0841522216796875
1761838936241021700,8.665021728515624,-0.8906402587890625,-0.003448486328125,0.0765380859375
1761838936251091700,8.675091796875,-0.911224365234375,0.0010833740234375,0.0727996826171875
1761838936261161500,8.685161376953126,-0.9344329833984375,0.003753662109375,0.0695953369140625
1761838936271232500,8.695232421875,-0.9537200927734375,0.0030364990234375,0.0715179443359375
1761838936281302300,8.70530224609375,-0.9735107421875,-0.0029144287109375,0.0809783935546875
1761838936291372000,8.7153720703125,-0.989715576171875,-0.01971435546875,0.0857086181640625
1761838936301442000,8.725442138671875,-0.9958038330078125,-0.0380706787109375,0.080841064453125
1761838936311512000,8.735511962890625,-0.996826171875,-0.0540313720703125,0.0719451904296875
1761838936321582000,8.74558203125,-1.0076141357421875,-0.0721588134765625,0.0574951171875
1761838936331652000,8.755652099609375,-1.01898193359375,-0.0873870849609375,0.0388641357421875
1761838936341722000,8.76572216796875,-1.018798828125,-0.1038360595703125,0.020050048828125
1761838936351792000,8.775792236328124,-1.010833740234375,-0.115447998046875,-0.0003662109375
1761838936361862100,8.785862060546876,-1.010711669921875,-0.12127685546875,-0.012420654296875
1761838936371932000,8.795931884765626,-1.01251220703125,-0.1339569091796875,-0.016082763671875
1761838936382002200,8.806002197265625,-1.00897216796875,-0.1386566162109375,-0.0208892822265625
1761838936392072200,8.816072265625,-1.0175323486328125,-0.140869140625,-0.01995849609375
1761838936402142000,8.826141845703125,-1.0247955322265625,-0.1426239013671875,-0.022705078125
1761838936412212200,8.836212158203125,-1.03363037109375,-0.1407470703125,-0.028350830078125
1761838936422282200,8.8462822265625,-1.0536041259765625,-0.1397552490234375,-0.0317535400390625
1761838936432352000,8.85635205078125,-1.0643463134765625,-0.137786865234375,-0.0377960205078125
1761838936442423000,8.866423095703125,-1.0613861083984375,-0.1336517333984375,-0.0516204833984375
1761838936452493300,8.876493408203125,-1.0739898681640625,-0.1356964111328125,-0.061920166015625
1761838936462563000,8.88656298828125,-1.079803466796875,-0.141265869140625,-0.074981689453125
1761838936472633000,8.896633056640624,-1.0742034912109375,-0.14947509765625,-0.0835113525390625
1761838936482703000,8.906703125,-1.06744384765625,-0.1484527587890625,-0.0956268310546875
1761838936492773000,8.916773193359376,-1.0506134033203125,-0.15020751953125,-0.10479736328125
1761838936502843100,8.926843017578125,-1.041015625,-0.1547088623046875,-0.1096649169921875
1761838936512913200,8.9369130859375,-1.030731201171875,-0.1593475341796875,-0.1071014404296875
1761838936522983200,8.946983154296875,-1.020263671875,-0.1677398681640625,-0.0972900390625
1761838936533053200,8.95705322265625,-1.018463134765625,-0.17974853515625,-0.083465576171875
1761838936543123000,8.967123046875,-1.0114898681640625,-0.1870880126953125,-0.0707855224609375
1761838936553193200,8.977193115234375,-1.0038604736328125,-0.19024658203125,-0.06524658203125
1761838936563263200,8.98726318359375,-0.996673583984375,-0.1948394775390625,-0.0587921142578125
1761838936573333000,8.9973330078125,-0.9919891357421875,-0.2020721435546875,-0.0503082275390625
1761838936583403000,9.007403076171874,-0.991424560546875,-0.2050323486328125,-0.0415191650390625
1761838936593473300,9.017473388671876,-0.9927520751953125,-0.2109527587890625,-0.029754638671875
1761838936603543000,9.02754296875,-0.9943389892578125,-0.217987060546875,-0.018402099609375
1761838936613613000,9.037613037109375,-0.9992523193359375,-0.2221832275390625,-0.0104827880859375
1761838936623684000,9.04768408203125,-1.00555419921875,-0.228851318359375,-0.0040740966796875
1761838936633754000,9.057754150390625,-1.002349853515625,-0.229217529296875,-0.0020294189453125
1761838936643824000,9.06782421875,-0.9944000244140625,-0.228515625,-0.0030975341796875
1761838936653894100,9.07789404296875,-0.9968719482421875,-0.2257843017578125,-0.001861572265625
1761838936663964200,9.087964111328125,-0.99359130859375,-0.222930908203125,-0.0019073486328125
1761838936674034200,9.0980341796875,-0.9814300537109375,-0.2158050537109375,-0.0051422119140625
1761838936684104200,9.108104248046875,-0.976806640625,-0.2003936767578125,-0.0032196044921875
1761838936694174000,9.118174072265624,-0.9702911376953125,-0.185516357421875,0.0034332275390625
1761838936704244200,9.128244140625,-0.9635772705078125,-0.17413330078125,0.017608642578125
1761838936714314200,9.138314208984376,-0.964111328125,-0.1635589599609375,0.036834716796875
1761838936724384000,9.148384033203126,-0.966705322265625,-0.154205322265625,0.0496826171875
1761838936734454300,9.158454345703126,-0.96929931640625,-0.1412200927734375,0.058624267578125
1761838936744524000,9.16852392578125,-0.9807586669921875,-0.1310272216796875,0.0640106201171875
1761838936754594000,9.178593994140625,-1.005523681640625,-0.1288909912109375,0.0651092529296875
1761838936764664000,9.1886640625,-0.99755859375,-0.1077117919921875,0.0491180419921875
1761838936774734000,9.198734130859375,-0.961639404296875,-0.075958251953125,0.0179443359375
1761838936784804000,9.20880419921875,-0.935577392578125,-0.0582427978515625,0.0068359375
1761838936794875100,9.218875244140625,-0.925384521484375,-0.0506439208984375,0.01953125
1761838936804945000,9.22894482421875,-0.909149169921875,-0.0470428466796875,0.0443115234375
1761838936815015200,9.23901513671875,-0.905731201171875,-0.0492095947265625,0.06591796875
1761838936825085200,9.249085205078124,-0.9085235595703125,-0.0463104248046875,0.0770721435546875
1761838936835155000,9.259155029296876,-0.908447265625,-0.045166015625,0.088897705078125
1761838936845225200,9.26922509765625,-0.90802001953125,-0.0535430908203125,0.103973388671875
1761838936855295200,9.279295166015626,-0.9117584228515625,-0.0684967041015625,0.1212005615234375
1761838936865365000,9.289364990234375,-0.928680419921875,-0.0965118408203125,0.1418304443359375
1761838936875435000,9.29943505859375,-0.9347076416015625,-0.1226348876953125,0.146331787109375
1761838936885505300,9.30950537109375,-0.9369049072265625,-0.13134765625,0.1398468017578125
1761838936895575000,9.319574951171875,-0.9498138427734375,-0.1390380859375,0.1362457275390625
1761838936905645000,9.32964501953125,-0.9598846435546875,-0.142364501953125,0.13726806640625
1761838936915715300,9.33971533203125,-0.96856689453125,-0.146636962890625,0.1416778564453125
1761838936925785000,9.34978515625,-0.9676361083984375,-0.1481170654296875,0.147735595703125
1761838936935855000,9.359855224609374,-0.975372314453125,-0.1497039794921875,0.15740966796875
1761838936945925000,9.369925048828126,-0.9847869873046875,-0.1530914306640625,0.17156982421875
1761838936955995100,9.3799951171875,-0.990692138671875,-0.1509552001953125,0.189422607421875
1761838936966065200,9.390065185546876,-1.00982666015625,-0.1540069580078125,0.21087646484375
1761838936976136200,9.40013623046875,-1.0261993408203125,-0.1566619873046875,0.2313385009765625
1761838936986206000,9.4102060546875,-1.0539703369140625,-0.146697998046875,0.24639892578125
1761838936996276200,9.420276123046875,-1.0610198974609375,-0.1339874267578125,0.2378387451171875
1761838937006346200,9.43034619140625,-1.0808563232421875,-0.1302337646484375,0.22076416015625
1761838937016416000,9.440416015625,-1.097381591796875,-0.1249237060546875,0.2018280029296875
1761838937026486300,9.450486328125,-1.1092071533203125,-0.1158447265625,0.1892242431640625
1761838937036556000,9.46055615234375,-1.109344482421875,-0.1124114990234375,0.1849212646484375
1761838937046626000,9.4706259765625,-1.0745086669921875,-0.1009521484375,0.169647216796875
1761838937056696000,9.480696044921874,-1.0553131103515625,-0.1038665771484375,0.1593170166015625
1761838937066766000,9.49076611328125,-1.0553436279296875,-0.1263580322265625,0.157440185546875
1761838937076836000,9.500836181640626,-1.04443359375,-0.149261474609375,0.1544342041015625
1761838937086906000,9.510906005859376,-1.012298583984375,-0.14984130859375,0.1526336669921875
1761838937096976100,9.52097607421875,-0.995086669921875,-0.16204833984375,0.158447265625
1761838937107046100,9.531046142578125,-0.983795166015625,-0.1825714111328125,0.16680908203125
1761838937117116200,9.5411162109375,-0.96905517578125,-0.1871185302734375,0.177337646484375
1761838937127186200,9.551186279296875,-0.9391937255859375,-0.183349609375,0.177337646484375
1761838937137256200,9.561256103515625,-0.9134979248046875,-0.178436279296875,0.1757049560546875
1761838937147327200,9.5713271484375,-0.902618408203125,-0.1812591552734375,0.17919921875
1761838937157397000,9.58139697265625,-0.8852691650390625,-0.1909027099609375,0.180267333984375
1761838937167467000,9.591467041015624,-0.88623046875,-0.19964599609375,0.1831817626953125
1761838937177537300,9.601537353515624,-0.893341064453125,-0.203826904296875,0.1881256103515625
1761838937187607000,9.61160693359375,-0.8945159912109375,-0.1955413818359375,0.1941375732421875
1761838937197677000,9.621677001953126,-0.902374267578125,-0.18603515625,0.203887939453125
1761838937207747300,9.631747314453126,-0.918701171875,-0.182647705078125,0.217315673828125
1761838937217817000,9.641817138671875,-0.92279052734375,-0.1840057373046875,0.22314453125
1761838937227887000,9.65188720703125,-0.9152984619140625,-0.1859893798828125,0.21527099609375
1761838937237957000,9.66195703125,-0.914947509765625,-0.186279296875,0.206787109375
1761838937248027100,9.672027099609375,-0.924163818359375,-0.181121826171875,0.2065277099609375
1761838937258097200,9.68209716796875,-0.933258056640625,-0.178009033203125,0.211456298828125
1761838937268167000,9.6921669921875,-0.94482421875,-0.1734161376953125,0.217742919921875
1761838937278237200,9.7022373046875,-0.932586669921875,-0.1649322509765625,0.22198486328125
1761838937288307200,9.71230712890625,-0.9397735595703125,-0.1722259521484375,0.235321044921875
1761838937298377000,9.722376953125,-0.9429931640625,-0.1830291748046875,0.241943359375
1761838937308447200,9.732447265625,-0.93951416015625,-0.192657470703125,0.2417449951171875
1761838937318517200,9.742517333984376,-0.9345245361328125,-0.1988372802734375,0.24560546875
1761838937328587000,9.7525869140625,-0.9282073974609375,-0.1996917724609375,0.246673583984375
1761838937338658000,9.762657958984375,-0.912384033203125,-0.2004852294921875,0.2405548095703125
1761838937348728000,9.77272802734375,-0.9148712158203125,-0.204498291015625,0.24127197265625
1761838937358798000,9.782798095703125,-0.9250335693359375,-0.21044921875,0.2422332763671875
1761838937368868000,9.7928681640625,-0.9147491455078125,-0.2062530517578125,0.2451019287109375
1761838937378938000,9.802938232421875,-0.959014892578125,-0.198577880859375,0.2477569580078125
1761838937389008100,9.813008056640625,-1.001434326171875,-0.2139739990234375,0.2372283935546875
1761838937399078100,9.823078125,-0.972564697265625,-0.2196044921875,0.21380615234375
1761838937409148200,9.833148193359374,-0.9853668212890625,-0.2111053466796875,0.20758056640625
1761838937419218200,9.84321826171875,-0.9784698486328125,-0.207977294921875,0.2097625732421875
1761838937429288200,9.8532880859375,-0.970001220703125,-0.204376220703125,0.2239532470703125
