time,seconds_elapsed,z,y,x
1761838927651229700,0.075229736328125,-0.08590484403967857,-0.35947511693835255,0.5199702147990465
1761838927661299700,0.0852998046875,0.09867197115421295,-0.39914340272098775,0.5750830302119255
1761838927671369700,0.09536962890625,0.36474867342710493,-0.35949732877016066,0.5773157577000558
1761838927681439700,0.105439697265625,0.49304070681929585,-0.3522268993757665,0.5875584809035063
1761838927691509800,0.115509765625,0.5807873793333769,-0.39262656817287206,0.6588318652614951
1761838927701579800,0.125579833984375,0.6998895595759153,-0.3986079806700349,0.6782546508729458
1761838927711649500,0.1356494140625,0.7607856345653533,-0.44245501344203947,0.6998710010059177
1761838927721719800,0.1457197265625,0.7910334733128547,-0.4770065407328307,0.6879672127224504
1761838927731790800,0.155790771484375,0.7422334943085909,-0.4516131562791764,0.6057131462752818
1761838927741860600,0.165860595703125,0.7049322299182414,-0.39653614283204075,0.4795898352243006
1761838927751930600,0.1759306640625,0.6965735668957233,-0.3483091414101422,0.39303646414801474
1761838927762001000,0.1860009765625,0.5902139638483525,-0.39021307729035615,0.4072007447093725
1761838927772070700,0.196070556640625,0.6772375827848911,-0.3286880567476153,0.4016900184638798
1761838927782140700,0.206140625,0.7125935583263635,-0.2786401235088706,0.4031286729648709
1761838927792211000,0.2162109375,0.6057435414135456,-0.2930782525755465,0.4667347375653684
1761838927802280700,0.22628076171875,0.551266101294756,-0.30180691795423625,0.5713992271326482
1761838927812350700,0.236350830078125,0.5485995124340057,-0.3343389221161604,0.6512120379075408
1761838927822420700,0.246420654296875,0.5641366887837648,-0.36962680085748434,0.7429848971977829
1761838927832490800,0.25649072265625,0.5550988113254308,-0.4881115798540413,0.8674126563772558
1761838927842561800,0.266561767578125,0.5864993272393941,-0.5780274131007492,0.9674071083068847
1761838927852631800,0.2766318359375,0.5094441446095704,-0.6615402474373578,1.1093902517907321
1761838927862701600,0.28670166015625,0.3321154008477926,-0.7611328405678272,1.2010799628421664
1761838927872771800,0.296771728515625,0.1610492246121168,-0.8455642510540783,1.2584141075663269
1761838927882841900,0.306841796875,0.10098433974981308,-0.8931547081381082,1.2596595775827766
1761838927892911600,0.31691162109375,0.0038929157853126524,-0.9348574223577976,1.1957972001336514
1761838927902981600,0.326981689453125,-0.11462649613320827,-0.9702879244402051,1.1638038328930735
1761838927913052000,0.337052001953125,-0.21437983278334138,-0.9750387722291052,1.1211467405579985
1761838927923121700,0.34712158203125,-0.3197650378406048,-0.882104175683111,1.0322790281247347
1761838927933191700,0.357191650390625,-0.44330140113830563,-0.7936204210661352,1.0157440729092806
1761838927943261700,0.36726171875,-0.5078349558472633,-0.7277391050100326,1.009385278467089
1761838927953332700,0.377332763671875,-0.5707616598814725,-0.6544909134477377,1.0101059208918362
1761838927963402800,0.38740283203125,-0.617337533095479,-0.5708968305684626,1.0091440170571206
1761838927973472800,0.39747265625,-0.6575234130114317,-0.47080666317939757,1.017238330055028
1761838927983542800,0.407542724609375,-0.6414812097489834,-0.3519099423810839,1.0195433921270072
1761838927993612800,0.41761279296875,-0.4648310959011316,-0.2821605527199805,1.0063336358115076
1761838928003682800,0.427682861328125,-0.381224007409811,-0.2684706116721034,1.0005215885318814
1761838928013752600,0.437752685546875,-0.45313364384472365,-0.17436112612783908,0.946680838881433
1761838928023822800,0.44782275390625,-0.5469312869608401,-0.0904660144753754,0.8876855560120195
1761838928033892600,0.457892578125,-0.5358265401005745,-0.07481792509704828,0.8643320068228989
1761838928043962600,0.467962646484375,-0.6096025549292564,-0.07301131406649947,0.8196562681417912
1761838928054033000,0.478032958984375,-0.8530109137982129,-0.04642871982827782,0.7328061060760169
1761838928064104000,0.48810400390625,-0.9947405209124087,0.018035422906279564,0.57662266086936
1761838928074173700,0.498173583984375,-1.0532038157969712,0.1476116508901119,0.373996613439545
1761838928084243700,0.50824365234375,-1.0938415311336516,0.2880975415535271,0.17479696026183664
1761838928094313700,0.518313720703125,-1.0817004269629715,0.42801527694016694,-0.019310119017213582
1761838928104383700,0.5283837890625,-0.9234177444547415,0.5813973279252648,-0.20409710636306552
1761838928114453800,0.538453857421875,-0.6624801586359739,0.6925184462860227,-0.36940351349562406
1761838928124523500,0.5485234375,-0.401336236590147,0.7358189510911702,-0.5281441689044237
1761838928134593800,0.55859375,-0.0845224497705698,0.7778555734403431,-0.61321161227189
1761838928144663800,0.568663818359375,0.17086919235885142,0.7751422228284179,-0.5212803840821608
1761838928154733600,0.578733642578125,0.3150432700157165,0.6115357149489223,-0.38048849620949476
1761838928164803800,0.588803955078125,0.5256903460115194,0.4223578357003629,-0.347684908564575
1761838928174875000,0.598875,0.7232359483718872,0.31920740395784375,-0.34461152900122105
1761838928184944600,0.608944580078125,0.8990613018333912,0.223561064235121,-0.35883506546914573
1761838928195014700,0.6190146484375,1.0445330180853605,0.07369462015554308,-0.3743558752059936
1761838928205085000,0.6290849609375,1.0233300710588693,-0.0865241449818015,-0.3517426595227793
1761838928215154700,0.63915478515625,0.9511778580397366,-0.23106690982058642,-0.36455983632411804
1761838928225224700,0.649224609375,0.9767927762895822,-0.23613749108314513,-0.43578627626784144
1761838928235294700,0.659294677734375,0.9447270744651556,-0.1680168716676533,-0.5559894400222226
1761838928245364700,0.66936474609375,0.8625748609572649,-0.11496274235025047,-0.6847941356442868
1761838928255434800,0.679434814453125,0.8035574393212794,-0.06277165960296988,-0.7889620008010417
1761838928265504800,0.6895048828125,0.7427291688710451,-0.006643529667705297,-0.8590342657409608
1761838928275574500,0.699574462890625,0.6406640481472015,0.06107815355807542,-0.8791997594784945
1761838928285645300,0.709645263671875,0.5189724359333515,0.17860533956885336,-0.9203246738102286
1761838928295715300,0.71971533203125,0.46288989870548247,0.2880415735825896,-0.9266741159021854
1761838928305785300,0.729785400390625,0.37175767540633675,0.3806501530446112,-0.8990676585089414
1761838928315855400,0.73985546875,0.3254115192949772,0.44569647958129643,-0.8682192965850234
1761838928325925400,0.74992529296875,0.2125888577133417,0.4911847036890685,-0.7839179422192275
1761838928335995400,0.759995361328125,0.057659577286243435,0.48186420989707107,-0.6878379603195935
1761838928346065400,0.7700654296875,0.04697568618655205,0.47130277613326904,-0.6596342676855623
1761838928356135400,0.780135498046875,0.07421908242106437,0.4794480886660516,-0.7010575804419815
1761838928366205400,0.790205322265625,0.08694529300332068,0.43358883928880093,-0.7145040681228041
1761838928376275200,0.800275146484375,0.043299628022313116,0.290758139064908,-0.694335651775822
1761838928386346200,0.81034619140625,-0.09316460590958595,0.037232144676893945,-0.6580596387799829
1761838928396416500,0.82041650390625,-0.12174947988092899,-0.19017302776575087,-0.7450507436864078
1761838928406486300,0.830486328125,-0.13785364246368406,-0.40876645965613423,-0.851206348594278
1761838928416556300,0.840556396484375,-0.16021861900687218,-0.6131490684296935,-0.994424513765797
1761838928426626600,0.85062646484375,-0.21780688462257383,-0.787974012676999,-1.1240450923480092
1761838928436696300,0.8606962890625,-0.22868132985830306,-0.9577687807373702,-1.2028384969472885
1761838928446766300,0.870766357421875,-0.18511691341996192,-1.0473764978829772,-1.2813657979562878
1761838928456836400,0.88083642578125,-0.1408195065319538,-1.084680319556594,-1.3353615920379758
1761838928466906400,0.89090625,-0.017218845826387403,-1.1494083739243448,-1.3494077991776168
1761838928476976400,0.900976318359375,-0.1426759480535984,-1.243459261149168,-1.297200349817425
1761838928487047400,0.91104736328125,-0.20550912858545778,-1.2503478516191244,-1.2419609854154288
1761838928497117200,0.9211171875,-0.08324293135404587,-1.1528167941283434,-1.2002606823485344
1761838928507187500,0.9311875,-0.0209007492095232,-1.079256833203137,-1.13063433454521
1761838928517257500,0.941257568359375,-0.058875967338681216,-1.085437348468974,-0.9992617977291345
1761838928527327200,0.9513271484375,-0.026485855865478514,-1.1114951881807298,-0.8475638273734599
1761838928537397500,0.9613974609375,0.013335866913199424,-1.0953470403257757,-0.7455554783381522
1761838928547467500,0.971467529296875,0.08563304136097431,-1.0745827039122582,-0.676300448065251
1761838928557537300,0.981537353515625,0.22159692455530167,-1.0496615400802343,-0.615610197846219
1761838928567607300,0.991607177734375,0.3216419376283884,-1.0103724628735333,-0.533160572294332
1761838928577677300,1.00167724609375,0.3789788588315248,-1.0235071081262082,-0.4073404819736257
1761838928587747300,1.011747314453125,0.41980303665101526,-1.100025918857008,-0.28547786057442426
1761838928597818400,1.021818359375,0.37522505925595756,-1.1796279364254325,-0.20513539990223942
1761838928607888400,1.031888427734375,0.35973347561359403,-1.1855091764837502,-0.17333550940714776
1761838928617958400,1.04195849609375,0.32614860139787194,-1.1392422230884431,-0.21223080152329057
1761838928628028400,1.0520283203125,0.2506348029911518,-1.1367767828229813,-0.250872959128581
1761838928638098400,1.062098388671875,0.15766601191461085,-1.1491001116927713,-0.2999118979878723
1761838928648168400,1.07216845703125,0.12184358790516853,-1.180762785674259,-0.37035087734833355
1761838928658238500,1.082238525390625,0.09726093531250952,-1.2199715641863644,-0.4191065057542175
1761838928668308200,1.09230810546875,-0.030228549525141715,-1.2205569628588855,-0.41637006652764974
1761838928678378200,1.102378173828125,-0.20244798744916914,-1.1701831586666405,-0.3906880743909627
1761838928688448500,1.112448486328125,-0.3552858485549688,-1.1228367394715546,-0.3598573211889714
1761838928698519600,1.12251953125,-0.5213397495865821,-1.0574864615522324,-0.32940592269338664
1761838928708589300,1.13258935546875,-0.6795160491108894,-0.9981380543962121,-0.2570496750021353
1761838928718659300,1.142659423828125,-0.7628478277921676,-0.983550872247666,-0.174627266250737
1761838928728729300,1.152729248046875,-0.8279723341315984,-0.9939806424558162,-0.12580843641553074
1761838928738799400,1.16279931640625,-0.9334937327891588,-0.971810750093311,-0.1275073858205229
1761838928748869400,1.172869384765625,-1.0616150857895612,-0.9114882372081279,-0.2271478732133284
1761838928758939400,1.182939453125,-1.051262618601322,-0.8084275295756757,-0.44077469567228106
1761838928769009400,1.193009521484375,-0.965360697171092,-0.5926698325678705,-0.6522055789895356
1761838928779079400,1.203079345703125,-0.9679051209568976,-0.3263710119768977,-0.7898634796854108
1761838928789149200,1.213149169921875,-0.9685136082440614,-0.06589081453680992,-0.8110355201169848
1761838928799220200,1.22322021484375,-0.9618594110518693,0.14194588021337984,-0.7607596233412623
1761838928809290500,1.23329052734375,-0.8942962793886661,0.36696123491004107,-0.7010208286281675
1761838928819360300,1.2433603515625,-0.77645783547163,0.6006805589355528,-0.6186908474005759
1761838928829430300,1.25343017578125,-0.6952998936980962,0.7555019950740038,-0.47491913999952373
1761838928839500500,1.26350048828125,-0.5723673415124416,0.8554898711323737,-0.3129206153059378
1761838928849570300,1.2735703125,-0.4235229339569807,0.9134310418389737,-0.13303206752613186
1761838928859640300,1.283640380859375,-0.322149887150526,0.9284167217858135,0.042065126924449574
1761838928869710300,1.29371044921875,-0.12849895414114,0.8997010610416531,0.12831428175661713
1761838928879780400,1.3037802734375,-0.10652443822026252,0.8323704229600727,0.24965700746756045
1761838928889851400,1.313851318359375,-0.14850070868432522,0.6947520505569875,0.3789640996538102
1761838928899921400,1.32392138671875,-0.05105038827955723,0.551835571745783,0.4528413828998804
1761838928909991200,1.3339912109375,0.008185644543170929,0.4511126594111323,0.4264197513770312
1761838928920061400,1.3440615234375,0.009428338080644607,0.363478507360816,0.36943865787424146
1761838928930131500,1.35413134765625,0.09712181910276413,0.35119463371858,0.2741768787560053
1761838928940201200,1.364201171875,0.1951782887071371,0.442724478033185,0.16124869270697234
1761838928950271500,1.374271484375,0.2854348982155323,0.5112734058633447,0.09872344561312348
1761838928960341500,1.384341552734375,0.5260486579298973,0.5741201765291393,0.042189885815279556
1761838928970411300,1.394411376953125,0.7681307366311549,0.6878929784424602,0.05912325663063675
1761838928980481300,1.404481201171875,0.9337398165047168,0.7614552043899894,0.2041622805537656
1761838928990552300,1.41455224609375,1.1983698271006344,0.7741689938820898,0.32853242779448627
1761838929000622300,1.424622314453125,1.394777949863672,0.8323938038356602,0.48497543725278225
1761838929010692400,1.4346923828125,1.2570628390878438,0.7381853879615664,0.7167101267997175
1761838929020762400,1.444762451171875,1.1410159547626972,0.7390567639686166,0.9352109119705855
1761838929030832400,1.454832275390625,1.1672358531683682,0.754755852881819,1.0953931444898246
1761838929040902400,1.46490234375,1.1114905850708483,0.7394972012124955,1.1807926693558692
1761838929050972400,1.474972412109375,1.0266220983415841,0.7207711656935513,1.2286354937657713
1761838929061042400,1.48504248046875,0.930548326987028,0.7089305057741702,1.2362464071609078
1761838929071112400,1.495112548828125,0.7536813555181026,0.6843947610631584,1.2215579565949737
1761838929081182500,1.505182373046875,0.5811772554337978,0.6722047031842172,1.1656305368635802
1761838929091253200,1.515253173828125,0.4596814580529928,0.6902855726674199,1.0514897053554653
1761838929101323300,1.5253232421875,0.2756611076980829,0.6759456432782113,0.928974501799047
1761838929111393500,1.5353935546875,0.0695510906100273,0.642484395442158,0.8333758736755699
1761838929121463300,1.54546337890625,-0.08585749776661396,0.6217338683582841,0.74814016106911
1761838929131533300,1.555533203125,-0.1890998455762863,0.6506337996281683,0.654139981118217
1761838929141603600,1.565603515625,-0.3035153293073177,0.6556647795327007,0.6265753170400857
1761838929151673300,1.57567333984375,-0.37486207116246223,0.6394507268346846,0.5968409077074378
1761838929161743400,1.585743408203125,-0.38292087445557116,0.6368456589028239,0.5303136584306135
1761838929171813400,1.5958134765625,-0.2858949169427156,0.630572423852235,0.4918623837549239
1761838929181883400,1.60588330078125,-0.25978900030553337,0.5640729758977889,0.4852659811645746
1761838929191954400,1.615954345703125,-0.2463216159671545,0.46149113782346246,0.5126669791135937
1761838929202024400,1.6260244140625,-0.12116671155691146,0.36949382212758064,0.5246793058054522
1761838929212094200,1.63609423828125,-0.02899579285979271,0.2576153095282614,0.5480287633413449
1761838929222164500,1.64616455078125,-0.02006722099483013,0.09609379122927784,0.5763950626585632
1761838929232234500,1.656234375,0.030144962894916534,-0.06977160149291158,0.5577580205973237
1761838929242304300,1.66630419921875,0.06958850001096725,-0.2763828461013734,0.5652358091320843
1761838929252374500,1.67637451171875,0.037220600369572636,-0.5231524980969726,0.5675820799972862
1761838929262444300,1.6864443359375,0.08505494921207428,-0.7264318218037485,0.5160786507206038
1761838929272514300,1.696514404296875,0.16081366229057312,-0.8693835180588066,0.4499628317888826
1761838929282589400,1.70658935546875,0.2047416513442993,-0.9915811800986528,0.403077746495232
1761838929292659500,1.716659423828125,0.27431787639558314,-1.0920359430164097,0.34532650887016203
1761838929302729500,1.7267294921875,0.22737726152241228,-1.207405804862827,0.31986550254039464
1761838929312799500,1.736799560546875,0.19043080191910267,-1.2528057661652565,0.26676093994369726
1761838929322869200,1.746869140625,0.2121346842050552,-1.2702452690050006,0.21737229259759186
1761838929332939300,1.756939208984375,0.13415478794574737,-1.2971420437589287,0.1776177898362279
1761838929343009500,1.767009521484375,0.036329789009690285,-1.325357207635045,0.14496833330709485
1761838929353079300,1.777079345703125,-0.10000175845324992,-1.332962421941757,0.12876454627476633
1761838929363149300,1.7871494140625,-0.24468904632925986,-1.2924971405625343,0.10680067961206659
1761838929373219600,1.797219482421875,-0.2669038007467985,-1.2346239205256104,0.054848803314985706
1761838929383290400,1.807290283203125,-0.29108254871368405,-1.1758331472523509,0.04052121738411952
1761838929393360400,1.8173603515625,-0.4065910883784294,-1.1216142119392751,0.10282925523044541
1761838929403430400,1.827430419921875,-0.5305091444700956,-1.0618997479498387,0.17614514173408968
1761838929413500400,1.83750048828125,-0.6465607049703598,-0.9862636383377015,0.2238777289688587
1761838929423570400,1.8475703125,-0.7069885779261589,-0.8763120021477341,0.24835080197351053
1761838929433640400,1.857640380859375,-0.7704553801864386,-0.7764365004226564,0.264206944611948
1761838929443710200,1.867710205078125,-0.8391513152718544,-0.6874651084192097,0.2434303880376741
1761838929453780500,1.877780517578125,-0.9113649030894041,-0.6179691089972853,0.20944800240434705
1761838929463850500,1.8878505859375,-0.8474521106272935,-0.5957660450175404,0.1472237292847596
1761838929473921300,1.89792138671875,-0.8894289656132459,-0.5027411398395896,0.1310818559069652
1761838929483991300,1.9079912109375,-0.9775310274362563,-0.3901189692661166,0.13808520446354522
1761838929494061600,1.9180615234375,-0.9767617966294289,-0.25958061825186013,0.16960255169020966
1761838929504131300,1.92813134765625,-0.9069657913476228,-0.16671879468113182,0.21016159403380005
1761838929514201300,1.938201416015625,-0.861442642056942,-0.07863646047189832,0.22018850079579277
1761838929524271600,1.948271728515625,-0.7893366062670946,-0.0031600714661180972,0.24301440938161684
1761838929534341400,1.95834130859375,-0.7760340571016072,0.02922974774613976,0.2655858682823367
1761838929544411400,1.968411376953125,-0.7573252649784088,0.03233940419927239,0.2852612586816773
1761838929554481400,1.9784814453125,-0.7061795996308327,0.03435352050065994,0.26655211949860674
1761838929564551400,1.988551513671875,-0.6280185015857219,0.0321105638794601,0.22766826209193095
1761838929574622500,1.99862255859375,-0.5470534520357847,0.025307313605397938,0.21031444650795308
1761838929584692500,2.0086923828125,-0.5128618440985679,0.0023839725270867348,0.15436050409581512
1761838929594762200,2.01876220703125,-0.4067296200662851,-0.01639730031043291,0.03534543588114902
1761838929604832500,2.02883251953125,-0.2309849306255579,-0.040095425153523684,-0.07723872250318527
1761838929614902500,2.038902587890625,-0.01627835010588169,-0.07201353520080447,-0.22767825376298279
1761838929624972300,2.04897216796875,0.4079372422903776,-0.027595862933993336,-0.40442605583164837
1761838929635042300,2.059042236328125,0.8779092082113027,0.0636979806676507,-0.5945503490848466
1761838929645112600,2.069112548828125,1.3029507300376892,0.12601093671768904,-0.7188102408841252
1761838929655182300,2.079182373046875,1.5690391227483749,0.13518895329907535,-0.7901197925340384
1761838929665253400,2.08925341796875,1.4001824392557143,0.2047733616568148,-0.7998406838204711
1761838929675323400,2.099323486328125,1.0742138705998658,0.35513284995034333,-0.7232436202216893
1761838929685393400,2.109393310546875,1.1219178710609674,0.5874005138628184,-0.7553635364513844
1761838929695463400,2.11946337890625,1.4230880985468626,0.8974412994161247,-0.8026679431356489
1761838929705533400,2.129533447265625,1.4740607454150914,1.110894665004313,-0.6690647977232933
1761838929715603500,2.139603515625,1.4055734846442938,1.1878091239891946,-0.4179638385251164
1761838929725673500,2.149673583984375,1.3827876523405314,1.2611015930846332,-0.18291100087352097
1761838929735743200,2.1597431640625,1.306440325719118,1.323594581876695,-0.09958221786692738
1761838929745813200,2.169813232421875,1.1594652191668748,1.3343467159070075,-0.04011361839734018
1761838929755884300,2.17988427734375,1.1065396846652031,1.2932377297967672,-0.058028337533399456
1761838929765954600,2.18995458984375,1.1389034926533699,1.3197852527216076,-0.15495631456449627
1761838929776024300,2.2000244140625,1.0092793338745831,1.3109260928310453,-0.21387465974017977
1761838929786094300,2.21009423828125,0.8235217844635248,1.2435771884404123,-0.2457012921117246
1761838929796164600,2.22016455078125,0.7472340790748596,1.1673749693781137,-0.24729060712978243
1761838929806234400,2.230234375,0.6993851171851158,1.0159652413792908,-0.22074739505387841
1761838929816304400,2.240304443359375,0.49072249300479887,0.7534491541974246,-0.13071977199576795
1761838929826374400,2.25037451171875,0.22981822493374346,0.4688783254653215,-0.031200901688635346
1761838929836444400,2.2604443359375,0.09191840524077415,0.18388591032028198,0.054438496347889304
1761838929846514400,2.270514404296875,-0.187192550650239,-0.15222966607958077,0.0497236697204411
1761838929856585500,2.28058544921875,-0.46732992697954173,-0.5026199976779521,-0.019511596406064927
1761838929866655200,2.2906552734375,-0.7158850010871887,-0.8380794482566416,-0.14852029016762971
1761838929876725500,2.3007255859375,-0.9203092570453881,-1.0549720675785095,-0.3968598218284547
1761838929886795500,2.31079541015625,-1.0646095914304257,-1.141733966838941,-0.6548761133730411
1761838929896865300,2.320865234375,-1.0315689070940017,-1.1418344315387308,-0.8459273852780461
1761838929906935600,2.330935546875,-0.8261673305362462,-1.0857475834619252,-1.046685446878895
1761838929917005300,2.34100537109375,-0.6491033751904964,-1.0109607841555028,-1.1261678566556423
1761838929927075300,2.351075439453125,-0.5643231512665748,-0.9573335311252623,-1.0415170312650501
1761838929937145300,2.361145263671875,-0.5149690455108881,-1.0344453393131494,-0.8632114052951335
1761838929947216400,2.37121630859375,-0.3083569241195917,-1.1152546137794852,-0.6660670772120356
1761838929957286400,2.381286376953125,-0.1451853005260229,-1.1672395794954151,-0.41756037229076026
1761838929967356400,2.3913564453125,-0.03973579806089401,-1.0959323659330606,-0.19658972640763966
1761838929977426200,2.40142626953125,0.14410393503010271,-1.046642411454767,-0.08359934357628226
1761838929987496400,2.411496337890625,0.42213118733763694,-0.9091793026786297,-0.055568596356362104
1761838929997566500,2.42156640625,0.6297282281130552,-0.7009118152957409,-0.09249547447636723
1761838930007636200,2.43163623046875,0.8549924430042505,-0.530313475767523,-0.11845288602095097
1761838930017706500,2.44170654296875,0.9405068264216184,-0.4170894668433815,-0.10390229128943755
1761838930027776500,2.451776611328125,1.004796050980687,-0.3389136826857924,-0.031337332750950006
1761838930037847600,2.46184765625,1.0960066002130509,-0.3412602458119392,0.04934042429020628
1761838930047917300,2.471917236328125,1.1279174037367106,-0.3590083762094378,0.13415880653373896
1761838930057987300,2.4819873046875,1.1545680947750807,-0.3981782109506428,0.17338654547464102
1761838930068057300,2.492057373046875,1.2748749746322632,-0.4561838251955807,0.16640147236026823
1761838930078127400,2.50212744140625,1.2712521079599857,-0.5197472196981311,0.16130747368950396
1761838930088197400,2.512197265625,1.0940993052870034,-0.5878653548955917,0.1906335944822058
1761838930098267400,2.522267333984375,0.9746879129648208,-0.6595134177848696,0.21566371684772892
1761838930108337400,2.53233740234375,0.9128256232917308,-0.7159072129189967,0.22359365133047102
1761838930118407400,2.542407470703125,0.8223591704249381,-0.7470297886744142,0.23800215244386344
1761838930128477400,2.5524775390625,0.6805424695491791,-0.8053485605217516,0.24790380712468177
1761838930138548500,2.562548583984375,0.529570402315259,-0.9014677784532308,0.238259853531979
1761838930148618500,2.572618408203125,0.3418886068433523,-1.0154403407223522,0.24397223982941357
1761838930158688300,2.582688232421875,0.09032090691626071,-1.071346790730953,0.18149660403095186
1761838930168758300,2.59275830078125,-0.16724106498956678,-1.0823214814707636,0.054588937669247384
1761838930178828500,2.60282861328125,-0.3904676365733146,-1.0498996596850454,-0.02241383435332682
1761838930188898300,2.612898193359375,-0.5216740961074828,-0.9974031642504035,-0.07175556468463037
1761838930198968300,2.62296826171875,-0.6845037743955851,-0.9132239749595522,-0.1844616461153142
1761838930209038600,2.63303857421875,-0.8937012361049651,-0.7906316145136952,-0.2724998671881854
1761838930219108400,2.6431083984375,-1.1653168678045271,-0.7640333843149244,-0.2946914233932271
1761838930229179400,2.653179443359375,-1.4431909753769636,-0.8231561660215259,-0.25166659372430294
1761838930239249400,2.66324951171875,-1.6882231360554694,-0.8031554343916475,-0.24674778722366317
1761838930249319400,2.6733193359375,-1.8365864820957183,-0.7363140411317348,-0.2890680122871883
1761838930259389400,2.683389404296875,-2.0127637177348134,-0.6122006085984408,-0.34224761288147415
1761838930269459500,2.69345947265625,-2.201699312660098,-0.4661132446661591,-0.3794622219016775
1761838930279524900,2.70352490234375,-2.233898285475373,-0.33875264690518375,-0.4081301345139742
1761838930289595000,2.713594970703125,-2.1076123312085864,-0.12699066847003995,-0.416267921327427
1761838930299665000,2.723664794921875,-1.8079636142015456,0.12090886433832347,-0.3982135014597326
1761838930309735000,2.73373486328125,-1.4612836814284325,0.3249182558853179,-0.31596239415463057
1761838930319806000,2.743805908203125,-1.1311194146484136,0.5062361423484981,-0.13066203219285233
1761838930329876000,2.7538759765625,-0.8449760759025812,0.603556114371866,0.05706653872996103
1761838930339945700,2.76394580078125,-0.6047989540398121,0.5745069838896394,0.3161043964412063
1761838930350016000,2.77401611328125,-0.29921441724300385,0.6504290708363056,0.347532421416603
1761838930360086000,2.7840859375,0.015736498314142228,0.7210716099448502,0.3439129522778094
1761838930370155800,2.79415576171875,0.17116496043503285,0.6684291301682591,0.4125311459518969
1761838930380225800,2.804225830078125,0.24272388373613357,0.552128417212516,0.405551589262858
1761838930390295800,2.8142958984375,0.37265374746322627,0.45601285254284735,0.323087021870166
1761838930400365800,2.82436572265625,0.5228793802440166,0.41032413742691276,0.24102345476010814
1761838930410436900,2.834436767578125,0.6321066476821899,0.39840222896486516,0.17682205461496486
1761838930420507000,2.8445068359375,0.7346528299212456,0.41236996404081583,0.15375910413656382
1761838930430577000,2.854576904296875,0.80098262039721,0.40596111991181966,0.21202912320503964
1761838930440647000,2.86464697265625,0.8353618598610162,0.36242855991646644,0.31553032288029786
1761838930450717000,2.874717041015625,0.9298457316756248,0.3658062196560204,0.40460331209469586
1761838930460787000,2.884786865234375,0.8101403248429297,0.37849239048883315,0.5354404633924364
1761838930470857000,2.89485693359375,0.605168371874094,0.4341524645209312,0.7003405182138085
1761838930480926700,2.9049267578125,0.38557401931285856,0.5592777044452727,0.8922329171180725
1761838930490996700,2.914996826171875,0.2183580887645483,0.6754894239433109,1.073140615345165
1761838930501067800,2.92506787109375,0.03901391352713108,0.7554993647255003,1.2400769252344965
1761838930511138000,2.935137939453125,-0.09350772025883197,0.7345315416291356,1.381996355832368
1761838930521207800,2.945207763671875,-0.16584873384833335,0.7837498921759426,1.4210912256412207
1761838930531277800,2.95527783203125,-0.12918518283963204,0.9377131040498614,1.3705905801989138
1761838930541348000,2.96534814453125,-0.16301321816146372,1.0460806859187781,1.280733053010702
1761838930551417900,2.97541796875,-0.29835400102138515,1.0888592126764356,1.194463101985678
1761838930561488000,2.98548779296875,-0.3305412833988666,1.1175555841982363,1.062433562565595
1761838930571558000,2.995557861328125,-0.3710737847954035,1.1172630309924483,0.937394831880927
1761838930581628000,3.0056279296875,-0.3490332179009914,1.0926542210452257,0.8320058274313807
1761838930591698000,3.015697998046875,-0.26195699199438094,1.0926017602056264,0.71265127986297
1761838930601769000,3.02576904296875,-0.12465163106322288,1.114400627298653,0.6401094830043613
1761838930611838700,3.035838623046875,0.03179506818950176,1.0819640463352203,0.5901990220075473
1761838930621909000,3.045908935546875,0.17749182536900043,1.0039435258045792,0.5586686326362192
1761838930631978800,3.055978759765625,0.3670657181978226,0.9257274827018379,0.5578471236528828
1761838930642048800,3.066048828125,0.5561182175010443,0.8591048467591405,0.5648627745686099
1761838930652119000,3.076119140625,0.6589975772172212,0.7414838449850678,0.5880787419179454
1761838930662188800,3.086188720703125,0.7708674681186676,0.5464866119332611,0.5994397650942206
1761838930672258800,3.0962587890625,0.9045107994109391,0.3889876271486282,0.5873800555966794
1761838930682328800,3.106328857421875,0.9741016375094652,0.23042685835137963,0.591645494488813
1761838930692399900,3.11639990234375,0.9585007482737302,0.05765022493600845,0.592909084683843
1761838930702470000,3.126469970703125,0.835170136681199,-0.10833572542592883,0.5822513144060969
1761838930712540000,3.136539794921875,0.7476900061488151,-0.2557798377294093,0.5560553083326667
1761838930722609700,3.146609619140625,0.6324947702169418,-0.3793256995078176,0.5154745838802307
1761838930732680000,3.156679931640625,0.5127233124107122,-0.5213536319814622,0.5035322171520441
1761838930742750000,3.16675,0.43491818819642064,-0.6428697414979339,0.47081740376912057
1761838930752819700,3.17681982421875,0.3383890742897987,-0.7275801881212741,0.4810425182506442
1761838930762890000,3.186889892578125,0.1604471670657396,-0.8578834152054041,0.5120402255173773
1761838930772960000,3.1969599609375,0.035060207465291024,-0.9965863679748028,0.5261751338537782
1761838930783030800,3.20703076171875,-0.09766074828505515,-1.0170856237113475,0.48384643322285265
1761838930793100800,3.217100830078125,-0.3275216433167457,-1.03311752477549,0.49877705851420756
1761838930803170800,3.2271708984375,-0.6475573147922754,-1.0002660063356161,0.47061764341332013
1761838930813240800,3.23724072265625,-0.6670639792948961,-0.8816733099851757,0.3843158724779263
1761838930823310800,3.247310791015625,-0.5925578966259956,-0.7291760059453547,0.27097939788894726
1761838930833380900,3.257380859375,-0.6865566152721643,-0.6145075703665613,0.2553298472058959
1761838930843451000,3.267450927734375,-0.8277221587628125,-0.5904980414867401,0.30990254612639545
1761838930853521000,3.27752099609375,-0.9776794959962367,-0.5846494615890085,0.3863796366073191
1761838930863591000,3.2875908203125,-1.101450252571702,-0.44686011653318997,0.4647535736855119
1761838930873661000,3.297660888671875,-1.2604133185595274,-0.2945521245203912,0.5150056511942297
1761838930883732000,3.30773193359375,-1.3639233773946762,-0.23315993657708167,0.5324469075996429
1761838930893802000,3.317802001953125,-1.4172878878355026,-0.21007132193446157,0.5753515084223821
1761838930903871700,3.327871826171875,-1.2972691772699356,-0.22173004941567778,0.6036394087411463
1761838930913941800,3.337941650390625,-1.3045879758507013,-0.3317987361140549,0.6287445508379489
1761838930924012000,3.348011962890625,-1.4339157820314168,-0.3692885088138282,0.6531160448979586
1761838930934081800,3.358081787109375,-1.3986135825037955,-0.47682592346891756,0.749244322918728
1761838930944151800,3.36815185546875,-1.4521119484573601,-0.6944871160104871,0.821520089252293
1761838930954222000,3.37822216796875,-1.5577262860953807,-0.7664655798979103,0.7482840995844453
1761838930964292900,3.38829296875,-1.6538000574499367,-0.6005971184358,0.5339031708225608
1761838930974363000,3.39836279296875,-1.736965831914544,-0.4040780826441943,0.23938071078807113
1761838930984433000,3.408432861328125,-1.8897581003129482,-0.26700959920883177,0.008216624203324318
1761838930994502700,3.418502685546875,-1.8504653698444364,-0.0787463505871594,-0.18905355874914676
1761838931004573000,3.428572998046875,-1.7347861497879027,0.21180121446698902,-0.39617436031494285
1761838931014643000,3.438642822265625,-1.5268272899627684,0.4750853634119033,-0.5157363766215741
1761838931024712700,3.448712646484375,-1.2122551445901393,0.609652677681297,-0.5150822966270149
1761838931034783000,3.458782958984375,-1.091762971293926,0.5979055412642658,-0.4095660490686074
1761838931044853000,3.46885302734375,-1.039470473998785,0.4806435820609331,-0.23378555766213685
1761838931054923800,3.478923828125,-0.8309475505501032,0.4589651264771819,-0.15619312635045499
1761838931064993800,3.488993896484375,-0.36793197963833807,0.46468233508020634,-0.2455709802629426
1761838931075064000,3.49906396484375,0.11111585766375064,0.4592015655815601,-0.3062391647806391
1761838931085133800,3.5091337890625,0.7473755333721638,0.5692208601802587,-0.4151053803540766
1761838931095203800,3.519203857421875,1.3064116841465234,0.7530114934325218,-0.3398337201401591
1761838931105273900,3.52927392578125,1.6385148100346325,0.9048265873618423,-0.18503880668245254
1761838931115344000,3.53934375,1.9591747508883475,1.0377949420019983,-0.022587275241070893
1761838931125414000,3.549413818359375,2.2307962278068065,1.1353957767933607,0.16398518673246726
1761838931135484000,3.55948388671875,2.2088170357108114,1.1211332965545355,0.4110574932027608
1761838931145554700,3.5695546875,2.007701758170128,1.1176394630894064,0.6481416174862533
1761838931155625000,3.579625,1.725908431327343,1.0836845865175126,0.8621309896472841
1761838931165695000,3.589695068359375,1.467955414277315,1.0165729980140923,0.9698551590461283
1761838931175764700,3.5997646484375,1.5076251613646745,1.0623135894477367,0.8271780419487506
1761838931185835000,3.6098349609375,1.7086971842855214,1.1996399931669235,0.5314932601366191
1761838931195905000,3.619905029296875,1.5915899772524833,1.271430679397285,0.29956551396930586
1761838931205974800,3.629974853515625,1.2626005994707346,1.2965084220305085,0.1705476687869057
1761838931216044800,3.640044921875,1.1643021378040312,1.3591574781671165,0.03882102130353451
1761838931226114800,3.65011474609375,1.1552584151268004,1.4211355031743644,-0.09655784681076184
1761838931236185900,3.660185791015625,1.0514005657672882,1.4584619020059704,-0.16529254300398752
1761838931246255900,3.670255859375,0.918173998582363,1.285024320463836,-0.167301435140986
1761838931256326000,3.680325927734375,0.6184890412181615,0.9356856898754835,-0.05470657269954681
1761838931266396000,3.69039599609375,0.2118786636173725,0.5018494516968727,0.09667685181424021
1761838931276466000,3.7004658203125,-0.04849778118729591,0.055553544917702674,0.1379207528831437
1761838931286536000,3.710535888671875,-0.14483809452354907,-0.20568828454464672,0.08807904627360404
1761838931296606000,3.72060595703125,-0.18342063089609145,-0.43498774630129333,0.10505162572134286
1761838931306676000,3.730676025390625,-0.25866730279922484,-0.7309203653946519,0.15123977825939655
1761838931316746000,3.74074609375,-0.28234277741909025,-0.8531957688458264,0.1395503268463537
1761838931326817000,3.750817138671875,-0.16471943755745888,-0.8259620172224938,0.10779171820972114
1761838931336886800,3.76088671875,-0.04409633135795593,-0.8134839361824094,0.1988671332877129
1761838931346957000,3.77095703125,0.08889876515865325,-0.8477547468356788,0.4079068471521139
1761838931357027000,3.781027099609375,0.2817220151722431,-0.8651536254040897,0.6381132676858454
1761838931367096800,3.791096923828125,0.44476562847197054,-0.8009222685120999,0.864722978901863
1761838931377167000,3.8011669921875,0.4921779525101185,-0.7245021689154207,1.0900525141142308
1761838931387237000,3.811237060546875,0.5341308420985936,-0.6197514623694121,1.290938512943685
1761838931397307000,3.821306884765625,0.6001251170098781,-0.5339170532174408,1.4483587334036827
1761838931407377000,3.831376953125,0.6302677418172359,-0.37248715872466565,1.5597024084739386
1761838931417448000,3.841447998046875,0.678690704202652,-0.12985562944710255,1.6633337556011973
1761838931427518000,3.85151806640625,0.6345341670900583,0.09406915353387593,1.820923779670149
1761838931437588000,3.861587890625,0.6136737498909235,0.3354664648413658,1.9347358906805514
1761838931447658000,3.871657958984375,0.704752197176218,0.453603014922142,2.0834265689790246
1761838931457728000,3.88172802734375,0.8171423125594854,0.5201075774431229,2.2617905010074377
1761838931467798000,3.891798095703125,0.7213087797015905,0.6318804377108812,2.4087182612866163
1761838931477868000,3.901867919921875,0.4411906925946474,0.7206354104846715,2.557887078490853
1761838931487938000,3.91193798828125,0.26815175498127936,0.7346589674010873,2.7086756058514116
1761838931498008000,3.922008056640625,-0.20261749879717825,0.7554638550207018,2.891482781024277
1761838931508079000,3.9320791015625,-0.485619616907835,1.0073135867595673,2.8435891032099723
1761838931518148900,3.94214892578125,-0.5281581974297762,1.38566233099401,2.663586464063823
1761838931528219000,3.952218994140625,-0.8082295227855444,1.6263628922089934,2.5387737972199917
1761838931538289200,3.9622890625,-1.0920324358850717,1.738105649599433,2.429299277022481
1761838931548359000,3.97235888671875,-1.309146662068367,1.9262074240490794,2.284751982139051
1761838931558429000,3.982428955078125,-1.2704296856611967,2.1811394858427344,2.096343625958264
1761838931568499200,3.992499267578125,-1.3283873691111803,2.3385903937019408,1.9378093067765234
1761838931578569000,4.00256884765625,-1.3235206398576498,2.4421441455483435,1.7982720951400697
1761838931588637000,4.012636962890625,-1.31109896517992,2.3862764201149345,1.8008952832505105
1761838931598707000,4.02270703125,-1.3120552429914474,2.4972999233201145,1.6893563778690992
1761838931608777000,4.03277685546875,-1.2772113086253405,2.5998575037360188,1.5954751481227576
1761838931618848000,4.042847900390625,-1.1827414653360844,2.6733821741521355,1.5138506117507815
1761838931628918000,4.05291796875,-1.062111344873905,2.71875890070945,1.4573672386370597
1761838931638988000,4.062988037109375,-0.8927163167208433,2.8018799592494963,1.3473469211250544
1761838931649058000,4.07305810546875,-0.734702514281869,2.7991265688881275,1.2800304576992987
1761838931659128000,4.083128173828125,-0.6051502516955137,2.770170231255889,1.2277666019767521
1761838931669198000,4.093197998046875,-0.4963461781054735,2.7656366794794796,1.1481555973842739
1761838931679267800,4.103267822265625,-0.4121393701553345,2.738572731465101,1.0357899588551371
1761838931689337900,4.113337890625,-0.30897242566943167,2.6724150826856494,0.8951943242069333
1761838931699408100,4.123408203125,-0.18373335010707378,2.6477771927744147,0.770695691748336
1761838931709479200,4.133479248046875,-0.003147650375962257,2.6773399718672035,0.5898655888020992
1761838931719549000,4.143548828125,0.19945991154909132,2.70296278116256,0.44807489915043114
1761838931729619000,4.153618896484375,0.44635903514325614,2.7394217495098707,0.36529154813215137
1761838931739689000,4.16368896484375,0.7350263394087553,2.702204948532581,0.3552776652485132
1761838931749759000,4.173759033203125,1.0169172814071177,2.64191151561141,0.4189830620376393
1761838931759829000,4.1838291015625,1.1042220553725957,2.5893574447706342,0.538167805997096
1761838931769899000,4.19389892578125,1.2240186476200818,2.4988626425921914,0.6789995509561151
1761838931779969000,4.203968994140625,1.3748352320313453,2.4278758200906214,0.8114668972715735
1761838931790040000,4.2140400390625,1.2438736871689557,2.4059907360188664,1.0122841417137534
1761838931800110000,4.224110107421875,1.1086463015556334,2.3332667144611476,1.2112607997905462
1761838931810179800,4.234179931640625,1.0242039312839508,2.305211563452333,1.4229150800675152
1761838931820250000,4.24425,0.8351566926777362,2.3710179145760835,1.585033102954924
1761838931830319900,4.25431982421875,0.5929127014130353,2.420072160602361,1.7314578821480273
1761838931840390000,4.264389892578125,0.31641163575947284,2.4491359041318295,1.9045096792429685
1761838931850460200,4.274460205078125,-0.03252805863916874,2.441094490364939,2.051824100752175
1761838931860530000,4.284530029296875,-0.36279987744688985,2.3736514779500664,2.146219417500496
1761838931870600000,4.294599853515625,-0.7124567802041769,2.3335057839140294,2.1553511107221244
1761838931880671000,4.3046708984375,-1.0636328553527592,2.331398582501709,2.0488545834220946
1761838931890741000,4.314740966796875,-1.4561825588971375,2.331163896963,1.9491823491841553
1761838931900811000,4.32481103515625,-2.0550322491437196,2.3911419803246856,1.8820394887596368
1761838931910881000,4.334881103515625,-2.6450170804113147,2.422392858634889,1.822369010042399
1761838931920950800,4.34495068359375,-3.081013711494207,2.43274181869179,1.8207642051942645
1761838931931021000,4.35502099609375,-3.4417841289401054,2.5004440665647385,1.8498630200371144
1761838931941091000,4.365091064453125,-3.7054379879802464,2.566597039169073,1.838560120256245
1761838931951160800,4.375160888671875,-3.8308962592512366,2.6206658984869717,1.8202702841974794
1761838931961231000,4.385231201171875,-3.795936589550972,2.6693668010309337,1.8166636380076406
1761838931971302100,4.39530224609375,-3.5898078677624463,2.73909704760015,1.717996927550435
1761838931981372000,4.405371826171875,-3.243715379488468,2.7336709308981892,1.6005147497251628
1761838931991442000,4.41544189453125,-2.9329052169978618,2.6530904967516657,1.5015635232381521
1761838932001512000,4.425511962890625,-2.6271137594521043,2.5483985346555706,1.4292052662529051
1761838932011582000,4.43558203125,-2.261123561531305,2.470776950314641,1.372810155944526
1761838932021652000,4.44565185546875,-1.9611568646162747,2.433078064908832,1.3060770453646777
1761838932031722000,4.455721923828125,-1.5592746845811605,2.408572715336084,1.2081876028902827
1761838932041792000,4.4657919921875,-1.0741209316194056,2.3791966909870506,1.079556985193491
1761838932051863000,4.475863037109375,-0.6405582496851683,2.3411440237075087,0.9672193306498229
1761838932061933000,4.48593310546875,-0.23767536817491053,2.282853455041349,0.9043508596088736
1761838932072002800,4.4960029296875,0.03748538878560066,2.2009996399581433,0.8795644280724227
1761838932082073000,4.506072998046875,0.25352234112620353,2.090399330601096,0.8384485738299786
1761838932092143000,4.51614306640625,0.38409225632250305,2.0130834512084723,0.8656203661330044
1761838932102212900,4.526212890625,0.40631051787137984,1.9399764216825366,0.9259578573916107
1761838932112283000,4.536282958984375,0.44162323879301546,1.9107716622471809,1.0064918951131403
1761838932122353200,4.546353271484375,0.45750060688257216,1.8870730990126727,0.9739058957416563
1761838932132423000,4.5564228515625,0.44846857464313505,1.8850798793688415,0.9006921179056168
1761838932142494000,4.566493896484375,0.3867360488295555,1.917367699511349,0.8677938377145678
1761838932152564000,4.57656396484375,0.34082711509168145,1.915523240688443,0.8560183519858866
1761838932162634000,4.586634033203125,0.26315467734634873,1.9511993880949914,0.8482208299774676
1761838932172704000,4.5967041015625,0.19802081865668295,1.976166948352009,0.8820356404915451
1761838932182774000,4.60677392578125,0.12508300821781157,1.9102132977120576,0.9014601066034287
1761838932192844000,4.616843994140625,0.1119803655385971,1.9564834659777581,0.7785022007808089
1761838932202914000,4.6269140625,0.1334422557622194,2.0271498243533075,0.6098255500301718
1761838932212984000,4.636984130859375,0.08022212222814559,2.095694952791184,0.4952132285527885
1761838932223053800,4.6470537109375,-0.021526187631487847,2.1334766941748557,0.3474697679765522
1761838932233124000,4.6571240234375,-0.013362754920125007,2.056730285233259,0.21057064975872636
1761838932243195100,4.667195068359375,-0.0655909548074007,1.9044699317544698,0.1313195645198226
1761838932253265000,4.677264892578125,-0.28718320318758483,1.7339434153534472,-0.016928411512449382
1761838932263335000,4.6873349609375,-0.48028293205499645,1.5366177393540739,-0.24523922755792735
1761838932273405200,4.6974052734375,-0.38533728794753547,1.3035007651358843,-0.4541759925045073
1761838932283476000,4.70747607421875,-0.1069178214520216,1.220007804543525,-0.7061246545732021
1761838932293546000,4.7175458984375,0.1630231550335884,0.9083645522296429,-0.9216444511719047
1761838932303615700,4.72761572265625,0.46917701615095136,0.4222369857996702,-0.9819099731728435
1761838932313686000,4.73768603515625,0.7229775896966457,0.27561566112115976,-0.7296662736803293
1761838932323757000,4.747757080078125,0.7016659215986728,0.1204663082025945,-0.44487917184904213
1761838932333826800,4.757826904296875,0.6808686327636242,-0.22262860569059847,-0.22141670915018766
1761838932343896800,4.767896728515625,0.8659504748702048,-0.43814723324552174,-0.03959459949191659
1761838932353966800,4.777966796875,0.8552835349053144,-0.5401468875177204,-0.024295323551259934
1761838932364036900,4.788036865234375,0.8188508700430392,-0.5473264237582683,-0.07004903019480407
1761838932374107000,4.79810693359375,0.8731383405476808,-0.5724500513598323,-0.25465441389605403
1761838932384177000,4.808177001953125,0.9746703773081302,-0.5369068826831876,-0.5366371623637154
1761838932394247000,4.818246826171875,1.113354625377059,-0.5011339969038963,-0.6939403688479214
1761838932404317000,4.82831689453125,1.1876719074755906,-0.5518032769113779,-0.7218857028067112
1761838932414388000,4.838387939453125,1.1919137828290463,-0.5743899333812296,-0.6864855227973312
1761838932424457700,4.848457763671875,1.093053595626354,-0.4965713651634752,-0.6043227878954262
1761838932434528000,4.858528076171875,0.9968412925839424,-0.3549453645542264,-0.5150867536064238
1761838932444598000,4.868597900390625,0.6596206775516271,-0.46211087715700266,-0.34759617083519695
1761838932454667800,4.878667724609375,0.3344324456185102,-0.5799908221282064,-0.11564290663413702
1761838932464737800,4.88873779296875,0.04764730183780193,-0.5530503543630242,0.03878646144680679
1761838932474808000,4.89880810546875,-0.3259206378608942,-0.5292611902356148,0.10227014177665114
1761838932484877800,4.9088779296875,-0.6760019035100937,-0.6422086472406983,0.0864444308090955
1761838932494947800,4.91894775390625,-0.8661924669325352,-0.7575564433857798,-0.07614208637289703
1761838932505019000,4.929018798828125,-1.01792032096982,-0.716207803300768,-0.35787045822069047
1761838932515089000,4.9390888671875,-1.3140531388103962,-0.5213100851006806,-0.6448940869323909
1761838932525159000,4.949158935546875,-1.5226777690678834,-0.21523133504614234,-0.9109185475613921
1761838932535229000,4.95922900390625,-1.6737439443260431,0.17673530791327358,-1.1663941416472197
1761838932545298700,4.969298583984375,-1.7597645236998796,0.5630991624295711,-1.406535315413773
1761838932555369000,4.979368896484375,-1.7750649686843156,0.8302483162395655,-1.5250639335520564
1761838932565438700,4.989438720703125,-1.66530111015141,0.9696483113624155,-1.493764539925009
1761838932575508700,4.9995087890625,-1.5141197840809821,1.0776694178812205,-1.4978639380678533
1761838932585579000,5.0095791015625,-1.1898720478683709,1.2184912625007331,-1.5972420116648076
1761838932595650000,5.019650146484375,-0.9287135127753019,1.3247664021350443,-1.6665531560391187
1761838932605719800,5.0297197265625,-0.5329623828411102,1.3627999263226984,-1.7975085634216665
1761838932615789800,5.039789794921875,-0.007021861460804939,1.369989691696316,-1.9263710901781916
1761838932625860000,5.049860107421875,0.27141923234462734,1.368381964238733,-1.9877417969420552
1761838932635929900,5.059929931640625,0.22015140192210672,1.2952357717461884,-1.9281794547744093
1761838932645999900,5.069999755859375,0.2142535760551691,1.2735120157159865,-1.9156041969701647
1761838932656069600,5.080069580078125,0.4319266051650047,1.4188225500568747,-1.931691408418119
1761838932666140000,5.090139892578125,0.6870785933196544,1.5334038918741046,-1.9497288771510124
1761838932676210000,5.1002099609375,0.7944441585391759,1.46574533701241,-1.8923983856886624
1761838932686281000,5.110281005859375,0.828527045404911,1.3120171029381453,-1.8059473059430717
1761838932696350700,5.120350830078125,0.8045634014934301,1.1097441797949372,-1.7600119225896893
1761838932706421000,5.1304208984375,0.840276519909501,0.8546198102995752,-1.7214707411408423
1761838932716490800,5.14049072265625,0.9651298110246658,0.6578893237143755,-1.7536723443046212
1761838932726560800,5.150560791015625,1.0134773700863122,0.5663963042788207,-1.7706776935108004
1761838932736631000,5.160631103515625,1.017256304103136,0.4819279227830469,-1.7782016592748462
1761838932746700800,5.17070068359375,0.9668179102420806,0.35631109994947907,-1.7589954390235245
1761838932756770800,5.180770751953125,0.9835323136776685,0.18822934635207056,-1.674877916792035
1761838932766840800,5.1908408203125,1.0719166995733975,0.08198518637791276,-1.5624145900420843
1761838932776910800,5.200910888671875,1.025658221745491,-0.06532923513129353,-1.4168407285898923
1761838932786982000,5.21098193359375,0.9755962599813938,-0.2547396079614758,-1.2501580281354485
1761838932797052000,5.221052001953125,0.9123498224735259,-0.481052162861824,-1.077862310104817
1761838932807121700,5.23112158203125,0.8451520169913769,-0.666796414399892,-0.97356124702245
1761838932817192000,5.24119189453125,0.8366904781162738,-0.8242955453149974,-0.9336821680333465
1761838932827262000,5.251261962890625,0.770683928245306,-0.9919619961097836,-0.9199490454308689
1761838932837331700,5.261331787109375,0.6648901423871517,-1.1954488250873982,-0.9389417690619826
1761838932847402000,5.271402099609375,0.6410667837291956,-1.3463847980946302,-0.9452559206448495
1761838932857472000,5.281471923828125,0.49726680008172985,-1.5150352914907037,-0.9129371208421886
1761838932867541800,5.291541748046875,0.22983985224366188,-1.6978125099167227,-0.8735637994181364
1761838932877612800,5.30161279296875,0.11914601938426495,-1.8579142245456575,-0.8278140748299658
1761838932887682800,5.311682861328125,-0.003913374051451683,-2.0563693429663776,-0.7300771925687789
1761838932897752800,5.3217529296875,-0.24873159971833228,-2.280826771519333,-0.5880773536784574
1761838932907822800,5.33182275390625,-0.47892801031470295,-2.3820836446002125,-0.5143079512536526
1761838932917892900,5.341892822265625,-0.7218582302778959,-2.351608719098568,-0.5120976547930389
1761838932927963000,5.351962890625,-0.9336100526452064,-2.2172858811095355,-0.5392554185707121
1761838932938033000,5.362032958984375,-1.0756231528759002,-2.0423064769528807,-0.564475017360039
1761838932948103000,5.37210302734375,-1.3285112877517937,-1.9012515542298554,-0.5401553630851209
1761838932958172700,5.382172607421875,-1.5461854859054087,-1.708173744933307,-0.5235965155374258
1761838932968243700,5.39224365234375,-1.6162883651793003,-1.4824515571415424,-0.531951707961224
1761838932978314000,5.40231396484375,-1.7267781998991965,-1.3033875140197575,-0.5102056305013597
1761838932988383700,5.4123837890625,-1.7343150251448154,-1.1715766588516532,-0.43079906243979926
1761838932998453800,5.422453857421875,-1.5848685600429773,-1.0743228839322925,-0.2878847755856812
1761838933008524000,5.43252392578125,-1.63741941601336,-0.9584408347800374,-0.1920410135947168
1761838933018593800,5.44259375,-1.9018816688269375,-0.6892876476712525,-0.3021604440996423
1761838933028663800,5.452663818359375,-2.4309604882329703,-0.3736602941572666,-0.31022209693696345
1761838933038734000,5.462734130859375,-2.721274975183606,0.14275471237823367,-0.4783989449393004
1761838933048803800,5.472803955078125,-2.3682412894695997,0.929111426051706,-0.8668392404034734
1761838933058873900,5.482873779296875,-2.0875912874430416,1.5458907407425344,-1.0477044877283275
1761838933068945000,5.49294482421875,-1.6457126125842332,1.7352959990061818,-0.9266823722738772
1761838933079014700,5.5030146484375,-1.1989157705456017,1.7273010547295211,-0.6779403242267668
1761838933089085000,5.5130849609375,-0.9487363101065158,1.7739415176123379,-0.3972562372675165
1761838933099155000,5.523155029296875,-0.5467202745586633,1.7847683243140577,-0.3036473216565326
1761838933109224700,5.533224609375,0.09421732983291149,1.8226523570284245,-0.2312841327678412
1761838933119295000,5.543294921875,0.7615437594562768,1.8236403451524674,-0.24439452036209403
1761838933129365000,5.553364990234375,1.3868337128609418,1.5892532048679888,-0.1438667652733624
1761838933139434800,5.563434814453125,1.7443033351957797,1.0483251038447021,0.1732027498729527
1761838933149505000,5.573505126953125,1.8745371503055095,0.4303684159375727,0.6521937424212694
1761838933159574800,5.58357470703125,1.959565211510658,-0.08191153661981225,1.1223542897168546
1761838933169645800,5.593645751953125,1.9422458279192447,-0.5086316591829061,1.5334848481558263
1761838933179715800,5.6037158203125,1.8125503574699162,-0.7175305763371288,1.8784967015862464
1761838933189785900,5.613785888671875,1.5457704753637314,-0.6877810425005852,1.9790335898295044
1761838933199855900,5.62385595703125,1.3695944087684153,-0.5332317013017833,1.9659668952465057
1761838933209926000,5.63392578125,1.1729647522091864,-0.35078283804729576,1.9486247153013943
1761838933219996000,5.643995849609375,0.9032704439610242,-0.11534005123004316,1.9310506262965499
1761838933230066000,5.65406591796875,0.5418973844468593,0.1379490656621754,1.951133044860512
1761838933240136000,5.664135986328125,0.09907178412675857,0.3173362032584846,1.9416895092107354
1761838933250205700,5.674205810546875,-0.19461831673681734,0.5041713187731802,1.810652853285521
1761838933260276700,5.68427685546875,-0.39232641618251796,0.6649870268903673,1.6603133848667144
1761838933270346800,5.6943466796875,-0.6159387722134589,0.8253234270580112,1.437363876658678
1761838933280417000,5.7044169921875,-0.6257704303979873,1.1499063865743577,1.0561186072651296
1761838933290486500,5.714486572265625,-0.45198155120015143,1.3653995874270797,0.6498540474273264
1761838933300556500,5.724556640625,-0.19660919829308984,1.4819414156623183,0.3369982044532895
1761838933310626800,5.734626708984375,0.09567278933823108,1.456806243753433,0.1226986703645438
1761838933320696600,5.744696533203125,0.3844955764263868,1.3458128434255718,0.07132160741388797
1761838933330766600,5.7547666015625,0.4801145897507667,1.2004421033300459,0.2286957967750728
1761838933340836900,5.7648369140625,0.6738765819191932,1.0287006581813096,0.3578558451734483
1761838933350906600,5.77490673828125,1.0902695178657769,0.8949268323771655,0.30634017746970055
1761838933360977700,5.784977783203125,1.2381857046604157,0.6333316594325006,0.33512188918739555
1761838933371047700,5.795047607421875,1.2008534606099128,0.45721448341757054,0.4589535821698606
1761838933381117700,5.80511767578125,1.1957003156304358,0.32060704162269826,0.5314325429253279
1761838933391187700,5.815187744140625,1.1966887421458958,0.17458441348969936,0.5375723608545959
1761838933401257700,5.8252578125,1.208988251748681,0.1335075760833919,0.4484688669040799
1761838933411327500,5.835327392578125,1.230969197410345,0.14876403579562902,0.3284773366063833
1761838933421397800,5.845397705078125,1.1426011781275272,0.11987184944078326,0.2619387256853282
1761838933431467800,5.8554677734375,1.0208598815530538,0.02778437124341726,0.2169688263632357
1761838933441537500,5.86553759765625,0.8391103987395763,-0.09253872909620403,0.21005670888721942
1761838933451607800,5.87560791015625,0.5883803186804056,-0.19821634122878312,0.2034805453673005
1761838933461678800,5.885678955078125,0.4368114545971155,-0.25202654961049553,0.2080387931935489
1761838933471748600,5.89574853515625,0.22558862453997133,-0.2815639020010829,0.23782456738725302
1761838933481818600,5.905818603515625,0.05114449630379676,-0.34468583634644745,0.3057265756160021
1761838933491888600,5.915888671875,-0.07756780832707881,-0.46260172941386696,0.397929789147526
1761838933501958700,5.925958740234375,-0.26906302460730075,-0.5497041126750409,0.4600933267895132
1761838933512028700,5.936028564453125,-0.5172919355005026,-0.6332390127129852,0.5409039164301007
1761838933522098400,5.946098388671875,-0.799535344198346,-0.6510287902951241,0.5406003303736447
1761838933532168700,5.956168701171875,-0.988484967648983,-0.5827295994423329,0.4842318158112466
1761838933542238700,5.96623876953125,-1.0082926609247922,-0.5233399834930896,0.38632812561579044
1761838933552308500,5.97630859375,-1.078760866379738,-0.5102287191160023,0.34148397156521676
1761838933562379500,5.986379638671875,-1.0789163492023943,-0.5117597280755639,0.4146368860594928
1761838933572449800,5.99644970703125,-1.1379887158960103,-0.49642377338632937,0.4804620149489492
1761838933582519800,6.006519775390625,-1.4484405664682387,-0.1883991499610245,0.5023499850975349
1761838933592589600,6.016589599609375,-1.7885715159893034,0.055925008578598494,0.5875871224761009
1761838933602659600,6.02665966796875,-1.9448381825000047,-0.010940642339736222,0.6136698774334043
1761838933612729600,6.0367294921875,-2.123297391596436,0.019392682734131812,0.5283730457568541
1761838933622799600,6.046799560546875,-2.1331179438650607,0.23811449024453757,0.3024189854379743
1761838933632869600,6.05686962890625,-1.8751532363772392,0.39264702643901106,-0.015692604373488576
1761838933642939600,6.066939697265625,-1.5746528709769247,0.5584025290459395,-0.34929000567365437
1761838933653009700,6.077009765625,-1.46194068403244,0.7855164634570478,-0.6186951582495123
1761838933663079700,6.08707958984375,-1.1856558914780615,1.0405204214431345,-0.8682963073439895
1761838933673150500,6.097150390625,-1.0315332512587307,1.026304556825012,-0.9564213116511702
1761838933683220700,6.107220703125,-0.9289093276083469,0.9362550141960382,-0.9682445820443332
1761838933693290800,6.117290771484375,-0.7955418906480074,0.8232344919547439,-0.9509997249938547
1761838933703360500,6.127360595703125,-0.5577256526976824,0.6023030455708503,-0.8922531561885029
1761838933713430500,6.137430419921875,-0.19315759653449058,0.43582975008338687,-0.8462466803602874
1761838933723500800,6.147500732421875,0.27487492575645445,0.3557949671208858,-0.8765969565689563
1761838933733570600,6.157570556640625,0.7176707154601812,0.32429873574748636,-0.8998032062418758
1761838933743640600,6.167640625,1.1187117684960364,0.3066641487270593,-0.9891465733628719
1761838933753710800,6.1777109375,1.3610527903944254,0.3429745023839175,-1.0134571310158818
1761838933763780600,6.187780517578125,1.3674042052477597,0.38493674432262776,-0.9318284299254417
1761838933773851600,6.1978515625,1.3964835847377777,0.4831687166243791,-0.8564072051730006
1761838933783921700,6.207921630859375,1.3259271164774893,0.515878415440768,-0.7530689957734197
1761838933793991700,6.21799169921875,1.238628772252798,0.5150124462611972,-0.682343235360831
1761838933804061700,6.228061767578125,1.1159873119682073,0.4870157474413514,-0.6164688605021685
1761838933814131700,6.238131591796875,0.9969745635747909,0.4566254314832389,-0.7227747606009245
1761838933824201500,6.248201416015625,0.973266355729103,0.5317180818684398,-1.0246983637373894
1761838933834271700,6.258271728515625,0.7916162416368723,0.6530933216094971,-1.2950181834727525
1761838933844341800,6.268341796875,0.5824760630726814,0.7583904099918901,-1.4860728163786232
1761838933854411500,6.27841162109375,0.4192266980677843,0.7852788553088903,-1.6962553436025976
1761838933864481800,6.288481689453125,0.34357261440753933,0.8292709956400096,-1.8746106539331375
1761838933874551600,6.298551513671875,0.2981523409694433,0.9043212681882082,-2.0097807564012706
1761838933884622600,6.30862255859375,0.15537760871648787,0.9466130343422293,-2.060917653920501
1761838933894692600,6.318692626953125,-0.08809270947277545,0.8829305435046553,-2.0322011163935065
1761838933904762600,6.3287626953125,-0.23128771296441553,0.6000668109513819,-1.9556898313820361
1761838933914832600,6.33883251953125,-0.20573416951298712,0.16364508632421493,-1.9015116664707659
1761838933924902700,6.348902587890625,-0.24132862998545168,-0.382782196637243,-1.748286267352104
1761838933934972700,6.35897265625,-0.3412526470273733,-0.8726404740281403,-1.5139055568084119
1761838933945042700,6.369042724609375,-0.3616811025500297,-1.2154586168065666,-1.3481982772573828
1761838933955112700,6.37911279296875,-0.2214689142614603,-1.4461603465765713,-1.2855717252135277
1761838933965182500,6.389182373046875,-0.1713403170019388,-1.5338681483849883,-1.1183623705364762
1761838933975252700,6.399252685546875,-0.18973463634848595,-1.4372164310120046,-1.0548623235937207
1761838933985322800,6.40932275390625,-0.01717500668466091,-1.2850938785687087,-1.0149060146499425
1761838933995393800,6.419393798828125,0.235889653801918,-1.1285312978513538,-0.9487569145031273
1761838934005463600,6.429463623046875,0.4691501281440258,-0.9583452654510736,-0.7721018322192132
1761838934015533600,6.439533447265625,0.6419271999508143,-0.8452931790277362,-0.47210981819983566
1761838934025603800,6.449603759765625,0.7314326988309622,-0.7180417407296598,-0.22269768887143582
1761838934035673600,6.459673583984375,0.7961895409017801,-0.5816302598983049,-0.05180051252711564
1761838934045743600,6.46974365234375,0.875137405410409,-0.5346760548911988,0.0140917998470366
1761838934055813600,6.479813720703125,0.8967775748103857,-0.5070958279177546,0.10360405726153403
1761838934065883600,6.489883544921875,0.8356471065431833,-0.5569958771184087,0.14172653837427496
1761838934075953700,6.49995361328125,0.843396697756648,-0.549207853590697,0.10368716896772384
1761838934086023700,6.510023681640625,0.8512795599609613,-0.5140937239810824,0.01398088681846857
1761838934096094700,6.5200947265625,0.7561264105826616,-0.46648675415366886,-0.0964797218069434
1761838934106164700,6.530164794921875,0.6486357576787471,-0.44780382712408895,-0.17178601494282483
1761838934116234500,6.540234375,0.5651444045215844,-0.4880453827500343,-0.20793306779675186
1761838934126304500,6.550304443359375,0.47186114066839213,-0.5238678067594766,-0.23466055039837955
1761838934136374800,6.560374755859375,0.3435375430941581,-0.5159858213379979,-0.2638117530155927
1761838934146444500,6.570444580078125,0.1969996589154005,-0.5304704198949038,-0.25560002418309447
1761838934156514600,6.5805146484375,0.17778993153274059,-0.5956041324540973,-0.22914207923784852
1761838934166584800,6.590584716796875,0.0553998156607151,-0.5518070763036609,-0.24004048987105486
1761838934176654600,6.600654541015625,-0.04484978007376194,-0.47419221396446226,-0.24758586374931035
1761838934186724600,6.610724609375,-0.10564005660116672,-0.3117848527416587,-0.24354681749157606
1761838934196794600,6.620794677734375,-0.3166103732019663,-0.3299599763795733,-0.11814268756061792
1761838934206865700,6.63086572265625,-0.2739367681235075,-0.3670668872416019,0.009189195562526583
1761838934216935700,6.640935791015625,-0.328742709544301,-0.4296583679720759,0.13137779751308262
1761838934227005700,6.651005615234375,-0.4976935010612011,-0.49053924539238214,0.1948885850455612
1761838934237075500,6.661075439453125,-0.8251648754954337,-0.5556108525007963,0.23230397733487188
1761838934247145700,6.671145751953125,-1.2631681702256201,-0.4758808977037668,0.15881350144930184
1761838934257215700,6.6812158203125,-1.6141355710595846,-0.25642829170078035,-0.09160152131132782
1761838934267285500,6.691285400390625,-1.7654191884607076,0.076575290158391,-0.4518963571347296
1761838934277355800,6.701355712890625,-1.9856015700429677,0.38811142883598804,-0.5988956482801586
1761838934287425500,6.711425537109375,-1.928334206944704,0.7143994387045502,-0.6865859144318849
1761838934297495600,6.72149560546875,-1.5342922190159558,1.0770455868944524,-0.8329265955381094
1761838934307565600,6.731565673828125,-1.1504285107523202,1.261600190256536,-0.8622569541145115
1761838934317635600,6.741635498046875,-1.135878007352352,1.2376356695622206,-0.6128595839638262
1761838934327706600,6.75170654296875,-1.1303905158519745,1.0698458846487104,-0.2307561633709818
1761838934337776400,6.7617763671875,-0.729101625534892,0.9289096198692918,-0.08307078965753316
1761838934347846400,6.771846435546875,-0.3056336366355419,0.8216114207975566,-0.05992240765169263
1761838934357916700,6.781916748046875,0.046484687799215316,0.6780847011335194,0.02406644669882953
1761838934367986400,6.791986328125,0.3500046932816505,0.5226768434092403,0.13048684002272784
1761838934378056400,6.802056396484375,0.613260492914915,0.37109278175681826,0.21073789608441293
1761838934388126700,6.812126708984375,0.875176568377018,0.237077694542706,0.22687946806810794
1761838934398196500,6.822196533203125,1.0802484745889902,0.17021511236429213,0.22974947054646908
1761838934408266500,6.8322666015625,1.1685030966252088,0.17665829715430736,0.2709421163521707
1761838934418336500,6.84233642578125,1.242004386165738,0.21418635603785513,0.31055626079477366
1761838934428406500,6.852406494140625,1.3041384785175323,0.21690058343261479,0.3799372555349022
1761838934438476500,6.8624765625,1.2175497438669205,0.23636457783728837,0.5745760305378586
1761838934448547600,6.872547607421875,1.0326152012765406,0.2928150715947151,0.8391759382564574
1761838934458617300,6.882617431640625,0.7798878099203109,0.3784156719908118,1.0478216113019734
1761838934468687600,6.8926875,0.4732791907727718,0.47047377796322104,1.2446170528821647
1761838934478757600,6.902757568359375,0.2235591645389795,0.6899173238769173,1.3816907970145345
1761838934488827400,6.912827392578125,-0.06827332575917243,0.947728886629641,1.4421373746708035
1761838934498897700,6.922897705078125,-0.3196417037218809,1.1579586139962077,1.4676473712414502
1761838934508967700,6.9329677734375,-0.5539940649539232,1.3246844229400156,1.4122674293249844
1761838934519037400,6.943037353515625,-0.6799731452286243,1.4808756861269474,1.325016139112413
1761838934529107500,6.953107421875,-0.8044476661592721,1.6317209121108054,1.2498588990584014
1761838934539177500,6.963177490234375,-0.8730676133990287,1.8018775722861289,1.104987779048085
1761838934549247500,6.97324755859375,-0.8389274433881044,1.889443335275352,0.9060084175575525
1761838934559318500,6.983318603515625,-0.6882932298064232,1.8607630381055176,0.6988641620509326
1761838934569388500,6.993388427734375,-0.4323369395315647,1.7661428265601395,0.5477365389291197
1761838934579458600,7.00345849609375,-0.24497955370843408,1.641382474425435,0.42321532931253314
1761838934589528600,7.013528564453125,0.048099721780419345,1.3087322360485791,0.4131536617644131
1761838934599598600,7.0235986328125,0.28817338326871395,0.9183568078033626,0.4215639088436961
1761838934609668600,7.033668701171875,0.4693178859263658,0.5756178677409887,0.36612032710649073
1761838934619738600,7.043738525390625,0.7122977902501821,0.2493630294896662,0.2707538272384554
1761838934629808400,7.053808349609375,0.8794213663399219,-0.04103694378733635,0.18490685086585582
1761838934639878400,7.06387841796875,0.9275333630800247,-0.32534999836608763,0.10004377096407115
1761838934649948700,7.07394873046875,1.007435167312622,-0.5840891973577439,0.03663593234941363
1761838934660018400,7.084018310546875,1.0515642318964005,-0.8034076555870473,0.027273133785650133
1761838934670088400,7.09408837890625,0.9888251593887806,-0.9906247561566531,0.05382591740749776
1761838934680158700,7.10415869140625,0.8142050900638103,-1.1084034327104686,0.12277882292866706
1761838934690229500,7.1142294921875,0.6607078882664442,-1.1320309765353798,0.1647054820973426
1761838934700299500,7.124299560546875,0.5390028320491314,-1.100379700730741,0.2065676977276802
1761838934710369500,7.13436962890625,0.27929332672059537,-1.0516172772578893,0.30389380723088977
1761838934720439600,7.144439453125,0.026990298256278036,-1.0015833725444971,0.38783633822165425
1761838934730509600,7.154509521484375,-0.05441197366714477,-0.9071084146887064,0.42063619953952724
1761838934740579600,7.16457958984375,-0.11419745706617832,-0.7982119866400956,0.39692148888781664
1761838934750649300,7.1746494140625,-0.24167057529091834,-0.7763897386714815,0.42196532925143837
1761838934760719600,7.1847197265625,-0.463619966545701,-0.7902490449368953,0.4979227067071944
1761838934770789600,7.19478955078125,-0.643663814485073,-0.7494932561784983,0.49096287763193247
1761838934780859400,7.204859375,-0.7868751845896244,-0.695865418626368,0.47342751320227977
1761838934790929700,7.2149296875,-0.9133505239486693,-0.6577155745826662,0.4731027382273227
1761838934800999700,7.224999755859375,-0.8705237741351127,-0.5534580583810806,0.4189952273994684
1761838934811070500,7.235070556640625,-1.004618940848112,-0.5136103243783116,0.39880156701337544
1761838934821140500,7.245140380859375,-1.0868886432558298,-0.42085254570394753,0.3816285330900922
1761838934831210500,7.25521044921875,-1.1427999155700206,-0.3091941055960953,0.3412158952135593
1761838934841280500,7.265280517578125,-1.2374620665609837,-0.21091522541269658,0.33071079474687576
1761838934851350500,7.2753505859375,-1.242554421263933,-0.10774871931821108,0.33058314977921543
1761838934861420500,7.285420654296875,-1.183967207738757,0.004379822519421577,0.2850779745366424
1761838934871490600,7.295490478515625,-1.1194780766934156,0.09677505149170756,0.278835719146207
1761838934881560600,7.305560546875,-1.0273930827140807,0.1109299797028303,0.37635914131980386
1761838934891630300,7.31563037109375,-0.912847835123539,0.11751695687770843,0.46927408331725745
1761838934901700600,7.32570068359375,-0.8798533280164003,0.15416355675160884,0.5279098486918956
1761838934911770600,7.3357705078125,-0.7928887457907199,0.10603840826898812,0.5446048167746513
1761838934921840400,7.34584033203125,-0.6755418847829103,0.031043957561254498,0.5479913174077868
1761838934931910400,7.355910400390625,-0.6158458332329988,0.028276830935478208,0.4392385356135666
1761838934941981400,7.3659814453125,-0.6211375099003315,0.0854264128729701,0.22866017747242
1761838934952051700,7.3760517578125,-0.6587479863703251,0.1675301110640168,-0.02182670494802296
1761838934962121500,7.38612158203125,-0.6684656627863645,0.25254823539704085,-0.26561686620879915
1761838934972191500,7.39619140625,-0.7615384987592697,0.3603130290672183,-0.45864820601511747
1761838934982261500,7.406261474609375,-0.8147972107380628,0.4792798924922943,-0.6058420333519577
1761838934992331500,7.41633154296875,-0.779803638768196,0.6331997036159038,-0.7345444011107086
1761838935002401500,7.426401611328125,-0.750237937065959,0.7937418554887176,-0.7937839410647749
1761838935012471600,7.436471435546875,-0.6507675090104341,0.9069394878625869,-0.8275710598543286
1761838935022541600,7.44654150390625,-0.2977484363436699,1.0839075816184283,-0.9642277476184069
1761838935032611600,7.456611572265625,0.05786883612275123,1.194648176229,-1.035446771440655
1761838935042681300,7.466681396484375,0.396024686178565,1.21156365519464,-1.067050993233174
1761838935052751600,7.476751708984375,0.815555920150876,1.1784487365782261,-1.0669594424922018
1761838935062821600,7.486821533203125,1.1341595129966735,1.1205153107866643,-1.0307738111935556
1761838935072891400,7.496891357421875,1.3069856846421957,1.030538979524374,-0.9179989342764019
1761838935082962400,7.50696240234375,1.5606401277154682,0.9852218741998076,-0.8910688417747616
1761838935093032700,7.51703271484375,1.7459435036182402,0.9733891053259373,-0.7889261257700622
1761838935103102500,7.5271025390625,1.697131249654293,0.9563213584080338,-0.7230301966667175
1761838935113172500,7.53717236328125,1.636592902061343,0.8652738907828926,-0.6872503696899861
1761838935123242500,7.547242431640625,1.6512515420109033,0.7767503886774182,-0.7294789344146847
1761838935133312500,7.5573125,1.5150018276125192,0.7528788069635629,-0.809476015715301
1761838935143382500,7.567382568359375,1.369594993290305,0.7143865792229771,-0.8932640137314796
1761838935153452500,7.57745263671875,1.1895078907310963,0.7126084636345505,-1.0128501780986785
1761838935163522600,7.5875224609375,0.9716279408723115,0.6809151022538542,-1.1401885640278457
1761838935173592600,7.597592529296875,0.8141875544071197,0.6646367521479726,-1.3101827271178363
1761838935183662300,7.607662353515625,0.683683105662465,0.6675818656891584,-1.4285191836848854
1761838935193732600,7.617732666015625,0.4880751933664083,0.5849988595485687,-1.4324153143405913
1761838935203802600,7.627802734375,0.22487667687833307,0.4138312687650323,-1.4350354337111115
1761838935213873700,7.637873779296875,-0.11186287663877009,0.2686436301514506,-1.476243934673071
1761838935223943400,7.647943359375,-0.4747048396617174,0.17648001797795296,-1.5272493147671222
1761838935234013400,7.658013427734375,-0.8313233981251716,0.05924304708540439,-1.6098470800854265
1761838935244083700,7.668083740234375,-1.134497951170802,-0.08474617552384733,-1.703570196660608
1761838935254153500,7.678153564453125,-1.353110306957364,-0.2534871236823499,-1.7820294008694588
1761838935264223500,7.688223388671875,-1.402044141474366,-0.3651588616631925,-1.895348321535438
1761838935274293500,7.69829345703125,-1.3111615090221165,-0.4239727235510945,-1.9997398393802344
1761838935284363800,7.70836376953125,-1.1731716729581356,-0.46716450728476044,-2.0607506267905236
1761838935294433500,7.71843359375,-0.9983803387194872,-0.49913244782313704,-2.075376533514261
1761838935304503600,7.728503662109375,-0.7880494890660047,-0.5240251892782748,-2.0058358181677756
1761838935314573800,7.73857373046875,-0.531440872362256,-0.5607298029497265,-1.8087337217912076
1761838935324643600,7.7486435546875,-0.23737433940172195,-0.6154872290536761,-1.5319786813765763
1761838935334713600,7.758713623046875,0.10467676452696323,-0.7181351181015372,-1.2285434315681456
1761838935344783600,7.76878369140625,0.4245324032604694,-0.719250678128004,-0.9969828199464827
1761838935354854700,7.778854736328125,0.6373755279958248,-0.6645946665719151,-0.7843735770322382
1761838935364924700,7.788924560546875,0.7025181545138358,-0.6226483528546989,-0.5869826903095469
1761838935374994700,7.79899462890625,0.7359633279979229,-0.5480127985872328,-0.42485454788692295
1761838935385064700,7.809064697265625,0.6910656171292067,-0.4193636223204434,-0.30429245115965603
1761838935395134700,7.819134765625,0.5778834745854139,-0.2599130650766194,-0.23063750542737543
1761838935405204500,7.82920458984375,0.3217851454913616,-0.0754519852168858,-0.19788922816626725
1761838935415274500,7.8392744140625,0.06245148773789405,0.12932546809315681,-0.23648118995428083
1761838935425344800,7.8493447265625,-0.10182722031474113,0.3577187747903168,-0.27772059751115735
1761838935435414500,7.85941455078125,-0.3013490911841392,0.538190346622467,-0.24991302805524318
1761838935445484500,7.869484619140625,-0.4400485368221998,0.6027500586859882,-0.11012750421352684
1761838935455554800,7.879554931640625,-0.6598942337960004,0.6318664091855287,0.01625971847064793
1761838935465624600,7.88962451171875,-0.899499693250656,0.7122920911617576,0.03776877230424434
1761838935475694600,7.899694580078125,-0.9680284550756215,0.8227633673116564,-0.05699972513802349
1761838935485764900,7.909764892578125,-0.9335282195806502,0.9019944326758385,-0.22284363668076693
1761838935495834600,7.919834716796875,-0.8638374282389879,0.994706618642807,-0.35729674998596306
1761838935505905700,7.92990576171875,-0.5224222841262817,1.1048792041070759,-0.5598793236002325
1761838935515975700,7.9399755859375,-0.18255436945557593,1.1911541966333985,-0.6265818198461085
1761838935526045400,7.95004541015625,0.003332359293103218,1.1309066486805677,-0.4691448674470186
1761838935536115700,7.96011572265625,0.11900105795562267,0.9881656725667416,-0.369682841893658
1761838935546185700,7.970185791015625,0.18022154259383677,0.8676783215761185,-0.19413820506967602
1761838935556255500,7.98025537109375,0.21817279532551764,0.8131867068015038,-0.08212342580482364
1761838935566325800,7.99032568359375,0.20796938121914862,0.6925096784576773,-0.000999240170419216
1761838935576395800,8.000395751953125,0.13461597571671008,0.5682653130210936,0.09591711948812007
1761838935586465500,8.010465576171875,-0.06737433109283447,0.48362289013266563,0.05128704657964408
1761838935596535800,8.020535888671875,-0.3400006011396646,0.4334818717829883,0.0106306265424937
1761838935606605800,8.030605712890624,-0.2997638678193092,0.5889551959589123,-0.26893289542160925
1761838935616675600,8.040675537109376,-0.3199240277945995,0.7808671763464808,-0.6267366450816393
1761838935626745600,8.05074560546875,-0.34232173756361006,0.9210648977182805,-0.8902540182605385
1761838935636815600,8.060815673828126,-0.280418531358242,1.0512538507729767,-1.0462016819499433
1761838935646885600,8.0708857421875,-0.1687041232794523,1.1200966469831763,-1.1013878548599778
1761838935656955600,8.08095556640625,-0.033247020563483234,1.1135961790479718,-1.1188310840267688
1761838935667026700,8.091026611328125,-0.025893735191226005,1.0510877004258334,-0.9700213093932718
1761838935677096700,8.1010966796875,-0.1509668065369129,1.0663101117379963,-0.6927002325937152
1761838935687166700,8.111166748046875,-0.25436814430058,1.166644170885533,-0.4563611545238644
1761838935697236500,8.121236572265625,-0.5062029707312584,1.2237054900176823,-0.24520832096301018
1761838935707306500,8.131306396484375,-0.5930822127610444,1.3396912918053567,-0.18915851696096359
1761838935717376800,8.141376708984374,-0.6044675301283597,1.5575919921912251,-0.08795410471968353
1761838935727446500,8.151446533203124,-0.6186293264716863,1.6161001491308211,0.013177680676802993
1761838935737516500,8.1615166015625,-0.48113867210149763,1.6051168366931379,0.03638378421925008
1761838935747586800,8.1715869140625,-0.3978209219455719,1.595636768425256,0.04193637684509158
1761838935757656600,8.181656494140626,-0.33745150117874145,1.5416114559881389,0.08084113090932368
1761838935767726600,8.1917265625,-0.2836789944589138,1.4447507720395922,0.14806209807135165
1761838935777796900,8.201796875,-0.2021533884167671,1.2792873842470347,0.1642431983478367
1761838935787866600,8.21186669921875,-0.21828034735321997,1.1344177255414425,0.066975614098832
1761838935797936600,8.2219365234375,-0.20450258189141748,1.0174817834220826,-0.14610489958897233
1761838935808006700,8.232006591796875,-0.12334405559599398,1.039341879183054,-0.4372632900178432
1761838935818077400,8.242077392578125,-0.07458265503644942,1.066915091893822,-0.6502699347518384
1761838935828147700,8.252147705078125,0.07451485049724578,1.0470656053029,-0.8598790460020304
1761838935838217700,8.2622177734375,0.17528993141055105,1.0505449718512594,-1.01321112036556
1761838935848287500,8.27228759765625,0.24220190568864344,1.118533489319682,-1.1103782399147748
1761838935858357800,8.282357666015624,0.3721136492371559,1.187695288351178,-1.144854510012269
1761838935868427800,8.292427734375,0.43973289500176904,1.2496610383987425,-1.0663026590839029
1761838935878497500,8.30249755859375,0.5166016151487827,1.28703580641672,-0.9358953871034085
1761838935888567800,8.31256787109375,0.5733814869910479,1.2778262256532906,-0.7987664787176996
1761838935898637800,8.322637939453125,0.6177928756475448,1.2478041584856807,-0.6564310877300799
1761838935908707600,8.33270751953125,0.616957009345293,1.2680693862706423,-0.6008187983624637
1761838935918777600,8.342777587890625,0.24841128172278404,1.3188079321220516,-0.5510895026188344
1761838935928847600,8.35284765625,-0.13824351856410502,1.330018623574823,-0.578240106003359
1761838935938917600,8.362917724609375,-0.25259587393105026,1.4406068041026592,-0.8003439571674913
1761838935948987600,8.372987548828124,-0.4317477414667606,1.6279162591308354,-1.0036736228220164
1761838935959057700,8.3830576171875,-0.7409837865084409,1.7465096130684017,-1.0421392548166215
1761838935969127700,8.393127685546874,-0.9105524176627398,1.74962745282799,-1.076179690780118
1761838935979198700,8.40319873046875,-1.0806196459889412,1.7059651289731264,-1.0853300156369805
1761838935989268500,8.4132685546875,-1.2565543050438166,1.70193923445791,-1.13332656930387
1761838935999338800,8.4233388671875,-1.4308236612349747,1.750440230515599,-1.1844002653937786
1761838936009408800,8.43340869140625,-1.7241519430488348,1.8182821791201829,-1.1196506567813456
1761838936019478500,8.443478515625,-1.9991940420657395,1.840191082458943,-1.018769777406007
1761838936029548500,8.453548583984375,-2.1259224794030187,1.8679802760079502,-0.9540300326004624
1761838936039618800,8.463618896484375,-2.263533545282483,1.9212120999798177,-0.9130445267394185
1761838936049688600,8.4736884765625,-2.290007126188278,1.9480306949310005,-0.8660496974609792
1761838936059758600,8.483758544921875,-2.2826076635867354,1.9494408539898693,-0.801776254992932
1761838936069828900,8.493828857421875,-2.178082290229201,2.0453860305286944,-0.7933088708989322
1761838936079898600,8.503898681640624,-1.8273311624944208,2.2436361278966066,-0.933231136330217
1761838936089968600,8.51396875,-1.5713111593335867,2.365765547005832,-1.0257368399396538
1761838936100038700,8.52403857421875,-1.2132149295330046,2.507634562590718,-1.0046705979701132
1761838936110108700,8.534108642578126,-0.8378478314578532,2.6126412897244093,-0.8430953036572784
1761838936120178700,8.5441787109375,-0.4661439320653677,2.658918764513731,-0.6061930387467146
1761838936130248400,8.55424853515625,-0.08324468491971493,2.6287024899482727,-0.3951678501535207
1761838936140318700,8.564318603515625,0.34314649794995783,2.5945167272299527,-0.24420045909471808
1761838936150389800,8.5743896484375,0.6419920818805694,2.5608769079566,-0.09593240838879719
1761838936160459800,8.584459716796875,0.9143407040297985,2.537106156268716,0.019130579465534536
1761838936170529500,8.594529541015625,1.069493271818757,2.438897272581607,0.16517624141424894
1761838936180601600,8.6046015625,0.9529600652813911,1.9758819939307868,0.6065947514154016
1761838936190671600,8.614671630859375,1.0380395644128322,1.922468822042644,0.66355524052158
1761838936200742000,8.624741943359375,1.1969570376932621,1.9347556182943284,0.5962589431010187
1761838936210811600,8.634811767578125,1.2414157726228237,1.8720158151343465,0.5532839439231902
1761838936220881700,8.644881591796874,1.0832505790144205,1.7557677091486752,0.5747408657107502
1761838936230951400,8.654951416015624,0.9571335515737533,1.7133534856587647,0.5478275782134383
1761838936241021700,8.665021728515624,0.8902952270537614,1.7520893128968775,0.488884683118388
1761838936251091700,8.675091796875,0.6774053405672311,1.7775744672872125,0.46593843608852475
1761838936261161500,8.685161376953126,0.46188685914278027,1.7717944225810467,0.4420955324798822
1761838936271232500,8.695232421875,0.27777649241685864,1.732829170501232,0.48063748111370946
1761838936281302300,8.70530224609375,0.09036416153609753,1.6232451985798775,0.5794215708728879
1761838936291372000,8.7153720703125,-0.05021627554297447,1.4054841989256441,0.6256602480217814
1761838936301442000,8.725442138671875,-0.08857727811932563,1.1891149458907544,0.5843573467746377
1761838936311512000,8.735511962890625,-0.09683891050815582,0.9811753752879798,0.5107724706038832
1761838936321582000,8.74558203125,-0.20870061810314655,0.760010558539629,0.38630759428441525
1761838936331652000,8.755652099609375,-0.30049042852818963,0.5654267285943031,0.2315568852946162
1761838936341722000,8.76572216796875,-0.27846564372479915,0.35837197800204157,0.08031402916214428
1761838936351792000,8.775792236328124,-0.19186580315828322,0.21557854104861615,-0.08522725530536845
1761838936361862100,8.785862060546876,-0.19889292531609534,0.11083441037386656,-0.15674730790080502
1761838936371932000,8.795931884765626,-0.20112404536902903,-0.05115048765316605,-0.16079375201370566
1761838936382002200,8.806002197265625,-0.1692670178592205,-0.1244884033255279,-0.17790948452549055
1761838936392072200,8.816072265625,-0.25926702225804327,-0.18903810545168817,-0.13986848941743374
1761838936402142000,8.826141845703125,-0.3126660194903612,-0.2398470131255686,-0.1499661781270057
1761838936412212200,8.836212158203125,-0.4176707007974386,-0.26286373157575726,-0.18322682535704224
1761838936422282200,8.8462822265625,-0.6127227327764034,-0.3000904694251716,-0.1949677146963775
1761838936432352000,8.85635205078125,-0.6720189713537693,-0.31443770533800125,-0.25469511123262345
1761838936442423000,8.866423095703125,-0.6647621320933104,-0.3247438491664827,-0.376544946215488
1761838936452493300,8.876493408203125,-0.7898316963076591,-0.39037235950529575,-0.47180579375196247
1761838936462563000,8.88656298828125,-0.8255787169933319,-0.48342524866871533,-0.5988754457423463
1761838936472633000,8.896633056640624,-0.7547931161522865,-0.5809325599577277,-0.6921653219994157
1761838936482703000,8.906703125,-0.6911901202917099,-0.5811154422439635,-0.8288200370021164
1761838936492773000,8.916773193359376,-0.5126847339659929,-0.6134285429581999,-0.9399581795629114
1761838936502843100,8.926843017578125,-0.43208559511899947,-0.6543411297135054,-1.0163737491149454
1761838936512913200,8.9369130859375,-0.3252694804757833,-0.6920308088995516,-1.0178560235619545
1761838936522983200,8.946983154296875,-0.23340543577075004,-0.7683132535912096,-0.9569032499492168
1761838936533053200,8.95705322265625,-0.2193599592834711,-0.8687029153835027,-0.8546520320687443
1761838936543123000,8.967123046875,-0.14687515330910683,-0.9135830905955284,-0.7735339839141816
1761838936553193200,8.977193115234375,-0.07629062799811363,-0.9230088713929057,-0.7558812767151742
1761838936563263200,8.98726318359375,-0.010397475373744964,-0.9465998825997114,-0.7229172378115356
1761838936573333000,8.9973330078125,0.03092880674898624,-0.9865086260747163,-0.6764152335513383
1761838936583403000,9.007403076171874,0.02259527816772461,-0.9810127320721745,-0.6235764274850487
1761838936593473300,9.017473388671876,0.008631634745001792,-1.0117715160164982,-0.54167234351933
1761838936603543000,9.02754296875,-0.015153145468235015,-1.0363086489669977,-0.46589543719701465
1761838936613613000,9.037613037109375,-0.07456336581408977,-1.0389511993650347,-0.41810156649537383
1761838936623684000,9.04768408203125,-0.13576748383939266,-1.0538387526996433,-0.38045218278709797
1761838936633754000,9.057754150390625,-0.09967150358557701,-0.9989525856494903,-0.3835053963452577
1761838936643824000,9.06782421875,-0.0339238969117403,-0.9395036407284438,-0.41051268226895476
1761838936653894100,9.07789404296875,-0.07531973713934421,-0.8568332485653459,-0.41115719071757045
1761838936663964200,9.087964111328125,-0.03146130619049072,-0.7724509379178285,-0.4342059117412194
1761838936674034200,9.0980341796875,0.07216331893503665,-0.6406956123292445,-0.4872742887796834
1761838936684104200,9.108104248046875,0.10561199955046176,-0.43915655641853807,-0.48857821098510174
1761838936694174000,9.118174072265624,0.16633096440732478,-0.2533668583035469,-0.4527451925164088
1761838936704244200,9.128244140625,0.21528408814668654,-0.10434563287645578,-0.3438650214828551
1761838936714314200,9.138314208984376,0.19327508543431757,0.03999780999794602,-0.201646315677464
1761838936724384000,9.148384033203126,0.15843524272143839,0.17381123716011643,-0.1337405811216682
1761838936734454300,9.158454345703126,0.12234861481785773,0.3482572650924325,-0.08281235791705548
1761838936744524000,9.16852392578125,-0.02629705529510975,0.46999447001367806,-0.0669734952069819
1761838936754594000,9.178593994140625,-0.2543260587245226,0.5301718753397464,-0.08053140737302601
1761838936764664000,9.1886640625,-0.13482465003132818,0.7850731036037206,-0.2681079889047891
1761838936774734000,9.198734130859375,0.2243663892686367,1.0976138892792164,-0.5735948374807834
1761838936784804000,9.20880419921875,0.4494774594247341,1.2549091681852935,-0.6664649174232036
1761838936794875100,9.218875244140625,0.5508797323256731,1.3252448333017528,-0.5577163003474473
1761838936804945000,9.22894482421875,0.7004150447547436,1.347366210347414,-0.3587400806620717
1761838936815015200,9.23901513671875,0.7116846267879009,1.3247612875685095,-0.21376718077771364
1761838936825085200,9.249085205078124,0.6859007817119359,1.3561020361192524,-0.16655680905245243
1761838936835155000,9.259155029296876,0.6804805102288722,1.3534418769992886,-0.09243256530798971
1761838936845225200,9.26922509765625,0.6841629981338977,1.25946186305359,0.020182883263751863
1761838936855295200,9.279295166015626,0.6279647255718708,1.1026738030172885,0.17734467198327183
1761838936865365000,9.289364990234375,0.45869829223453995,0.8142557973377406,0.3564158754982054
1761838936875435000,9.29943505859375,0.4178413811892271,0.5807680901110172,0.3733271897453814
1761838936885505300,9.30950537109375,0.37887013776004314,0.511219483719021,0.3144076755259186
1761838936895575000,9.319574951171875,0.25203590196073056,0.4434719353996217,0.28473113386034965
1761838936905645000,9.32964501953125,0.15352525884807108,0.4209565906003117,0.2999235884256661
1761838936915715300,9.33971533203125,0.07560147669017314,0.38510727858394384,0.34122057138867673
1761838936925785000,9.34978515625,0.08453764733970165,0.37825478234067555,0.3993783805206418
1761838936935855000,9.359855224609374,-0.008564414727687835,0.36450711975619193,0.49517552689090366
1761838936945925000,9.369925048828126,-0.08966858048737049,0.3413119759991765,0.6300743381369859
1761838936955995100,9.3799951171875,-0.1608756216108799,0.36492709873393175,0.8082226546533405
1761838936966065200,9.390065185546876,-0.35404724667072296,0.3308440657377243,1.0229057812321931
1761838936976136200,9.40013623046875,-0.5197580333530902,0.31218992641121146,1.2376558355674148
1761838936986206000,9.4102060546875,-0.7771259439915418,0.4181676905341446,1.3962041832745073
1761838936996276200,9.420276123046875,-0.8316419625550509,0.5182676486648619,1.330585609807819
1761838937006346200,9.43034619140625,-1.0308639736950398,0.5305962382316589,1.2215284382395446
1761838937016416000,9.440416015625,-1.1698743849784135,0.5676596022129059,1.0947525815639645
1761838937026486300,9.450486328125,-1.2759329592525959,0.6256644858054816,1.0556270243559032
1761838937036556000,9.46055615234375,-1.225350188484788,0.647254970844835,1.0575412604793906
1761838937046626000,9.4706259765625,-0.8706289880752563,0.7465279766321182,0.9449833142485469
1761838937056696000,9.480696044921874,-0.7110685407161712,0.6871674406468868,0.8784105818621813
1761838937066766000,9.49076611328125,-0.7209077976852655,0.4545179378099739,0.8683489143140614
1761838937076836000,9.500836181640626,-0.5797498529791831,0.26581600551009177,0.8349474338412284
1761838937086906000,9.510906005859376,-0.2706125921368599,0.2863369616217911,0.8084967223543673
1761838937096976100,9.52097607421875,-0.12744623021781443,0.14706950683742762,0.8525102707996964
1761838937107046100,9.531046142578125,-0.015467033722996711,-0.028593641799688336,0.9135727883972227
1761838937117116200,9.5411162109375,0.1365846454411745,-0.05172507267072796,0.9813434983965009
1761838937127186200,9.551186279296875,0.4422790723532438,-0.0018551263473927974,0.9418662051413208
1761838937137256200,9.561256103515625,0.6618827772647142,0.04893836456164717,0.8974188683886081
1761838937147327200,9.5713271484375,0.7670055319935083,0.01953457542285323,0.8939045766573399
1761838937157397000,9.58139697265625,0.9229618173807859,-0.06540083906278014,0.8537151896100491
1761838937167467000,9.591467041015624,0.8849883528172969,-0.14563406720682978,0.8471455288961529
1761838937177537300,9.601537353515624,0.8196516650319099,-0.17085121831074357,0.8494774789750575
1761838937187607000,9.61160693359375,0.8041624194771051,-0.08599515267163514,0.8675004807911812
1761838937197677000,9.621677001953126,0.7089087323337793,-0.006643091276288032,0.9249166047103703
1761838937207747300,9.631747314453126,0.5485948362588882,0.0032147242628037926,1.0135480241697281
1761838937217817000,9.641817138671875,0.5282283400565385,-0.02642053554430604,1.0090027819555252
1761838937227887000,9.65188720703125,0.6005477263361215,-0.060635962748527526,0.8748734937772155
1761838937237957000,9.66195703125,0.5848737718641758,-0.076252634075284,0.7541235463276506
1761838937248027100,9.672027099609375,0.4859019409805536,-0.03855097219049931,0.7102114854954182
1761838937258097200,9.68209716796875,0.39177287395298477,-0.03094984953701496,0.7104442713379859
1761838937268167000,9.6921669921875,0.28952421335577966,0.009924597164988518,0.7255503627941012
1761838937278237200,9.7022373046875,0.4104401650220155,0.0694699881978333,0.7275114337339997
1761838937288307200,9.71230712890625,0.3136825030565262,-0.026671295434981583,0.8194393374554813
1761838937298377000,9.722376953125,0.296597512742877,-0.1411050454750657,0.8362893499694765
1761838937308447200,9.732447265625,0.33172669379115105,-0.24755685685053466,0.8089249577037989
1761838937318517200,9.742517333984376,0.3798918820232153,-0.31423414558991786,0.834951087103039
1761838937328587000,9.7525869140625,0.4540741395652294,-0.3325698666170239,0.8193896530948579
1761838937338658000,9.762657958984375,0.6031184536069631,-0.3617981530584395,0.7576249785773456
1761838937348728000,9.77272802734375,0.5590408269494772,-0.4219771658197045,0.7685308418646455
1761838937358798000,9.782798095703125,0.4691261627465486,-0.4991108205132186,0.7822977936714887
1761838937368868000,9.7928681640625,0.5960200197786092,-0.4549791255809366,0.821280581407994
1761838937378938000,9.802938232421875,0.039863223832845684,-0.4259425623193383,0.8668830795451998
1761838937389008100,9.813008056640625,-0.21114567316770552,-0.6057483637191355,0.7667660241492092
1761838937399078100,9.823078125,0.03536474336981773,-0.6447327588908374,0.6009143676914275
1761838937409148200,9.833148193359374,-0.08694178587198256,-0.5805813353672623,0.5803994029290974
1761838937419218200,9.84321826171875,0.014798340681195258,-0.5656669670909643,0.6510581625200808
1761838937429288200,9.8532880859375,0.07837327949106693,-0.5483506522394717,0.8058921658791601
