time,seconds_elapsed,z,y,x
1761838927651229700,0.075229736328125,-0.9412652254104614,-0.10088807344436646,0.38673776388168335
1761838927661299700,0.0852998046875,-1.0129246711730957,-0.14045065641403198,0.47458744049072266
1761838927671369700,0.09536962890625,-1.0564111471176147,-0.1443111002445221,0.5071254372596741
1761838927681439700,0.105439697265625,-1.064993143081665,-0.14600619673728943,0.4858699142932892
1761838927691509800,0.115509765625,-1.0393900871276855,-0.1541733592748642,0.4223608374595642
1761838927701579800,0.125579833984375,-0.994338870048523,-0.16504758596420288,0.31001007556915283
1761838927711649500,0.1356494140625,-0.9354676604270935,-0.16328243911266327,0.18546999990940094
1761838927721719800,0.1457197265625,-0.8793740272521973,-0.15922138094902039,0.05316869169473648
1761838927731790800,0.155790771484375,-0.851564884185791,-0.13803410530090332,-0.06434527039527893
1761838927741860600,0.165860595703125,-0.8431437015533447,-0.11237987875938416,-0.1496814787387848
1761838927751930600,0.1759306640625,-0.8437997102737427,-0.08463156223297119,-0.20531906187534332
1761838927762001000,0.1860009765625,-0.8475550413131714,-0.08180940896272659,-0.23271393775939941
1761838927772070700,0.196070556640625,-0.8564661741256714,-0.05609285831451416,-0.230095773935318
1761838927782140700,0.206140625,-0.8676796555519104,-0.07026780396699905,-0.20979556441307068
1761838927792211000,0.2162109375,-0.8718274831771851,-0.128454327583313,-0.18363644182682037
1761838927802280700,0.22628076171875,-0.8815200924873352,-0.20735207200050354,-0.1611444503068924
1761838927812350700,0.236350830078125,-0.877377986907959,-0.2847311198711395,-0.14328829944133759
1761838927822420700,0.246420654296875,-0.8708844184875488,-0.35059109330177307,-0.1350594013929367
1761838927832490800,0.25649072265625,-0.8385111093521118,-0.3957209587097168,-0.1339600682258606
1761838927842561800,0.266561767578125,-0.7900919318199158,-0.43524545431137085,-0.14759385585784912
1761838927852631800,0.2766318359375,-0.7434918284416199,-0.4887835383415222,-0.17993423342704773
1761838927862701600,0.28670166015625,-0.7003930807113647,-0.5694360136985779,-0.22134479880332947
1761838927872771800,0.296771728515625,-0.6674008369445801,-0.6245026588439941,-0.24686230719089508
1761838927882841900,0.306841796875,-0.6213821768760681,-0.6393095850944519,-0.2504064440727234
1761838927892911600,0.31691162109375,-0.5681375861167908,-0.634196400642395,-0.24584783613681793
1761838927902981600,0.326981689453125,-0.5155614614486694,-0.6213477253913879,-0.22072863578796387
1761838927913052000,0.337052001953125,-0.4783092737197876,-0.5997884273529053,-0.17546780407428741
1761838927923121700,0.34712158203125,-0.4692462682723999,-0.5782463550567627,-0.11985646188259125
1761838927933191700,0.357191650390625,-0.4823532998561859,-0.5718933343887329,-0.06031035631895065
1761838927943261700,0.36726171875,-0.4950765371322632,-0.5663459897041321,-0.003512054681777954
1761838927953332700,0.377332763671875,-0.5026094317436218,-0.5634642243385315,0.05342422425746918
1761838927963402800,0.38740283203125,-0.5058148503303528,-0.5677176117897034,0.1113346666097641
1761838927973472800,0.39747265625,-0.5081112384796143,-0.5781790018081665,0.16661407053470612
1761838927983542800,0.407542724609375,-0.5085242986679077,-0.554607629776001,0.22735172510147095
1761838927993612800,0.41761279296875,-0.494918555021286,-0.4968580901622772,0.28916221857070923
1761838928003682800,0.427682861328125,-0.485243022441864,-0.452522337436676,0.33125001192092896
1761838928013752600,0.437752685546875,-0.4921736419200897,-0.4654060900211334,0.344550222158432
1761838928023822800,0.44782275390625,-0.5101416707038879,-0.5061260461807251,0.33214280009269714
1761838928033892600,0.457892578125,-0.5312823057174683,-0.5487952828407288,0.2980760633945465
1761838928043962600,0.467962646484375,-0.5616468787193298,-0.6300895810127258,0.23006799817085266
1761838928054033000,0.478032958984375,-0.6042012572288513,-0.740227460861206,0.12448649108409882
1761838928064104000,0.48810400390625,-0.6504268050193787,-0.8386834263801575,0.002522507682442665
1761838928074173700,0.498173583984375,-0.6895806193351746,-0.8825886845588684,-0.1213810071349144
1761838928084243700,0.50824365234375,-0.70995032787323,-0.867458701133728,-0.22705285251140594
1761838928094313700,0.518313720703125,-0.7067452073097229,-0.7823251485824585,-0.3006688952445984
1761838928104383700,0.5283837890625,-0.6718918681144714,-0.6102465391159058,-0.3430253863334656
1761838928114453800,0.538453857421875,-0.602752149105072,-0.3746139407157898,-0.33461013436317444
1761838928124523500,0.5485234375,-0.5021216869354248,-0.0968765914440155,-0.279725581407547
1761838928134593800,0.55859375,-0.392241507768631,0.17251238226890564,-0.195878803730011
1761838928144663800,0.568663818359375,-0.30242720246315,0.3303038775920868,-0.1173459067940712
1761838928154733600,0.578733642578125,-0.20814895629882812,0.37982696294784546,-0.04774821922183037
1761838928164803800,0.588803955078125,-0.11362965404987335,0.349979043006897,0.00832437351346016
1761838928174875000,0.598875,-0.04532381892204285,0.2643709182739258,0.05222276225686073
1761838928184944600,0.608944580078125,-0.009393245913088322,0.1565490961074829,0.08027011156082153
1761838928195014700,0.6190146484375,-0.00009103992488235235,0.02693992853164673,0.08967465162277222
1761838928205085000,0.6290849609375,-0.0015131678665056825,-0.12805232405662537,0.08456671237945557
1761838928215154700,0.63915478515625,-0.018886234611272812,-0.27017730474472046,0.08719608187675476
1761838928225224700,0.649224609375,-0.06689797341823578,-0.3703252077102661,0.0948803722858429
1761838928235294700,0.659294677734375,-0.1512170433998108,-0.44483962655067444,0.08835707604885101
1761838928245364700,0.66936474609375,-0.25695252418518066,-0.4962756633758545,0.06258939951658249
1761838928255434800,0.679434814453125,-0.36775484681129456,-0.5209166407585144,0.009865407831966877
1761838928265504800,0.6895048828125,-0.456857830286026,-0.512501060962677,-0.063900426030159
1761838928275574500,0.699574462890625,-0.5349944829940796,-0.48978450894355774,-0.160196915268898
1761838928285645300,0.709645263671875,-0.6078383326530457,-0.4374411404132843,-0.2647624611854553
1761838928295715300,0.71971533203125,-0.6785181164741516,-0.3529554307460785,-0.3607776165008545
1761838928305785300,0.729785400390625,-0.7300883531570435,-0.24372215569019318,-0.4468997120857239
1761838928315855400,0.73985546875,-0.7706412672996521,-0.1346907615661621,-0.5264502763748169
1761838928325925400,0.74992529296875,-0.7947421073913574,-0.0613638311624527,-0.6061360239982605
1761838928335995400,0.759995361328125,-0.8058621883392334,-0.003320273943245411,-0.6577178835868835
1761838928346065400,0.7700654296875,-0.78072190284729,0.05946161597967148,-0.6849625706672668
1761838928356135400,0.780135498046875,-0.7225481867790222,0.12336400896310806,-0.680274486541748
1761838928366205400,0.790205322265625,-0.6476161479949951,0.16282381117343903,-0.6448760032653809
1761838928376275200,0.800275146484375,-0.5552161931991577,0.14062978327274323,-0.585193932056427
1761838928386346200,0.81034619140625,-0.45975416898727417,0.046104609966278076,-0.5175970792770386
1761838928396416500,0.82041650390625,-0.3771146535873413,-0.08697712421417236,-0.4456571340560913
1761838928406486300,0.830486328125,-0.31685665249824524,-0.2341308891773224,-0.3669593930244446
1761838928416556300,0.840556396484375,-0.27111878991127014,-0.3942982256412506,-0.2976454198360443
1761838928426626600,0.85062646484375,-0.24277663230895996,-0.5437825322151184,-0.24009530246257782
1761838928436696300,0.8606962890625,-0.23370663821697235,-0.6635385155677795,-0.19479888677597046
1761838928446766300,0.870766357421875,-0.243891641497612,-0.7277145981788635,-0.16356641054153442
1761838928456836400,0.88083642578125,-0.2641180157661438,-0.7286627292633057,-0.14673231542110443
1761838928466906400,0.89090625,-0.2809111177921295,-0.6922924518585205,-0.14526838064193726
1761838928476976400,0.900976318359375,-0.29801157116889954,-0.6605668663978577,-0.16403703391551971
1761838928487047400,0.91104736328125,-0.31702175736427307,-0.5983213186264038,-0.17115752398967743
1761838928497117200,0.9211171875,-0.33959928154945374,-0.49706682562828064,-0.169854536652565
1761838928507187500,0.9311875,-0.3570094108581543,-0.40737074613571167,-0.15700344741344452
1761838928517257500,0.941257568359375,-0.3688321113586426,-0.3432026505470276,-0.14714831113815308
1761838928527327200,0.9513271484375,-0.3803896903991699,-0.30615246295928955,-0.126081645488739
1761838928537397500,0.9613974609375,-0.4005352556705475,-0.28750014305114746,-0.10467012226581573
1761838928547467500,0.971467529296875,-0.4173813462257385,-0.26182833313941956,-0.06513070315122604
1761838928557537300,0.981537353515625,-0.43821582198143005,-0.24118979275226593,-0.01998230442404747
1761838928567607300,0.991607177734375,-0.4648224115371704,-0.22447632253170013,0.032520588487386703
1761838928577677300,1.00167724609375,-0.4714145362377167,-0.2335691601037979,0.07381130009889603
1761838928587747300,1.011747314453125,-0.46789035201072693,-0.2712121605873108,0.1018780916929245
1761838928597818400,1.021818359375,-0.4524313807487488,-0.3162527084350586,0.1267745941877365
1761838928607888400,1.031888427734375,-0.4341288208961487,-0.34210771322250366,0.1510314643383026
1761838928617958400,1.04195849609375,-0.41635578870773315,-0.35275980830192566,0.17015865445137024
1761838928628028400,1.0520283203125,-0.40134647488594055,-0.35034751892089844,0.18282809853553772
1761838928638098400,1.062098388671875,-0.3880651295185089,-0.3168763518333435,0.17813491821289062
1761838928648168400,1.07216845703125,-0.358802855014801,-0.2250787615776062,0.1549379825592041
1761838928658238500,1.082238525390625,-0.3165755569934845,-0.1126105934381485,0.12530486285686493
1761838928668308200,1.09230810546875,-0.26975587010383606,-0.004553890787065029,0.08951625227928162
1761838928678378200,1.102378173828125,-0.225453719496727,0.09447731077671051,0.06238944083452225
1761838928688448500,1.112448486328125,-0.18765494227409363,0.17881029844284058,0.05019828677177429
1761838928698519600,1.12251953125,-0.1422102004289627,0.23690484464168549,0.06721987575292587
1761838928708589300,1.13258935546875,-0.0988912284374237,0.27637261152267456,0.12241575866937637
1761838928718659300,1.142659423828125,-0.05199902504682541,0.31499671936035156,0.2104310840368271
1761838928728729300,1.152729248046875,-0.003513514995574951,0.31333330273628235,0.3187035024166107
1761838928738799400,1.16279931640625,0.015700392425060272,0.25033462047576904,0.4150971472263336
1761838928748869400,1.172869384765625,-0.008329309523105621,0.16381146013736725,0.48106497526168823
1761838928758939400,1.182939453125,-0.06849674880504608,0.10896860808134079,0.5205764174461365
1761838928769009400,1.193009521484375,-0.16282965242862701,0.08754241466522217,0.5297192931175232
1761838928779079400,1.203079345703125,-0.2635180950164795,0.08570855855941772,0.49865618348121643
1761838928789149200,1.213149169921875,-0.35256117582321167,0.12630978226661682,0.4430517554283142
1761838928799220200,1.22322021484375,-0.40919315814971924,0.19930952787399292,0.3760370910167694
1761838928809290500,1.23329052734375,-0.4315032660961151,0.3110600411891937,0.3129337728023529
1761838928819360300,1.2433603515625,-0.4311899244785309,0.4386991858482361,0.25915271043777466
1761838928829430300,1.25343017578125,-0.41319096088409424,0.547126829624176,0.21869957447052002
1761838928839500500,1.26350048828125,-0.3746931254863739,0.6212659478187561,0.20614667236804962
1761838928849570300,1.2735703125,-0.32840633392333984,0.6440447568893433,0.21015845239162445
1761838928859640300,1.283640380859375,-0.2843059301376343,0.627059280872345,0.22771711647510529
1761838928869710300,1.29371044921875,-0.24108147621154785,0.5867102146148682,0.2613224685192108
1761838928879780400,1.3037802734375,-0.20060667395591736,0.47945675253868103,0.2853788435459137
1761838928889851400,1.313851318359375,-0.1470736712217331,0.33516189455986023,0.3074108958244324
1761838928899921400,1.32392138671875,-0.08666438609361649,0.18904417753219604,0.32721173763275146
1761838928909991200,1.3339912109375,-0.024516597390174866,0.045632168650627136,0.34303465485572815
1761838928920061400,1.3440615234375,0.03264256566762924,-0.06415858864784241,0.3597164452075958
1761838928930131500,1.35413134765625,0.058661382645368576,-0.11999548971652985,0.3714785575866699
1761838928940201200,1.364201171875,0.06859739124774933,-0.12432254105806351,0.37250909209251404
1761838928950271500,1.374271484375,0.07897919416427612,-0.04975616931915283,0.3749605417251587
1761838928960341500,1.384341552734375,0.10387498885393143,0.10132118314504623,0.37910425662994385
1761838928970411300,1.394411376953125,0.13051725924015045,0.2639681398868561,0.3773612082004547
1761838928980481300,1.404481201171875,0.17077718675136566,0.40648001432418823,0.3586934804916382
1761838928990552300,1.41455224609375,0.2220989614725113,0.5649916529655457,0.3377527892589569
1761838929000622300,1.424622314453125,0.2746902108192444,0.6690848469734192,0.3021640181541443
1761838929010692400,1.4346923828125,0.3204558193683624,0.6663588285446167,0.2535674571990967
1761838929020762400,1.444762451171875,0.3498435318470001,0.5970029830932617,0.20762920379638672
1761838929030832400,1.454832275390625,0.3592037558555603,0.49238234758377075,0.17001685500144958
1761838929040902400,1.46490234375,0.35316187143325806,0.3491658568382263,0.1323508322238922
1761838929050972400,1.474972412109375,0.34216728806495667,0.19639652967453003,0.1059780865907669
1761838929061042400,1.48504248046875,0.3128085434436798,0.04381110891699791,0.08288750797510147
1761838929071112400,1.495112548828125,0.27609020471572876,-0.11653488874435425,0.06692851334810257
1761838929081182500,1.505182373046875,0.21494677662849426,-0.25281858444213867,0.05097460746765137
1761838929091253200,1.515253173828125,0.13650816679000854,-0.35515668988227844,0.019526401534676552
1761838929101323300,1.5253232421875,0.05104628950357437,-0.4328908920288086,-0.036893684417009354
1761838929111393500,1.5353935546875,-0.026240244507789612,-0.47922483086586,-0.11509127914905548
1761838929121463300,1.54546337890625,-0.0931210070848465,-0.49343353509902954,-0.21364480257034302
1761838929131533300,1.555533203125,-0.15185728669166565,-0.47260013222694397,-0.3319632112979889
1761838929141603600,1.565603515625,-0.20096339285373688,-0.43856772780418396,-0.4626126289367676
1761838929151673300,1.57567333984375,-0.22995084524154663,-0.38164666295051575,-0.5815752744674683
1761838929161743400,1.585743408203125,-0.24197712540626526,-0.2769021987915039,-0.6870142221450806
1761838929171813400,1.5958134765625,-0.23122355341911316,-0.14583605527877808,-0.7591345310211182
1761838929181883400,1.60588330078125,-0.20702102780342102,-0.013399767689406872,-0.8055426478385925
1761838929191954400,1.615954345703125,-0.16380058228969574,0.11486392468214035,-0.809391438961029
1761838929202024400,1.6260244140625,-0.1095418632030487,0.22971998155117035,-0.7791662812232971
1761838929212094200,1.63609423828125,-0.05094006657600403,0.3119669258594513,-0.7138309478759766
1761838929222164500,1.64616455078125,0.005264148116111755,0.33363965153694153,-0.6274038553237915
1761838929232234500,1.656234375,0.045224349945783615,0.3106864094734192,-0.5231296420097351
1761838929242304300,1.66630419921875,0.07883410900831223,0.22996966540813446,-0.41398653388023376
1761838929252374500,1.67637451171875,0.10657759010791779,0.11682261526584625,-0.3123592138290405
1761838929262444300,1.6864443359375,0.1330641657114029,0.011916582472622395,-0.22001290321350098
1761838929272514300,1.696514404296875,0.15530209243297577,-0.07448967546224594,-0.1392402946949005
1761838929282589400,1.70658935546875,0.1721155047416687,-0.13084228336811066,-0.06762688606977463
1761838929292659500,1.716659423828125,0.1864776611328125,-0.15021491050720215,0.00010635377839207649
1761838929302729500,1.7267294921875,0.1990455538034439,-0.16866953670978546,0.05421142652630806
1761838929312799500,1.736799560546875,0.20840975642204285,-0.16308382153511047,0.09827662259340286
1761838929322869200,1.746869140625,0.209986612200737,-0.14810214936733246,0.13321486115455627
1761838929332939300,1.756939208984375,0.20198753476142883,-0.14462299644947052,0.15212330222129822
1761838929343009500,1.767009521484375,0.17881333827972412,-0.1562572419643402,0.16012004017829895
1761838929353079300,1.777079345703125,0.13597425818443298,-0.20244604349136353,0.15786966681480408
1761838929363149300,1.7871494140625,0.06852047145366669,-0.24567845463752747,0.15362942218780518
1761838929373219600,1.797219482421875,-0.0038908752612769604,-0.25817108154296875,0.15876320004463196
1761838929383290400,1.807290283203125,-0.07665283232927322,-0.26227062940597534,0.16091561317443848
1761838929393360400,1.8173603515625,-0.13640059530735016,-0.273237019777298,0.15591846406459808
1761838929403430400,1.827430419921875,-0.18269182741641998,-0.27694353461265564,0.1538345366716385
1761838929413500400,1.83750048828125,-0.2095213085412979,-0.2610340714454651,0.14914123713970184
1761838929423570400,1.8475703125,-0.22389841079711914,-0.23064890503883362,0.14860057830810547
1761838929433640400,1.857640380859375,-0.23620831966400146,-0.19291937351226807,0.1469414234161377
1761838929443710200,1.867710205078125,-0.2566832900047302,-0.17288680374622345,0.12801648676395416
1761838929453780500,1.877780517578125,-0.2816839814186096,-0.1603209376335144,0.10169219970703125
1761838929463850500,1.8878505859375,-0.3216438293457031,-0.134532168507576,0.06484836339950562
1761838929473921300,1.89792138671875,-0.36299872398376465,-0.1420164406299591,0.02324792370200157
1761838929483991300,1.9079912109375,-0.41466230154037476,-0.16759979724884033,-0.018382498994469643
1761838929494061600,1.9180615234375,-0.4430534541606903,-0.17478394508361816,-0.05139610916376114
1761838929504131300,1.92813134765625,-0.4488951563835144,-0.15442782640457153,-0.07280053943395615
1761838929514201300,1.938201416015625,-0.42992839217185974,-0.11681894212961197,-0.07956044375896454
1761838929524271600,1.948271728515625,-0.39435893297195435,-0.09207931905984879,-0.08377917110919952
1761838929534341400,1.95834130859375,-0.3573734760284424,-0.0974261537194252,-0.09430771321058273
1761838929544411400,1.968411376953125,-0.32099220156669617,-0.12654830515384674,-0.11167965829372406
1761838929554481400,1.9784814453125,-0.2875026762485504,-0.17822614312171936,-0.13695678114891052
1761838929564551400,1.988551513671875,-0.2564345598220825,-0.22610807418823242,-0.15496709942817688
1761838929574622500,1.99862255859375,-0.21172861754894257,-0.2835977375507355,-0.16895988583564758
1761838929584692500,2.0086923828125,-0.1563858687877655,-0.3576280474662781,-0.1742362529039383
1761838929594762200,2.01876220703125,-0.09065399318933487,-0.42402490973472595,-0.16997919976711273
1761838929604832500,2.02883251953125,-0.03329677879810333,-0.4905230700969696,-0.16597618162631989
1761838929614902500,2.038902587890625,0.01317351870238781,-0.5178574919700623,-0.15663248300552368
1761838929624972300,2.04897216796875,0.029899243265390396,-0.49766823649406433,-0.1536472588777542
1761838929635042300,2.059042236328125,0.0153029914945364,-0.43169906735420227,-0.16174407303333282
1761838929645112600,2.069112548828125,-0.02516999840736389,-0.3699052333831787,-0.193477064371109
1761838929655182300,2.079182373046875,-0.08995645493268967,-0.3474470376968384,-0.246675044298172
1761838929665253400,2.08925341796875,-0.19921141862869263,-0.438854455947876,-0.3115221858024597
1761838929675323400,2.099323486328125,-0.33495113253593445,-0.5340070724487305,-0.332572877407074
1761838929685393400,2.109393310546875,-0.44004976749420166,-0.5128800868988037,-0.2727200388908386
1761838929695463400,2.11946337890625,-0.5224854946136475,-0.40872544050216675,-0.15848295390605927
1761838929705533400,2.129533447265625,-0.583954393863678,-0.3238312005996704,-0.022058725357055664
1761838929715603500,2.139603515625,-0.6293154954910278,-0.27981340885162354,0.11609993875026703
1761838929725673500,2.149673583984375,-0.6630252003669739,-0.2775188088417053,0.21658991277217865
1761838929735743200,2.1597431640625,-0.6769242286682129,-0.31349676847457886,0.2699631154537201
1761838929745813200,2.169813232421875,-0.6865931749343872,-0.347487211227417,0.2771877944469452
1761838929755884300,2.17988427734375,-0.6876193284988403,-0.31973788142204285,0.25663697719573975
1761838929765954600,2.18995458984375,-0.7105147242546082,-0.24409586191177368,0.2000780701637268
1761838929776024300,2.2000244140625,-0.7405402660369873,-0.137600839138031,0.10738781839609146
1761838929786094300,2.21009423828125,-0.7760841846466064,-0.01105834636837244,-0.013636862859129906
1761838929796164600,2.22016455078125,-0.7961870431900024,0.15811842679977417,-0.14227180182933807
1761838929806234400,2.230234375,-0.7952410578727722,0.3403157889842987,-0.28607177734375
1761838929816304400,2.240304443359375,-0.7765272855758667,0.4647248089313507,-0.4371244013309479
1761838929826374400,2.25037451171875,-0.7398828268051147,0.5499669313430786,-0.569771945476532
1761838929836444400,2.2604443359375,-0.6904260516166687,0.5736794471740723,-0.694942057132721
1761838929846514400,2.270514404296875,-0.6052210330963135,0.5144640803337097,-0.7874038219451904
1761838929856585500,2.28058544921875,-0.4892773926258087,0.3970769941806793,-0.8512067794799805
1761838929866655200,2.2906552734375,-0.3576756417751312,0.26448655128479004,-0.8686224818229675
1761838929876725500,2.3007255859375,-0.26064762473106384,0.15249264240264893,-0.8311715126037598
1761838929886795500,2.31079541015625,-0.2200326770544052,0.05233553797006607,-0.7537223696708679
1761838929896865300,2.320865234375,-0.22523382306098938,0.03448010981082916,-0.6114749908447266
1761838929906935600,2.330935546875,-0.25534969568252563,0.0768931433558464,-0.4109715521335602
1761838929917005300,2.34100537109375,-0.29720818996429443,0.13784943521022797,-0.19612793624401093
1761838929927075300,2.351075439453125,-0.33165496587753296,0.14315290749073029,-0.0038678362034261227
1761838929937145300,2.361145263671875,-0.33276471495628357,0.1318720132112503,0.15577535331249237
1761838929947216400,2.37121630859375,-0.3126690983772278,0.10504663735628128,0.2747945189476013
1761838929957286400,2.381286376953125,-0.30009549856185913,0.07138454914093018,0.35406216979026794
1761838929967356400,2.3913564453125,-0.28729352355003357,0.01846965402364731,0.3962612450122833
1761838929977426200,2.40142626953125,-0.267646849155426,-0.003503023646771908,0.4205085337162018
1761838929987496400,2.411496337890625,-0.24427065253257751,0.0060777184553444386,0.4300917088985443
1761838929997566500,2.42156640625,-0.2375216782093048,0.04429008811712265,0.4204944670200348
1761838930007636200,2.43163623046875,-0.23168717324733734,0.11389404535293579,0.405409038066864
1761838930017706500,2.44170654296875,-0.2320384532213211,0.18394263088703156,0.375521183013916
1761838930027776500,2.451776611328125,-0.22876101732254028,0.24638482928276062,0.3366202116012573
1761838930037847600,2.46184765625,-0.20907412469387054,0.3051866292953491,0.29838335514068604
1761838930047917300,2.471917236328125,-0.17553041875362396,0.35645055770874023,0.2606121897697449
1761838930057987300,2.4819873046875,-0.13118931651115417,0.4140411615371704,0.22293588519096375
1761838930068057300,2.492057373046875,-0.07742015272378922,0.48463717103004456,0.199100524187088
1761838930078127400,2.50212744140625,-0.025007281452417374,0.5208972096443176,0.17484472692012787
1761838930088197400,2.512197265625,0.011710941791534424,0.5088881254196167,0.15221618115901947
1761838930098267400,2.522267333984375,0.04611392319202423,0.46245911717414856,0.1354379951953888
1761838930108337400,2.53233740234375,0.08183475583791733,0.39466026425361633,0.1270887404680252
1761838930118407400,2.542407470703125,0.11979784816503525,0.30444809794425964,0.12253499776124954
1761838930128477400,2.5524775390625,0.1659911423921585,0.198217511177063,0.10811606794595718
1761838930138548500,2.562548583984375,0.21718402206897736,0.08861672878265381,0.09510786086320877
1761838930148618500,2.572618408203125,0.2573793828487396,-0.022338859736919403,0.06986366212368011
1761838930158688300,2.582688232421875,0.29073333740234375,-0.11467784643173218,0.02500883862376213
1761838930168758300,2.59275830078125,0.30658143758773804,-0.1599944531917572,-0.02234560251235962
1761838930178828500,2.60282861328125,0.3197457194328308,-0.15500128269195557,-0.06562090665102005
1761838930188898300,2.612898193359375,0.3296864330768585,-0.09789129346609116,-0.11226105690002441
1761838930198968300,2.62296826171875,0.34012627601623535,-0.03063768520951271,-0.15310436487197876
1761838930209038600,2.63303857421875,0.3365023732185364,0.020866744220256805,-0.18707016110420227
1761838930219108400,2.6431083984375,0.3267826437950134,0.04076375439763069,-0.21780702471733093
1761838930229179400,2.653179443359375,0.31850284337997437,0.03821321949362755,-0.24456095695495605
1761838930239249400,2.66324951171875,0.3090214729309082,0.020502135157585144,-0.2589513659477234
1761838930249319400,2.6733193359375,0.30133479833602905,-0.004485365003347397,-0.25408264994621277
1761838930259389400,2.683389404296875,0.2821744382381439,-0.03930513188242912,-0.24625670909881592
1761838930269459500,2.69345947265625,0.2612348198890686,-0.08221937716007233,-0.2333642989397049
1761838930279524900,2.70352490234375,0.2482614815235138,-0.08011894673109055,-0.20063750445842743
1761838930289595000,2.713594970703125,0.24049581587314606,-0.024830661714076996,-0.14122852683067322
1761838930299665000,2.723664794921875,0.24841445684432983,0.08805859833955765,-0.03905555233359337
1761838930309735000,2.73373486328125,0.26403647661209106,0.2214452624320984,0.09174565970897675
1761838930319806000,2.743805908203125,0.2857218086719513,0.30887284874916077,0.22448773682117462
1761838930329876000,2.7538759765625,0.31151169538497925,0.3196469843387604,0.3398248553276062
1761838930339945700,2.76394580078125,0.3402725160121918,0.25597691535949707,0.43916502594947815
1761838930350016000,2.77401611328125,0.37502461671829224,0.17544065415859222,0.517958402633667
1761838930360086000,2.7840859375,0.4092448949813843,0.07648450136184692,0.5744605660438538
1761838930370155800,2.79415576171875,0.4418257474899292,-0.054320454597473145,0.599530816078186
1761838930380225800,2.804225830078125,0.48882922530174255,-0.17108622193336487,0.6128860116004944
1761838930390295800,2.8142958984375,0.5377416610717773,-0.24403783679008484,0.6125975847244263
1761838930400365800,2.82436572265625,0.5707831978797913,-0.2545786499977112,0.6065031886100769
1761838930410436900,2.834436767578125,0.5789791345596313,-0.21942216157913208,0.5788670182228088
1761838930420507000,2.8445068359375,0.5634843111038208,-0.13185903429985046,0.532223105430603
1761838930430577000,2.854576904296875,0.5274215936660767,-0.025010770186781883,0.44637513160705566
1761838930440647000,2.86464697265625,0.4994528293609619,0.10480289161205292,0.34293821454048157
1761838930450717000,2.874717041015625,0.47564518451690674,0.23818065226078033,0.2211446613073349
1761838930460787000,2.884786865234375,0.44963303208351135,0.3237685263156891,0.08941272646188736
1761838930470857000,2.89485693359375,0.42109692096710205,0.342802494764328,-0.03941026329994202
1761838930480926700,2.9049267578125,0.38654667139053345,0.32219362258911133,-0.15073785185813904
1761838930490996700,2.914996826171875,0.36257946491241455,0.2764696478843689,-0.227131649851799
1761838930501067800,2.92506787109375,0.35636016726493835,0.21513304114341736,-0.28140711784362793
1761838930511138000,2.935137939453125,0.37586480379104614,0.1570391207933426,-0.29983004927635193
1761838930521207800,2.945207763671875,0.39190447330474854,0.11998523026704788,-0.29045039415359497
1761838930531277800,2.95527783203125,0.39582130312919617,0.10841690748929977,-0.25161561369895935
1761838930541348000,2.96534814453125,0.3782193958759308,0.08271607756614685,-0.2071424424648285
1761838930551417900,2.97541796875,0.3463342785835266,0.04039628058671951,-0.16450932621955872
1761838930561488000,2.98548779296875,0.30312076210975647,-0.007615185342729092,-0.13903512060642242
1761838930571558000,2.995557861328125,0.25920751690864563,-0.04005291312932968,-0.13503047823905945
1761838930581628000,3.0056279296875,0.23089119791984558,-0.04385218024253845,-0.14314647018909454
1761838930591698000,3.015697998046875,0.20154526829719543,-0.014667758718132973,-0.16336466372013092
1761838930601769000,3.02576904296875,0.1718001514673233,0.04106421396136284,-0.20058074593544006
1761838930611838700,3.035838623046875,0.15530243515968323,0.11653170734643936,-0.24274899065494537
1761838930621909000,3.045908935546875,0.14930473268032074,0.18424871563911438,-0.2891489863395691
1761838930631978800,3.055978759765625,0.15927544236183167,0.2569745182991028,-0.3280278444290161
1761838930642048800,3.066048828125,0.17048655450344086,0.30417290329933167,-0.36062201857566833
1761838930652119000,3.076119140625,0.19498303532600403,0.33050259947776794,-0.39972710609436035
1761838930662188800,3.086188720703125,0.22678835690021515,0.35120388865470886,-0.42391929030418396
1761838930672258800,3.0962587890625,0.26718810200691223,0.35744228959083557,-0.44804856181144714
1761838930682328800,3.106328857421875,0.3124466836452484,0.3376813530921936,-0.4668073356151581
1761838930692399900,3.11639990234375,0.35715389251708984,0.28668028116226196,-0.47274142503738403
1761838930702470000,3.126469970703125,0.40417200326919556,0.2044927328824997,-0.45578134059906006
1761838930712540000,3.136539794921875,0.45248812437057495,0.126218780875206,-0.4102141559123993
1761838930722609700,3.146609619140625,0.492459774017334,0.047281086444854736,-0.3426992893218994
1761838930732680000,3.156679931640625,0.5286020040512085,-0.03489309549331665,-0.24950022995471954
1761838930742750000,3.16675,0.5527454614639282,-0.10601280629634857,-0.1520565003156662
1761838930752819700,3.17681982421875,0.5526401996612549,-0.2035774290561676,-0.06521471589803696
1761838930762890000,3.186889892578125,0.544489860534668,-0.30880317091941833,0.017657533288002014
1761838930772960000,3.1969599609375,0.5160258412361145,-0.4056842029094696,0.07758022844791412
1761838930783030800,3.20703076171875,0.46915045380592346,-0.4920393228530884,0.11872899532318115
1761838930793100800,3.217100830078125,0.40476641058921814,-0.6072925329208374,0.1306491196155548
1761838930803170800,3.2271708984375,0.3275081217288971,-0.7099611163139343,0.13271521031856537
1761838930813240800,3.23724072265625,0.24683111906051636,-0.7167116403579712,0.13709145784378052
1761838930823310800,3.247310791015625,0.16856960952281952,-0.6350618004798889,0.14303909242153168
1761838930833380900,3.257380859375,0.09256516396999359,-0.5225995182991028,0.14197394251823425
1761838930843451000,3.267450927734375,0.03828701376914978,-0.40146005153656006,0.13966551423072815
1761838930853521000,3.27752099609375,-0.002596786944195628,-0.2899090349674225,0.14928312599658966
1761838930863591000,3.2875908203125,-0.03955160826444626,-0.1991565078496933,0.16705013811588287
1761838930873661000,3.297660888671875,-0.06075241416692734,-0.14969006180763245,0.19846157729625702
1761838930883732000,3.30773193359375,-0.06972087919712067,-0.11768420785665512,0.25775712728500366
1761838930893802000,3.317802001953125,-0.07482903450727463,-0.07958042621612549,0.3367040753364563
1761838930903871700,3.327871826171875,-0.07951939105987549,-0.025111056864261627,0.42613542079925537
1761838930913941800,3.337941650390625,-0.0931251272559166,-0.024311944842338562,0.497116357088089
1761838930924012000,3.348011962890625,-0.12174851447343826,-0.07356365025043488,0.5365039706230164
1761838930934081800,3.358081787109375,-0.13888773322105408,-0.13460233807563782,0.5473549962043762
1761838930944151800,3.36815185546875,-0.1524818390607834,-0.225030779838562,0.5259950757026672
1761838930954222000,3.37822216796875,-0.18080277740955353,-0.33836856484413147,0.4647345244884491
1761838930964292900,3.38829296875,-0.24152018129825592,-0.44533947110176086,0.35155123472213745
1761838930974363000,3.39836279296875,-0.3187659680843353,-0.5054354071617126,0.20238110423088074
1761838930984433000,3.408432861328125,-0.3888949751853943,-0.5372204780578613,0.04071178287267685
1761838930994502700,3.418502685546875,-0.42356404662132263,-0.4418099820613861,-0.09500458836555481
1761838931004573000,3.428572998046875,-0.4198731780052185,-0.2498892843723297,-0.1710178703069687
1761838931014643000,3.438642822265625,-0.3594624698162079,0.04856298118829727,-0.17300792038440704
1761838931024712700,3.448712646484375,-0.23413650691509247,0.37101346254348755,-0.1046011745929718
1761838931034783000,3.458782958984375,-0.05252791941165924,0.5961323380470276,0.009959062561392784
1761838931044853000,3.46885302734375,0.13149970769882202,0.6817609667778015,0.14455603063106537
1761838931054923800,3.478923828125,0.2555531859397888,0.6818687319755554,0.2951161563396454
1761838931064993800,3.488993896484375,0.3228890895843506,0.6650471091270447,0.45483362674713135
1761838931075064000,3.49906396484375,0.345953106880188,0.669206440448761,0.6456443071365356
1761838931085133800,3.5091337890625,0.3269093930721283,0.7149038314819336,0.8435623645782471
1761838931095203800,3.519203857421875,0.26892077922821045,0.7488686442375183,1.0285857915878296
1761838931105273900,3.52927392578125,0.19041211903095245,0.738713264465332,1.1738414764404297
1761838931115344000,3.53934375,0.11637484282255173,0.7142738103866577,1.281208872795105
1761838931125414000,3.549413818359375,0.06847096979618073,0.6689366698265076,1.3379740715026855
1761838931135484000,3.55948388671875,0.04841109737753868,0.5554347038269043,1.3357930183410645
1761838931145554700,3.5695546875,0.06371654570102692,0.37570974230766296,1.2746309041976929
1761838931155625000,3.579625,0.09780550003051758,0.14953802525997162,1.1647366285324097
1761838931165695000,3.589695068359375,0.13401995599269867,-0.0521298311650753,1.0267020463943481
1761838931175764700,3.5997646484375,0.15506184101104736,-0.13592764735221863,0.857851505279541
1761838931185835000,3.6098349609375,0.14043976366519928,-0.09965646266937256,0.6651312708854675
1761838931195905000,3.619905029296875,0.08746947348117828,-0.04820350930094719,0.44020166993141174
1761838931205974800,3.629974853515625,0.02320047654211521,0.01907593011856079,0.1992388814687729
1761838931216044800,3.640044921875,-0.042414791882038116,0.1578644961118698,-0.0341084748506546
1761838931226114800,3.65011474609375,-0.08969654887914658,0.3428250253200531,-0.2546160817146301
1761838931236185900,3.660185791015625,-0.08004109561443329,0.505009651184082,-0.45773249864578247
1761838931246255900,3.670255859375,0.02314760908484459,0.6076899766921997,-0.6313633918762207
1761838931256326000,3.680325927734375,0.21656106412410736,0.5930026769638062,-0.775346040725708
1761838931266396000,3.69039599609375,0.466316282749176,0.48713719844818115,-0.8653867244720459
1761838931276466000,3.7004658203125,0.7056573033332825,0.3482304513454437,-0.8844603300094604
1761838931286536000,3.710535888671875,0.8800389766693115,0.21019934117794037,-0.851028323173523
1761838931296606000,3.72060595703125,0.9907371401786804,0.10843078792095184,-0.7539585828781128
1761838931306676000,3.730676025390625,1.0593633651733398,0.012589478865265846,-0.634172797203064
1761838931316746000,3.74074609375,1.0774567127227783,-0.04755799099802971,-0.4899236559867859
1761838931326817000,3.750817138671875,1.0589789152145386,-0.06317609548568726,-0.33291059732437134
1761838931336886800,3.76088671875,1.0395535230636597,-0.05564413219690323,-0.16889287531375885
1761838931346957000,3.77095703125,1.0465914011001587,-0.05354316532611847,-0.018255963921546936
1761838931357027000,3.781027099609375,1.0892456769943237,-0.05220574885606766,0.09448491036891937
1761838931367096800,3.791096923828125,1.1460734605789185,-0.0784839615225792,0.16283147037029266
1761838931377167000,3.8011669921875,1.2096660137176514,-0.14321216940879822,0.18077054619789124
1761838931387237000,3.811237060546875,1.273453712463379,-0.21319204568862915,0.17452196776866913
1761838931397307000,3.821306884765625,1.3454853296279907,-0.2731306254863739,0.15507963299751282
1761838931407377000,3.831376953125,1.4117828607559204,-0.303272008895874,0.1455359309911728
1761838931417448000,3.841447998046875,1.466394305229187,-0.30431467294692993,0.1497039943933487
1761838931427518000,3.85151806640625,1.5098731517791748,-0.28874796628952026,0.17228174209594727
1761838931437588000,3.861587890625,1.537747859954834,-0.2134004533290863,0.20180298388004303
1761838931447658000,3.871657958984375,1.5638939142227173,-0.06924141198396683,0.2342780977487564
1761838931457728000,3.88172802734375,1.6072899103164673,0.09189649671316147,0.2456611543893814
1761838931467798000,3.891798095703125,1.6634272336959839,0.18431510031223297,0.19897061586380005
1761838931477868000,3.901867919921875,1.7319886684417725,0.20770537853240967,0.1101217195391655
1761838931487938000,3.91193798828125,1.8087843656539917,0.1833246797323227,0.007689087651669979
1761838931498008000,3.922008056640625,1.896306037902832,0.09340408444404602,-0.10445912182331085
1761838931508079000,3.9320791015625,1.968023419380188,0.05363749340176582,-0.19703646004199982
1761838931518148900,3.94214892578125,2.028104305267334,0.07178273797035217,-0.27121490240097046
1761838931528219000,3.952218994140625,2.0946247577667236,0.1119551882147789,-0.342191606760025
1761838931538289200,3.9622890625,2.179718494415283,0.16039444506168365,-0.398781418800354
1761838931548359000,3.97235888671875,2.265822649002075,0.2398490458726883,-0.42717069387435913
1761838931558429000,3.982428955078125,2.346893310546875,0.3458237051963806,-0.4322994351387024
1761838931568499200,3.992499267578125,2.436497688293457,0.4466856122016907,-0.42231470346450806
1761838931578569000,4.00256884765625,2.5275204181671143,0.5257805585861206,-0.40778863430023193
1761838931588637000,4.012636962890625,2.602701425552368,0.5738231539726257,-0.39471063017845154
1761838931598707000,4.02270703125,2.666550874710083,0.595050036907196,-0.38810262084007263
1761838931608777000,4.03277685546875,2.7375667095184326,0.6007220149040222,-0.36966291069984436
1761838931618848000,4.042847900390625,2.8070292472839355,0.5981123447418213,-0.35040372610092163
1761838931628918000,4.05291796875,2.872206926345825,0.6066730618476868,-0.32724088430404663
1761838931638988000,4.062988037109375,2.9328885078430176,0.6074194312095642,-0.303250253200531
1761838931649058000,4.07305810546875,2.9815032482147217,0.5862257480621338,-0.2860795259475708
1761838931659128000,4.083128173828125,3.0168466567993164,0.5352280735969543,-0.2779863178730011
1761838931669198000,4.093197998046875,3.0405068397521973,0.4876059293746948,-0.2791985869407654
1761838931679267800,4.103267822265625,3.0624477863311768,0.44019845128059387,-0.2834693491458893
1761838931689337900,4.113337890625,3.0690250396728516,0.431415855884552,-0.27135276794433594
1761838931699408100,4.123408203125,3.070019006729126,0.4645230174064636,-0.2574169933795929
1761838931709479200,4.133479248046875,3.0633788108825684,0.5215708613395691,-0.22360603511333466
1761838931719549000,4.143548828125,3.0623281002044678,0.610003650188446,-0.17431776225566864
1761838931729619000,4.153618896484375,3.066591262817383,0.7078441977500916,-0.11927369236946106
1761838931739689000,4.16368896484375,3.0764458179473877,0.7802664041519165,-0.08579107373952866
1761838931749759000,4.173759033203125,3.077199935913086,0.7728212475776672,-0.06741686165332794
1761838931759829000,4.1838291015625,3.0821006298065186,0.741313636302948,-0.062043216079473495
1761838931769899000,4.19389892578125,3.079784631729126,0.6703489422798157,-0.05982879921793938
1761838931779969000,4.203968994140625,3.072589874267578,0.5594860911369324,-0.05136439576745033
1761838931790040000,4.2140400390625,3.0618185997009277,0.4563756585121155,-0.02462492324411869
1761838931800110000,4.224110107421875,3.036442518234253,0.3573063910007477,0.013149839825928211
1761838931810179800,4.234179931640625,2.9938037395477295,0.2678065896034241,0.05553138628602028
1761838931820250000,4.24425,2.9414563179016113,0.1884164810180664,0.08884896337985992
1761838931830319900,4.25431982421875,2.895355701446533,0.113813616335392,0.10801706463098526
1761838931840390000,4.264389892578125,2.863065004348755,0.049165502190589905,0.09587261825799942
1761838931850460200,4.274460205078125,2.8378286361694336,-0.006042360328137875,0.05957319959998131
1761838931860530000,4.284530029296875,2.803584098815918,-0.02944447100162506,-0.006014942191541195
1761838931870600000,4.294599853515625,2.7443718910217285,-0.012162151746451855,-0.07344671338796616
1761838931880671000,4.3046708984375,2.662986993789673,0.03584091365337372,-0.13963550329208374
1761838931890741000,4.314740966796875,2.577869176864624,0.08194928616285324,-0.20916691422462463
1761838931900811000,4.32481103515625,2.5153391361236572,0.16847148537635803,-0.25648728013038635
1761838931910881000,4.334881103515625,2.4825665950775146,0.3143394887447357,-0.2864561080932617
1761838931920950800,4.34495068359375,2.4571075439453125,0.49745988845825195,-0.2961704432964325
1761838931931021000,4.35502099609375,2.448472261428833,0.6928203105926514,-0.28643712401390076
1761838931941091000,4.365091064453125,2.4588799476623535,0.8697589039802551,-0.257114052772522
1761838931951160800,4.375160888671875,2.461217164993286,1.034201979637146,-0.20137940347194672
1761838931961231000,4.385231201171875,2.470510482788086,1.1953693628311157,-0.13731525838375092
1761838931971302100,4.39530224609375,2.4902586936950684,1.3276118040084839,-0.05712774395942688
1761838931981372000,4.405371826171875,2.5032172203063965,1.391250491142273,0.02403947338461876
1761838931991442000,4.41544189453125,2.506476402282715,1.3942992687225342,0.10529544204473495
1761838932001512000,4.425511962890625,2.4844491481781006,1.351836919784546,0.18360179662704468
1761838932011582000,4.43558203125,2.4471747875213623,1.282239556312561,0.2535984516143799
1761838932021652000,4.44565185546875,2.4049696922302246,1.216969609260559,0.32161375880241394
1761838932031722000,4.455721923828125,2.3523125648498535,1.1703579425811768,0.3698928654193878
1761838932041792000,4.4657919921875,2.300938129425049,1.1478685140609741,0.4054626226425171
1761838932051863000,4.475863037109375,2.2498722076416016,1.1222091913223267,0.40464210510253906
1761838932061933000,4.48593310546875,2.2005724906921387,1.0911716222763062,0.37349510192871094
1761838932072002800,4.4960029296875,2.14591908454895,1.0439436435699463,0.31384748220443726
1761838932082073000,4.506072998046875,2.0862619876861572,0.9681698083877563,0.2405567616224289
1761838932092143000,4.51614306640625,2.0209567546844482,0.8554877042770386,0.16748015582561493
1761838932102212900,4.526212890625,1.9587455987930298,0.7252117395401001,0.10064347833395004
1761838932112283000,4.536282958984375,1.9114902019500732,0.5928358435630798,0.05147646740078926
1761838932122353200,4.546353271484375,1.8699055910110474,0.47261685132980347,0.013303779996931553
1761838932132423000,4.5564228515625,1.8277589082717896,0.3590335547924042,-0.009769048541784286
1761838932142494000,4.566493896484375,1.7923449277877808,0.2609196603298187,-0.03473599627614021
1761838932152564000,4.57656396484375,1.763880968093872,0.15807422995567322,-0.07358911633491516
1761838932162634000,4.586634033203125,1.7494986057281494,0.08194992691278458,-0.1313495635986328
1761838932172704000,4.5967041015625,1.7599494457244873,0.019121427088975906,-0.19898132979869843
1761838932182774000,4.60677392578125,1.7943449020385742,0.011596288532018661,-0.26767417788505554
1761838932192844000,4.616843994140625,1.8492156267166138,0.04229401424527168,-0.30845487117767334
1761838932202914000,4.6269140625,1.8900846242904663,0.06941139698028564,-0.3029647469520569
1761838932212984000,4.636984130859375,1.9482512474060059,0.09471489489078522,-0.29719552397727966
1761838932223053800,4.6470537109375,1.9894919395446777,0.11598950624465942,-0.2904491126537323
1761838932233124000,4.6571240234375,1.9531373977661133,0.11349678039550781,-0.2752368748188019
1761838932243195100,4.667195068359375,1.8574470281600952,0.01175410021096468,-0.24065034091472626
1761838932253265000,4.677264892578125,1.7219816446304321,-0.11363071948289871,-0.16761980950832367
1761838932263335000,4.6873349609375,1.5782924890518188,-0.17260736227035522,-0.06506326049566269
1761838932273405200,4.6974052734375,1.5059891939163208,-0.1376323401927948,0.05548712611198425
1761838932283476000,4.70747607421875,1.5485663414001465,-0.034067828208208084,0.2131732702255249
1761838932293546000,4.7175458984375,1.6522645950317383,0.12905532121658325,0.3826594948768616
1761838932303615700,4.72761572265625,1.736739158630371,0.290459543466568,0.5098685026168823
1761838932313686000,4.73768603515625,1.8149586915969849,0.3419610857963562,0.5665229558944702
1761838932323757000,4.747757080078125,1.889968752861023,0.34339842200279236,0.5576422810554504
1761838932333826800,4.757826904296875,1.9051157236099243,0.29909461736679077,0.49891504645347595
1761838932343896800,4.767896728515625,1.8582377433776855,0.18629740178585052,0.3965679109096527
1761838932353966800,4.777966796875,1.7584373950958252,0.0518953874707222,0.2771075665950775
1761838932364036900,4.788036865234375,1.6263495683670044,-0.02774159237742424,0.15641406178474426
1761838932374107000,4.79810693359375,1.4707651138305664,-0.010354611091315746,0.056316494941711426
1761838932384177000,4.808177001953125,1.3107198476791382,0.10906486213207245,-0.027762815356254578
1761838932394247000,4.818246826171875,1.182992696762085,0.28592753410339355,-0.09353410452604294
1761838932404317000,4.82831689453125,1.0776795148849487,0.45540234446525574,-0.1577388197183609
1761838932414388000,4.838387939453125,0.9771662950515747,0.6014708280563354,-0.2348429262638092
1761838932424457700,4.848457763671875,0.8900672793388367,0.7267476320266724,-0.3339357078075409
1761838932434528000,4.858528076171875,0.8757668733596802,0.7651344537734985,-0.465580552816391
1761838932444598000,4.868597900390625,0.8909326195716858,0.7730609774589539,-0.5794626474380493
1761838932454667800,4.878667724609375,0.9280850291252136,0.739870548248291,-0.6667945981025696
1761838932464737800,4.88873779296875,1.0007301568984985,0.6727838516235352,-0.7065690755844116
1761838932474808000,4.89880810546875,1.1361525058746338,0.6122424602508545,-0.7065781354904175
1761838932484877800,4.9088779296875,1.3051549196243286,0.5807502269744873,-0.643291711807251
1761838932494947800,4.91894775390625,1.4456087350845337,0.5316356420516968,-0.5318130850791931
1761838932505019000,4.929018798828125,1.5101398229599,0.4546687602996826,-0.4074691832065582
1761838932515089000,4.9390888671875,1.478678584098816,0.3668486177921295,-0.2749654948711395
1761838932525159000,4.949158935546875,1.3843368291854858,0.2890152037143707,-0.14270591735839844
1761838932535229000,4.95922900390625,1.2754549980163574,0.21070121228694916,-0.01682388223707676
1761838932545298700,4.969298583984375,1.1766455173492432,0.1402389258146286,0.0900026485323906
1761838932555369000,4.979368896484375,1.1071043014526367,0.07566525042057037,0.17050521075725555
1761838932565438700,4.989438720703125,1.064306378364563,0.03876457363367081,0.22226984798908234
1761838932575508700,4.9995087890625,1.021709680557251,0.03426969051361084,0.23957613110542297
1761838932585579000,5.0095791015625,0.980633020401001,0.0476413294672966,0.21846657991409302
1761838932595650000,5.019650146484375,0.9523667693138123,0.09868401288986206,0.15644074976444244
1761838932605719800,5.0297197265625,0.9393236637115479,0.1786114126443863,0.059050027281045914
1761838932615789800,5.039789794921875,0.9192381501197815,0.21673350036144257,-0.07623882591724396
1761838932625860000,5.049860107421875,0.8981518149375916,0.1774730384349823,-0.2212316244840622
1761838932635929900,5.059929931640625,0.8865188360214233,0.12526416778564453,-0.32523471117019653
1761838932645999900,5.069999755859375,0.9139685034751892,0.12592533230781555,-0.36375361680984497
1761838932656069600,5.080069580078125,0.9773251414299011,0.13509567081928253,-0.35602831840515137
1761838932666140000,5.090139892578125,1.067917823791504,0.11217988282442093,-0.31743642687797546
1761838932676210000,5.1002099609375,1.1530600786209106,0.035494156181812286,-0.2575131952762604
1761838932686281000,5.110281005859375,1.2201017141342163,-0.09710562229156494,-0.1938074678182602
1761838932696350700,5.120350830078125,1.25504469871521,-0.22931452095508575,-0.1532866656780243
1761838932706421000,5.1304208984375,1.252825140953064,-0.341528981924057,-0.10950253903865814
1761838932716490800,5.14049072265625,1.2020317316055298,-0.4312625825405121,-0.061939019709825516
1761838932726560800,5.150560791015625,1.1327459812164307,-0.48772555589675903,-0.019993815571069717
1761838932736631000,5.160631103515625,1.074816107749939,-0.519702136516571,0.029069866985082626
1761838932746700800,5.17070068359375,1.0340434312820435,-0.505573570728302,0.08406679332256317
1761838932756770800,5.180770751953125,0.9952579736709595,-0.47070929408073425,0.11334025859832764
1761838932766840800,5.1908408203125,0.9556899666786194,-0.4750872850418091,0.10976652801036835
1761838932776910800,5.200910888671875,0.9270617961883545,-0.5014909505844116,0.07709380239248276
1761838932786982000,5.21098193359375,0.9058055281639099,-0.5503663420677185,0.018962234258651733
1761838932797052000,5.221052001953125,0.8820093870162964,-0.5971218347549438,-0.04629852995276451
1761838932807121700,5.23112158203125,0.855360209941864,-0.6168811917304993,-0.117071233689785
1761838932817192000,5.24119189453125,0.8309326171875,-0.6089295148849487,-0.18018469214439392
1761838932827262000,5.251261962890625,0.8041464686393738,-0.5377776026725769,-0.22181160748004913
1761838932837331700,5.261331787109375,0.7710617184638977,-0.40472397208213806,-0.24017702043056488
1761838932847402000,5.271402099609375,0.7336835265159607,-0.2693961560726166,-0.25363537669181824
1761838932857472000,5.281471923828125,0.6860318183898926,-0.1356325000524521,-0.25383803248405457
1761838932867541800,5.291541748046875,0.6388676762580872,0.0017346343956887722,-0.25205332040786743
1761838932877612800,5.30161279296875,0.6013533473014832,0.08709027618169785,-0.24809639155864716
1761838932887682800,5.311682861328125,0.5684192776679993,0.11235770583152771,-0.24874228239059448
1761838932897752800,5.3217529296875,0.5265706181526184,0.11005593091249466,-0.23622089624404907
1761838932907822800,5.33182275390625,0.48322245478630066,0.12314038723707199,-0.19877925515174866
1761838932917892900,5.341892822265625,0.4289954602718353,0.17342273890972137,-0.11825910955667496
1761838932927963000,5.351962890625,0.38525915145874023,0.23709778487682343,-0.018384935334324837
1761838932938033000,5.362032958984375,0.3559614419937134,0.26990315318107605,0.09992440044879913
1761838932948103000,5.37210302734375,0.3267253339290619,0.30505847930908203,0.22129911184310913
1761838932958172700,5.382172607421875,0.3133045732975006,0.3574574887752533,0.3339742422103882
1761838932968243700,5.39224365234375,0.3123011589050293,0.40457430481910706,0.4379682242870331
1761838932978314000,5.40231396484375,0.32689714431762695,0.47582823038101196,0.5186185836791992
1761838932988383700,5.4123837890625,0.3521958589553833,0.5208247303962708,0.5716498494148254
1761838932998453800,5.422453857421875,0.3714268207550049,0.44361650943756104,0.5545651316642761
1761838933008524000,5.43252392578125,0.34515854716300964,0.25904127955436707,0.47085511684417725
1761838933018593800,5.44259375,0.26885712146759033,-0.025904716923832893,0.3402502238750458
1761838933028663800,5.452663818359375,0.15759634971618652,-0.1862025111913681,0.23423458635807037
1761838933038734000,5.462734130859375,0.019950076937675476,-0.15737086534500122,0.18287472426891327
1761838933048803800,5.472803955078125,-0.07733452320098877,0.018421169370412827,0.17133007943630219
1761838933058873900,5.482873779296875,-0.09112223982810974,0.31415826082229614,0.21915298700332642
1761838933068945000,5.49294482421875,-0.03125419840216637,0.5934634804725647,0.264288067817688
1761838933079014700,5.5030146484375,0.06536076217889786,0.7507572174072266,0.25608688592910767
1761838933089085000,5.5130849609375,0.19425857067108154,0.841022253036499,0.2674529254436493
1761838933099155000,5.523155029296875,0.32028496265411377,0.9590548872947693,0.2961026728153229
1761838933109224700,5.533224609375,0.45429563522338867,1.118382453918457,0.33266451954841614
1761838933119295000,5.543294921875,0.601159393787384,1.2960454225540161,0.39502909779548645
1761838933129365000,5.553364990234375,0.7658401131629944,1.4019619226455688,0.45406994223594666
1761838933139434800,5.563434814453125,0.9223218560218811,1.427478551864624,0.4943726062774658
1761838933149505000,5.573505126953125,1.0580110549926758,1.3578317165374756,0.49471139907836914
1761838933159574800,5.58357470703125,1.1304982900619507,1.1973035335540771,0.45137590169906616
1761838933169645800,5.593645751953125,1.1190125942230225,0.9574941992759705,0.3484572470188141
1761838933179715800,5.6037158203125,1.0319408178329468,0.6667382717132568,0.20473311841487885
1761838933189785900,5.613785888671875,0.8851983547210693,0.3837771415710449,0.05206020921468735
1761838933199855900,5.62385595703125,0.7160636186599731,0.1454644501209259,-0.09165221452713013
1761838933209926000,5.63392578125,0.5643843412399292,-0.03846318647265434,-0.2037709355354309
1761838933219996000,5.643995849609375,0.4484318792819977,-0.20762477815151215,-0.28162550926208496
1761838933230066000,5.65406591796875,0.373477578163147,-0.3583719730377197,-0.3173033595085144
1761838933240136000,5.664135986328125,0.31442493200302124,-0.4416697919368744,-0.3284388482570648
1761838933250205700,5.674205810546875,0.28843173384666443,-0.4828599691390991,-0.30564770102500916
1761838933260276700,5.68427685546875,0.2596738636493683,-0.4721601903438568,-0.27417153120040894
1761838933270346800,5.6943466796875,0.22530244290828705,-0.36575135588645935,-0.23884712159633636
1761838933280417000,5.7044169921875,0.20532368123531342,-0.16443504393100739,-0.20320549607276917
1761838933290486500,5.714486572265625,0.21095897257328033,0.09964761137962341,-0.15995854139328003
1761838933300556500,5.724556640625,0.25634562969207764,0.3878735601902008,-0.11071030050516129
1761838933310626800,5.734626708984375,0.31407052278518677,0.6327318549156189,-0.07470662891864777
1761838933320696600,5.744696533203125,0.34510061144828796,0.7327446937561035,-0.07109538465738297
1761838933330766600,5.7547666015625,0.3493553698062897,0.7587335109710693,-0.1007341742515564
1761838933340836900,5.7648369140625,0.3497311472892761,0.7605956196784973,-0.155625119805336
1761838933350906600,5.77490673828125,0.3541748523712158,0.6892595291137695,-0.22719818353652954
1761838933360977700,5.784977783203125,0.3473004400730133,0.5456887483596802,-0.3041691184043884
1761838933371047700,5.795047607421875,0.34895744919776917,0.3733277916908264,-0.3645859658718109
1761838933381117700,5.80511767578125,0.36810317635536194,0.20865045487880707,-0.3855615556240082
1761838933391187700,5.815187744140625,0.39543673396110535,0.09028686583042145,-0.37005773186683655
1761838933401257700,5.8252578125,0.41067934036254883,0.0028603505343198776,-0.33562171459198
1761838933411327500,5.835327392578125,0.4041825532913208,-0.07478205859661102,-0.30124107003211975
1761838933421397800,5.845397705078125,0.37684839963912964,-0.13660040497779846,-0.26674914360046387
1761838933431467800,5.8554677734375,0.33962008357048035,-0.1970624476671219,-0.24613769352436066
1761838933441537500,5.86553759765625,0.3087162375450134,-0.24821245670318604,-0.22395968437194824
1761838933451607800,5.87560791015625,0.28963229060173035,-0.2968355417251587,-0.1919923722743988
1761838933461678800,5.885678955078125,0.2799879014492035,-0.3418613374233246,-0.1543925404548645
1761838933471748600,5.89574853515625,0.2849489152431488,-0.38928529620170593,-0.10233481228351593
1761838933481818600,5.905818603515625,0.30333057045936584,-0.44112104177474976,-0.03517628088593483
1761838933491888600,5.915888671875,0.3106342852115631,-0.5196808576583862,0.034928105771541595
1761838933501958700,5.925958740234375,0.30314043164253235,-0.6227044463157654,0.1149694174528122
1761838933512028700,5.936028564453125,0.27266278862953186,-0.7478962540626526,0.20147091150283813
1761838933522098400,5.946098388671875,0.22202493250370026,-0.8268022537231445,0.2913243770599365
1761838933532168700,5.956168701171875,0.16878709197044373,-0.8452940583229065,0.39664170145988464
1761838933542238700,5.96623876953125,0.11315125972032547,-0.8013308644294739,0.5177447199821472
1761838933552308500,5.97630859375,0.056240811944007874,-0.6948293447494507,0.6454123854637146
1761838933562379500,5.986379638671875,-0.014644279144704342,-0.6435038447380066,0.7554834485054016
1761838933572449800,5.99644970703125,-0.12653696537017822,-0.715242326259613,0.7931848168373108
1761838933582519800,6.006519775390625,-0.2401471585035324,-0.8376321196556091,0.7520861029624939
1761838933592589600,6.016589599609375,-0.3160885274410248,-0.9368703961372375,0.6602820158004761
1761838933602659600,6.02665966796875,-0.38938379287719727,-1.0111651420593262,0.5271345973014832
1761838933612729600,6.0367294921875,-0.4781036376953125,-0.9699297547340393,0.3702255189418793
1761838933622799600,6.046799560546875,-0.5584863424301147,-0.7879070043563843,0.21008644998073578
1761838933632869600,6.05686962890625,-0.6471457481384277,-0.5652257800102234,0.0325922928750515
1761838933642939600,6.066939697265625,-0.7335299253463745,-0.33683258295059204,-0.16553491353988647
1761838933653009700,6.077009765625,-0.7909228205680847,-0.10337284207344055,-0.3736001253128052
1761838933663079700,6.08707958984375,-0.7868804335594177,0.09557195007801056,-0.5644553303718567
1761838933673150500,6.097150390625,-0.7117565870285034,0.27544963359832764,-0.7047262191772461
1761838933683220700,6.107220703125,-0.5745337009429932,0.4433337152004242,-0.7800883054733276
1761838933693290800,6.117290771484375,-0.3900698125362396,0.6115373969078064,-0.7540355324745178
1761838933703360500,6.127360595703125,-0.19009333848953247,0.7671062350273132,-0.6424083709716797
1761838933713430500,6.137430419921875,-0.01833908073604107,0.8936470150947571,-0.4666365087032318
1761838933723500800,6.147500732421875,0.10312369465827942,0.9609123468399048,-0.26743313670158386
1761838933733570600,6.157570556640625,0.18715590238571167,0.9591835737228394,-0.05463060736656189
1761838933743640600,6.167640625,0.21652071177959442,0.8369172811508179,0.14064249396324158
1761838933753710800,6.1777109375,0.190348818898201,0.6116063594818115,0.31245124340057373
1761838933763780600,6.187780517578125,0.11849354207515717,0.32551735639572144,0.4560678005218506
1761838933773851600,6.1978515625,0.036686696112155914,-0.004310705699026585,0.5697999000549316
1761838933783921700,6.207921630859375,-0.03663519024848938,-0.33423110842704773,0.6461588144302368
1761838933793991700,6.21799169921875,-0.10627440363168716,-0.6214451789855957,0.675139844417572
1761838933804061700,6.228061767578125,-0.16516833007335663,-0.7881356477737427,0.658998429775238
1761838933814131700,6.238131591796875,-0.24015967547893524,-0.8241344690322876,0.5978888273239136
1761838933824201500,6.248201416015625,-0.3497292995452881,-0.7959611415863037,0.4791243374347687
1761838933834271700,6.258271728515625,-0.48226961493492126,-0.7035118341445923,0.3161260187625885
1761838933844341800,6.268341796875,-0.609211266040802,-0.5540011525154114,0.13045096397399902
1761838933854411500,6.27841162109375,-0.7158095836639404,-0.3297831118106842,-0.05817386507987976
1761838933864481800,6.288481689453125,-0.7725272178649902,-0.08676859736442566,-0.2445535957813263
1761838933874551600,6.298551513671875,-0.761774480342865,0.10010579228401184,-0.4125979244709015
1761838933884622600,6.30862255859375,-0.6831701993942261,0.20948927104473114,-0.5595037341117859
1761838933894692600,6.318692626953125,-0.5200769901275635,0.2874181270599365,-0.6425734162330627
1761838933904762600,6.3287626953125,-0.3073276877403259,0.33757609128952026,-0.657047688961029
1761838933914832600,6.33883251953125,-0.11138167977333069,0.3199614882469177,-0.5860548615455627
1761838933924902700,6.348902587890625,0.015083054080605507,0.21476051211357117,-0.44184359908103943
1761838933934972700,6.35897265625,0.06967632472515106,0.10018804669380188,-0.26631247997283936
1761838933945042700,6.369042724609375,0.04355896636843681,-0.02617602050304413,-0.0713144987821579
1761838933955112700,6.37911279296875,-0.07883504033088684,-0.18086032569408417,0.1099090725183487
1761838933965182500,6.389182373046875,-0.256833016872406,-0.3394947052001953,0.26322805881500244
1761838933975252700,6.399252685546875,-0.460513710975647,-0.4261486530303955,0.3940656781196594
1761838933985322800,6.40932275390625,-0.6252176761627197,-0.4317072033882141,0.47983676195144653
1761838933995393800,6.419393798828125,-0.7212409973144531,-0.36967921257019043,0.5257636308670044
1761838934005463600,6.429463623046875,-0.7590006589889526,-0.2803586721420288,0.5120052099227905
1761838934015533600,6.439533447265625,-0.7573366165161133,-0.19301563501358032,0.4599282443523407
1761838934025603800,6.449603759765625,-0.7198225259780884,-0.09647738188505173,0.3870854377746582
1761838934035673600,6.459673583984375,-0.6626648902893066,0.0029349569231271744,0.2927994132041931
1761838934045743600,6.46974365234375,-0.590689480304718,0.07375267148017883,0.19687983393669128
1761838934055813600,6.479813720703125,-0.5049325227737427,0.12134579569101334,0.10865237563848495
1761838934065883600,6.489883544921875,-0.4283059239387512,0.1612870842218399,0.05288178473711014
1761838934075953700,6.49995361328125,-0.3588392734527588,0.18088197708129883,0.03323928639292717
1761838934086023700,6.510023681640625,-0.31239160895347595,0.17668190598487854,0.046620871871709824
1761838934096094700,6.5200947265625,-0.2695849537849426,0.15987250208854675,0.09655250608921051
1761838934106164700,6.530164794921875,-0.2233293205499649,0.14349912106990814,0.180272176861763
1761838934116234500,6.540234375,-0.16858837008476257,0.1350364238023758,0.2815227508544922
1761838934126304500,6.550304443359375,-0.10749120265245438,0.11216545850038528,0.3834640085697174
1761838934136374800,6.560374755859375,-0.0387880876660347,0.1140211895108223,0.47838079929351807
1761838934146444500,6.570444580078125,0.032896220684051514,0.14737701416015625,0.548910915851593
1761838934156514600,6.5805146484375,0.09355330467224121,0.18344838917255402,0.5858955979347229
1761838934166584800,6.590584716796875,0.13324184715747833,0.2148238867521286,0.5944973230361938
1761838934176654600,6.600654541015625,0.15890094637870789,0.2343214899301529,0.5697506070137024
1761838934186724600,6.610724609375,0.19460727274417877,0.25205788016319275,0.5291445851325989
1761838934196794600,6.620794677734375,0.23073506355285645,0.2801481783390045,0.47660547494888306
1761838934206865700,6.63086572265625,0.2645489275455475,0.2820179760456085,0.39899030327796936
1761838934216935700,6.640935791015625,0.2803488075733185,0.21772216260433197,0.28254595398902893
1761838934227005700,6.651005615234375,0.2663853168487549,0.06292060762643814,0.1191578134894371
1761838934237075500,6.661075439453125,0.19306358695030212,-0.14571170508861542,-0.09137970209121704
1761838934247145700,6.671145751953125,0.09912935644388199,-0.29214614629745483,-0.300889790058136
1761838934257215700,6.6812158203125,0.013367841020226479,-0.34138035774230957,-0.48102450370788574
1761838934267285500,6.691285400390625,-0.059454966336488724,-0.2997477054595947,-0.6097310185432434
1761838934277355800,6.701355712890625,-0.10788934677839279,-0.11175046116113663,-0.6468613147735596
1761838934287425500,6.711425537109375,-0.12022856622934341,0.21080201864242554,-0.5821036696434021
1761838934297495600,6.72149560546875,-0.09511242806911469,0.5146236419677734,-0.45093613862991333
1761838934307565600,6.731565673828125,-0.06757267564535141,0.6300482749938965,-0.3102525472640991
1761838934317635600,6.741635498046875,-0.04780896008014679,0.6070870757102966,-0.17976818978786469
1761838934327706600,6.75170654296875,-0.022156327962875366,0.5202243328094482,-0.06421096622943878
1761838934337776400,6.7617763671875,0.013512847945094109,0.4005623161792755,0.050217367708683014
1761838934347846400,6.771846435546875,0.056213438510894775,0.27043867111206055,0.16998052597045898
1761838934357916700,6.781916748046875,0.1140618845820427,0.13089939951896667,0.2827201187610626
1761838934367986400,6.791986328125,0.1800241321325302,0.011717346496880054,0.3960442841053009
1761838934378056400,6.802056396484375,0.2428790032863617,-0.07838307321071625,0.48422855138778687
1761838934388126700,6.812126708984375,0.2742667496204376,-0.15623845160007477,0.532724916934967
1761838934398196500,6.822196533203125,0.26271408796310425,-0.20422165095806122,0.5312672257423401
1761838934408266500,6.8322666015625,0.23077425360679626,-0.19384197890758514,0.4859825670719147
1761838934418336500,6.84233642578125,0.18798846006393433,-0.14794623851776123,0.4061662554740906
1761838934428406500,6.852406494140625,0.13906031847000122,-0.10343071073293686,0.2937992215156555
1761838934438476500,6.8624765625,0.09633471816778183,-0.07371386140584946,0.1524350941181183
1761838934448547600,6.872547607421875,0.07114867120981216,-0.06597631424665451,-0.0011158604174852371
1761838934458617300,6.882617431640625,0.05278708040714264,-0.07651165872812271,-0.14476646482944489
1761838934468687600,6.8926875,0.03124956600368023,-0.09775915741920471,-0.2639748752117157
1761838934478757600,6.902757568359375,-0.0008021733956411481,-0.13583330810070038,-0.3597349524497986
1761838934488827400,6.912827392578125,-0.02270320989191532,-0.17463929951190948,-0.4207242727279663
1761838934498897700,6.922897705078125,-0.021320370957255363,-0.2015819549560547,-0.44130438566207886
1761838934508967700,6.9329677734375,-0.006963002495467663,-0.20389437675476074,-0.42538535594940186
1761838934519037400,6.943037353515625,0.009602062404155731,-0.20381376147270203,-0.38045352697372437
1761838934529107500,6.953107421875,0.0219974797219038,-0.1880214810371399,-0.31742554903030396
1761838934539177500,6.963177490234375,0.040605586022138596,-0.1510516256093979,-0.24869860708713531
1761838934549247500,6.97324755859375,0.05801520124077797,-0.06496362388134003,-0.1764073669910431
1761838934559318500,6.983318603515625,0.07370182126760483,0.017220385372638702,-0.12397874146699905
1761838934569388500,6.993388427734375,0.092237688601017,0.08283081650733948,-0.1018366888165474
1761838934579458600,7.00345849609375,0.1205691322684288,0.13585206866264343,-0.09932976961135864
1761838934589528600,7.013528564453125,0.15473589301109314,0.1602090746164322,-0.12403431534767151
1761838934599598600,7.0235986328125,0.1857500523328781,0.18624569475650787,-0.14665186405181885
1761838934609668600,7.033668701171875,0.20786094665527344,0.22113656997680664,-0.172584667801857
1761838934619738600,7.043738525390625,0.20806075632572174,0.24570031464099884,-0.1949334293603897
1761838934629808400,7.053808349609375,0.1995897740125656,0.2510426342487335,-0.2244204878807068
1761838934639878400,7.06387841796875,0.1824667900800705,0.2574714124202728,-0.25572723150253296
1761838934649948700,7.07394873046875,0.16136150062084198,0.24774020910263062,-0.2878819704055786
1761838934660018400,7.084018310546875,0.1363271176815033,0.19875483214855194,-0.3334054946899414
1761838934670088400,7.09408837890625,0.12459136545658112,0.12147070467472076,-0.3572980463504791
1761838934680158700,7.10415869140625,0.12318381667137146,0.04870445281267166,-0.347545862197876
1761838934690229500,7.1142294921875,0.13236398994922638,-0.022565467283129692,-0.30836623907089233
1761838934700299500,7.124299560546875,0.1455492377281189,-0.12313669174909592,-0.24750083684921265
1761838934710369500,7.13436962890625,0.16244113445281982,-0.2170000672340393,-0.16852745413780212
1761838934720439600,7.144439453125,0.17844687402248383,-0.27704066038131714,-0.07424988597631454
1761838934730509600,7.154509521484375,0.1821015179157257,-0.3156764805316925,0.013233623467385769
1761838934740579600,7.16457958984375,0.16364195942878723,-0.3537577986717224,0.09234174340963364
1761838934750649300,7.1746494140625,0.12953779101371765,-0.41320300102233887,0.14924390614032745
1761838934760719600,7.1847197265625,0.08601720631122589,-0.4583096504211426,0.189917653799057
1761838934770789600,7.19478955078125,0.04538508877158165,-0.5007247924804688,0.20883089303970337
1761838934780859400,7.204859375,0.0042535001412034035,-0.5024364590644836,0.2212318331003189
1761838934790929700,7.2149296875,-0.033558592200279236,-0.4593220353126526,0.2248912751674652
1761838934800999700,7.224999755859375,-0.058715540915727615,-0.41617441177368164,0.223952978849411
1761838934811070500,7.235070556640625,-0.08854560554027557,-0.35503411293029785,0.22428640723228455
1761838934821140500,7.245140380859375,-0.1147325411438942,-0.2916819751262665,0.22897633910179138
1761838934831210500,7.25521044921875,-0.14487579464912415,-0.23460406064987183,0.23799248039722443
1761838934841280500,7.265280517578125,-0.16863413155078888,-0.18045811355113983,0.2599749267101288
1761838934851350500,7.2753505859375,-0.1921202838420868,-0.11757607758045197,0.3003236651420593
1761838934861420500,7.285420654296875,-0.2134452760219574,-0.06788425892591476,0.3660094141960144
1761838934871490600,7.295490478515625,-0.22749744355678558,-0.032829076051712036,0.4377504289150238
1761838934881560600,7.305560546875,-0.2410161793231964,-0.06216307356953621,0.4994513988494873
1761838934891630300,7.31563037109375,-0.25219133496284485,-0.14061260223388672,0.524659276008606
1761838934901700600,7.32570068359375,-0.2599947452545166,-0.21831238269805908,0.5285149812698364
1761838934911770600,7.3357705078125,-0.26471999287605286,-0.27016761898994446,0.5019065141677856
1761838934921840400,7.34584033203125,-0.27415600419044495,-0.3125962018966675,0.44468024373054504
1761838934931910400,7.355910400390625,-0.3007974624633789,-0.3424963355064392,0.34440237283706665
1761838934941981400,7.3659814453125,-0.33692073822021484,-0.3545200824737549,0.22002092003822327
1761838934952051700,7.3760517578125,-0.3768415153026581,-0.3459617495536804,0.07395132631063461
1761838934962121500,7.38612158203125,-0.4166385233402252,-0.30547910928726196,-0.0758049488067627
1761838934972191500,7.39619140625,-0.4339911639690399,-0.23658181726932526,-0.2106546312570572
1761838934982261500,7.406261474609375,-0.4283822774887085,-0.1260497123003006,-0.3142468333244324
1761838934992331500,7.41633154296875,-0.387658029794693,-0.04616314172744751,-0.38978311419487
1761838935002401500,7.426401611328125,-0.33042043447494507,0.07147274911403656,-0.4098428785800934
1761838935012471600,7.436471435546875,-0.2600994110107422,0.22850950062274933,-0.36937108635902405
1761838935022541600,7.44654150390625,-0.19103771448135376,0.3617832362651825,-0.280483603477478
1761838935032611600,7.456611572265625,-0.1327669471502304,0.4575108289718628,-0.16724759340286255
1761838935042681300,7.466681396484375,-0.08948717266321182,0.5053318738937378,-0.05080939084291458
1761838935052751600,7.476751708984375,-0.0700807124376297,0.45899444818496704,0.058373019099235535
1761838935062821600,7.486821533203125,-0.06834214180707932,0.35893553495407104,0.1597924381494522
1761838935072891400,7.496891357421875,-0.08018095791339874,0.23913536965847015,0.2591129243373871
1761838935082962400,7.50696240234375,-0.11862201988697052,0.08320785313844681,0.32424676418304443
1761838935093032700,7.51703271484375,-0.17716309428215027,-0.10782335698604584,0.36051154136657715
1761838935103102500,7.5271025390625,-0.23063111305236816,-0.27945882081985474,0.37147754430770874
1761838935113172500,7.53717236328125,-0.28462377190589905,-0.4049837291240692,0.36041316390037537
1761838935123242500,7.547242431640625,-0.3426005244255066,-0.4819849729537964,0.3216238021850586
1761838935133312500,7.5573125,-0.41308242082595825,-0.4950621724128723,0.252552330493927
1761838935143382500,7.567382568359375,-0.49605265259742737,-0.47047486901283264,0.15612062811851501
1761838935153452500,7.57745263671875,-0.5787637829780579,-0.390502005815506,0.04043717682361603
1761838935163522600,7.5875224609375,-0.6671026945114136,-0.274243026971817,-0.07897444069385529
1761838935173592600,7.597592529296875,-0.7446087002754211,-0.14939990639686584,-0.20417363941669464
1761838935183662300,7.607662353515625,-0.8098742365837097,-0.052718162536621094,-0.3324833810329437
1761838935193732600,7.617732666015625,-0.8547682166099548,-0.014638157561421394,-0.4642728269100189
1761838935203802600,7.627802734375,-0.9050078392028809,-0.0392497256398201,-0.586790919303894
1761838935213873700,7.637873779296875,-0.9528491497039795,-0.12504158914089203,-0.713653028011322
1761838935223943400,7.647943359375,-0.9740155339241028,-0.2368112951517105,-0.8263047933578491
1761838935234013400,7.658013427734375,-0.9594477415084839,-0.3360667824745178,-0.8898805975914001
1761838935244083700,7.668083740234375,-0.918233335018158,-0.3951530456542969,-0.8972334265708923
1761838935254153500,7.678153564453125,-0.8638167381286621,-0.3625255823135376,-0.8283914923667908
1761838935264223500,7.688223388671875,-0.8123078942298889,-0.2682984471321106,-0.6879311800003052
1761838935274293500,7.69829345703125,-0.7732264995574951,-0.1458902657032013,-0.49569037556648254
1761838935284363800,7.70836376953125,-0.7529688477516174,-0.024452753365039825,-0.2669076919555664
1761838935294433500,7.71843359375,-0.7556762099266052,0.05563143268227577,-0.0353064090013504
1761838935304503600,7.728503662109375,-0.7837779521942139,0.06691902130842209,0.16777943074703217
1761838935314573800,7.73857373046875,-0.8105804920196533,0.0251619853079319,0.33110445737838745
1761838935324643600,7.7486435546875,-0.821589469909668,-0.044397756457328796,0.4474344253540039
1761838935334713600,7.758713623046875,-0.8259807825088501,-0.10744276642799377,0.5147626399993896
1761838935344783600,7.76878369140625,-0.8250650763511658,-0.18187983334064484,0.5358648896217346
1761838935354854700,7.778854736328125,-0.8130803108215332,-0.2653787434101105,0.5187847018241882
1761838935364924700,7.788924560546875,-0.8045983910560608,-0.3375684916973114,0.4710869789123535
1761838935374994700,7.79899462890625,-0.8006462454795837,-0.3928232192993164,0.4076797664165497
1761838935385064700,7.809064697265625,-0.7967404723167419,-0.4184347689151764,0.3484547734260559
1761838935395134700,7.819134765625,-0.7934306859970093,-0.41094061732292175,0.2970259189605713
1761838935405204500,7.82920458984375,-0.8032673001289368,-0.3446214199066162,0.26824092864990234
1761838935415274500,7.8392744140625,-0.8185112476348877,-0.24731217324733734,0.25398531556129456
1761838935425344800,7.8493447265625,-0.8396146893501282,-0.13709187507629395,0.24388058483600616
1761838935435414500,7.85941455078125,-0.8485671877861023,-0.053725890815258026,0.22148260474205017
1761838935445484500,7.869484619140625,-0.8584911227226257,-0.050773557275533676,0.16713562607765198
1761838935455554800,7.879554931640625,-0.8661056756973267,-0.10953593999147415,0.06564310193061829
1761838935465624600,7.88962451171875,-0.8810724020004272,-0.1366978883743286,-0.05095110833644867
1761838935475694600,7.899694580078125,-0.897374153137207,-0.13346213102340698,-0.17113077640533447
1761838935485764900,7.909764892578125,-0.907175600528717,-0.025437839329242706,-0.2563570439815521
1761838935495834600,7.919834716796875,-0.9020958542823792,0.18896180391311646,-0.2883354723453522
1761838935505905700,7.92990576171875,-0.8829523921012878,0.4358453154563904,-0.2753254175186157
1761838935515975700,7.9399755859375,-0.8361920714378357,0.6390908360481262,-0.22728224098682404
1761838935526045400,7.95004541015625,-0.7587574124336243,0.7268584966659546,-0.14899927377700806
1761838935536115700,7.96011572265625,-0.7155793309211731,0.729151725769043,-0.0641818568110466
1761838935546185700,7.970185791015625,-0.7001678943634033,0.641369104385376,0.025307850912213326
1761838935556255500,7.98025537109375,-0.6927546858787537,0.4663184881210327,0.10838782042264938
1761838935566325800,7.99032568359375,-0.6935771107673645,0.26435574889183044,0.1883392632007599
1761838935576395800,8.000395751953125,-0.7167617678642273,-0.018813371658325195,0.2494920939207077
1761838935586465500,8.010465576171875,-0.7576296329498291,-0.2843535542488098,0.2930466830730438
1761838935596535800,8.020535888671875,-0.8127296566963196,-0.4642559289932251,0.3206298351287842
1761838935606605800,8.030605712890624,-0.8750715255737305,-0.5691981315612793,0.3242148756980896
1761838935616675600,8.040675537109376,-0.95162034034729,-0.5921084880828857,0.29776543378829956
1761838935626745600,8.05074560546875,-1.0273226499557495,-0.5404260754585266,0.2458643913269043
1761838935636815600,8.060815673828126,-1.0921677350997925,-0.4073452353477478,0.16887906193733215
1761838935646885600,8.0708857421875,-1.1069676876068115,-0.2619578540325165,0.07148721814155579
1761838935656955600,8.08095556640625,-1.0924862623214722,-0.15743759274482727,-0.02980957366526127
1761838935667026700,8.091026611328125,-1.0720276832580566,-0.12917661666870117,-0.12200848013162613
1761838935677096700,8.1010966796875,-1.0629206895828247,-0.16501210629940033,-0.19084081053733826
1761838935687166700,8.111166748046875,-1.059281587600708,-0.27467405796051025,-0.2098570317029953
1761838935697236500,8.121236572265625,-1.0718214511871338,-0.36729535460472107,-0.17647109925746918
1761838935707306500,8.131306396484375,-1.1062805652618408,-0.4474680721759796,-0.12713146209716797
1761838935717376800,8.141376708984374,-1.128157377243042,-0.470711350440979,-0.04427305608987808
1761838935727446500,8.151446533203124,-1.1150538921356201,-0.44935938715934753,0.04276806861162186
1761838935737516500,8.1615166015625,-1.0940709114074707,-0.4251243472099304,0.12121839821338654
1761838935747586800,8.1715869140625,-1.0687284469604492,-0.42611220479011536,0.17967483401298523
1761838935757656600,8.181656494140626,-1.051694631576538,-0.4691435694694519,0.18797484040260315
1761838935767726600,8.1917265625,-1.0496193170547485,-0.5581628084182739,0.166246697306633
1761838935777796900,8.201796875,-1.071840763092041,-0.6646625995635986,0.09836778789758682
1761838935787866600,8.21186669921875,-1.127855658531189,-0.7193212509155273,0.016346652060747147
1761838935797936600,8.2219365234375,-1.2125511169433594,-0.7191414833068848,-0.06755810230970383
1761838935808006700,8.232006591796875,-1.3084558248519897,-0.656611442565918,-0.14210693538188934
1761838935818077400,8.242077392578125,-1.400838851928711,-0.5395583510398865,-0.20283472537994385
1761838935828147700,8.252147705078125,-1.5060417652130127,-0.40292179584503174,-0.2519400417804718
1761838935838217700,8.2622177734375,-1.6194796562194824,-0.26406538486480713,-0.2791844606399536
1761838935848287500,8.27228759765625,-1.734787106513977,-0.1495872437953949,-0.28476083278656006
1761838935858357800,8.282357666015624,-1.8431590795516968,-0.10003114491701126,-0.2797224223613739
1761838935868427800,8.292427734375,-1.927992820739746,-0.09349216520786285,-0.2673282325267792
1761838935878497500,8.30249755859375,-1.990024209022522,-0.1502646505832672,-0.2522214651107788
1761838935888567800,8.31256787109375,-2.047961711883545,-0.2312583029270172,-0.24965816736221313
1761838935898637800,8.322637939453125,-2.1078639030456543,-0.37119755148887634,-0.278286337852478
1761838935908707600,8.33270751953125,-2.1881728172302246,-0.5842523574829102,-0.33416423201560974
1761838935918777600,8.342777587890625,-2.264504909515381,-0.7340322732925415,-0.36650726199150085
1761838935928847600,8.35284765625,-2.3189194202423096,-0.7646856307983398,-0.35374295711517334
1761838935938917600,8.362917724609375,-2.3850536346435547,-0.7586913704872131,-0.32254642248153687
1761838935948987600,8.372987548828124,-2.4594857692718506,-0.7415028214454651,-0.29096195101737976
1761838935959057700,8.3830576171875,-2.521071195602417,-0.7051669359207153,-0.2707573473453522
1761838935969127700,8.393127685546874,-2.5756678581237793,-0.6619349718093872,-0.2716044485569
1761838935979198700,8.40319873046875,-2.612844705581665,-0.6234679818153381,-0.29278564453125
1761838935989268500,8.4132685546875,-2.639981746673584,-0.6126439571380615,-0.3173072636127472
1761838935999338800,8.4233388671875,-2.6531262397766113,-0.6643204689025879,-0.33694273233413696
1761838936009408800,8.43340869140625,-2.6495492458343506,-0.7346965670585632,-0.3280053734779358
1761838936019478500,8.443478515625,-2.6373794078826904,-0.8049659132957458,-0.2828115224838257
1761838936029548500,8.453548583984375,-2.630737066268921,-0.8674286007881165,-0.2031763195991516
1761838936039618800,8.463618896484375,-2.635239362716675,-0.8832104802131653,-0.09431134164333344
1761838936049688600,8.4736884765625,-2.640763282775879,-0.920699417591095,0.012613318860530853
1761838936059758600,8.483758544921875,-2.660320281982422,-0.8772046566009521,0.11996081471443176
1761838936069828900,8.493828857421875,-2.697784662246704,-0.7940596342086792,0.216266930103302
1761838936079898600,8.503898681640624,-2.7391977310180664,-0.6653850078582764,0.30195918679237366
1761838936089968600,8.51396875,-2.774566173553467,-0.5308623909950256,0.3704991340637207
1761838936100038700,8.52403857421875,-2.797297239303589,-0.41160282492637634,0.4207495152950287
1761838936110108700,8.534108642578126,-2.7968804836273193,-0.310661256313324,0.45312127470970154
1761838936120178700,8.5441787109375,-2.7718608379364014,-0.21544605493545532,0.4789920151233673
1761838936130248400,8.55424853515625,-2.7408783435821533,-0.13852150738239288,0.4979865252971649
1761838936140318700,8.564318603515625,-2.714843273162842,-0.08682103455066681,0.5086519718170166
1761838936150389800,8.5743896484375,-2.6971077919006348,-0.06912888586521149,0.507922887802124
1761838936160459800,8.584459716796875,-2.6764132976531982,-0.10848800837993622,0.4877718389034271
1761838936170529500,8.594529541015625,-2.64323353767395,-0.22126437723636627,0.4454731345176697
1761838936180601600,8.6046015625,-2.6006391048431396,-0.3597668707370758,0.391352117061615
1761838936190671600,8.614671630859375,-2.5652873516082764,-0.4716470539569855,0.33520254492759705
1761838936200742000,8.624741943359375,-2.5383059978485107,-0.520588755607605,0.28306877613067627
1761838936210811600,8.634811767578125,-2.5149588584899902,-0.554262101650238,0.21785598993301392
1761838936220881700,8.644881591796874,-2.5029780864715576,-0.5908675193786621,0.13539519906044006
1761838936230951400,8.654951416015624,-2.494288444519043,-0.5900399088859558,0.04793265834450722
1761838936241021700,8.665021728515624,-2.4937386512756348,-0.567670464515686,-0.05000588670372963
1761838936251091700,8.675091796875,-2.4837090969085693,-0.5384840369224548,-0.14878588914871216
1761838936261161500,8.685161376953126,-2.44122314453125,-0.5077764391899109,-0.23801669478416443
1761838936271232500,8.695232421875,-2.3744423389434814,-0.4836144745349884,-0.30725547671318054
1761838936281302300,8.70530224609375,-2.261168956756592,-0.4757775664329529,-0.3607189655303955
1761838936291372000,8.7153720703125,-2.1050467491149902,-0.4831122159957886,-0.4017564356327057
1761838936301442000,8.725442138671875,-1.9274075031280518,-0.48537003993988037,-0.42657071352005005
1761838936311512000,8.735511962890625,-1.7621794939041138,-0.49586620926856995,-0.44516268372535706
1761838936321582000,8.74558203125,-1.6356538534164429,-0.5238595604896545,-0.45306429266929626
1761838936331652000,8.755652099609375,-1.5465575456619263,-0.5547929406166077,-0.4468241035938263
1761838936341722000,8.76572216796875,-1.4934836626052856,-0.557243287563324,-0.43056097626686096
1761838936351792000,8.775792236328124,-1.4755555391311646,-0.5363947749137878,-0.41071057319641113
1761838936361862100,8.785862060546876,-1.48479163646698,-0.5130209922790527,-0.4030289649963379
1761838936371932000,8.795931884765626,-1.5025707483291626,-0.48957645893096924,-0.3930291533470154
1761838936382002200,8.806002197265625,-1.5201728343963623,-0.46723440289497375,-0.3964717984199524
1761838936392072200,8.816072265625,-1.53469979763031,-0.44744038581848145,-0.4070272743701935
1761838936402142000,8.826141845703125,-1.5402112007141113,-0.40572065114974976,-0.42740634083747864
1761838936412212200,8.836212158203125,-1.5345828533172607,-0.36725592613220215,-0.45187312364578247
1761838936422282200,8.8462822265625,-1.5257248878479004,-0.3467123210430145,-0.4732798933982849
1761838936432352000,8.85635205078125,-1.508331060409546,-0.28600993752479553,-0.4710118770599365
1761838936442423000,8.866423095703125,-1.4947593212127686,-0.22249355912208557,-0.43893247842788696
1761838936452493300,8.876493408203125,-1.4819142818450928,-0.16353563964366913,-0.39142945408821106
1761838936462563000,8.88656298828125,-1.4780195951461792,-0.0877884179353714,-0.317614883184433
1761838936472633000,8.896633056640624,-1.4893276691436768,0.000216018408536911,-0.22827249765396118
1761838936482703000,8.906703125,-1.5126630067825317,0.09104472398757935,-0.13290363550186157
1761838936492773000,8.916773193359376,-1.5420525074005127,0.18304531276226044,-0.036664482206106186
1761838936502843100,8.926843017578125,-1.5805946588516235,0.23788778483867645,0.049157217144966125
1761838936512913200,8.9369130859375,-1.628526210784912,0.2641659379005432,0.11323957145214081
1761838936522983200,8.946983154296875,-1.6593248844146729,0.2482287585735321,0.157444566488266
1761838936533053200,8.95705322265625,-1.673417568206787,0.20557543635368347,0.19189462065696716
1761838936543123000,8.967123046875,-1.6659899950027466,0.17996221780776978,0.22198835015296936
1761838936553193200,8.977193115234375,-1.6457772254943848,0.1819084882736206,0.2566736042499542
1761838936563263200,8.98726318359375,-1.6135082244873047,0.20469023287296295,0.2976492643356323
1761838936573333000,8.9973330078125,-1.5659797191619873,0.21977652609348297,0.34262514114379883
1761838936583403000,9.007403076171874,-1.5163110494613647,0.21529681980609894,0.3765660524368286
1761838936593473300,9.017473388671876,-1.4614601135253906,0.18788304924964905,0.41372793912887573
1761838936603543000,9.02754296875,-1.3990851640701294,0.14404848217964172,0.45245561003685
1761838936613613000,9.037613037109375,-1.3349108695983887,0.08263112604618073,0.4905773401260376
1761838936623684000,9.04768408203125,-1.2616885900497437,0.040466636419296265,0.5381749868392944
1761838936633754000,9.057754150390625,-1.201092004776001,0.024565551429986954,0.5819175839424133
1761838936643824000,9.06782421875,-1.1446542739868164,0.018074894323945045,0.6089640855789185
1761838936653894100,9.07789404296875,-1.096212387084961,0.015488699078559875,0.6034300327301025
1761838936663964200,9.087964111328125,-1.0407932996749878,0.049115899950265884,0.5810855627059937
1761838936674034200,9.0980341796875,-0.9816299080848694,0.10545781999826431,0.5419224500656128
1761838936684104200,9.108104248046875,-0.9264537692070007,0.17289118468761444,0.5033004879951477
1761838936694174000,9.118174072265624,-0.8674201369285583,0.25633275508880615,0.4789203703403473
1761838936704244200,9.128244140625,-0.8044736385345459,0.3210603594779968,0.46546658873558044
1761838936714314200,9.138314208984376,-0.7474467754364014,0.3453325033187866,0.4647393524646759
1761838936724384000,9.148384033203126,-0.7032247185707092,0.319144070148468,0.47284042835235596
1761838936734454300,9.158454345703126,-0.6950026154518127,0.24943368136882782,0.4635867476463318
1761838936744524000,9.16852392578125,-0.7050927877426147,0.0969647690653801,0.4089301526546478
1761838936754594000,9.178593994140625,-0.7362228035926819,-0.07725774496793747,0.3193663954734802
1761838936764664000,9.1886640625,-0.7696995139122009,-0.12924104928970337,0.2100081890821457
1761838936774734000,9.198734130859375,-0.7801162004470825,-0.027231186628341675,0.11079699546098709
1761838936784804000,9.20880419921875,-0.764386773109436,0.1387748271226883,0.05272117257118225
1761838936794875100,9.218875244140625,-0.7362593412399292,0.3087427020072937,0.030829913914203644
1761838936804945000,9.22894482421875,-0.7097379565238953,0.4293767213821411,0.0286858007311821
1761838936815015200,9.23901513671875,-0.6863964200019836,0.4568878710269928,0.035715941339731216
1761838936825085200,9.249085205078124,-0.6792093515396118,0.40834563970565796,0.039552755653858185
1761838936835155000,9.259155029296876,-0.6749427318572998,0.3105882704257965,0.043234385550022125
1761838936845225200,9.26922509765625,-0.6657723784446716,0.19272130727767944,0.05065581575036049
1761838936855295200,9.279295166015626,-0.643068790435791,0.06242993846535683,0.060398150235414505
1761838936865365000,9.289364990234375,-0.5997146964073181,-0.054920654743909836,0.07565540820360184
1761838936875435000,9.29943505859375,-0.5594468116760254,-0.10247766971588135,0.10729649662971497
1761838936885505300,9.30950537109375,-0.5384150743484497,-0.11160965263843536,0.12726141512393951
1761838936895575000,9.319574951171875,-0.5298761129379272,-0.09790331870317459,0.13365361094474792
1761838936905645000,9.32964501953125,-0.5276158452033997,-0.08616223931312561,0.12327900528907776
1761838936915715300,9.33971533203125,-0.5296541452407837,-0.06915226578712463,0.11145585775375366
1761838936925785000,9.34978515625,-0.5390143990516663,-0.044072218239307404,0.10577373951673508
1761838936935855000,9.359855224609374,-0.5606757998466492,-0.04126869514584541,0.10570354759693146
1761838936945925000,9.369925048828126,-0.6022826433181763,-0.05324146896600723,0.10693792253732681
1761838936955995100,9.3799951171875,-0.6499786376953125,-0.11300525814294815,0.09522431343793869
1761838936966065200,9.390065185546876,-0.682957112789154,-0.21890665590763092,0.07601919025182724
1761838936976136200,9.40013623046875,-0.7144708633422852,-0.3762664794921875,0.04000381752848625
1761838936986206000,9.4102060546875,-0.7576037049293518,-0.5441683530807495,-0.01838545687496662
1761838936996276200,9.420276123046875,-0.7885311245918274,-0.6782282590866089,-0.08521345257759094
1761838937006346200,9.43034619140625,-0.7948031425476074,-0.7701736092567444,-0.15698271989822388
1761838937016416000,9.440416015625,-0.7748393416404724,-0.7988061904907227,-0.19318394362926483
1761838937026486300,9.450486328125,-0.7429778575897217,-0.7697082161903381,-0.1785951405763626
1761838937036556000,9.46055615234375,-0.7052304148674011,-0.63828444480896,-0.10915226489305496
1761838937046626000,9.4706259765625,-0.6672670245170593,-0.4286596179008484,-0.024310076609253883
1761838937056696000,9.480696044921874,-0.6427835822105408,-0.24519048631191254,0.060969553887844086
1761838937066766000,9.49076611328125,-0.605180025100708,-0.12728223204612732,0.13938845694065094
1761838937076836000,9.500836181640626,-0.5950793027877808,-0.013908007182180882,0.179230734705925
1761838937086906000,9.510906005859376,-0.6332674622535706,0.08121264725923538,0.18269896507263184
1761838937096976100,9.52097607421875,-0.6610741019248962,0.12487177550792694,0.15701082348823547
1761838937107046100,9.531046142578125,-0.6800618767738342,0.13725627958774567,0.13199228048324585
1761838937117116200,9.5411162109375,-0.695923388004303,0.15417428314685822,0.11566658318042755
1761838937127186200,9.551186279296875,-0.7047035694122314,0.21033501625061035,0.13082049787044525
1761838937137256200,9.561256103515625,-0.7175093293190002,0.2564677596092224,0.16247838735580444
1761838937147327200,9.5713271484375,-0.7269571423530579,0.2997601330280304,0.17591215670108795
1761838937157397000,9.58139697265625,-0.7328200340270996,0.3231842815876007,0.16018028557300568
1761838937167467000,9.591467041015624,-0.7460396885871887,0.3191770017147064,0.10699936002492905
1761838937177537300,9.601537353515624,-0.7706966996192932,0.3127517104148865,0.054604675620794296
1761838937187607000,9.61160693359375,-0.8031992316246033,0.3163576126098633,0.010472368448972702
1761838937197677000,9.621677001953126,-0.836750864982605,0.30601510405540466,-0.02118615247309208
1761838937207747300,9.631747314453126,-0.8478063941001892,0.2859881520271301,-0.053956881165504456
1761838937217817000,9.641817138671875,-0.8453975319862366,0.29786238074302673,-0.06884102523326874
1761838937227887000,9.65188720703125,-0.8255548477172852,0.33484143018722534,-0.07497987896203995
1761838937237957000,9.66195703125,-0.8194538950920105,0.3651140332221985,-0.07272348552942276
1761838937248027100,9.672027099609375,-0.8305360674858093,0.37635737657546997,-0.06385942548513412
1761838937258097200,9.68209716796875,-0.8508432507514954,0.35420700907707214,-0.044509127736091614
1761838937268167000,9.6921669921875,-0.877034068107605,0.3303091526031494,-0.004345462191849947
1761838937278237200,9.7022373046875,-0.8981937170028687,0.30472031235694885,0.030078483745455742
1761838937288307200,9.71230712890625,-0.9041458964347839,0.2379029542207718,0.03842243179678917
1761838937298377000,9.722376953125,-0.8923114538192749,0.1578153669834137,0.0218343622982502
1761838937308447200,9.732447265625,-0.8528540730476379,0.07507814466953278,-0.004736794158816338
1761838937318517200,9.742517333984376,-0.8098646998405457,-0.0016581285744905472,-0.02620510384440422
1761838937328587000,9.7525869140625,-0.7595552206039429,-0.03803371638059616,-0.03884526714682579
1761838937338658000,9.762657958984375,-0.7017161846160889,-0.06827910244464874,-0.06081254035234451
1761838937348728000,9.77272802734375,-0.6527486443519592,-0.11663705110549927,-0.08547288179397583
1761838937358798000,9.782798095703125,-0.6098653078079224,-0.17670558393001556,-0.11368168890476227
1761838937368868000,9.7928681640625,-0.6210538148880005,-0.2441517412662506,-0.09006983041763306
1761838937378938000,9.802938232421875,-0.6515980362892151,-0.4469982981681824,-0.0963306650519371
1761838937389008100,9.813008056640625,-0.6346006989479065,-0.5133299231529236,-0.07473375648260117
1761838937399078100,9.823078125,-0.6251494288444519,-0.5022826194763184,-0.05646181106567383
1761838937409148200,9.833148193359374,-0.6264336109161377,-0.4452776312828064,-0.05822695791721344
1761838937419218200,9.84321826171875,-0.6375390291213989,-0.336593896150589,-0.06386532634496689
1761838937429288200,9.8532880859375,-0.6475016474723816,-0.25039005279541016,-0.04010060429573059
