time,seconds_elapsed,z,y,x
1761383383492107300,0.066107177734375,-0.91094970703125,-0.53302001953125,0.123138427734375
1761383383502176500,0.076176513671875,-0.9070281982421875,-0.5340576171875,0.11065673828125
1761383383512246300,0.086246337890625,-0.90911865234375,-0.5175018310546875,0.09637451171875
1761383383522316500,0.096316650390625,-0.8965911865234375,-0.5035400390625,0.07855224609375
1761383383532385300,0.10638525390625,-0.8685455322265625,-0.49749755859375,0.0668487548828125
1761383383542455600,0.11645556640625,-0.8568572998046875,-0.500030517578125,0.0614471435546875
1761383383552525600,0.126525634765625,-0.854827880859375,-0.5109710693359375,0.0562744140625
1761383383562594300,0.13659423828125,-0.84527587890625,-0.522186279296875,0.06048583984375
1761383383572664600,0.14666455078125,-0.8439483642578125,-0.51806640625,0.0738067626953125
1761383383582734300,0.156734375,-0.8556060791015625,-0.50885009765625,0.086578369140625
1761383383592803600,0.166803466796875,-0.868988037109375,-0.5007781982421875,0.0951995849609375
1761383383602873300,0.176873291015625,-0.8914947509765625,-0.492431640625,0.101409912109375
1761383383612943400,0.186943359375,-0.911895751953125,-0.4800567626953125,0.1034088134765625
1761383383623012400,0.197012451171875,-0.9085693359375,-0.4574737548828125,0.1002044677734375
1761383383633082400,0.207082275390625,-0.92230224609375,-0.4379119873046875,0.1028594970703125
1761383383643152400,0.21715234375,-0.9289703369140625,-0.4234466552734375,0.0976715087890625
1761383383653221400,0.227221435546875,-0.9164581298828125,-0.4151611328125,0.09771728515625
1761383383663291400,0.23729150390625,-0.8992462158203125,-0.420806884765625,0.1002197265625
1761383383673361400,0.247361328125,-0.8802032470703125,-0.42529296875,0.1057281494140625
1761383383683430400,0.257430419921875,-0.874755859375,-0.42803955078125,0.1171417236328125
1761383383693500400,0.26750048828125,-0.8799896240234375,-0.4286956787109375,0.13116455078125
1761383383703570400,0.2775703125,-0.8843994140625,-0.4391021728515625,0.1489410400390625
1761383383713639400,0.287639404296875,-0.860687255859375,-0.4091949462890625,0.1591339111328125
1761383383723709400,0.29770947265625,-0.8227996826171875,-0.385894775390625,0.155517578125
1761383383733779500,0.307779541015625,-0.8104400634765625,-0.454681396484375,0.17034912109375
1761383383743848400,0.317848388671875,-0.806060791015625,-0.5052337646484375,0.1890716552734375
1761383383753918500,0.32791845703125,-0.81396484375,-0.537841796875,0.2166595458984375
1761383383763988500,0.337988525390625,-0.8091888427734375,-0.55047607421875,0.2424774169921875
1761383383774057500,0.348057373046875,-0.772308349609375,-0.54742431640625,0.2423553466796875
1761383383784127500,0.35812744140625,-0.7458343505859375,-0.5372467041015625,0.2334442138671875
1761383383794197200,0.368197265625,-0.74542236328125,-0.535064697265625,0.2180023193359375
1761383383804266500,0.3782666015625,-0.7630615234375,-0.5435028076171875,0.2064056396484375
1761383383814336300,0.388336181640625,-0.797027587890625,-0.550811767578125,0.19952392578125
1761383383824406300,0.39840625,-0.8150177001953125,-0.5618896484375,0.1913604736328125
1761383383834475500,0.4084755859375,-0.8330841064453125,-0.57159423828125,0.1858978271484375
1761383383844545300,0.418545166015625,-0.8550567626953125,-0.568572998046875,0.1870574951171875
1761383383854615600,0.428615478515625,-0.861358642578125,-0.556884765625,0.1843414306640625
1761383383864684300,0.438684326171875,-0.846282958984375,-0.5457763671875,0.1805877685546875
1761383383874754300,0.44875439453125,-0.8187408447265625,-0.5491943359375,0.18096923828125
1761383383884824600,0.458824462890625,-0.778594970703125,-0.566986083984375,0.1853790283203125
1761383383894893300,0.468893310546875,-0.732421875,-0.5884246826171875,0.1912384033203125
1761383383904963600,0.478963623046875,-0.702880859375,-0.6107177734375,0.19122314453125
1761383383915033300,0.489033447265625,-0.69158935546875,-0.6277313232421875,0.200592041015625
1761383383925102600,0.4991025390625,-0.6848602294921875,-0.644866943359375,0.2184906005859375
1761383383935169300,0.509169189453125,-0.6933441162109375,-0.6681060791015625,0.2386932373046875
1761383383945238000,0.519238037109375,-0.7017974853515625,-0.6911163330078125,0.2516632080078125
1761383383955308300,0.529308349609375,-0.7054290771484375,-0.705322265625,0.2558441162109375
1761383383965378300,0.53937841796875,-0.7095947265625,-0.7071380615234375,0.253173828125
1761383383975447300,0.549447265625,-0.7158050537109375,-0.704925537109375,0.2476959228515625
1761383383985517300,0.559517333984375,-0.747467041015625,-0.7097015380859375,0.2524261474609375
1761383383995587000,0.569587158203125,-0.774932861328125,-0.7118988037109375,0.2564544677734375
1761383384005656300,0.57965625,-0.7738494873046875,-0.696990966796875,0.2418975830078125
1761383384015726000,0.58972607421875,-0.765472412109375,-0.66937255859375,0.2215423583984375
1761383384025796000,0.599796142578125,-0.7651519775390625,-0.6489105224609375,0.2020721435546875
1761383384035865300,0.609865234375,-0.7736663818359375,-0.63873291015625,0.1971588134765625
1761383384045935000,0.61993505859375,-0.776947021484375,-0.6327667236328125,0.202423095703125
1761383384056005000,0.630005126953125,-0.768341064453125,-0.6347198486328125,0.2100372314453125
1761383384066074000,0.64007421875,-0.75390625,-0.6427459716796875,0.2240447998046875
1761383384076144000,0.65014404296875,-0.7458038330078125,-0.6522064208984375,0.245147705078125
1761383384086214400,0.66021435546875,-0.702423095703125,-0.6522979736328125,0.267669677734375
1761383384096283100,0.670283203125,-0.7986602783203125,-0.6636810302734375,0.3154296875
1761383384106353400,0.680353515625,-0.7888641357421875,-0.669403076171875,0.3130340576171875
1761383384116423200,0.690423095703125,-0.753662109375,-0.6361236572265625,0.295654296875
1761383384126492200,0.7004921875,-0.740966796875,-0.6160125732421875,0.3023681640625
1761383384136562200,0.710562255859375,-0.7165069580078125,-0.60662841796875,0.293212890625
1761383384146632200,0.720632080078125,-0.691162109375,-0.5922393798828125,0.289398193359375
1761383384156701200,0.730701171875,-0.6414031982421875,-0.590087890625,0.2928466796875
1761383384166771200,0.740771240234375,-0.6594085693359375,-0.6113433837890625,0.3199920654296875
1761383384176841200,0.75084130859375,-0.6833648681640625,-0.6375732421875,0.3463897705078125
1761383384186910200,0.76091015625,-0.688507080078125,-0.648345947265625,0.354278564453125
1761383384196980200,0.770980224609375,-0.696807861328125,-0.6503753662109375,0.350830078125
1761383384207050000,0.781050048828125,-0.685699462890625,-0.6473541259765625,0.34051513671875
1761383384217119200,0.791119140625,-0.658294677734375,-0.6341552734375,0.3317413330078125
1761383384227189200,0.801189208984375,-0.6327972412109375,-0.6244964599609375,0.3347625732421875
1761383384237259300,0.81125927734375,-0.6176605224609375,-0.6323089599609375,0.3497772216796875
1761383384247328300,0.821328369140625,-0.6159820556640625,-0.6513824462890625,0.369598388671875
1761383384257398000,0.83139794921875,-0.6165008544921875,-0.6707611083984375,0.3809356689453125
1761383384267468300,0.84146826171875,-0.6051177978515625,-0.6699371337890625,0.376129150390625
1761383384277537000,0.851537109375,-0.60205078125,-0.65380859375,0.359771728515625
1761383384287607300,0.861607177734375,-0.608367919921875,-0.635986328125,0.343841552734375
1761383384297677300,0.87167724609375,-0.62799072265625,-0.6379547119140625,0.344696044921875
1761383384307746000,0.88174609375,-0.6666107177734375,-0.6420135498046875,0.347564697265625
1761383384317816300,0.89181640625,-0.68206787109375,-0.6264190673828125,0.3403778076171875
1761383384327886000,0.901885986328125,-0.69146728515625,-0.6057891845703125,0.332366943359375
1761383384337955300,0.911955322265625,-0.702423095703125,-0.595916748046875,0.3231658935546875
1761383384348025000,0.922025146484375,-0.709747314453125,-0.594085693359375,0.3171844482421875
1761383384358095000,0.93209521484375,-0.713653564453125,-0.6021270751953125,0.3118438720703125
1761383384368164400,0.942164306640625,-0.713043212890625,-0.610504150390625,0.3086090087890625
1761383384378234000,0.952234130859375,-0.7110443115234375,-0.6079559326171875,0.29754638671875
1761383384388304100,0.96230419921875,-0.7011871337890625,-0.594635009765625,0.2695159912109375
1761383384398373000,0.972373046875,-0.6956787109375,-0.571746826171875,0.24090576171875
1761383384408443100,0.982443115234375,-0.730316162109375,-0.5559844970703125,0.2281951904296875
1761383384418513400,0.992513427734375,-0.7742156982421875,-0.552703857421875,0.2330169677734375
1761383384428582100,1.00258203125,-0.7930450439453125,-0.5474395751953125,0.2285308837890625
1761383384438652200,1.012652099609375,-0.796600341796875,-0.5265655517578125,0.20916748046875
1761383384448722200,1.02272216796875,-0.785003662109375,-0.5054168701171875,0.1912689208984375
1761383384458791200,1.032791259765625,-0.769134521484375,-0.49334716796875,0.1714324951171875
1761383384468861200,1.042861083984375,-0.764434814453125,-0.4752349853515625,0.155517578125
1761383384478930200,1.05293017578125,-0.7772369384765625,-0.4550933837890625,0.142059326171875
1761383384489000400,1.06300048828125,-0.79486083984375,-0.450439453125,0.1348114013671875
1761383384499070200,1.0730703125,-0.812286376953125,-0.4620361328125,0.1288909912109375
1761383384509139200,1.08313916015625,-0.8176116943359375,-0.46820068359375,0.1179351806640625
1761383384519209200,1.093209228515625,-0.813446044921875,-0.4562225341796875,0.1026611328125
1761383384529279200,1.103279296875,-0.808013916015625,-0.4399566650390625,0.097747802734375
1761383384539348200,1.11334814453125,-0.8008575439453125,-0.4364776611328125,0.10638427734375
1761383384549418200,1.123418212890625,-0.7860260009765625,-0.446197509765625,0.119140625
1761383384559488300,1.13348828125,-0.7784576416015625,-0.4572296142578125,0.1343231201171875
1761383384569557200,1.14355712890625,-0.786468505859375,-0.4689788818359375,0.154754638671875
1761383384579627300,1.153627197265625,-0.8007354736328125,-0.4813690185546875,0.1807861328125
1761383384589697000,1.163697021484375,-0.82269287109375,-0.4778594970703125,0.2055511474609375
1761383384599766300,1.173766357421875,-0.8394622802734375,-0.4625701904296875,0.2246246337890625
1761383384609836000,1.1838359375,-0.83917236328125,-0.445465087890625,0.2384490966796875
1761383384619906300,1.19390625,-0.8595123291015625,-0.431427001953125,0.2535552978515625
1761383384629975300,1.203975341796875,-0.8773345947265625,-0.426910400390625,0.26617431640625
1761383384640045000,1.214045166015625,-0.8834075927734375,-0.4262237548828125,0.2728424072265625
1761383384650115300,1.224115234375,-0.898651123046875,-0.422088623046875,0.2749481201171875
1761383384660184000,1.23418408203125,-0.917083740234375,-0.4168243408203125,0.271240234375
1761383384670254300,1.24425439453125,-0.92938232421875,-0.4083709716796875,0.2642669677734375
1761383384680324400,1.254324462890625,-0.9425048828125,-0.4047698974609375,0.2552490234375
1761383384690393000,1.26439306640625,-0.980072021484375,-0.4122161865234375,0.2556304931640625
1761383384700463400,1.27446337890625,-1.0211181640625,-0.4360809326171875,0.267578125
1761383384710533000,1.284533203125,-1.0462646484375,-0.468231201171875,0.2766876220703125
1761383384720602400,1.294602294921875,-1.0754852294921875,-0.49981689453125,0.2783660888671875
1761383384730672000,1.304672119140625,-1.10772705078125,-0.5346221923828125,0.2736663818359375
1761383384740742100,1.3147421875,-1.128997802734375,-0.5568084716796875,0.252593994140625
1761383384750811100,1.32481103515625,-1.1427764892578125,-0.556610107421875,0.2178497314453125
1761383384760881200,1.334881103515625,-1.1373138427734375,-0.54437255859375,0.1833038330078125
1761383384770951200,1.344951171875,-1.1344146728515625,-0.534515380859375,0.15899658203125
1761383384781020200,1.355020263671875,-1.1397705078125,-0.5286865234375,0.138671875
1761383384791090200,1.365090087890625,-1.1453857421875,-0.51519775390625,0.1179656982421875
1761383384801160200,1.37516015625,-1.1422271728515625,-0.4908294677734375,0.0963287353515625
1761383384811229200,1.385229248046875,-1.1433563232421875,-0.4684600830078125,0.06781005859375
1761383384821299200,1.39529931640625,-1.1551361083984375,-0.4543914794921875,0.046356201171875
1761383384831369200,1.405369140625,-1.17230224609375,-0.442901611328125,0.028228759765625
1761383384841438200,1.415438232421875,-1.13824462890625,-0.41796875,-0.005035400390625
1761383384851508200,1.42550830078125,-1.0449371337890625,-0.382110595703125,-0.0475921630859375
1761383384861578200,1.435578125,-0.9481658935546875,-0.35797119140625,-0.08074951171875
1761383384871647200,1.445647216796875,-0.8655548095703125,-0.36517333984375,-0.102752685546875
1761383384881717200,1.45571728515625,-0.802520751953125,-0.4061431884765625,-0.1139068603515625
1761383384891787300,1.465787353515625,-0.680755615234375,-0.3736419677734375,-0.0495147705078125
1761383384901856300,1.475856201171875,-0.6124420166015625,-0.337127685546875,-0.0714111328125
1761383384911926300,1.48592626953125,-0.6080780029296875,-0.377838134765625,-0.107666015625
1761383384921996000,1.49599609375,-0.557861328125,-0.3660125732421875,-0.0677490234375
1761383384932065300,1.506065185546875,-0.5160369873046875,-0.36456298828125,-0.0788421630859375
1761383384942134500,1.516134521484375,-0.4727935791015625,-0.3753204345703125,-0.121368408203125
1761383384952204800,1.526204833984375,-0.4602508544921875,-0.3780059814453125,-0.1392059326171875
1761383384962273500,1.5362734375,-0.480804443359375,-0.381317138671875,-0.1450653076171875
1761383384972343800,1.54634375,-0.5279388427734375,-0.3697662353515625,-0.1706695556640625
1761383384982413800,1.556413818359375,-0.60882568359375,-0.3641510009765625,-0.21087646484375
1761383384992482600,1.566482666015625,-0.694671630859375,-0.3770904541015625,-0.2142333984375
1761383385002552800,1.576552734375,-0.7596435546875,-0.363739013671875,-0.2115478515625
1761383385012622600,1.58662255859375,-0.791595458984375,-0.3385009765625,-0.2034759521484375
1761383385022691800,1.59669189453125,-0.8056793212890625,-0.328094482421875,-0.1814117431640625
1761383385032761600,1.60676171875,-0.8721466064453125,-0.3162994384765625,-0.14349365234375
1761383385042831600,1.61683154296875,-0.985931396484375,-0.30303955078125,-0.115081787109375
1761383385052900600,1.626900634765625,-1.10028076171875,-0.297515869140625,-0.0914154052734375
1761383385062970600,1.636970703125,-1.16015625,-0.3050994873046875,-0.0757598876953125
1761383385073040600,1.64704052734375,-1.1672821044921875,-0.2918243408203125,-0.084686279296875
1761383385083109600,1.657109619140625,-1.15093994140625,-0.2686920166015625,-0.1135711669921875
1761383385093179600,1.6671796875,-1.129638671875,-0.2821197509765625,-0.135040283203125
1761383385103249700,1.677249755859375,-1.07763671875,-0.3437957763671875,-0.1232147216796875
1761383385113318700,1.687318603515625,-1.045135498046875,-0.4388427734375,-0.07843017578125
1761383385123388700,1.697388671875,-1.06170654296875,-0.5422821044921875,0.0002593994140625
1761383385133458700,1.707458740234375,-1.06915283203125,-0.6548614501953125,0.0716552734375
1761383385143527700,1.717527587890625,-1.072509765625,-0.74664306640625,0.13128662109375
1761383385153597700,1.72759765625,-1.0632476806640625,-0.8134765625,0.1577606201171875
1761383385163667700,1.737667724609375,-1.0483245849609375,-0.8704681396484375,0.1502227783203125
1761383385173736400,1.747736328125,-1.0610809326171875,-0.8947906494140625,0.1181182861328125
1761383385183806700,1.757806640625,-1.08502197265625,-0.886138916015625,0.068084716796875
1761383385193876700,1.767876708984375,-1.1010284423828125,-0.8575897216796875,0.013916015625
1761383385203945700,1.77794580078125,-1.113525390625,-0.798126220703125,-0.024627685546875
1761383385214015700,1.788015625,-1.107025146484375,-0.7168121337890625,-0.0360260009765625
1761383385224085500,1.79808544921875,-1.0904083251953125,-0.64111328125,-0.0197906494140625
1761383385234154800,1.80815478515625,-1.0692291259765625,-0.5783843994140625,0.0048065185546875
1761383385244224500,1.818224609375,-1.0237884521484375,-0.5257568359375,0.029083251953125
1761383385254294500,1.82829443359375,-0.976654052734375,-0.48028564453125,0.040863037109375
1761383385264363800,1.83836376953125,-0.9386444091796875,-0.44512939453125,0.03955078125
1761383385274433500,1.84843359375,-0.8964385986328125,-0.416900634765625,0.0345001220703125
1761383385284503800,1.85850390625,-0.8408355712890625,-0.3849029541015625,0.024871826171875
1761383385294572500,1.868572509765625,-0.7699737548828125,-0.3423614501953125,-0.001678466796875
1761383385304642600,1.878642578125,-0.683013916015625,-0.29815673828125,-0.0408935546875
1761383385314712800,1.888712890625,-0.6243438720703125,-0.26953125,-0.0694122314453125
1761383385324781600,1.898781494140625,-0.5927581787109375,-0.2676544189453125,-0.0821533203125
1761383385334851800,1.908851806640625,-0.5744781494140625,-0.2614593505859375,-0.0564422607421875
1761383385344921600,1.918921630859375,-0.5748138427734375,-0.2390899658203125,-0.02374267578125
1761383385354990800,1.928990966796875,-0.5794219970703125,-0.2268829345703125,0.024871826171875
1761383385365060600,1.939060546875,-0.603057861328125,-0.223907470703125,0.0836029052734375
1761383385375130600,1.949130615234375,-0.64813232421875,-0.2215576171875,0.142059326171875
1761383385385199600,1.95919970703125,-0.7078857421875,-0.2184295654296875,0.2039337158203125
1761383385395269600,1.96926953125,-0.7581787109375,-0.209228515625,0.2558441162109375
1761383385405339600,1.979339599609375,-0.770477294921875,-0.1928863525390625,0.2910308837890625
1761383385415408600,1.98940869140625,-0.7766876220703125,-0.175750732421875,0.31317138671875
1761383385425478700,1.999478759765625,-0.777191162109375,-0.1696319580078125,0.3278350830078125
1761383385435548400,2.00954833984375,-0.7560577392578125,-0.1855316162109375,0.34381103515625
1761383385445617700,2.01961767578125,-0.7418975830078125,-0.225494384765625,0.3628997802734375
1761383385455687700,2.029687744140625,-0.77288818359375,-0.2869110107421875,0.4009552001953125
1761383385465757700,2.0397578125,-0.85003662109375,-0.34124755859375,0.4367828369140625
1761383385475826700,2.04982666015625,-0.95947265625,-0.37200927734375,0.4561767578125
1761383385485896700,2.059896728515625,-1.0965118408203125,-0.39788818359375,0.450531005859375
1761383385495966700,2.069966796875,-1.202423095703125,-0.428802490234375,0.435638427734375
1761383385506035500,2.080035400390625,-1.2825927734375,-0.418304443359375,0.392730712890625
1761383385516105700,2.090105712890625,-1.360137939453125,-0.376312255859375,0.34063720703125
1761383385526175700,2.10017578125,-1.4094085693359375,-0.32989501953125,0.277740478515625
1761383385536244700,2.11024462890625,-1.4269561767578125,-0.2916259765625,0.2093353271484375
1761383385546314800,2.120314697265625,-1.4446563720703125,-0.26544189453125,0.1431427001953125
1761383385556384500,2.130384521484375,-1.45343017578125,-0.2554168701171875,0.0923614501953125
1761383385566453800,2.140453857421875,-1.4297637939453125,-0.2588653564453125,0.0616912841796875
1761383385576523500,2.1505234375,-1.4005279541015625,-0.27423095703125,0.034820556640625
1761383385586593500,2.160593505859375,-1.351165771484375,-0.280792236328125,0.002349853515625
1761383385596662800,2.170662841796875,-1.3072662353515625,-0.27215576171875,-0.02874755859375
1761383385606732500,2.180732666015625,-1.2770843505859375,-0.26739501953125,-0.0549774169921875
1761383385616802800,2.190802734375,-1.2556915283203125,-0.2719879150390625,-0.0934906005859375
1761383385626871600,2.20087158203125,-1.2220001220703125,-0.274261474609375,-0.15679931640625
1761383385636941600,2.210941650390625,-1.150848388671875,-0.272308349609375,-0.2396392822265625
1761383385647011800,2.22101171875,-1.0701751708984375,-0.2776641845703125,-0.3079986572265625
1761383385657081600,2.23108154296875,-1.0085296630859375,-0.2885894775390625,-0.3446502685546875
1761383385667150800,2.24115087890625,-0.96356201171875,-0.30230712890625,-0.3454437255859375
1761383385677220600,2.251220703125,-0.932220458984375,-0.301513671875,-0.32952880859375
1761383385687289600,2.26128955078125,-0.900482177734375,-0.28466796875,-0.3188018798828125
1761383385697359600,2.271359619140625,-0.8641815185546875,-0.2666778564453125,-0.3189697265625
1761383385707429600,2.2814296875,-0.8388519287109375,-0.252685546875,-0.329315185546875
1761383385717498600,2.29149853515625,-0.8207855224609375,-0.2386016845703125,-0.3470611572265625
1761383385727568600,2.301568603515625,-0.798553466796875,-0.2229156494140625,-0.374359130859375
1761383385737638700,2.311638671875,-0.7651214599609375,-0.1971282958984375,-0.4085540771484375
1761383385747708700,2.321708740234375,-0.710784912109375,-0.170623779296875,-0.43621826171875
1761383385757777700,2.331777587890625,-0.645538330078125,-0.1501312255859375,-0.4475250244140625
1761383385767847700,2.34184765625,-0.5921478271484375,-0.133026123046875,-0.4422607421875
1761383385777917700,2.351917724609375,-0.5464324951171875,-0.110076904296875,-0.4259490966796875
1761383385787986700,2.361986572265625,-0.515777587890625,-0.0833282470703125,-0.396087646484375
1761383385798056700,2.372056640625,-0.5206146240234375,-0.05670166015625,-0.3538665771484375
1761383385808126700,2.382126708984375,-0.56353759765625,-0.039031982421875,-0.2950897216796875
1761383385818195500,2.392195556640625,-0.6039276123046875,-0.0450592041015625,-0.2120361328125
1761383385828265700,2.402265625,-0.6289825439453125,-0.106842041015625,-0.11920166015625
1761383385838335700,2.412335693359375,-0.7080841064453125,-0.1554107666015625,-0.060791015625
1761383385848404700,2.42240478515625,-0.8128814697265625,-0.1818389892578125,-0.0304718017578125
1761383385858474800,2.432474853515625,-0.879638671875,-0.227813720703125,-0.0095062255859375
1761383385868544500,2.44254443359375,-0.915283203125,-0.2859344482421875,0.0376739501953125
1761383385878613800,2.45261376953125,-0.972900390625,-0.33953857421875,0.08258056640625
1761383385888683500,2.46268359375,-1.03997802734375,-0.3548736572265625,0.04583740234375
1761383385898753500,2.47275341796875,-1.069122314453125,-0.288299560546875,-0.0721282958984375
1761383385908822800,2.48282275390625,-1.0696563720703125,-0.223052978515625,-0.1894073486328125
1761383385918892500,2.492892578125,-1.0687713623046875,-0.24981689453125,-0.2448272705078125
1761383385928962800,2.502962890625,-1.0988616943359375,-0.3196563720703125,-0.25506591796875
1761383385939035400,2.513035400390625,-1.194732666015625,-0.339202880859375,-0.257904052734375
1761383385949105400,2.52310546875,-1.2945709228515625,-0.3096771240234375,-0.242706298828125
1761383385959175700,2.53317578125,-1.363739013671875,-0.29229736328125,-0.2216033935546875
1761383385969244400,2.543244384765625,-1.385955810546875,-0.3321380615234375,-0.2031097412109375
1761383385979314700,2.553314697265625,-1.3685150146484375,-0.3805999755859375,-0.2177276611328125
1761383385989384700,2.563384765625,-1.3603057861328125,-0.4032135009765625,-0.247100830078125
1761383385999453400,2.573453369140625,-1.327178955078125,-0.4170379638671875,-0.2452392578125
1761383386009523700,2.583523681640625,-1.32611083984375,-0.4362640380859375,-0.20684814453125
1761383386019593500,2.593593505859375,-1.3535614013671875,-0.444671630859375,-0.156951904296875
1761383386029662700,2.603662841796875,-1.3366241455078125,-0.4402008056640625,-0.1141815185546875
1761383386039732500,2.613732421875,-1.2780914306640625,-0.448211669921875,-0.0831756591796875
1761383386049802500,2.623802490234375,-1.210205078125,-0.479888916015625,-0.053985595703125
1761383386059871500,2.63387158203125,-1.155120849609375,-0.519439697265625,-0.0236968994140625
1761383386069941500,2.64394140625,-1.165771484375,-0.5616607666015625,0.0070037841796875
1761383386080011500,2.654011474609375,-1.1819000244140625,-0.5680084228515625,0.0139007568359375
1761383386090080500,2.66408056640625,-1.1432037353515625,-0.5101165771484375,-0.01751708984375
1761383386100150500,2.674150634765625,-1.08050537109375,-0.4323577880859375,-0.0606536865234375
1761383386110220500,2.684220458984375,-1.0023193359375,-0.3721771240234375,-0.0864410400390625
1761383386120289500,2.69428955078125,-0.9244842529296875,-0.32763671875,-0.0810089111328125
1761383386130359600,2.704359619140625,-0.8633270263671875,-0.29254150390625,-0.0418853759765625
1761383386140429600,2.7144296875,-0.7996673583984375,-0.2683868408203125,0.019866943359375
1761383386150498600,2.72449853515625,-0.727264404296875,-0.2653350830078125,0.1011505126953125
1761383386160568600,2.734568603515625,-0.6790771484375,-0.2890777587890625,0.2012176513671875
1761383386170638600,2.744638671875,-0.6536102294921875,-0.3121185302734375,0.2928009033203125
1761383386180707300,2.754707275390625,-0.63067626953125,-0.3230438232421875,0.3698272705078125
1761383386190777600,2.764777587890625,-0.6125640869140625,-0.3269805908203125,0.4219512939453125
1761383386200847600,2.77484765625,-0.6052703857421875,-0.3292083740234375,0.441314697265625
1761383386210916600,2.78491650390625,-0.579681396484375,-0.34112548828125,0.4469146728515625
1761383386220986600,2.794986572265625,-0.5736236572265625,-0.3734130859375,0.4581146240234375
1761383386231056400,2.805056396484375,-0.6330108642578125,-0.430633544921875,0.47607421875
1761383386241125600,2.815125732421875,-0.6996917724609375,-0.48016357421875,0.480712890625
1761383386251195400,2.8251953125,-0.760498046875,-0.4954681396484375,0.45501708984375
1761383386261265400,2.835265380859375,-0.907318115234375,-0.4324188232421875,0.3701629638671875
1761383386271334700,2.845334716796875,-1.0831756591796875,-0.3450775146484375,0.2634429931640625
1761383386281404400,2.855404296875,-1.1784820556640625,-0.364593505859375,0.21466064453125
1761383386291474700,2.865474609375,-1.26751708984375,-0.4740142822265625,0.22821044921875
1761383386301543400,2.87554345703125,-1.4170379638671875,-0.5380096435546875,0.2253570556640625
1761383386311613400,2.885613525390625,-1.5082244873046875,-0.46197509765625,0.1298980712890625
1761383386321683700,2.89568359375,-1.473114013671875,-0.3152923583984375,-0.00634765625
1761383386331752400,2.90575244140625,-1.413665771484375,-0.200439453125,-0.1312255859375
1761383386341822700,2.91582275390625,-1.3775482177734375,-0.1444244384765625,-0.224517822265625
1761383386351892500,2.925892578125,-1.3352813720703125,-0.137786865234375,-0.279541015625
1761383386361961700,2.935961669921875,-1.288543701171875,-0.16839599609375,-0.2879638671875
1761383386372031500,2.946031494140625,-1.2515106201171875,-0.2225189208984375,-0.2783050537109375
1761383386382101500,2.9561015625,-1.206146240234375,-0.244781494140625,-0.28558349609375
1761383386392170500,2.96617041015625,-1.1197662353515625,-0.2232818603515625,-0.3066558837890625
1761383386402240500,2.976240478515625,-1.046661376953125,-0.2054290771484375,-0.2928009033203125
1761383386412310500,2.986310546875,-1.0365142822265625,-0.2183074951171875,-0.2333984375
1761383386422379500,2.996379638671875,-1.03863525390625,-0.2664947509765625,-0.17633056640625
1761383386432449500,3.006449462890625,-0.99078369140625,-0.328704833984375,-0.170562744140625
1761383386442519600,3.01651953125,-0.8984222412109375,-0.3525238037109375,-0.21734619140625
1761383386452588500,3.026588623046875,-0.812530517578125,-0.3380889892578125,-0.2757720947265625
1761383386462658600,3.036658447265625,-0.7486572265625,-0.3122406005859375,-0.3151092529296875
1761383386472728600,3.046728515625,-0.7061004638671875,-0.2736358642578125,-0.3291473388671875
1761383386482797600,3.056797607421875,-0.6931304931640625,-0.23486328125,-0.3216094970703125
1761383386492867600,3.06686767578125,-0.6907958984375,-0.2254638671875,-0.3073577880859375
1761383386502937600,3.0769375,-0.6838836669921875,-0.2340087890625,-0.294342041015625
1761383386513006300,3.08700634765625,-0.6930084228515625,-0.2427825927734375,-0.2831573486328125
1761383386523076600,3.09707666015625,-0.6983184814453125,-0.2454833984375,-0.2748870849609375
1761383386533146600,3.107146728515625,-0.692626953125,-0.2281951904296875,-0.271942138671875
1761383386543216400,3.11721630859375,-0.6921234130859375,-0.202972412109375,-0.2724456787109375
1761383386553285600,3.12728564453125,-0.698211669921875,-0.18450927734375,-0.2789306640625
1761383386563355400,3.13735546875,-0.690216064453125,-0.1519317626953125,-0.299407958984375
1761383386573425400,3.14742529296875,-0.6841583251953125,-0.1115264892578125,-0.3199920654296875
1761383386583494400,3.157494384765625,-0.700927734375,-0.0785369873046875,-0.335479736328125
1761383386593564400,3.167564453125,-0.6987457275390625,-0.0467529296875,-0.3532257080078125
1761383386603634700,3.177634765625,-0.6923980712890625,-0.0298309326171875,-0.380279541015625
1761383386613703400,3.187703369140625,-0.7057952880859375,-0.0261383056640625,-0.4004974365234375
1761383386623773700,3.197773681640625,-0.697296142578125,-0.06353759765625,-0.389312744140625
1761383386633843500,3.207843505859375,-0.6730804443359375,-0.1554107666015625,-0.363433837890625
1761383386643912400,3.217912353515625,-0.68975830078125,-0.20263671875,-0.3536376953125
1761383386653982700,3.227982666015625,-0.7280731201171875,-0.229278564453125,-0.3247222900390625
1761383386664052500,3.238052490234375,-0.8521575927734375,-0.2717132568359375,-0.279693603515625
1761383386674121700,3.248121826171875,-1.0928955078125,-0.3178863525390625,-0.2419586181640625
1761383386684191500,3.25819140625,-1.3671722412109375,-0.274017333984375,-0.2746734619140625
1761383386694261500,3.268261474609375,-1.5089263916015625,-0.181121826171875,-0.3629150390625
1761383386704330500,3.27833056640625,-1.5406646728515625,-0.1537933349609375,-0.443878173828125
1761383386714400500,3.288400390625,-1.515167236328125,-0.1898193359375,-0.5322113037109375
1761383386724470500,3.298470458984375,-1.5017852783203125,-0.2584991455078125,-0.59674072265625
1761383386734539500,3.30853955078125,-1.43231201171875,-0.3084259033203125,-0.6360626220703125
1761383386744609500,3.318609619140625,-1.2935333251953125,-0.32183837890625,-0.70111083984375
1761383386754679600,3.328679443359375,-1.136474609375,-0.3389129638671875,-0.7547149658203125
1761383386764748500,3.33874853515625,-1.0181884765625,-0.3964996337890625,-0.738800048828125
1761383386774818300,3.348818359375,-0.9913787841796875,-0.55743408203125,-0.6527557373046875
1761383386784888600,3.358888671875,-1.076904296875,-0.7996063232421875,-0.4974365234375
1761383386794957600,3.36895751953125,-1.0950927734375,-0.9662017822265625,-0.3718719482421875
1761383386805027600,3.379027587890625,-1.0289764404296875,-1.0291748046875,-0.312896728515625
1761383386815097600,3.38909765625,-1.010955810546875,-1.0310211181640625,-0.3124542236328125
1761383386825166300,3.399166259765625,-1.0218658447265625,-0.970916748046875,-0.359405517578125
1761383386835236600,3.409236572265625,-1.056304931640625,-0.90673828125,-0.4373626708984375
1761383386845306600,3.419306640625,-0.9959869384765625,-0.819915771484375,-0.5111236572265625
1761383386855375600,3.429375732421875,-0.9203338623046875,-0.7238311767578125,-0.563995361328125
1761383386865445600,3.439445556640625,-0.9539794921875,-0.6639251708984375,-0.5638275146484375
1761383386875515400,3.449515380859375,-0.9962310791015625,-0.5890655517578125,-0.517120361328125
1761383386885584600,3.459584716796875,-0.9491729736328125,-0.492156982421875,-0.4294586181640625
1761383386895654400,3.469654296875,-0.869110107421875,-0.4218292236328125,-0.3217315673828125
1761383386905724400,3.479724365234375,-0.814605712890625,-0.3942413330078125,-0.2158050537109375
1761383386915793400,3.48979345703125,-0.7969207763671875,-0.3871002197265625,-0.1155853271484375
1761383386925863400,3.499863525390625,-0.7797698974609375,-0.377410888671875,-0.0330657958984375
1761383386935933700,3.50993359375,-0.733551025390625,-0.3592071533203125,0.0333251953125
1761383386945998800,3.519998779296875,-0.677825927734375,-0.34197998046875,0.083221435546875
1761383386956069000,3.530069091796875,-0.63629150390625,-0.3306732177734375,0.115966796875
1761383386966139000,3.540138916015625,-0.615875244140625,-0.3298187255859375,0.131011962890625
1761383386976208000,3.550207763671875,-0.6024017333984375,-0.3287200927734375,0.1219329833984375
1761383386986278000,3.56027783203125,-0.611236572265625,-0.3199920654296875,0.108367919921875
1761383386996348000,3.570347900390625,-0.624267578125,-0.2968597412109375,0.0889129638671875
1761383387006417000,3.5804169921875,-0.6089019775390625,-0.2667236328125,0.04595947265625
1761383387016487000,3.59048681640625,-0.596405029296875,-0.2471923828125,-0.0059356689453125
1761383387026557000,3.600556884765625,-0.6029815673828125,-0.24334716796875,-0.0466461181640625
1761383387036626000,3.6106259765625,-0.597900390625,-0.2508392333984375,-0.068328857421875
1761383387046696000,3.620696044921875,-0.5900421142578125,-0.2712554931640625,-0.0622406005859375
1761383387056765700,3.630765625,-0.578369140625,-0.308563232421875,-0.0401763916015625
1761383387066835000,3.6408349609375,-0.57232666015625,-0.359649658203125,-0.0060272216796875
1761383387076905000,3.650905029296875,-0.581451416015625,-0.4374847412109375,0.0484771728515625
1761383387086975000,3.66097509765625,-0.61376953125,-0.529449462890625,0.10736083984375
1761383387097044000,3.6710439453125,-0.7117919921875,-0.5844268798828125,0.13262939453125
1761383387107113700,3.68111376953125,-0.8313140869140625,-0.5939483642578125,0.13677978515625
1761383387117184000,3.69118408203125,-0.88433837890625,-0.6168060302734375,0.1596221923828125
1761383387127252700,3.701252685546875,-0.973052978515625,-0.6435394287109375,0.1842193603515625
1761383387137323000,3.711322998046875,-1.114288330078125,-0.609100341796875,0.158416748046875
1761383387147393000,3.72139306640625,-1.1789093017578125,-0.5179443359375,0.0851593017578125
1761383387157461800,3.731461669921875,-1.206695556640625,-0.4479217529296875,0.0123291015625
1761383387167532000,3.741531982421875,-1.269775390625,-0.41656494140625,-0.040771484375
1761383387177601800,3.751601806640625,-1.3424224853515625,-0.38275146484375,-0.0740814208984375
1761383387187671000,3.761671142578125,-1.3653564453125,-0.3509979248046875,-0.0873260498046875
1761383387197740800,3.77174072265625,-1.3415374755859375,-0.3472900390625,-0.089141845703125
1761383387207810800,3.781810791015625,-1.30657958984375,-0.368255615234375,-0.0736236572265625
1761383387217880000,3.791880126953125,-1.279937744140625,-0.4024505615234375,-0.027099609375
1761383387227949800,3.80194970703125,-1.2347869873046875,-0.4274749755859375,0.0191650390625
1761383387238019800,3.812019775390625,-1.1701202392578125,-0.4263916015625,0.0416259765625
1761383387248088800,3.8220888671875,-1.0954132080078125,-0.4119720458984375,0.049560546875
1761383387258158800,3.832158935546875,-0.9972381591796875,-0.3992156982421875,0.038909912109375
1761383387268229000,3.84222900390625,-0.89703369140625,-0.38494873046875,0.0091094970703125
1761383387278297900,3.8522978515625,-0.809844970703125,-0.357269287109375,-0.037322998046875
1761383387288367900,3.862367919921875,-0.73101806640625,-0.3154144287109375,-0.0749664306640625
1761383387298438000,3.87243798828125,-0.6592559814453125,-0.2631683349609375,-0.0962371826171875
1761383387308507000,3.8825068359375,-0.60223388671875,-0.213714599609375,-0.1001434326171875
1761383387318577000,3.892576904296875,-0.61053466796875,-0.1805877685546875,-0.080810546875
1761383387328647000,3.90264697265625,-0.6549072265625,-0.1589508056640625,-0.0543365478515625
1761383387338716000,3.9127158203125,-0.6836395263671875,-0.1440582275390625,-0.047515869140625
1761383387348786000,3.922785888671875,-0.6822357177734375,-0.121307373046875,-0.08154296875
1761383387358856000,3.93285595703125,-0.7109222412109375,-0.085174560546875,-0.1422271728515625
1761383387368925000,3.942925048828125,-0.760986328125,-0.0365142822265625,-0.2150726318359375
1761383387378995000,3.952994873046875,-0.7781524658203125,0.0286712646484375,-0.2848663330078125
1761383387389065000,3.96306494140625,-0.7832794189453125,0.0988922119140625,-0.32781982421875
1761383387399134000,3.973134033203125,-0.7876739501953125,0.1454315185546875,-0.318206787109375
1761383387409204000,3.983203857421875,-0.779052734375,0.136505126953125,-0.2739715576171875
1761383387419273700,3.993273681640625,-0.7647705078125,0.0693359375,-0.2220611572265625
1761383387429343000,4.003343017578125,-0.7507781982421875,0.0072174072265625,-0.1971588134765625
1761383387439412700,4.013412841796875,-0.7599334716796875,-0.0573272705078125,-0.202728271484375
1761383387449483000,4.02348291015625,-0.8131866455078125,-0.11785888671875,-0.2369232177734375
1761383387459551700,4.0335517578125,-0.90740966796875,-0.12237548828125,-0.31182861328125
1761383387469622000,4.0436220703125,-1.0154571533203125,-0.09442138671875,-0.372833251953125
1761383387479692000,4.053692138671875,-1.1064910888671875,-0.0823516845703125,-0.429046630859375
1761383387489760800,4.0637607421875,-1.1737518310546875,0.0052032470703125,-0.5487518310546875
1761383387499831000,4.0738310546875,-1.1622314453125,0.1259765625,-0.6729736328125
1761383387509900800,4.08390087890625,-1.118194580078125,0.159088134765625,-0.703887939453125
1761383387519970000,4.093969970703125,-1.1363525390625,0.115753173828125,-0.6409912109375
1761383387530040000,4.1040400390625,-1.2403564453125,0.0375823974609375,-0.494415283203125
1761383387540109800,4.11410986328125,-1.3745574951171875,-0.0876007080078125,-0.2853851318359375
1761383387550179000,4.124178955078125,-1.4622650146484375,-0.2471160888671875,-0.074432373046875
1761383387560248800,4.134248779296875,-1.483612060546875,-0.389495849609375,0.082244873046875
1761383387570318800,4.14431884765625,-1.4527435302734375,-0.476318359375,0.1490936279296875
1761383387580387800,4.154387939453125,-1.4677734375,-0.4817657470703125,0.1837158203125
1761383387590457900,4.164457763671875,-1.53033447265625,-0.4245758056640625,0.2193145751953125
1761383387600528100,4.174528076171875,-1.5553436279296875,-0.374908447265625,0.2356109619140625
1761383387610596900,4.184596923828125,-1.5223388671875,-0.373443603515625,0.209869384765625
1761383387620667000,4.1946669921875,-1.4937744140625,-0.39288330078125,0.1857452392578125
1761383387630737000,4.20473681640625,-1.4660491943359375,-0.4130401611328125,0.15325927734375
1761383387640806000,4.214805908203125,-1.493194580078125,-0.4158172607421875,0.1217193603515625
1761383387650876000,4.2248759765625,-1.54498291015625,-0.4167938232421875,0.083953857421875
1761383387660946000,4.23494580078125,-1.5217132568359375,-0.3737030029296875,0.0356292724609375
1761383387671015000,4.245014892578125,-1.4552154541015625,-0.2768402099609375,0.0063934326171875
1761383387681085000,4.2550849609375,-1.4044036865234375,-0.259521484375,0.0098419189453125
1761383387691155000,4.265155029296875,-1.359344482421875,-0.280517578125,0.0786285400390625
1761383387701224000,4.275223876953125,-1.3049468994140625,-0.272796630859375,0.127166748046875
1761383387711294000,4.2852939453125,-1.242919921875,-0.27764892578125,0.1705169677734375
1761383387721364000,4.295364013671875,-1.13714599609375,-0.29766845703125,0.20111083984375
1761383387731433000,4.305432861328125,-1.026947021484375,-0.3026885986328125,0.2265777587890625
1761383387741503000,4.3155029296875,-0.9274139404296875,-0.30975341796875,0.2682647705078125
1761383387751572700,4.32557275390625,-0.842987060546875,-0.32537841796875,0.3185272216796875
1761383387761642000,4.33564208984375,-0.76251220703125,-0.3390350341796875,0.356231689453125
1761383387771711700,4.345711669921875,-0.68231201171875,-0.3434600830078125,0.378509521484375
1761383387781782000,4.355781982421875,-0.616455078125,-0.33428955078125,0.3895111083984375
1761383387791850800,4.365850830078125,-0.5929107666015625,-0.327239990234375,0.3966217041015625
1761383387801920800,4.375920654296875,-0.6153717041015625,-0.3147735595703125,0.39141845703125
1761383387811991000,4.385990966796875,-0.640625,-0.2927398681640625,0.365234375
1761383387822059800,4.396059814453125,-0.6815185546875,-0.268585205078125,0.3177337646484375
1761383387832130000,4.406130126953125,-0.714447021484375,-0.271636962890625,0.256317138671875
1761383387842199800,4.41619970703125,-0.72662353515625,-0.27264404296875,0.216705322265625
1761383387852269000,4.42626904296875,-0.7239837646484375,-0.20452880859375,0.1764678955078125
1761383387862339000,4.436339111328125,-0.70245361328125,-0.18389892578125,0.1747283935546875
1761383387872408800,4.446408935546875,-0.6964263916015625,-0.21551513671875,0.2069091796875
1761383387882478000,4.45647802734375,-0.6844940185546875,-0.2602996826171875,0.24755859375
1761383387892547800,4.4665478515625,-0.676361083984375,-0.2960052490234375,0.2960052490234375
1761383387902617900,4.476617919921875,-0.6616363525390625,-0.345855712890625,0.359588623046875
1761383387912686800,4.486686767578125,-0.7115325927734375,-0.4007568359375,0.408905029296875
1761383387922756900,4.4967568359375,-0.8171539306640625,-0.436553955078125,0.4237823486328125
1761383387932827000,4.506826904296875,-0.9002532958984375,-0.4759674072265625,0.4303741455078125
1761383387942895900,4.516895751953125,-0.9692840576171875,-0.5303802490234375,0.437164306640625
1761383387952966000,4.5269658203125,-1.0484619140625,-0.5762786865234375,0.4360809326171875
1761383387963036200,4.5370361328125,-1.109100341796875,-0.574432373046875,0.405975341796875
1761383387973105000,4.54710498046875,-1.156402587890625,-0.544891357421875,0.33367919921875
1761383387983175000,4.5571748046875,-1.219207763671875,-0.5045013427734375,0.247802734375
1761383387993245000,4.567244873046875,-1.2603302001953125,-0.4798583984375,0.1736907958984375
1761383388003314000,4.57731396484375,-1.3131256103515625,-0.4703826904296875,0.11566162109375
1761383388013384000,4.587384033203125,-1.394775390625,-0.4510498046875,0.083587646484375
1761383388023454000,4.597453857421875,-1.4332122802734375,-0.4482421875,0.0656890869140625
1761383388033523000,4.60752294921875,-1.4498138427734375,-0.4517364501953125,0.0332183837890625
1761383388043593000,4.617593017578125,-1.4380645751953125,-0.4543609619140625,-0.017608642578125
1761383388053663000,4.6276630859375,-1.40673828125,-0.4597930908203125,-0.0630035400390625
1761383388063732000,4.63773193359375,-1.3617401123046875,-0.465728759765625,-0.1053924560546875
1761383388073802000,4.647802001953125,-1.296905517578125,-0.4730072021484375,-0.1546173095703125
1761383388083871700,4.657871826171875,-1.2301788330078125,-0.4738311767578125,-0.20916748046875
1761383388093941000,4.66794091796875,-1.1698760986328125,-0.4598541259765625,-0.2645263671875
1761383388104011000,4.678010986328125,-1.1093292236328125,-0.4228668212890625,-0.3206634521484375
1761383388114081000,4.6880810546875,-1.08087158203125,-0.383148193359375,-0.3337249755859375
1761383388124150000,4.69814990234375,-1.0537109375,-0.3706207275390625,-0.3101348876953125
1761383388134219800,4.7082197265625,-1.0045013427734375,-0.3648223876953125,-0.286376953125
1761383388144290000,4.7182900390625,-0.9568023681640625,-0.3474578857421875,-0.2738037109375
1761383388154357000,4.72835693359375,-0.9093017578125,-0.32794189453125,-0.272125244140625
1761383388164427000,4.738427001953125,-0.8542633056640625,-0.3164825439453125,-0.2797393798828125
1761383388174496800,4.748496826171875,-0.784393310546875,-0.2867584228515625,-0.288787841796875
1761383388184566000,4.75856591796875,-0.7218017578125,-0.2484130859375,-0.292694091796875
1761383388194635800,4.7686357421875,-0.68048095703125,-0.22320556640625,-0.2912445068359375
1761383388204706000,4.7787060546875,-0.657958984375,-0.2067108154296875,-0.2842864990234375
1761383388214774800,4.78877490234375,-0.6453704833984375,-0.19671630859375,-0.267578125
1761383388224845000,4.798844970703125,-0.622711181640625,-0.1870880126953125,-0.2551727294921875
1761383388234915000,4.8089150390625,-0.6108856201171875,-0.1694793701171875,-0.2615966796875
1761383388244983800,4.81898388671875,-0.60577392578125,-0.1609649658203125,-0.2801361083984375
1761383388255054000,4.82905419921875,-0.5838165283203125,-0.1611328125,-0.294189453125
1761383388265123800,4.839123779296875,-0.568023681640625,-0.1574859619140625,-0.3052215576171875
1761383388275193000,4.849193115234375,-0.5670928955078125,-0.148681640625,-0.3159332275390625
1761383388285263000,4.85926318359375,-0.578094482421875,-0.131011962890625,-0.32989501953125
1761383388295332900,4.869332763671875,-0.586669921875,-0.110382080078125,-0.3493499755859375
1761383388305402000,4.879402099609375,-0.603668212890625,-0.080322265625,-0.3794403076171875
1761383388315472000,4.889471923828125,-0.622039794921875,-0.063629150390625,-0.41754150390625
1761383388325542000,4.8995419921875,-0.6337127685546875,-0.052886962890625,-0.4565582275390625
1761383388335611000,4.90961083984375,-0.6627197265625,-0.0233917236328125,-0.4903106689453125
1761383388345681000,4.919680908203125,-0.73992919921875,-0.0030670166015625,-0.50628662109375
1761383388355751000,4.9297509765625,-0.81982421875,-0.013031005859375,-0.4905853271484375
1761383388365820000,4.93981982421875,-0.8690185546875,-0.034759521484375,-0.4608154296875
1761383388375890000,4.949889892578125,-0.8921966552734375,-0.058624267578125,-0.423431396484375
1761383388385960000,4.9599599609375,-0.9334564208984375,-0.1102142333984375,-0.374237060546875
1761383388396029000,4.97002880859375,-0.9809417724609375,-0.185821533203125,-0.3287200927734375
1761383388406099000,4.980098876953125,-1.0239715576171875,-0.2553863525390625,-0.301971435546875
1761383388416169000,4.9901689453125,-1.0811614990234375,-0.3175811767578125,-0.296356201171875
1761383388426238000,5.000238037109375,-1.1148223876953125,-0.3834381103515625,-0.30059814453125
1761383388436308000,5.010307861328125,-1.1650543212890625,-0.433563232421875,-0.3001861572265625
1761383388446378000,5.0203779296875,-1.213958740234375,-0.481964111328125,-0.2688140869140625
1761383388456447000,5.030447021484375,-1.2681732177734375,-0.5190582275390625,-0.2177581787109375
1761383388466517000,5.04051708984375,-1.330718994140625,-0.541168212890625,-0.1712799072265625
1761383388476586000,5.0505859375,-1.3639068603515625,-0.556060791015625,-0.148712158203125
1761383388486656000,5.060656005859375,-1.35479736328125,-0.5687103271484375,-0.15399169921875
1761383388496726000,5.07072607421875,-1.36199951171875,-0.57098388671875,-0.1725616455078125
1761383388506795000,5.080794921875,-1.3673553466796875,-0.5551300048828125,-0.1894989013671875
1761383388516865000,5.090864990234375,-1.3848419189453125,-0.5154571533203125,-0.1900177001953125
1761383388526934800,5.100934814453125,-1.3808746337890625,-0.4623870849609375,-0.1813201904296875
1761383388537005000,5.111005126953125,-1.36712646484375,-0.4315338134765625,-0.1599578857421875
1761383388547073800,5.12107373046875,-1.338623046875,-0.4224700927734375,-0.1396026611328125
1761383388557143800,5.131143798828125,-1.29534912109375,-0.40728759765625,-0.1235504150390625
1761383388567213000,5.141213134765625,-1.2348480224609375,-0.3861541748046875,-0.1036376953125
1761383388577282800,5.15128271484375,-1.141021728515625,-0.36810302734375,-0.0680084228515625
1761383388587353000,5.16135302734375,-1.06158447265625,-0.337493896484375,-0.0170135498046875
1761383388597421800,5.171421875,-0.98638916015625,-0.3540496826171875,0.0600128173828125
1761383388607492000,5.1814921875,-0.9048919677734375,-0.3698883056640625,0.1265106201171875
1761383388617562000,5.19156201171875,-0.8209381103515625,-0.381622314453125,0.19598388671875
1761383388627630800,5.201630859375,-0.76177978515625,-0.401763916015625,0.2652740478515625
1761383388637701000,5.211701171875,-0.7361907958984375,-0.408660888671875,0.3168182373046875
1761383388647771000,5.22177099609375,-0.7294464111328125,-0.4039764404296875,0.34564208984375
1761383388657840000,5.231840087890625,-0.7168121337890625,-0.388519287109375,0.3463134765625
1761383388667910000,5.241909912109375,-0.7116851806640625,-0.3751373291015625,0.328277587890625
1761383388677980000,5.25197998046875,-0.733734130859375,-0.3660736083984375,0.304046630859375
1761383388688049000,5.262048828125,-0.7654571533203125,-0.3529815673828125,0.291168212890625
1761383388698119000,5.272118896484375,-0.792938232421875,-0.3321075439453125,0.2708892822265625
1761383388708189000,5.28218896484375,-0.8140716552734375,-0.30352783203125,0.2441558837890625
1761383388718258000,5.2922578125,-0.8191375732421875,-0.2931060791015625,0.236663818359375
1761383388728328000,5.302327880859375,-0.8050689697265625,-0.29833984375,0.2487640380859375
1761383388738398000,5.31239794921875,-0.8100128173828125,-0.3071746826171875,0.2806243896484375
1761383388748467000,5.322467041015625,-0.838623046875,-0.3190155029296875,0.322174072265625
1761383388758537000,5.332536865234375,-0.875457763671875,-0.33294677734375,0.352386474609375
1761383388768607000,5.34260693359375,-0.9313812255859375,-0.3275909423828125,0.3462066650390625
1761383388778678800,5.3526787109375,-1.0258331298828125,-0.3264617919921875,0.3176727294921875
1761383388788748000,5.362748046875,-1.132080078125,-0.3394317626953125,0.276397705078125
1761383388798817800,5.37281787109375,-1.22052001953125,-0.3405303955078125,0.2463531494140625
1761383388808888000,5.38288818359375,-1.2858123779296875,-0.2991943359375,0.21746826171875
1761383388818956800,5.392956787109375,-1.3135986328125,-0.2536468505859375,0.1779632568359375
1761383388829026800,5.40302685546875,-1.3000030517578125,-0.2389373779296875,0.137176513671875
1761383388839097000,5.41309716796875,-1.2613677978515625,-0.2295379638671875,0.082305908203125
1761383388849165800,5.423165771484375,-1.253326416015625,-0.2292327880859375,0.027587890625
1761383388859236000,5.433236083984375,-1.26397705078125,-0.2344818115234375,-0.0170745849609375
1761383388869304800,5.443304931640625,-1.285797119140625,-0.2240753173828125,-0.0683441162109375
1761383388879375000,5.453375,-1.3258819580078125,-0.220123291015625,-0.116485595703125
1761383388889445000,5.463445068359375,-1.3399200439453125,-0.226806640625,-0.16424560546875
1761383388899513900,5.473513916015625,-1.3424072265625,-0.22314453125,-0.208343505859375
1761383388909584100,5.483584228515625,-1.3346099853515625,-0.224212646484375,-0.23309326171875
1761383388919654000,5.49365380859375,-1.2943878173828125,-0.2374420166015625,-0.244659423828125
1761383388929723100,5.50372314453125,-1.2266998291015625,-0.1805877685546875,-0.2892913818359375
1761383388939793000,5.51379296875,-1.1248779296875,-0.1990814208984375,-0.3111724853515625
1761383388949862400,5.5238623046875,-1.047119140625,-0.2188262939453125,-0.3246307373046875
1761383388959931400,5.533931396484375,-0.9329376220703125,-0.1971435546875,-0.34735107421875
1761383388970001400,5.54400146484375,-0.812469482421875,-0.206573486328125,-0.3439788818359375
1761383388980071400,5.554071533203125,-0.7410736083984375,-0.2324676513671875,-0.3153076171875
1761383388990140400,5.564140380859375,-0.712646484375,-0.236572265625,-0.285064697265625
1761383389000210400,5.57421044921875,-0.6707000732421875,-0.22454833984375,-0.2716064453125
1761383389010280400,5.584280517578125,-0.6246795654296875,-0.2126617431640625,-0.2632904052734375
1761383389020349400,5.594349365234375,-0.61724853515625,-0.1986541748046875,-0.2566070556640625
1761383389030419500,5.60441943359375,-0.6483154296875,-0.182373046875,-0.2426910400390625
1761383389040489500,5.614489501953125,-0.6469879150390625,-0.17669677734375,-0.2390899658203125
1761383389050558500,5.624558349609375,-0.6370849609375,-0.1726531982421875,-0.24859619140625
1761383389060628500,5.63462841796875,-0.646453857421875,-0.17919921875,-0.2563018798828125
1761383389070698500,5.644698486328125,-0.6535797119140625,-0.2027740478515625,-0.2508697509765625
1761383389080767500,5.654767578125,-0.6495208740234375,-0.22406005859375,-0.25177001953125
1761383389090837500,5.66483740234375,-0.6360321044921875,-0.2405853271484375,-0.258026123046875
1761383389100907500,5.674907470703125,-0.6336517333984375,-0.246734619140625,-0.2729034423828125
1761383389110976500,5.6849765625,-0.6278228759765625,-0.24139404296875,-0.2950897216796875
1761383389121046500,5.695046630859375,-0.6110992431640625,-0.248809814453125,-0.31231689453125
1761383389131116300,5.7051162109375,-0.59368896484375,-0.27008056640625,-0.329132080078125
1761383389141185500,5.715185546875,-0.5718994140625,-0.297088623046875,-0.34393310546875
1761383389151255300,5.72525537109375,-0.5729827880859375,-0.348846435546875,-0.3275299072265625
1761383389161325600,5.73532568359375,-0.63177490234375,-0.38641357421875,-0.3105926513671875
1761383389171394300,5.745394287109375,-0.7432403564453125,-0.38946533203125,-0.3250274658203125
1761383389181464300,5.75546435546875,-0.8764801025390625,-0.3875885009765625,-0.329803466796875
1761383389191534600,5.76553466796875,-0.9806976318359375,-0.359222412109375,-0.35614013671875
1761383389201603300,5.775603271484375,-1.038299560546875,-0.294952392578125,-0.407073974609375
1761383389211673600,5.785673583984375,-1.087982177734375,-0.28277587890625,-0.4294586181640625
1761383389221743400,5.795743408203125,-1.138885498046875,-0.315155029296875,-0.4141845703125
1761383389231812400,5.805812255859375,-1.169097900390625,-0.336517333984375,-0.398284912109375
1761383389241882600,5.815882568359375,-1.1824188232421875,-0.3495635986328125,-0.4064788818359375
1761383389251952400,5.825952392578125,-1.1904296875,-0.3717041015625,-0.4224395751953125
1761383389262021600,5.836021728515625,-1.1665802001953125,-0.4019317626953125,-0.4316864013671875
1761383389272091400,5.84609130859375,-1.111083984375,-0.4151611328125,-0.419342041015625
1761383389282161400,5.856161376953125,-1.1133880615234375,-0.4338836669921875,-0.3663482666015625
1761383389292230400,5.86623046875,-1.12420654296875,-0.4852752685546875,-0.3209075927734375
1761383389302300400,5.876300537109375,-1.079376220703125,-0.5501861572265625,-0.27813720703125
1761383389312370400,5.886370361328125,-1.04205322265625,-0.59027099609375,-0.22314453125
1761383389322439400,5.896439453125,-1.0855560302734375,-0.5956268310546875,-0.159820556640625
1761383389332509400,5.906509521484375,-1.144775390625,-0.5648193359375,-0.1220855712890625
1761383389342579500,5.916579345703125,-1.1857147216796875,-0.5031585693359375,-0.1233978271484375
1761383389352648400,5.9266484375,-1.213836669921875,-0.4467620849609375,-0.1358489990234375
1761383389362718500,5.936718505859375,-1.228851318359375,-0.412353515625,-0.142120361328125
1761383389372788500,5.94678857421875,-1.2281036376953125,-0.4181060791015625,-0.145904541015625
1761383389382857500,5.956857421875,-1.1861419677734375,-0.4473724365234375,-0.1489715576171875
1761383389392927500,5.966927490234375,-1.1295166015625,-0.4193878173828125,-0.155120849609375
1761383389402997500,5.97699755859375,-1.0445404052734375,-0.39337158203125,-0.1470489501953125
1761383389413066500,5.98706640625,-0.9763031005859375,-0.4440155029296875,-0.082427978515625
1761383389423136500,5.997136474609375,-0.93206787109375,-0.45867919921875,-0.0345611572265625
1761383389433206500,6.00720654296875,-0.843719482421875,-0.4614410400390625,0.0113525390625
1761383389443275500,6.017275634765625,-0.751922607421875,-0.456146240234375,0.0693359375
1761383389453345500,6.027345458984375,-0.6823577880859375,-0.4366607666015625,0.129852294921875
1761383389463415300,6.037415283203125,-0.6417694091796875,-0.419921875,0.2003326416015625
1761383389473484500,6.047484619140625,-0.6229248046875,-0.4045257568359375,0.2697906494140625
1761383389483554300,6.05755419921875,-0.6042327880859375,-0.39666748046875,0.326141357421875
1761383389493624600,6.06762451171875,-0.570098876953125,-0.3975372314453125,0.356292724609375
1761383389503693300,6.077693359375,-0.55841064453125,-0.4033050537109375,0.360626220703125
1761383389513763300,6.087763427734375,-0.5922088623046875,-0.403167724609375,0.34368896484375
1761383389523832600,6.09783251953125,-0.6414947509765625,-0.3919830322265625,0.32012939453125
1761383389533902300,6.10790234375,-0.657958984375,-0.40313720703125,0.309783935546875
1761383389543972600,6.11797265625,-0.642974853515625,-0.436859130859375,0.3028411865234375
1761383389554041300,6.128041259765625,-0.61236572265625,-0.4870147705078125,0.31488037109375
1761383389564111400,6.138111328125,-0.594482421875,-0.538299560546875,0.352508544921875
1761383389574181600,6.148181640625,-0.6431121826171875,-0.5663909912109375,0.3874969482421875
1761383389584250400,6.15825048828125,-0.7416534423828125,-0.5569000244140625,0.3857421875
1761383389594320600,6.168320556640625,-0.8446807861328125,-0.5457305908203125,0.36712646484375
1761383389604390400,6.178390380859375,-0.9237213134765625,-0.54412841796875,0.3598785400390625
1761383389614459400,6.18845947265625,-1.0185546875,-0.5342559814453125,0.367523193359375
1761383389624529400,6.198529296875,-1.1267547607421875,-0.5317230224609375,0.384613037109375
1761383389634599400,6.208599365234375,-1.1917877197265625,-0.514556884765625,0.353851318359375
1761383389644668400,6.21866845703125,-1.205047607421875,-0.4854583740234375,0.2752227783203125
1761383389654738400,6.228738525390625,-1.231292724609375,-0.4506683349609375,0.1711883544921875
1761383389664808400,6.238808349609375,-1.2623138427734375,-0.431060791015625,0.0642242431640625
1761383389674877400,6.24887744140625,-1.2967376708984375,-0.4194488525390625,-0.0101165771484375
1761383389684947500,6.258947509765625,-1.35247802734375,-0.4019622802734375,-0.04888916015625
1761383389695017200,6.269017333984375,-1.3953704833984375,-0.418670654296875,-0.0684661865234375
1761383389705086500,6.27908642578125,-1.4251708984375,-0.408538818359375,-0.0893096923828125
1761383389715156500,6.289156494140625,-1.380615234375,-0.340057373046875,-0.1442413330078125
1761383389725226500,6.2992265625,-1.31536865234375,-0.3349761962890625,-0.1801300048828125
1761383389735295500,6.30929541015625,-1.268096923828125,-0.328704833984375,-0.2178802490234375
1761383389745365500,6.319365478515625,-1.206146240234375,-0.3040924072265625,-0.26129150390625
1761383389755435500,6.329435546875,-1.1222991943359375,-0.28656005859375,-0.3014678955078125
1761383389765504300,6.339504150390625,-1.046844482421875,-0.310455322265625,-0.2982025146484375
1761383389775574500,6.349574462890625,-0.9737091064453125,-0.3818359375,-0.2556610107421875
1761383389785644500,6.35964453125,-0.8919219970703125,-0.4119110107421875,-0.237548828125
1761383389795713500,6.369713623046875,-0.865142822265625,-0.409942626953125,-0.2286834716796875
1761383389805783600,6.379783447265625,-0.883697509765625,-0.384613037109375,-0.2216644287109375
1761383389815853300,6.389853271484375,-0.86083984375,-0.342742919921875,-0.237640380859375
1761383389825922600,6.399922607421875,-0.816802978515625,-0.304840087890625,-0.2569427490234375
1761383389835992300,6.409992431640625,-0.8016204833984375,-0.2780609130859375,-0.26141357421875
1761383389846062300,6.420062255859375,-0.788360595703125,-0.2599029541015625,-0.24969482421875
1761383389856131600,6.430131591796875,-0.7634429931640625,-0.2550506591796875,-0.2331390380859375
1761383389866201300,6.440201416015625,-0.727691650390625,-0.2546234130859375,-0.2197723388671875
1761383389876271400,6.450271240234375,-0.6949920654296875,-0.251312255859375,-0.2120819091796875
1761383389886340400,6.46034033203125,-0.65130615234375,-0.2483978271484375,-0.205413818359375
1761383389896410400,6.470410400390625,-0.6027984619140625,-0.2493743896484375,-0.19964599609375
1761383389906480600,6.480480712890625,-0.5660552978515625,-0.242767333984375,-0.19415283203125
1761383389916549400,6.49054931640625,-0.5517730712890625,-0.2301025390625,-0.185211181640625
1761383389926619600,6.50061962890625,-0.551361083984375,-0.2254791259765625,-0.1675567626953125
1761383389936688400,6.5106884765625,-0.5560150146484375,-0.230804443359375,-0.1443634033203125
1761383389946759200,6.52075927734375,-0.5607757568359375,-0.260040283203125,-0.110198974609375
1761383389956829200,6.5308291015625,-0.563629150390625,-0.3061676025390625,-0.074737548828125
1761383389966898200,6.540898193359375,-0.590118408203125,-0.3534393310546875,-0.0347442626953125
1761383389976968000,6.550968017578125,-0.635284423828125,-0.376983642578125,0.0009002685546875
1761383389987038200,6.5610380859375,-0.7031707763671875,-0.389129638671875,0.0318603515625
1761383389997107200,6.571107177734375,-0.8316650390625,-0.39654541015625,0.055908203125
1761383390007177200,6.58117724609375,-0.9782562255859375,-0.3889617919921875,0.0656890869140625
1761383390017247200,6.591247314453125,-1.0953826904296875,-0.37982177734375,0.06103515625
1761383390027316000,6.60131591796875,-1.17047119140625,-0.35968017578125,0.045501708984375
1761383390037386200,6.61138623046875,-1.19525146484375,-0.3557891845703125,0.033355712890625
1761383390047456300,6.621456298828125,-1.1731414794921875,-0.4467010498046875,0.0478515625
1761383390057525200,6.631525146484375,-1.1732330322265625,-0.3714447021484375,0.0016021728515625
1761383390067595300,6.64159521484375,-1.128173828125,-0.2794647216796875,-0.0752410888671875
1761383390077665000,6.6516650390625,-1.139129638671875,-0.2897186279296875,-0.1032562255859375
1761383390087734300,6.661734375,-1.13702392578125,-0.298431396484375,-0.1126861572265625
1761383390097804000,6.671803955078125,-1.130462646484375,-0.355621337890625,-0.0701904296875
1761383390107874000,6.6818740234375,-1.1413116455078125,-0.452117919921875,0.008575439453125
1761383390117943000,6.691943115234375,-1.1389923095703125,-0.525543212890625,0.0839996337890625
1761383390128013000,6.702012939453125,-1.110198974609375,-0.588165283203125,0.1478729248046875
1761383390138083300,6.712083251953125,-1.0742950439453125,-0.632568359375,0.177734375
1761383390148152000,6.722152099609375,-1.0479736328125,-0.6431121826171875,0.1715850830078125
1761383390158222000,6.73222216796875,-1.0366668701171875,-0.639862060546875,0.1445159912109375
1761383390168292000,6.7422919921875,-1.0310516357421875,-0.5998687744140625,0.1152496337890625
1761383390178361000,6.752361083984375,-1.02996826171875,-0.5771942138671875,0.0962982177734375
1761383390188431400,6.762431396484375,-1.02911376953125,-0.5590667724609375,0.0767059326171875
1761383390198501000,6.772501220703125,-1.0231170654296875,-0.524169921875,0.0465850830078125
1761383390208570400,6.7825703125,-0.9980926513671875,-0.4722900390625,0.0135650634765625
1761383390218640100,6.79264013671875,-0.9674530029296875,-0.420257568359375,-0.014190673828125
1761383390228710100,6.802710205078125,-0.9349212646484375,-0.3754730224609375,-0.0260162353515625
1761383390238779100,6.812779052734375,-0.8883056640625,-0.3471527099609375,-0.0220794677734375
1761383390248849200,6.82284912109375,-0.8295440673828125,-0.3280487060546875,-0.014739990234375
1761383390258919200,6.832919189453125,-0.7699737548828125,-0.31134033203125,-0.008575439453125
1761383390268988200,6.84298828125,-0.7095489501953125,-0.307647705078125,0.0029296875
1761383390279058200,6.85305810546875,-0.6544036865234375,-0.29998779296875,0.0210723876953125
1761383390289127200,6.863127197265625,-0.6085052490234375,-0.2850799560546875,0.0506591796875
1761383390299197200,6.873197265625,-0.5668792724609375,-0.272003173828125,0.089447021484375
1761383390309267000,6.883266845703125,-0.5215606689453125,-0.2595672607421875,0.1219024658203125
1761383390319336200,6.893336181640625,-0.4852752685546875,-0.2417449951171875,0.1593780517578125
1761383390329406200,6.90340625,-0.4844207763671875,-0.2265625,0.1986236572265625
1761383390339476200,6.913476318359375,-0.5172576904296875,-0.2138519287109375,0.225677490234375
1761383390349545200,6.923545166015625,-0.5601806640625,-0.1974639892578125,0.2367401123046875
1761383390359615000,6.933614990234375,-0.5881195068359375,-0.1822662353515625,0.2491607666015625
1761383390369685200,6.943685302734375,-0.6570587158203125,-0.15252685546875,0.2634429931640625
1761383390379754000,6.95375390625,-0.753753662109375,-0.12713623046875,0.2733612060546875
1761383390389824300,6.96382421875,-0.8495941162109375,-0.147308349609375,0.3163909912109375
1761383390399894300,6.973894287109375,-0.95001220703125,-0.1993255615234375,0.3817596435546875
1761383390409963000,6.983962890625,-1.0385894775390625,-0.223419189453125,0.399658203125
1761383390420033300,6.994033203125,-1.1362762451171875,-0.22174072265625,0.38336181640625
1761383390430103000,7.00410302734375,-1.2238006591796875,-0.23895263671875,0.367431640625
1761383390440172300,7.01417236328125,-1.2718963623046875,-0.2666168212890625,0.3459930419921875
1761383390450242000,7.024241943359375,-1.3226165771484375,-0.259521484375,0.31671142578125
1761383390460312000,7.03431201171875,-1.344390869140625,-0.2178497314453125,0.282501220703125
1761383390470381300,7.04438134765625,-1.3466644287109375,-0.1844635009765625,0.25750732421875
1761383390480451000,7.054451171875,-1.366058349609375,-0.1768798828125,0.252777099609375
1761383390490521000,7.06452099609375,-1.3980865478515625,-0.1729736328125,0.2522735595703125
1761383390500590000,7.074590087890625,-1.4084014892578125,-0.1748046875,0.2604827880859375
1761383390510660000,7.08466015625,-1.4050445556640625,-0.178131103515625,0.2583465576171875
1761383390520730400,7.09473046875,-1.4196624755859375,-0.17083740234375,0.2394561767578125
1761383390530799000,7.104799072265625,-1.4468231201171875,-0.1573638916015625,0.2246551513671875
1761383390540869000,7.114869140625,-1.4852752685546875,-0.138763427734375,0.1949615478515625
1761383390550938000,7.124938232421875,-1.5242767333984375,-0.1107635498046875,0.1541290283203125
1761383390561008000,7.135008056640625,-1.534393310546875,-0.0675201416015625,0.1156463623046875
1761383390571078100,7.145078125,-1.5244903564453125,-0.0330047607421875,0.099151611328125
1761383390581147100,7.155147216796875,-1.5018310546875,-0.02520751953125,0.1097564697265625
1761383390591217200,7.165217041015625,-1.453887939453125,-0.0313262939453125,0.1273040771484375
1761383390601287200,7.175287109375,-1.3880615234375,-0.041046142578125,0.13958740234375
1761383390611356200,7.185356201171875,-1.3086700439453125,-0.049163818359375,0.13751220703125
1761383390621426200,7.19542626953125,-1.234222412109375,-0.051788330078125,0.1246337890625
1761383390631496200,7.20549609375,-1.182159423828125,-0.0433349609375,0.1069793701171875
1761383390641565200,7.215565185546875,-1.1399383544921875,-0.0273895263671875,0.0842437744140625
1761383390651635200,7.22563525390625,-1.0948333740234375,-0.010894775390625,0.05810546875
1761383390661705200,7.235705322265625,-1.053466796875,0.0025177001953125,0.04351806640625
1761383390671774200,7.245774169921875,-1.0055694580078125,0.008758544921875,0.0364532470703125
1761383390681844200,7.25584423828125,-0.944549560546875,0.0053558349609375,0.03790283203125
1761383390691914000,7.2659140625,-0.888916015625,0.00335693359375,0.0340118408203125
1761383390701983200,7.275983154296875,-0.840301513671875,-0.0013427734375,0.0274200439453125
1761383390712053000,7.286052978515625,-0.8027496337890625,-0.0140380859375,0.022125244140625
1761383390722123300,7.296123291015625,-0.7738800048828125,-0.0243377685546875,0.01611328125
1761383390732192300,7.306192138671875,-0.746917724609375,-0.0407867431640625,0.0120086669921875
1761383390742262000,7.316261962890625,-0.7360076904296875,-0.057647705078125,0.01220703125
1761383390752332300,7.326332275390625,-0.734039306640625,-0.0659637451171875,0.01483154296875
1761383390762401000,7.336401123046875,-0.73419189453125,-0.0680389404296875,0.0176239013671875
1761383390772471300,7.34647119140625,-0.740570068359375,-0.0617828369140625,0.0240936279296875
1761383390782540000,7.3565400390625,-0.7464447021484375,-0.0499725341796875,0.0427703857421875
1761383390792610000,7.366610107421875,-0.76092529296875,-0.0298309326171875,0.066741943359375
1761383390802680300,7.376680419921875,-0.8113250732421875,-0.018157958984375,0.0843505859375
1761383390812749000,7.3867490234375,-0.8671112060546875,0.00537109375,0.0702362060546875
1761383390822819300,7.3968193359375,-0.8936309814453125,0.01812744140625,0.0510101318359375
1761383390832889000,7.40688916015625,-0.915802001953125,0.00372314453125,0.06298828125
1761383390842958300,7.416958251953125,-0.9352264404296875,-0.019439697265625,0.0911865234375
1761383390853028000,7.427028076171875,-0.942230224609375,-0.03411865234375,0.1147918701171875
1761383390863098000,7.43709814453125,-0.956329345703125,-0.0409088134765625,0.1263427734375
1761383390873167400,7.44716748046875,-0.9577789306640625,-0.0680694580078125,0.123748779296875
1761383390883237000,7.457237060546875,-0.9592742919921875,-0.1153564453125,0.10369873046875
1761383390893307100,7.46730712890625,-0.9632720947265625,-0.180572509765625,0.0619049072265625
1761383390903376100,7.477376220703125,-0.980926513671875,-0.2380218505859375,0.028228759765625
1761383390913446100,7.487446044921875,-1.0532073974609375,-0.266937255859375,-0.0073699951171875
1761383390923516200,7.49751611328125,-1.125244140625,-0.2823486328125,-0.056304931640625
1761383390933585200,7.507585205078125,-1.163177490234375,-0.29595947265625,-0.1060333251953125
1761383390943654400,7.517654296875,-1.1946868896484375,-0.3272857666015625,-0.160003662109375
1761383390953724400,7.527724365234375,-1.1807098388671875,-0.3666229248046875,-0.2162628173828125
1761383390963793200,7.537793212890625,-1.1705169677734375,-0.3999176025390625,-0.26617431640625
1761383390973863400,7.547863525390625,-1.2069244384765625,-0.4459228515625,-0.28656005859375
1761383390983933200,7.55793310546875,-1.2399139404296875,-0.4842071533203125,-0.283935546875
1761383390994002400,7.56800244140625,-1.2752685546875,-0.4967803955078125,-0.272247314453125
1761383391004072200,7.578072265625,-1.314697265625,-0.503387451171875,-0.247283935546875
1761383391014141400,7.588141357421875,-1.331024169921875,-0.5151214599609375,-0.2286224365234375
1761383391024211200,7.598211181640625,-1.3168487548828125,-0.515838623046875,-0.2021026611328125
1761383391034281200,7.60828125,-1.305328369140625,-0.514373779296875,-0.168182373046875
1761383391044350500,7.6183505859375,-1.323486328125,-0.527435302734375,-0.13818359375
1761383391054420200,7.628420166015625,-1.321380615234375,-0.5356597900390625,-0.133453369140625
1761383391064490200,7.638490234375,-1.29248046875,-0.5279388427734375,-0.146728515625
1761383391074559200,7.648559326171875,-1.2638702392578125,-0.516754150390625,-0.161468505859375
1761383391084629200,7.658629150390625,-1.2397613525390625,-0.5148468017578125,-0.1666107177734375
1761383391094699300,7.66869921875,-1.208282470703125,-0.5090179443359375,-0.170318603515625
1761383391104768300,7.678768310546875,-1.164398193359375,-0.50714111328125,-0.167724609375
1761383391114838300,7.68883837890625,-1.102142333984375,-0.506195068359375,-0.1637115478515625
1761383391124908300,7.698908203125,-1.02587890625,-0.503662109375,-0.1507720947265625
1761383391134977300,7.708977294921875,-0.9429473876953125,-0.4990234375,-0.1238250732421875
1761383391145047300,7.71904736328125,-0.8673095703125,-0.48944091796875,-0.088287353515625
1761383391155117300,7.729117431640625,-0.7982025146484375,-0.47113037109375,-0.048919677734375
1761383391165186000,7.73918603515625,-0.7296142578125,-0.440826416015625,-0.0111541748046875
1761383391175256300,7.74925634765625,-0.67901611328125,-0.4055938720703125,0.026275634765625
1761383391185326300,7.759326416015625,-0.649810791015625,-0.3636627197265625,0.0571441650390625
1761383391195395300,7.769395263671875,-0.637054443359375,-0.3182525634765625,0.0820465087890625
1761383391205465300,7.77946533203125,-0.60748291015625,-0.283416748046875,0.1020355224609375
1761383391215534300,7.789534423828125,-0.5789031982421875,-0.2709197998046875,0.1209259033203125
1761383391225604400,7.799604248046875,-0.57550048828125,-0.282379150390625,0.1351165771484375
1761383391235674400,7.80967431640625,-0.5934295654296875,-0.29229736328125,0.14788818359375
1761383391245743400,7.819743408203125,-0.6172943115234375,-0.284698486328125,0.1587066650390625
1761383391255813400,7.8298134765625,-0.632476806640625,-0.269989013671875,0.17047119140625
1761383391265883100,7.839883056640625,-0.6625518798828125,-0.2583160400390625,0.1826171875
1761383391275952400,7.849952392578125,-0.7086944580078125,-0.2537384033203125,0.202972412109375
1761383391286022100,7.860022216796875,-0.7513427734375,-0.2458343505859375,0.2195587158203125
1761383391296092200,7.870092041015625,-0.795562744140625,-0.221588134765625,0.2238922119140625
1761383391306161400,7.880161376953125,-0.82879638671875,-0.206695556640625,0.217376708984375
1761383391316231200,7.890231201171875,-0.8534088134765625,-0.2122039794921875,0.22161865234375
1761383391326301400,7.900301513671875,-0.8668975830078125,-0.2174224853515625,0.23443603515625
1761383391336370200,7.9103701171875,-0.88720703125,-0.2152557373046875,0.249359130859375
1761383391346440200,7.920440185546875,-0.914093017578125,-0.2225189208984375,0.2759552001953125
1761383391356510500,7.930510498046875,-0.9500274658203125,-0.2328948974609375,0.30560302734375
1761383391366579200,7.9405791015625,-1.0170135498046875,-0.2366790771484375,0.3368072509765625
1761383391376649500,7.9506494140625,-1.0936431884765625,-0.2486114501953125,0.3580780029296875
1761383391386719200,7.96071923828125,-1.161407470703125,-0.2498626708984375,0.3628082275390625
1761383391396788500,7.97078857421875,-1.23779296875,-0.2483367919921875,0.3613128662109375
1761383391406858200,7.980858154296875,-1.2863922119140625,-0.26031494140625,0.33953857421875
1761383391416927200,7.99092724609375,-1.3205413818359375,-0.262664794921875,0.29693603515625
1761383391426997200,8.000997314453125,-1.3430633544921875,-0.2565460205078125,0.2350311279296875
1761383391437067300,8.0110673828125,-1.3522796630859375,-0.261383056640625,0.1740570068359375
1761383391447136500,8.021136474609374,-1.341796875,-0.2811737060546875,0.1241607666015625
1761383391457206300,8.031206298828126,-1.3308258056640625,-0.3121490478515625,0.0874786376953125
1761383391467276300,8.0412763671875,-1.3170013427734375,-0.3548583984375,0.0650634765625
1761383391477345300,8.05134521484375,-1.294525146484375,-0.394287109375,0.0396881103515625
1761383391487415300,8.061415283203125,-1.2791748046875,-0.4163970947265625,0.0217437744140625
1761383391497485300,8.0714853515625,-1.25885009765625,-0.4237823486328125,0.0043792724609375
1761383391507554300,8.08155419921875,-1.244720458984375,-0.424163818359375,-0.01324462890625
1761383391517624300,8.091624267578124,-1.224334716796875,-0.420379638671875,-0.0294952392578125
1761383391527694300,8.1016943359375,-1.1594085693359375,-0.37933349609375,-0.0620269775390625
1761383391537763300,8.111763427734376,-1.0248565673828125,-0.3111572265625,-0.098358154296875
1761383391547833000,8.1218330078125,-1.17681884765625,-0.466552734375,-0.0460052490234375
1761383391557903400,8.1319033203125,-1.12335205078125,-0.46923828125,-0.0581207275390625
1761383391567972000,8.14197216796875,-0.9670562744140625,-0.3957977294921875,-0.113433837890625
1761383391578042400,8.15204248046875,-0.9156036376953125,-0.4035797119140625,-0.1454010009765625
1761383391588111400,8.162111328125,-0.8821563720703125,-0.4326934814453125,-0.152923583984375
1761383391598181000,8.17218115234375,-0.820526123046875,-0.4325103759765625,-0.15692138671875
1761383391608251400,8.18225146484375,-0.737884521484375,-0.4184417724609375,-0.165252685546875
1761383391618320100,8.192320068359376,-0.6792755126953125,-0.3995513916015625,-0.1629791259765625
1761383391628390400,8.202390380859375,-0.6750946044921875,-0.3857574462890625,-0.1404571533203125
1761383391638460400,8.21246044921875,-0.6892242431640625,-0.3692474365234375,-0.1177215576171875
1761383391648529400,8.222529296875,-0.6806793212890625,-0.333160400390625,-0.1160430908203125
1761383391658599400,8.232599365234375,-0.6760101318359375,-0.2962188720703125,-0.134979248046875
1761383391668669200,8.242669189453125,-0.6677093505859375,-0.2738494873046875,-0.1651763916015625
1761383391678738400,8.252738525390624,-0.678009033203125,-0.260498046875,-0.1889495849609375
1761383391688808200,8.26280810546875,-0.7101898193359375,-0.2587890625,-0.187225341796875
1761383391698878200,8.272878173828126,-0.7554168701171875,-0.251312255859375,-0.1703643798828125
1761383391708947200,8.282947265625,-0.782379150390625,-0.250885009765625,-0.152099609375
1761383391719017200,8.293017333984375,-0.78558349609375,-0.301483154296875,-0.1378173828125
1761383391729087200,8.303087158203125,-0.8055877685546875,-0.3684844970703125,-0.145751953125
1761383391739156200,8.31315625,-0.8841552734375,-0.3920440673828125,-0.1699676513671875
1761383391749226200,8.323226318359374,-0.994873046875,-0.3944854736328125,-0.1957855224609375
1761383391759296300,8.333296142578124,-1.0251007080078125,-0.4121856689453125,-0.228790283203125
1761383391769365200,8.343365234375,-1.0456695556640625,-0.412933349609375,-0.2713623046875
1761383391779435500,8.353435546875,-1.0650177001953125,-0.36419677734375,-0.317626953125
1761383391789504300,8.363504150390625,-1.0629730224609375,-0.296539306640625,-0.3638153076171875
1761383391799574300,8.37357421875,-1.0490875244140625,-0.23712158203125,-0.4132537841796875
1761383391809644300,8.383644287109375,-1.0103759765625,-0.206939697265625,-0.42486572265625
1761383391819713300,8.39371337890625,-0.9788360595703125,-0.2213897705078125,-0.393798828125
1761383391829783300,8.403783203125,-0.973846435546875,-0.267791748046875,-0.346649169921875
1761383391839853300,8.413853271484374,-0.988677978515625,-0.3202056884765625,-0.2969207763671875
1761383391849922300,8.42392236328125,-0.9819183349609375,-0.3781280517578125,-0.2397003173828125
1761383391859992300,8.433992431640625,-0.933837890625,-0.4370269775390625,-0.178924560546875
1761383391870062300,8.444062255859375,-0.8849334716796875,-0.4765167236328125,-0.151580810546875
1761383391880131300,8.45413134765625,-0.845184326171875,-0.497772216796875,-0.1668243408203125
1761383391890201300,8.464201416015625,-0.7898406982421875,-0.5330047607421875,-0.1767120361328125
1761383391900271000,8.47427099609375,-0.7752532958984375,-0.584442138671875,-0.1526031494140625
1761383391910340400,8.48434033203125,-0.818511962890625,-0.6246185302734375,-0.124908447265625
1761383391920410400,8.494410400390626,-0.8571929931640625,-0.6500091552734375,-0.08111572265625
1761383391930479400,8.504479248046875,-0.895721435546875,-0.6539154052734375,-0.0167236328125
1761383391940549400,8.51454931640625,-0.909210205078125,-0.6310577392578125,0.03857421875
1761383391950619400,8.524619384765625,-0.9086761474609375,-0.5930633544921875,0.0800323486328125
1761383391960688600,8.534688720703125,-0.917694091796875,-0.5503082275390625,0.1115570068359375
1761383391970758400,8.54475830078125,-0.9271240234375,-0.510711669921875,0.1345977783203125
1761383391980828400,8.554828369140624,-0.937347412109375,-0.486724853515625,0.155059814453125
1761383391990897400,8.5648974609375,-0.9479217529296875,-0.4815673828125,0.16357421875
1761383392000967400,8.574967529296876,-0.945098876953125,-0.4691009521484375,0.141387939453125
1761383392011037700,8.58503759765625,-0.917999267578125,-0.4336090087890625,0.091827392578125
1761383392021106400,8.5951064453125,-0.900482177734375,-0.399993896484375,0.043731689453125
1761383392031176400,8.605176513671875,-0.873077392578125,-0.397216796875,-0.0123443603515625
1761383392041246700,8.615246826171875,-0.82977294921875,-0.3941650390625,-0.056182861328125
1761383392051315500,8.6253154296875,-0.7985076904296875,-0.3789520263671875,-0.079315185546875
1761383392061385700,8.6353857421875,-0.8033447265625,-0.37176513671875,-0.07037353515625
1761383392071455500,8.64545556640625,-0.8109130859375,-0.3654022216796875,-0.0443115234375
1761383392081524700,8.655524658203126,-0.77960205078125,-0.3424224853515625,-0.0172119140625
1761383392091594500,8.665594482421875,-0.745452880859375,-0.308807373046875,0.0048065185546875
1761383392101663500,8.67566357421875,-0.7211456298828125,-0.293060302734375,0.03082275390625
1761383392111733500,8.6857333984375,-0.702850341796875,-0.2987060546875,0.059814453125
1761383392121803500,8.695803466796875,-0.6822509765625,-0.313751220703125,0.07989501953125
1761383392131872800,8.705872802734374,-0.6690216064453125,-0.32843017578125,0.097625732421875
1761383392141942500,8.715942626953124,-0.684722900390625,-0.3455810546875,0.123626708984375
1761383392152010500,8.726010498046875,-0.7020721435546875,-0.3649444580078125,0.1508026123046875
1761383392162079500,8.73607958984375,-0.721588134765625,-0.3854827880859375,0.175506591796875
1761383392172149500,8.7461494140625,-0.7516632080078125,-0.41546630859375,0.2018280029296875
1761383392182218500,8.756218505859374,-0.8217926025390625,-0.43359375,0.2252960205078125
1761383392192288500,8.76628857421875,-0.903106689453125,-0.431549072265625,0.2394561767578125
1761383392202358500,8.776358642578124,-0.966156005859375,-0.44635009765625,0.25299072265625
1761383392212427500,8.786427490234376,-1.006622314453125,-0.475677490234375,0.2477569580078125
1761383392222497500,8.79649755859375,-1.04388427734375,-0.483856201171875,0.2181549072265625
1761383392232567600,8.806567626953125,-1.0793609619140625,-0.48553466796875,0.193603515625
1761383392242636500,8.816636474609375,-1.114227294921875,-0.48797607421875,0.1852569580078125
1761383392252706600,8.82670654296875,-1.144927978515625,-0.4728546142578125,0.1780853271484375
1761383392262776600,8.836776611328125,-1.1718597412109375,-0.4477081298828125,0.167694091796875
1761383392272845600,8.846845458984374,-1.1943817138671875,-0.4280242919921875,0.156982421875
1761383392282915600,8.85691552734375,-1.216888427734375,-0.4122772216796875,0.1361846923828125
1761383392292985300,8.8669853515625,-1.2415771484375,-0.4052734375,0.1142578125
1761383392303054600,8.8770546875,-1.2796478271484375,-0.4055938720703125,0.0965423583984375
1761383392313124400,8.887124267578125,-1.33135986328125,-0.4098968505859375,0.069854736328125
1761383392323193600,8.897193603515625,-1.34527587890625,-0.40484619140625,0.018341064453125
1761383392333263600,8.907263671875,-1.327301025390625,-0.3779144287109375,-0.043792724609375
1761383392343333400,8.91733349609375,-1.2988433837890625,-0.3449859619140625,-0.0916290283203125
1761383392353402600,8.927402587890626,-1.27301025390625,-0.348602294921875,-0.1340789794921875
1761383392363472400,8.937472412109376,-1.22308349609375,-0.39569091796875,-0.19744873046875
1761383392373542700,8.947542724609375,-1.139373779296875,-0.396881103515625,-0.253753662109375
1761383392383611400,8.957611328125,-1.0603179931640625,-0.3679351806640625,-0.301422119140625
1761383392393681400,8.967681396484375,-1.01513671875,-0.3533782958984375,-0.33642578125
1761383392403751700,8.977751708984375,-0.9647064208984375,-0.354766845703125,-0.35882568359375
1761383392413820400,8.9878203125,-0.886322021484375,-0.340362548828125,-0.372039794921875
1761383392423890700,8.997890625,-0.7989044189453125,-0.314056396484375,-0.366729736328125
1761383392433960400,9.00796044921875,-0.728729248046875,-0.293731689453125,-0.337677001953125
1761383392444029700,9.01802978515625,-0.6828460693359375,-0.2806854248046875,-0.2971038818359375
1761383392454099500,9.028099365234375,-0.6456298828125,-0.266876220703125,-0.253753662109375
1761383392464168400,9.03816845703125,-0.614013671875,-0.2493896484375,-0.2198638916015625
1761383392474238700,9.04823876953125,-0.5900115966796875,-0.241973876953125,-0.194000244140625
1761383392484308500,9.05830859375,-0.570526123046875,-0.24554443359375,-0.180084228515625
1761383392494377700,9.068377685546874,-0.554046630859375,-0.25103759765625,-0.1744842529296875
1761383392504447500,9.078447509765626,-0.530487060546875,-0.2479400634765625,-0.179779052734375
1761383392514517500,9.088517578125,-0.514495849609375,-0.230621337890625,-0.1977081298828125
1761383392524586500,9.09858642578125,-0.5042724609375,-0.2079010009765625,-0.220794677734375
1761383392534656500,9.108656494140625,-0.516204833984375,-0.2114105224609375,-0.2237396240234375
1761383392544726500,9.1187265625,-0.5658721923828125,-0.264892578125,-0.1970977783203125
1761383392554795500,9.12879541015625,-0.633148193359375,-0.3336639404296875,-0.154449462890625
1761383392564865500,9.138865478515624,-0.6806182861328125,-0.349151611328125,-0.147186279296875
1761383392574935600,9.148935546875,-0.7191925048828125,-0.3045501708984375,-0.1772918701171875
1761383392585004500,9.159004638671876,-0.7745361328125,-0.2743072509765625,-0.2177276611328125
1761383392595074600,9.169074462890626,-0.8284912109375,-0.302215576171875,-0.252471923828125
1761383392605143600,9.1791435546875,-0.882049560546875,-0.3616943359375,-0.2738037109375
1761383392615213600,9.189213623046875,-0.9351043701171875,-0.380706787109375,-0.29730224609375
1761383392625283600,9.19928369140625,-0.984710693359375,-0.3597564697265625,-0.3247833251953125
1761383392635352600,9.2093525390625,-1.036590576171875,-0.36138916015625,-0.32965087890625
1761383392645422300,9.21942236328125,-1.0796661376953125,-0.395477294921875,-0.3170013427734375
1761383392655492600,9.22949267578125,-1.1147613525390625,-0.4205780029296875,-0.3134918212890625
1761383392665561300,9.239561279296876,-1.108123779296875,-0.434906005859375,-0.3195037841796875
1761383392675631600,9.249631591796875,-1.086090087890625,-0.436492919921875,-0.33349609375
1761383392685701600,9.25970166015625,-1.096343994140625,-0.43695068359375,-0.3350067138671875
1761383392695770600,9.2697705078125,-1.116058349609375,-0.475921630859375,-0.3014984130859375
1761383392705840600,9.279840576171875,-1.127593994140625,-0.5273895263671875,-0.254852294921875
1761383392715910400,9.289910400390625,-1.12408447265625,-0.5634613037109375,-0.2213897705078125
1761383392725979600,9.299979736328124,-1.1023101806640625,-0.5938262939453125,-0.199737548828125
1761383392736049700,9.310049560546876,-1.078216552734375,-0.6060943603515625,-0.1915740966796875
1761383392746118700,9.32011865234375,-1.0633544921875,-0.5926666259765625,-0.19451904296875
1761383392756188700,9.330188720703125,-1.0529937744140625,-0.557769775390625,-0.2029571533203125
1761383392766258400,9.340258544921875,-1.02276611328125,-0.509521484375,-0.20611572265625
1761383392776327700,9.35032763671875,-0.999603271484375,-0.459320068359375,-0.1806488037109375
1761383392786398700,9.360398681640625,-1.0125732421875,-0.4283905029296875,-0.12908935546875
1761383392796467500,9.370467529296874,-1.008056640625,-0.3995513916015625,-0.0830230712890625
1761383392806537700,9.380537841796874,-0.9729461669921875,-0.354156494140625,-0.060150146484375
1761383392816607500,9.390607421875,-0.9310455322265625,-0.3141632080078125,-0.0476531982421875
1761383392826676500,9.400676513671876,-0.886474609375,-0.3024444580078125,-0.0436248779296875
1761383392836746500,9.41074658203125,-0.8477325439453125,-0.3053131103515625,-0.0548858642578125
1761383392846816500,9.42081640625,-0.8041839599609375,-0.3060150146484375,-0.079315185546875
1761383392856885500,9.430885498046875,-0.7502899169921875,-0.3061065673828125,-0.1009368896484375
1761383392866955500,9.44095556640625,-0.7081756591796875,-0.3014678955078125,-0.1173095703125
1761383392877024800,9.451024658203124,-0.675872802734375,-0.296356201171875,-0.1212158203125
1761383392887094500,9.461094482421874,-0.6547698974609375,-0.3026123046875,-0.1145782470703125
1761383392897164500,9.47116455078125,-0.644195556640625,-0.320770263671875,-0.0978851318359375
1761383392907233500,9.481233642578125,-0.6612701416015625,-0.3389434814453125,-0.0750579833984375
1761383392917303600,9.491303466796875,-0.7244415283203125,-0.3404998779296875,-0.0504608154296875
1761383392927373600,9.50137353515625,-0.7584228515625,-0.332305908203125,-0.04443359375
1761383392937442600,9.511442626953125,-0.76116943359375,-0.318756103515625,-0.04541015625
1761383392947513300,9.521513427734375,-0.7666168212890625,-0.3102874755859375,-0.0453033447265625
1761383392957583000,9.5315830078125,-0.773345947265625,-0.347625732421875,-0.0258941650390625
1761383392967652400,9.54165234375,-0.7906646728515625,-0.3890380859375,0.0049591064453125
1761383392977722000,9.55172216796875,-0.8428497314453125,-0.381500244140625,0.030670166015625
1761383392987792100,9.561792236328126,-0.860321044921875,-0.37738037109375,0.0533599853515625
1761383392997861400,9.571861328125,-0.8457794189453125,-0.3948211669921875,0.075653076171875
1761383393007931100,9.58193115234375,-0.885955810546875,-0.4114227294921875,0.0909271240234375
1761383393018000400,9.59200048828125,-0.982757568359375,-0.4144287109375,0.08697509765625
1761383393028070100,9.602070068359374,-1.04241943359375,-0.4051513671875,0.0689239501953125
1761383393038140400,9.612140380859374,-1.0637359619140625,-0.3919219970703125,0.043701171875
1761383393048209200,9.622209228515626,-1.0986480712890625,-0.3778533935546875,0.0242919921875
1761383393058279200,9.632279052734376,-1.1591339111328125,-0.36712646484375,0.007232666015625
1761383393068349400,9.642349365234375,-1.1902008056640625,-0.356201171875,-0.00390625
1761383393078418200,9.652418212890625,-1.2006072998046875,-0.3434295654296875,-0.0198822021484375
1761383393088488400,9.662488525390625,-1.216094970703125,-0.33953857421875,-0.0430450439453125
1761383393098558200,9.67255810546875,-1.211334228515625,-0.34954833984375,-0.06463623046875
1761383393108627200,9.682627197265624,-1.2088775634765625,-0.36083984375,-0.0770263671875
1761383393118697200,9.692697265625,-1.224090576171875,-0.3706817626953125,-0.076416015625
1761383393128766200,9.70276611328125,-1.238861083984375,-0.38671875,-0.069580078125
1761383393138836500,9.71283642578125,-1.2495269775390625,-0.3922882080078125,-0.075592041015625
1761383393148906200,9.72290625,-1.2469635009765625,-0.3709259033203125,-0.0959930419921875
1761383393158975500,9.7329755859375,-1.2303466796875,-0.3394927978515625,-0.1279449462890625
1761383393169045200,9.743045166015625,-1.200653076171875,-0.3155670166015625,-0.158905029296875
1761383393179115300,9.753115234375,-1.1819610595703125,-0.3085479736328125,-0.1817626953125
1761383393189184300,9.763184326171874,-1.1600341796875,-0.3142852783203125,-0.1926422119140625
1761383393199254300,9.773254150390626,-1.137786865234375,-0.3329010009765625,-0.201507568359375
1761383393209324300,9.78332421875,-1.0922393798828125,-0.348724365234375,-0.2111358642578125
1761383393219393300,9.793393310546875,-1.0189208984375,-0.342529296875,-0.219390869140625
1761383393229463300,9.80346337890625,-0.9429473876953125,-0.320831298828125,-0.2267608642578125
1761383393239532300,9.8135322265625,-0.8593902587890625,-0.2879791259765625,-0.2254180908203125
1761383393249602300,9.823602294921875,-0.7761383056640625,-0.2522125244140625,-0.213043212890625
1761383393259672300,9.83367236328125,-0.710906982421875,-0.2223358154296875,-0.190765380859375
1761383393269741300,9.8437412109375,-0.675750732421875,-0.20245361328125,-0.1648712158203125
1761383393279811300,9.853811279296876,-0.674652099609375,-0.19110107421875,-0.137939453125
1761383393289881300,9.86388134765625,-0.7011871337890625,-0.179718017578125,-0.121795654296875
1761383393299950300,9.873950439453125,-0.7409820556640625,-0.1728057861328125,-0.1189422607421875
1761383393310020000,9.88402001953125,-0.7557830810546875,-0.1636810302734375,-0.1423187255859375
1761383393320090400,9.89409033203125,-0.738250732421875,-0.1427154541015625,-0.19677734375
1761383393330159000,9.9041591796875,-0.7086944580078125,-0.118682861328125,-0.25299072265625
1761383393340229400,9.9142294921875,-0.703094482421875,-0.107421875,-0.290924072265625
1761383393350299400,9.92429931640625,-0.73907470703125,-0.1034088134765625,-0.315277099609375
1761383393360368000,9.9343681640625,-0.776763916015625,-0.1022796630859375,-0.32208251953125
1761383393370438400,9.9444384765625,-0.80426025390625,-0.1269683837890625,-0.2931976318359375
1761383393380507100,9.954507080078125,-0.8098907470703125,-0.2012786865234375,-0.2252044677734375
1761383393390577400,9.964577392578125,-0.817779541015625,-0.2692413330078125,-0.177734375
1761383393400647400,9.9746474609375,-0.8857574462890625,-0.256317138671875,-0.1887359619140625
1761383393410716400,9.98471630859375,-1.037017822265625,-0.2351226806640625,-0.17401123046875
1761383393420786400,9.994786376953124,-1.198516845703125,-0.28643798828125,-0.111419677734375
1761383393430856200,10.004856201171876,-1.32769775390625,-0.3394317626953125,-0.0983123779296875
1761383393440925400,10.014925537109375,-1.3602752685546875,-0.3151092529296875,-0.1610107421875
1761383393450995200,10.0249951171875,-1.3375701904296875,-0.2464447021484375,-0.2440338134765625
1761383393461065200,10.035065185546875,-1.27972412109375,-0.1902008056640625,-0.33294677734375
1761383393471134200,10.04513427734375,-1.280609130859375,-0.126495361328125,-0.42437744140625
1761383393481204200,10.055204345703125,-1.3140869140625,-0.058135986328125,-0.4976806640625
1761383393491273500,10.0652734375,-1.3076019287109375,-0.0272979736328125,-0.533477783203125
1761383393501343200,10.07534326171875,-1.2986907958984375,-0.0354766845703125,-0.508941650390625
1761383393511413200,10.085413330078126,-1.2293701171875,-0.094329833984375,-0.4233551025390625
1761383393521482200,10.095482177734375,-1.1501617431640625,-0.20391845703125,-0.300811767578125
1761383393531552300,10.10555224609375,-1.091064453125,-0.3358001708984375,-0.1495819091796875
1761383393541622500,10.11562255859375,-1.01763916015625,-0.4724884033203125,-0.0028533935546875
1761383393551691300,10.125691162109375,-0.9447174072265625,-0.6153411865234375,0.1037445068359375
1761383393561761300,10.13576123046875,-0.92913818359375,-0.740264892578125,0.1593170166015625
1761383393571831300,10.145831298828124,-0.9683685302734375,-0.7992401123046875,0.183349609375
1761383393581900300,10.155900390625,-1.0214385986328125,-0.7647552490234375,0.1970977783203125
1761383393591970300,10.16597021484375,-1.071563720703125,-0.65826416015625,0.19976806640625
1761383393602039300,10.176039306640625,-1.1359710693359375,-0.5320281982421875,0.1866302490234375
1761383393612109300,10.186109375,-1.2221832275390625,-0.4227294921875,0.1605987548828125
1761383393622179300,10.196179443359375,-1.2886810302734375,-0.3299102783203125,0.12054443359375
1761383393632248300,10.206248291015624,-1.305572509765625,-0.2401885986328125,0.0709686279296875
1761383393642318300,10.216318359375,-1.2887725830078125,-0.170562744140625,0.02569580078125
1761383393652388400,10.226388427734374,-1.2573699951171875,-0.1373443603515625,-0.017181396484375
1761383393662457300,10.236457275390626,-1.1798248291015625,-0.11566162109375,-0.0561676025390625
1761383393672527400,10.24652734375,-1.0970611572265625,-0.089630126953125,-0.1024627685546875
1761383393682597400,10.256597412109375,-1.029388427734375,-0.075347900390625,-0.1397552490234375
1761383393692666400,10.266666259765625,-0.9719390869140625,-0.0798797607421875,-0.165618896484375
1761383393702736400,10.276736328125,-0.9112548828125,-0.0858917236328125,-0.169586181640625
1761383393712805400,10.286805419921874,-0.870941162109375,-0.0958251953125,-0.155059814453125
1761383393722875400,10.29687548828125,-0.841156005859375,-0.10626220703125,-0.1417694091796875
1761383393732945200,10.306945068359376,-0.8332366943359375,-0.106689453125,-0.12689208984375
1761383393743014400,10.317014404296875,-0.8359222412109375,-0.0944061279296875,-0.101898193359375
1761383393753084200,10.327084228515625,-0.85992431640625,-0.082916259765625,-0.0663299560546875
1761383393763154200,10.337154296875,-0.8727264404296875,-0.0860137939453125,-0.034698486328125
1761383393773223400,10.347223388671875,-0.859039306640625,-0.0954132080078125,-0.0101318359375
1761383393783293200,10.357293212890625,-0.8398590087890625,-0.110931396484375,0.0064239501953125
1761383393793363500,10.367363525390624,-0.8302764892578125,-0.135894775390625,0.007598876953125
1761383393803432200,10.37743212890625,-0.839996337890625,-0.151641845703125,-0.0004730224609375
1761383393813502200,10.387502197265626,-0.8586273193359375,-0.152801513671875,-0.0106353759765625
1761383393823571200,10.3975712890625,-0.85833740234375,-0.147369384765625,-0.026641845703125
1761383393833641200,10.40764111328125,-0.8468475341796875,-0.1486053466796875,-0.041473388671875
1761383393843711500,10.41771142578125,-0.839111328125,-0.1678924560546875,-0.0482177734375
1761383393853780200,10.4277802734375,-0.833770751953125,-0.20574951171875,-0.033905029296875
1761383393863850200,10.437850341796874,-0.85162353515625,-0.2535247802734375,0.00164794921875
1761383393873920300,10.447920166015624,-0.8892669677734375,-0.2923431396484375,0.0335235595703125
1761383393883989200,10.4579892578125,-0.9232177734375,-0.2977447509765625,0.03802490234375
1761383393894059300,10.468059326171876,-0.9413299560546875,-0.272674560546875,0.023162841796875
1761383393904128300,10.478128173828125,-0.96160888671875,-0.2551116943359375,0.018585205078125
1761383393914198300,10.4881982421875,-1.00140380859375,-0.2728729248046875,0.0350799560546875
1761383393924268300,10.498268310546875,-1.0386810302734375,-0.3013763427734375,0.050384521484375
1761383393934337300,10.508337158203124,-1.03729248046875,-0.3129730224609375,0.0368499755859375
1761383393944407300,10.5184072265625,-1.0214996337890625,-0.3053741455078125,0.007537841796875
1761383393954478000,10.52847802734375,-1.0002899169921875,-0.3011322021484375,-0.0228424072265625
1761383393964546800,10.538546875,-0.99237060546875,-0.308624267578125,-0.0369720458984375
1761383393974617000,10.5486171875,-1.00439453125,-0.32110595703125,-0.022552490234375
1761383393984687000,10.55868701171875,-1.022064208984375,-0.3445281982421875,0.0109710693359375
1761383393994756000,10.568756103515625,-1.0588226318359375,-0.368408203125,0.0687103271484375
1761383394004826000,10.578826171875,-1.09039306640625,-0.3896331787109375,0.12548828125
1761383394014894800,10.588894775390624,-1.105865478515625,-0.4056243896484375,0.162689208984375
1761383394024965000,10.598965087890624,-1.1215362548828125,-0.4103546142578125,0.1823577880859375
1761383394035035100,10.60903515625,-1.1367645263671875,-0.4052734375,0.18536376953125
1761383394045104000,10.619104248046876,-1.152008056640625,-0.39605712890625,0.1801910400390625
1761383394055174100,10.629174072265625,-1.150177001953125,-0.383941650390625,0.16650390625
1761383394065244000,10.639243896484375,-1.1337738037109375,-0.3707275390625,0.148223876953125
1761383394075313200,10.649313232421875,-1.1133880615234375,-0.357940673828125,0.129302978515625
1761383394085383000,10.6593828125,-1.08343505859375,-0.34429931640625,0.1017303466796875
1761383394095453000,10.669452880859374,-1.0553131103515625,-0.3239288330078125,0.0677337646484375
1761383394105522000,10.67952197265625,-1.024993896484375,-0.3035125732421875,0.0448150634765625
1761383394115592000,10.689592041015626,-0.9902496337890625,-0.2913055419921875,0.0319366455078125
1761383394125661200,10.6996611328125,-0.9741668701171875,-0.2967681884765625,0.0350341796875
1761383394135731000,10.70973095703125,-0.9509124755859375,-0.30657958984375,0.0428314208984375
1761383394145801000,10.719801025390625,-0.923919677734375,-0.3067169189453125,0.04412841796875
1761383394155870000,10.729869873046875,-0.912445068359375,-0.3023529052734375,0.0471038818359375
1761383394165940000,10.73993994140625,-0.888824462890625,-0.3040618896484375,0.0535736083984375
1761383394176010200,10.75001025390625,-0.8478546142578125,-0.3100738525390625,0.052520751953125
1761383394186079000,10.760078857421876,-0.825164794921875,-0.31219482421875,0.0535430908203125
1761383394196149000,10.77014892578125,-0.81390380859375,-0.31317138671875,0.0541839599609375
1761383394206218000,10.780218017578125,-0.807342529296875,-0.3118896484375,0.052093505859375
1761383394216288000,10.7902880859375,-0.808135986328125,-0.3188323974609375,0.057708740234375
1761383394226358000,10.80035791015625,-0.812774658203125,-0.3372955322265625,0.068634033203125
1761383394236427000,10.810427001953125,-0.815032958984375,-0.34783935546875,0.0793609619140625
1761383394246497000,10.8204970703125,-0.812774658203125,-0.3490753173828125,0.0836334228515625
1761383394256567000,10.830567138671874,-0.826416015625,-0.348419189453125,0.09716796875
1761383394266636000,10.840635986328126,-0.84027099609375,-0.3445587158203125,0.1142578125
1761383394276706000,10.8507060546875,-0.85040283203125,-0.343017578125,0.128173828125
1761383394286776000,10.860776123046875,-0.8733978271484375,-0.3428955078125,0.1313629150390625
1761383394296845000,10.870844970703125,-0.9072265625,-0.338531494140625,0.1267852783203125
1761383394306915000,10.8809150390625,-0.94329833984375,-0.3302459716796875,0.121429443359375
1761383394316984000,10.890984130859374,-0.9688568115234375,-0.326446533203125,0.1117095947265625
1761383394327054000,10.90105419921875,-0.9791412353515625,-0.3244781494140625,0.0972137451171875
1761383394337124000,10.9111240234375,-0.986663818359375,-0.3078155517578125,0.06939697265625
1761383394347193000,10.921193115234376,-0.994873046875,-0.2908477783203125,0.034454345703125
1761383394357263000,10.93126318359375,-1.002960205078125,-0.286224365234375,0.001129150390625
1761383394367332900,10.941332763671875,-1.001556396484375,-0.2877349853515625,-0.03155517578125
1761383394377402000,10.951402099609375,-0.9804229736328125,-0.2970123291015625,-0.0618896484375
1761383394387472100,10.96147216796875,-0.9701690673828125,-0.3027801513671875,-0.0746612548828125
1761383394397541000,10.971541015625,-0.9629974365234375,-0.2987823486328125,-0.0655059814453125
1761383394407611100,10.981611083984374,-0.9516754150390625,-0.2922515869140625,-0.0532684326171875
1761383394417681000,10.991680908203126,-0.9622650146484375,-0.29571533203125,-0.0322113037109375
1761383394427750100,11.001750244140625,-0.960601806640625,-0.3141632080078125,-0.003631591796875
1761383394437820000,11.01181982421875,-0.94622802734375,-0.3350677490234375,0.0220184326171875
1761383394447890000,11.021889892578125,-0.9392547607421875,-0.3542022705078125,0.0496978759765625
1761383394457959000,11.031958984375,-0.948028564453125,-0.3677978515625,0.084686279296875
1761383394468029000,11.04202880859375,-0.95062255859375,-0.3790130615234375,0.1140289306640625
1761383394478099200,11.05209912109375,-0.9583740234375,-0.394805908203125,0.13800048828125
1761383394488168000,11.06216796875,-0.988494873046875,-0.40606689453125,0.1605377197265625
1761383394498238200,11.07223828125,-1.003082275390625,-0.409515380859375,0.1740570068359375
1761383394508307000,11.082306884765625,-0.9986419677734375,-0.40179443359375,0.1756134033203125
1761383394518377000,11.092376953125,-0.9972991943359375,-0.3846282958984375,0.1664276123046875
1761383394528447200,11.102447265625,-0.993255615234375,-0.367767333984375,0.1495513916015625
1761383394538516000,11.112515869140625,-0.983154296875,-0.3510894775390625,0.1291961669921875
1761383394548586200,11.122586181640624,-0.97235107421875,-0.3429412841796875,0.1001434326171875
1761383394558656000,11.132656005859374,-0.9588775634765625,-0.3393707275390625,0.07452392578125
1761383394568725000,11.14272509765625,-0.9434814453125,-0.3325958251953125,0.05718994140625
1761383394578795000,11.152794921875,-0.9275665283203125,-0.3337249755859375,0.0421142578125
1761383394588864000,11.162864013671875,-0.909454345703125,-0.3527679443359375,0.0337371826171875
1761383394598934000,11.17293408203125,-0.8928375244140625,-0.3803253173828125,0.0307464599609375
1761383394609004000,11.183004150390625,-0.85467529296875,-0.3957977294921875,0.0272216796875
1761383394619073300,11.1930732421875,-0.855621337890625,-0.404327392578125,0.0379638671875
1761383394629143000,11.20314306640625,-0.8843231201171875,-0.4279327392578125,0.0420074462890625
1761383394639213000,11.213213134765626,-0.886627197265625,-0.4528656005859375,0.0267486572265625
1761383394649282000,11.223281982421875,-0.9139251708984375,-0.46087646484375,0.0288848876953125
1761383394659352000,11.23335205078125,-0.921783447265625,-0.461029052734375,0.0262451171875
1761383394669422000,11.243422119140625,-0.919525146484375,-0.4484100341796875,0.0191192626953125
1761383394679491000,11.253490966796875,-0.8987274169921875,-0.3992919921875,0.03216552734375
