time,seconds_elapsed,z,y,x
1761232080063700200,0.0687001953125,-0.9257659912109375,-0.4462890625,0.091461181640625
1761232080073769200,0.078769287109375,-0.9074859619140625,-0.4528961181640625,0.0866546630859375
1761232080083839200,0.088839111328125,-0.895355224609375,-0.457611083984375,0.0838470458984375
1761232080093908200,0.098908203125,-0.8810272216796875,-0.465576171875,0.0830230712890625
1761232080103978200,0.108978271484375,-0.871307373046875,-0.4682159423828125,0.0822906494140625
1761232080114047200,0.119047119140625,-0.87103271484375,-0.46527099609375,0.08135986328125
1761232080124117200,0.1291171875,-0.85626220703125,-0.46551513671875,0.0791168212890625
1761232080134186200,0.139186279296875,-0.8401947021484375,-0.465728759765625,0.0764007568359375
1761232080144256300,0.14925634765625,-0.83624267578125,-0.466644287109375,0.073150634765625
1761232080154325200,0.1593251953125,-0.849090576171875,-0.4728851318359375,0.0682525634765625
1761232080164395300,0.169395263671875,-0.8433837890625,-0.4770965576171875,0.0695037841796875
1761232080174464300,0.17946435546875,-0.8461151123046875,-0.4710845947265625,0.069976806640625
1761232080184534300,0.1895341796875,-0.8439178466796875,-0.465118408203125,0.0706024169921875
1761232080194603300,0.199603271484375,-0.840484619140625,-0.466094970703125,0.067535400390625
1761232080204672300,0.20967236328125,-0.83184814453125,-0.4629669189453125,0.063201904296875
1761232080214742300,0.2197421875,-0.826416015625,-0.4425506591796875,0.0697174072265625
1761232080224811300,0.229811279296875,-0.8513031005859375,-0.4363861083984375,0.0585174560546875
1761232080234881300,0.23988134765625,-0.8712158203125,-0.4456787109375,0.05682373046875
1761232080244950300,0.2499501953125,-0.8744964599609375,-0.44610595703125,0.0597076416015625
1761232080255020000,0.26002001953125,-0.8979034423828125,-0.451904296875,0.0545196533203125
1761232080265089300,0.27008935546875,-0.9188232421875,-0.45721435546875,0.0568389892578125
1761232080275159300,0.2801591796875,-0.93048095703125,-0.4604339599609375,0.056884765625
1761232080285228300,0.290228271484375,-0.930877685546875,-0.4592742919921875,0.056854248046875
1761232080295298300,0.30029833984375,-0.929351806640625,-0.45526123046875,0.058135986328125
1761232080305367300,0.3103671875,-0.924713134765625,-0.4554595947265625,0.0589599609375
1761232080315437300,0.320437255859375,-0.9232177734375,-0.459716796875,0.06591796875
1761232080325506300,0.33050634765625,-0.922271728515625,-0.465484619140625,0.0712432861328125
1761232080335576300,0.340576416015625,-0.92413330078125,-0.474273681640625,0.0755157470703125
1761232080345645300,0.350645263671875,-0.91741943359375,-0.4789581298828125,0.074798583984375
1761232080355715300,0.36071533203125,-0.9067535400390625,-0.476043701171875,0.0713348388671875
1761232080365784000,0.3707841796875,-0.9026641845703125,-0.47564697265625,0.068695068359375
1761232080375854300,0.380854248046875,-0.8913726806640625,-0.4831695556640625,0.065826416015625
1761232080385923000,0.390923095703125,-0.88238525390625,-0.49169921875,0.0623931884765625
1761232080395992300,0.400992431640625,-0.87152099609375,-0.499114990234375,0.060760498046875
1761232080406062300,0.411062255859375,-0.861236572265625,-0.5059814453125,0.059844970703125
1761232080416131300,0.42113134765625,-0.8613739013671875,-0.5088043212890625,0.06195068359375
1761232080426201300,0.431201416015625,-0.8592071533203125,-0.512847900390625,0.0660858154296875
1761232080436270300,0.441270263671875,-0.84991455078125,-0.5188140869140625,0.070343017578125
1761232080446340400,0.45134033203125,-0.846466064453125,-0.52630615234375,0.0709381103515625
1761232080456409000,0.4614091796875,-0.844757080078125,-0.53912353515625,0.0685577392578125
1761232080466479400,0.471479248046875,-0.8213653564453125,-0.550384521484375,0.0578460693359375
1761232080476548000,0.481548095703125,-0.806854248046875,-0.5525054931640625,0.05194091796875
1761232080486618400,0.491618408203125,-0.8117218017578125,-0.5532073974609375,0.05743408203125
1761232080496687000,0.50168701171875,-0.808929443359375,-0.5533447265625,0.056121826171875
1761232080506757400,0.51175732421875,-0.7964630126953125,-0.5406951904296875,0.0445098876953125
1761232080516826000,0.521826171875,-0.7998199462890625,-0.5191497802734375,0.031494140625
1761232080526896000,0.531896240234375,-0.7965240478515625,-0.5039520263671875,0.0213165283203125
1761232080536965400,0.54196533203125,-0.7861175537109375,-0.4976959228515625,0.023651123046875
1761232080547035100,0.55203515625,-0.775848388671875,-0.4939422607421875,0.02618408203125
1761232080557104400,0.5621044921875,-0.78179931640625,-0.49053955078125,0.027618408203125
1761232080567173000,0.572173095703125,-0.7966156005859375,-0.487335205078125,0.0435638427734375
1761232080577243400,0.582243408203125,-0.7971649169921875,-0.4921875,0.0643463134765625
1761232080587312000,0.59231201171875,-0.799285888671875,-0.5065460205078125,0.08209228515625
1761232080597382400,0.60238232421875,-0.78826904296875,-0.52618408203125,0.0898590087890625
1761232080607451100,0.612451171875,-0.778564453125,-0.530548095703125,0.099761962890625
1761232080617521400,0.622521484375,-0.797607421875,-0.5384521484375,0.1319732666015625
1761232080627590100,0.632590087890625,-0.7954559326171875,-0.5675201416015625,0.166656494140625
1761232080637660200,0.64266015625,-0.772430419921875,-0.6028289794921875,0.19183349609375
1761232080647729200,0.652729248046875,-0.7331390380859375,-0.6269073486328125,0.2053680419921875
1761232080657799200,0.662799072265625,-0.6975860595703125,-0.6398773193359375,0.2051544189453125
1761232080667868400,0.672868408203125,-0.677581787109375,-0.65509033203125,0.1945953369140625
1761232080677938200,0.682938232421875,-0.654998779296875,-0.6611480712890625,0.1844940185546875
1761232080688007400,0.69300732421875,-0.6521148681640625,-0.6528472900390625,0.1855926513671875
1761232080698077200,0.7030771484375,-0.6668548583984375,-0.640838623046875,0.1829681396484375
1761232080708146400,0.713146484375,-0.6482086181640625,-0.6183013916015625,0.17047119140625
1761232080718216200,0.72321630859375,-0.63531494140625,-0.57940673828125,0.1646575927734375
1761232080728285400,0.733285400390625,-0.5928955078125,-0.5464019775390625,0.1895599365234375
1761232080738354200,0.743354248046875,-0.7183837890625,-0.56854248046875,0.2471771240234375
1761232080748424200,0.753424072265625,-0.738677978515625,-0.5964508056640625,0.2323455810546875
1761232080758493200,0.7634931640625,-0.692657470703125,-0.5865325927734375,0.199615478515625
1761232080768563200,0.773563232421875,-0.6920318603515625,-0.568145751953125,0.1770477294921875
1761232080778632200,0.783632080078125,-0.6786651611328125,-0.5640411376953125,0.168548583984375
1761232080788702200,0.7937021484375,-0.6749267578125,-0.5630645751953125,0.1748809814453125
1761232080798771200,0.803771240234375,-0.6919708251953125,-0.57843017578125,0.1906585693359375
1761232080808841200,0.81384130859375,-0.704376220703125,-0.598663330078125,0.21685791015625
1761232080818910500,0.823910400390625,-0.690826416015625,-0.5777435302734375,0.2185821533203125
1761232080828980200,0.833980224609375,-0.6654510498046875,-0.5346527099609375,0.2058258056640625
1761232080839049200,0.84404931640625,-0.646514892578125,-0.4967498779296875,0.204437255859375
1761232080849119200,0.854119140625,-0.64630126953125,-0.4785308837890625,0.2095489501953125
1761232080859188200,0.864188232421875,-0.660308837890625,-0.4878997802734375,0.2150421142578125
1761232080869258200,0.87425830078125,-0.6943817138671875,-0.5026702880859375,0.2261962890625
1761232080879327200,0.8843271484375,-0.7223968505859375,-0.4919891357421875,0.2297515869140625
1761232080889397200,0.894397216796875,-0.7269439697265625,-0.4506683349609375,0.2110443115234375
1761232080899466200,0.90446630859375,-0.7491455078125,-0.3934326171875,0.194793701171875
1761232080909536300,0.914536376953125,-0.7762298583984375,-0.3587188720703125,0.1884613037109375
1761232080919605200,0.924605224609375,-0.7881622314453125,-0.356964111328125,0.1928558349609375
1761232080929674200,0.93467431640625,-0.789306640625,-0.3684234619140625,0.1992340087890625
1761232080939744300,0.944744140625,-0.799346923828125,-0.3736724853515625,0.20745849609375
1761232080949813200,0.954813232421875,-0.8224334716796875,-0.3752288818359375,0.2238616943359375
1761232080959883300,0.96488330078125,-0.840728759765625,-0.3924102783203125,0.2379608154296875
1761232080969952300,0.9749521484375,-0.8577423095703125,-0.4143829345703125,0.24359130859375
1761232080980022300,0.985022216796875,-0.8749847412109375,-0.4419097900390625,0.247589111328125
1761232080990091300,0.99509130859375,-0.8842620849609375,-0.4657745361328125,0.24517822265625
1761232081000161300,1.005161376953125,-0.882293701171875,-0.4788055419921875,0.2387237548828125
1761232081010230300,1.015230224609375,-0.8960723876953125,-0.4871978759765625,0.2348175048828125
1761232081020300000,1.025300048828125,-0.9343414306640625,-0.4864501953125,0.2182769775390625
1761232081030369300,1.035369384765625,-0.962066650390625,-0.47650146484375,0.1961517333984375
1761232081040439300,1.045439208984375,-0.9941558837890625,-0.485565185546875,0.1893768310546875
1761232081050508500,1.055508544921875,-1.0368194580078125,-0.5305328369140625,0.187835693359375
1761232081060578300,1.065578369140625,-1.036407470703125,-0.559051513671875,0.1685943603515625
1761232081070647600,1.0756474609375,-1.0121917724609375,-0.5409088134765625,0.135040283203125
1761232081080717300,1.08571728515625,-0.9707794189453125,-0.49810791015625,0.0978546142578125
1761232081090786600,1.09578662109375,-0.9261016845703125,-0.4525909423828125,0.0621337890625
1761232081100855300,1.105855224609375,-0.89056396484375,-0.41668701171875,0.0390777587890625
1761232081110925300,1.11592529296875,-0.875640869140625,-0.398956298828125,0.02911376953125
1761232081120994300,1.125994384765625,-0.8785552978515625,-0.4002532958984375,0.039306640625
1761232081131064300,1.136064208984375,-0.8848114013671875,-0.4138031005859375,0.069183349609375
1761232081141133300,1.14613330078125,-0.8680572509765625,-0.407135009765625,0.091033935546875
1761232081151203300,1.156203369140625,-0.8363494873046875,-0.3692779541015625,0.0959930419921875
1761232081161272300,1.166272216796875,-0.7925262451171875,-0.328216552734375,0.0901336669921875
1761232081171342300,1.17634228515625,-0.7497406005859375,-0.3009185791015625,0.085968017578125
1761232081181411600,1.18641162109375,-0.7205657958984375,-0.2887420654296875,0.0855560302734375
1761232081191481300,1.1964814453125,-0.70318603515625,-0.2889404296875,0.0947418212890625
1761232081201550600,1.206550537109375,-0.706634521484375,-0.3083343505859375,0.111846923828125
1761232081211620400,1.216620361328125,-0.7349700927734375,-0.34326171875,0.13568115234375
1761232081221689300,1.226689453125,-0.76318359375,-0.369110107421875,0.146392822265625
1761232081231759400,1.23675927734375,-0.777740478515625,-0.3677520751953125,0.13897705078125
1761232081241828400,1.246828369140625,-0.7878265380859375,-0.34112548828125,0.1201019287109375
1761232081251898400,1.2568984375,-0.7840118408203125,-0.322967529296875,0.1080169677734375
1761232081261967400,1.26696728515625,-0.7803192138671875,-0.32904052734375,0.1114044189453125
1761232081272037400,1.277037353515625,-0.7953033447265625,-0.3538970947265625,0.118743896484375
1761232081282106400,1.2871064453125,-0.8343048095703125,-0.3807525634765625,0.1146087646484375
1761232081292176400,1.29717626953125,-0.8495635986328125,-0.38555908203125,0.1015167236328125
1761232081302245400,1.307245361328125,-0.8552398681640625,-0.363311767578125,0.0838165283203125
1761232081312314400,1.317314453125,-0.8962860107421875,-0.33709716796875,0.086944580078125
1761232081322384400,1.32738427734375,-0.9680938720703125,-0.3585662841796875,0.1092071533203125
1761232081332453400,1.337453369140625,-1.0409088134765625,-0.404571533203125,0.1801910400390625
1761232081342523400,1.3475234375,-1.137481689453125,-0.46502685546875,0.23590087890625
1761232081352592400,1.35759228515625,-1.194244384765625,-0.546051025390625,0.208831787109375
1761232081362662400,1.367662353515625,-1.111358642578125,-0.5744476318359375,0.188385009765625
1761232081372731400,1.3777314453125,-0.98468017578125,-0.564727783203125,0.1302642822265625
1761232081382801400,1.387801513671875,-0.94732666015625,-0.5375213623046875,0.0557098388671875
1761232081392870400,1.397870361328125,-0.9406890869140625,-0.516510009765625,-0.011322021484375
1761232081402940200,1.407940185546875,-0.9768524169921875,-0.58624267578125,-0.063507080078125
1761232081413009400,1.418009521484375,-0.9986572265625,-0.65301513671875,-0.02734375
1761232081423079400,1.428079345703125,-1.0678253173828125,-0.65533447265625,0.025848388671875
1761232081433148400,1.4381484375,-1.1680145263671875,-0.673095703125,0.0962371826171875
1761232081443218400,1.448218505859375,-1.2947998046875,-0.7390899658203125,0.1430511474609375
1761232081453287400,1.458287353515625,-1.379730224609375,-0.8065643310546875,0.2045135498046875
1761232081463357400,1.468357421875,-1.4300384521484375,-0.889495849609375,0.29345703125
1761232081473426400,1.478426513671875,-1.458740234375,-0.97930908203125,0.3506622314453125
1761232081483496400,1.488496337890625,-1.5554046630859375,-1.0518341064453125,0.388153076171875
1761232081493565400,1.4985654296875,-1.7061920166015625,-1.1108245849609375,0.4314422607421875
1761232081503634400,1.508634521484375,-1.8367462158203125,-1.146484375,0.4364166259765625
1761232081513704200,1.5187041015625,-2.10369873046875,-1.165618896484375,0.4139862060546875
1761232081523773400,1.5287734375,-2.058746337890625,-1.1414794921875,0.49310302734375
1761232081533843200,1.53884326171875,-2.12701416015625,-1.094940185546875,0.499786376953125
1761232081543912400,1.548912353515625,-2.1675872802734375,-1.1441192626953125,0.51226806640625
1761232081553982500,1.558982421875,-2.1714630126953125,-1.135223388671875,0.481109619140625
1761232081564051500,1.569051513671875,-2.195404052734375,-1.081756591796875,0.5077362060546875
1761232081574121500,1.57912158203125,-2.2740478515625,-1.1153106689453125,0.54541015625
1761232081584190500,1.5891904296875,-2.1147003173828125,-1.11376953125,0.403289794921875
1761232081594260500,1.599260498046875,-1.582672119140625,-1.1026611328125,0.267242431640625
1761232081604329500,1.60932958984375,-1.3146514892578125,-0.7048492431640625,0.65081787109375
1761232081614399500,1.6193994140625,-1.364837646484375,-0.17230224609375,1.003631591796875
1761232081624468200,1.62946826171875,-1.4923095703125,-0.6269378662109375,0.2863006591796875
1761232081634538500,1.63953857421875,-1.503204345703125,-0.947235107421875,-0.0006256103515625
1761232081644607200,1.649607177734375,-1.496337890625,-0.92254638671875,-0.03167724609375
1761232081654677500,1.659677490234375,-1.3915557861328125,-0.751129150390625,-0.226043701171875
1761232081664746200,1.669746337890625,-1.2672119140625,-0.6486663818359375,-0.3797607421875
1761232081674816300,1.679816162109375,-1.0554046630859375,-0.5430755615234375,-0.3461151123046875
1761232081684885500,1.689885498046875,-0.606353759765625,-0.3654022216796875,-0.1420135498046875
1761232081694955300,1.699955322265625,-0.28741455078125,-0.1850128173828125,-0.2574005126953125
1761232081705024500,1.7100244140625,-0.3323822021484375,-0.1817474365234375,-0.4953155517578125
1761232081715093200,1.72009326171875,-0.44769287109375,-0.315673828125,-0.5212249755859375
1761232081725163500,1.73016357421875,-0.3212432861328125,-0.094696044921875,-0.4457244873046875
1761232081735232300,1.740232177734375,-0.3585357666015625,0.11077880859375,-0.327056884765625
1761232081745302500,1.750302490234375,-0.3296966552734375,0.3716583251953125,-0.1033477783203125
1761232081755371300,1.760371337890625,-0.174224853515625,0.5231475830078125,0.0641632080078125
1761232081765441500,1.770441650390625,-0.0933685302734375,0.5074005126953125,0.2342376708984375
1761232081775510300,1.78051025390625,0.0642852783203125,0.5866546630859375,0.4161834716796875
1761232081785580300,1.790580322265625,0.3004608154296875,0.47601318359375,0.5035400390625
1761232081795649300,1.800649169921875,0.5443878173828125,0.3394012451171875,0.4990386962890625
1761232081805719300,1.81071923828125,0.523284912109375,0.3373260498046875,0.5027618408203125
1761232081815788300,1.820788330078125,0.3875274658203125,0.320281982421875,0.538177490234375
1761232081825858300,1.8308583984375,0.225341796875,0.2255706787109375,0.6243438720703125
1761232081835927600,1.840927490234375,0.034881591796875,0.111724853515625,0.6894989013671875
1761232081845997300,1.850997314453125,-0.06231689453125,-0.038421630859375,0.673187255859375
1761232081856066600,1.861066650390625,-0.0721588134765625,-0.200042724609375,0.5684967041015625
1761232081866136300,1.87113623046875,-0.0394134521484375,-0.320526123046875,0.372344970703125
1761232081876205600,1.88120556640625,-0.01898193359375,-0.3957672119140625,0.137786865234375
1761232081886275300,1.891275390625,-0.045745849609375,-0.4329681396484375,-0.03607177734375
1761232081896344300,1.90134423828125,-0.100067138671875,-0.430084228515625,-0.1601104736328125
1761232081906414300,1.911414306640625,-0.140380859375,-0.3497467041015625,-0.2422943115234375
1761232081916483300,1.9214833984375,-0.17144775390625,-0.23516845703125,-0.2609710693359375
1761232081926552300,1.93155224609375,-0.1980133056640625,-0.1916961669921875,-0.2393951416015625
1761232081936622300,1.941622314453125,-0.198516845703125,-0.14947509765625,-0.207763671875
1761232081946691300,1.95169140625,-0.2123565673828125,-0.138214111328125,-0.1365966796875
1761232081956761300,1.96176123046875,-0.2148895263671875,-0.160003662109375,-0.03564453125
1761232081966830600,1.97183056640625,-0.1779632568359375,-0.129913330078125,0.008026123046875
1761232081976900400,1.981900390625,-0.14276123046875,-0.107086181640625,0.0316162109375
1761232081986969300,1.99196923828125,-0.138916015625,-0.1024627685546875,0.0389404296875
1761232081997039400,2.002039306640625,-0.1546478271484375,-0.072357177734375,0.0317840576171875
1761232082007108400,2.0121083984375,-0.143646240234375,-0.096588134765625,0.0194549560546875
1761232082017178400,2.022178466796875,-0.1460418701171875,-0.125152587890625,-0.0074462890625
1761232082027247400,2.032247314453125,-0.19171142578125,-0.112030029296875,-0.038421630859375
1761232082037317400,2.0423173828125,-0.2460784912109375,-0.1302337646484375,-0.0648040771484375
1761232082047386400,2.052386474609375,-0.3177947998046875,-0.137603759765625,-0.0789794921875
1761232082057460200,2.062460205078125,-0.4100189208984375,-0.1290130615234375,-0.0691986083984375
1761232082067529200,2.072529296875,-0.503570556640625,-0.1613616943359375,-0.034698486328125
1761232082077599200,2.08259912109375,-0.648712158203125,-0.19757080078125,0.017913818359375
1761232082087668200,2.092668212890625,-0.7378387451171875,-0.28460693359375,0.117462158203125
1761232082097738200,2.10273828125,-0.805023193359375,-0.4326934814453125,0.2501373291015625
1761232082107807200,2.11280712890625,-0.80523681640625,-0.6352386474609375,0.395965576171875
1761232082117877200,2.122877197265625,-0.75994873046875,-0.9437713623046875,0.63824462890625
1761232082127946500,2.132946533203125,-0.783966064453125,-1.310211181640625,0.906646728515625
1761232082138016300,2.143016357421875,-0.896636962890625,-1.302032470703125,0.835906982421875
1761232082148085200,2.153085205078125,-0.816162109375,-1.1774139404296875,0.3902130126953125
1761232082158155300,2.1631552734375,-0.7365875244140625,-1.1114044189453125,-0.1230010986328125
1761232082168224300,2.173224365234375,-0.6495513916015625,-1.058258056640625,-0.524993896484375
1761232082178293200,2.183293212890625,-0.501068115234375,-1.170867919921875,-0.6149139404296875
1761232082188363300,2.19336328125,-0.5581512451171875,-1.3885345458984375,-0.3736114501953125
1761232082198432300,2.203432373046875,-0.7113494873046875,-1.5819091796875,-0.06170654296875
1761232082208502300,2.213502197265625,-0.9867095947265625,-1.6000213623046875,0.0995330810546875
1761232082218571300,2.2235712890625,-1.420989990234375,-1.5085601806640625,0.1393585205078125
1761232082228641300,2.233641357421875,-1.783447265625,-1.371368408203125,0.096588134765625
1761232082238710300,2.243710205078125,-2.059661865234375,-1.1412811279296875,0.0463409423828125
1761232082248780300,2.2537802734375,-2.253570556640625,-0.858428955078125,-0.0298919677734375
1761232082258849000,2.26384912109375,-2.219879150390625,-0.717803955078125,-0.0647125244140625
1761232082268919300,2.273919189453125,-2.214385986328125,-0.6845245361328125,0.006011962890625
1761232082278988300,2.28398828125,-2.2450408935546875,-0.623046875,0.0788421630859375
1761232082289058300,2.294058349609375,-2.1109161376953125,-0.52392578125,0.0749664306640625
1761232082299127300,2.304127197265625,-1.999176025390625,-0.4747772216796875,0.1142730712890625
1761232082309197300,2.314197265625,-1.821319580078125,-0.4830169677734375,0.1486358642578125
1761232082319266300,2.324266357421875,-1.6338043212890625,-0.5290374755859375,0.1530609130859375
1761232082329336000,2.334336181640625,-1.4905548095703125,-0.5410308837890625,0.1166839599609375
1761232082339405300,2.3444052734375,-1.356048583984375,-0.52197265625,0.0663909912109375
1761232082349475000,2.35447509765625,-1.2415008544921875,-0.502105712890625,0.021942138671875
1761232082359544300,2.36454443359375,-1.22894287109375,-0.442962646484375,-0.018157958984375
1761232082369614300,2.3746142578125,-1.207977294921875,-0.382781982421875,-0.0431671142578125
1761232082379683300,2.384683349609375,-1.1951751708984375,-0.3208770751953125,-0.0498199462890625
1761232082389753300,2.39475341796875,-1.2072296142578125,-0.2525482177734375,-0.026458740234375
1761232082399822300,2.404822265625,-1.2156829833984375,-0.1921539306640625,0.0111083984375
1761232082409892400,2.414892333984375,-1.188720703125,-0.138916015625,0.030059814453125
1761232082419961000,2.424961181640625,-1.1408843994140625,-0.1176605224609375,0.03680419921875
1761232082430030300,2.4350302734375,-1.092041015625,-0.114776611328125,0.0456695556640625
1761232082440100000,2.44510009765625,-1.043670654296875,-0.1199951171875,0.044281005859375
1761232082450169300,2.45516943359375,-0.9645233154296875,-0.1304779052734375,0.03204345703125
1761232082460239000,2.465239013671875,-0.8882598876953125,-0.15374755859375,0.02392578125
1761232082470308400,2.475308349609375,-0.815216064453125,-0.1862945556640625,0.01593017578125
1761232082480378000,2.485378173828125,-0.74102783203125,-0.2148590087890625,0.02325439453125
1761232082490447400,2.495447265625,-0.704071044921875,-0.2368621826171875,0.0327301025390625
1761232082500517400,2.505517333984375,-0.70947265625,-0.2384185791015625,0.0525054931640625
1761232082510586400,2.51558642578125,-0.720062255859375,-0.2192840576171875,0.068817138671875
1761232082520656400,2.525656494140625,-0.7209320068359375,-0.20245361328125,0.0758209228515625
1761232082530725000,2.53572509765625,-0.726776123046875,-0.183135986328125,0.075286865234375
1761232082540795400,2.54579541015625,-0.7255859375,-0.18060302734375,0.0742950439453125
1761232082550864100,2.555864013671875,-0.7105255126953125,-0.1784515380859375,0.061187744140625
1761232082560934400,2.565934326171875,-0.7141876220703125,-0.1769561767578125,0.040069580078125
1761232082571003100,2.576003173828125,-0.718170166015625,-0.188873291015625,0.0257720947265625
1761232082581073400,2.586073486328125,-0.705718994140625,-0.210052490234375,0.023406982421875
1761232082591142100,2.59614208984375,-0.7040252685546875,-0.2385101318359375,0.02423095703125
1761232082601212200,2.606212158203125,-0.6966400146484375,-0.2637786865234375,0.026153564453125
1761232082611281200,2.61628125,-0.686248779296875,-0.294677734375,0.029754638671875
1761232082621351200,2.62635107421875,-0.68896484375,-0.3191375732421875,0.02545166015625
1761232082631420400,2.63642041015625,-0.7112579345703125,-0.330535888671875,0.0121307373046875
1761232082641490200,2.646490234375,-0.739013671875,-0.3383331298828125,-0.0098419189453125
1761232082651559400,2.656559326171875,-0.7672119140625,-0.344085693359375,-0.02130126953125
1761232082661628200,2.666628173828125,-0.810394287109375,-0.3514862060546875,-0.0207672119140625
1761232082671698400,2.676698486328125,-0.8413848876953125,-0.3571929931640625,-0.019561767578125
1761232082681767200,2.68676708984375,-0.856719970703125,-0.36273193359375,-0.026763916015625
1761232082691837200,2.696837158203125,-0.8704833984375,-0.37066650390625,-0.045379638671875
1761232082701906200,2.70690625,-0.877349853515625,-0.3728485107421875,-0.071136474609375
1761232082711976200,2.71697607421875,-0.8879547119140625,-0.3752288818359375,-0.094024658203125
1761232082722045200,2.727045166015625,-0.8963165283203125,-0.382659912109375,-0.11273193359375
1761232082732115200,2.737115234375,-0.9078521728515625,-0.389434814453125,-0.117523193359375
1761232082742184200,2.74718408203125,-0.9219970703125,-0.39166259765625,-0.11767578125
1761232082752254200,2.757254150390625,-0.9335784912109375,-0.39892578125,-0.1118316650390625
1761232082762323500,2.767323486328125,-0.93682861328125,-0.4082794189453125,-0.099151611328125
1761232082772393200,2.777393310546875,-0.92803955078125,-0.4083099365234375,-0.0958099365234375
1761232082782462500,2.78746240234375,-0.9134674072265625,-0.4033660888671875,-0.0923614501953125
1761232082792532200,2.7975322265625,-0.9068603515625,-0.388275146484375,-0.0802459716796875
1761232082802601200,2.807601318359375,-0.9095306396484375,-0.37457275390625,-0.057586669921875
1761232082812671200,2.817671142578125,-0.9020538330078125,-0.3542022705078125,-0.0338134765625
1761232082822740200,2.827740234375,-0.8778228759765625,-0.343414306640625,-0.019744873046875
1761232082832810200,2.837810302734375,-0.8387603759765625,-0.346710205078125,-0.022369384765625
1761232082842879200,2.847879150390625,-0.794189453125,-0.349945068359375,-0.0541534423828125
1761232082852949200,2.85794921875,-0.7581329345703125,-0.3570556640625,-0.0917510986328125
1761232082863018200,2.868018310546875,-0.7484893798828125,-0.369171142578125,-0.0947113037109375
1761232082873088300,2.878088134765625,-0.7436981201171875,-0.38177490234375,-0.0626220703125
1761232082883157200,2.8881572265625,-0.766876220703125,-0.3802947998046875,-0.01904296875
1761232082893227300,2.898227294921875,-0.7972412109375,-0.3638458251953125,0.0152130126953125
1761232082903296300,2.908296142578125,-0.7921905517578125,-0.3363037109375,0.047607421875
1761232082913365200,2.918365234375,-0.7790985107421875,-0.297821044921875,0.0709381103515625
1761232082923435300,2.928435302734375,-0.7689666748046875,-0.262939453125,0.073577880859375
1761232082933504300,2.938504150390625,-0.7560882568359375,-0.2458038330078125,0.052734375
1761232082943574300,2.94857421875,-0.7342071533203125,-0.234100341796875,0.0511016845703125
1761232082953643300,2.958643310546875,-0.7084197998046875,-0.226654052734375,0.07049560546875
1761232082963713300,2.96871337890625,-0.710418701171875,-0.224273681640625,0.0890350341796875
1761232082973782300,2.9787822265625,-0.6815948486328125,-0.223876953125,0.10107421875
1761232082983852000,2.98885205078125,-0.6420135498046875,-0.2177734375,0.085906982421875
1761232082993921300,2.99892138671875,-0.62054443359375,-0.2182464599609375,0.054412841796875
1761232083003991300,3.0089912109375,-0.595062255859375,-0.20477294921875,0.02606201171875
1761232083014060300,3.019060302734375,-0.5650482177734375,-0.1774139404296875,-0.0010223388671875
1761232083024130300,3.02913037109375,-0.534210205078125,-0.147613525390625,-0.0347442626953125
1761232083034199300,3.03919921875,-0.5068817138671875,-0.121490478515625,-0.0597381591796875
1761232083044269300,3.049269287109375,-0.496795654296875,-0.08843994140625,-0.06793212890625
1761232083054334200,3.059334228515625,-0.477203369140625,-0.0618438720703125,-0.0706787109375
1761232083064404200,3.069404296875,-0.480316162109375,-0.0292205810546875,-0.0735931396484375
1761232083074473200,3.07947314453125,-0.497955322265625,0.0177154541015625,-0.072296142578125
1761232083084543200,3.089543212890625,-0.5096282958984375,0.04931640625,-0.043853759765625
1761232083094612200,3.0996123046875,-0.555633544921875,0.0682830810546875,-0.012298583984375
1761232083104682200,3.10968212890625,-0.6097869873046875,0.0631866455078125,0.01910400390625
1761232083114751000,3.1197509765625,-0.62542724609375,0.0268402099609375,0.04473876953125
1761232083124821200,3.1298212890625,-0.6134796142578125,-0.0400238037109375,0.070526123046875
1761232083134890000,3.139889892578125,-0.645599365234375,-0.1312255859375,0.1182403564453125
1761232083144959200,3.149959228515625,-0.6420135498046875,-0.289306640625,0.2237396240234375
1761232083155029000,3.160029052734375,-0.6750030517578125,-0.4356842041015625,0.2680206298828125
1761232083165098200,3.17009814453125,-0.8231658935546875,-0.511383056640625,0.326995849609375
1761232083175168000,3.18016796875,-1.076416015625,-0.5030517578125,0.376678466796875
1761232083185237200,3.1902373046875,-1.261138916015625,-0.48455810546875,0.3404388427734375
1761232083195307300,3.200307373046875,-1.38519287109375,-0.43426513671875,0.203582763671875
1761232083205376300,3.210376220703125,-1.5099029541015625,-0.296539306640625,0.017669677734375
1761232083215446300,3.2204462890625,-1.5791015625,-0.1275177001953125,-0.101104736328125
1761232083225515000,3.230514892578125,-1.614227294921875,-0.06671142578125,-0.0812225341796875
1761232083235585300,3.240585205078125,-1.84979248046875,-0.20404052734375,0.0717926025390625
1761232083245654000,3.250654052734375,-2.0769500732421875,-0.27484130859375,0.1919097900390625
1761232083255724300,3.260724365234375,-2.123199462890625,-0.3356475830078125,0.243255615234375
1761232083265793000,3.27079296875,-2.20697021484375,-0.4206085205078125,0.2369842529296875
1761232083275863300,3.28086328125,-2.3038177490234375,-0.5015106201171875,0.202239990234375
1761232083285932000,3.29093212890625,-2.3720550537109375,-0.5665435791015625,0.1273040771484375
1761232083296002000,3.301001953125,-2.50836181640625,-0.618743896484375,0.0568389892578125
1761232083306071000,3.311071044921875,-2.6915130615234375,-0.6303863525390625,-0.0109405517578125
1761232083316141000,3.32114111328125,-2.8329620361328125,-0.563873291015625,-0.0718994140625
1761232083326210000,3.3312099609375,-2.915191650390625,-0.5501251220703125,-0.1402740478515625
1761232083336280000,3.341280029296875,-2.9816741943359375,-0.47491455078125,-0.247955322265625
1761232083346349300,3.351349365234375,-3.0649871826171875,-0.3782196044921875,-0.3625335693359375
1761232083356419000,3.361419189453125,-3.1522369384765625,-0.3011322021484375,-0.5210113525390625
1761232083366488300,3.37148828125,-3.1237030029296875,-0.1273651123046875,-0.6917877197265625
1761232083376557000,3.38155712890625,-2.990997314453125,0.0179595947265625,-0.7893829345703125
1761232083386627000,3.391626953125,-2.745208740234375,0.057861328125,-0.8342742919921875
1761232083396696000,3.401696044921875,-2.44659423828125,0.0032501220703125,-0.8368072509765625
1761232083406766000,3.41176611328125,-2.049652099609375,-0.089080810546875,-0.7744140625
1761232083416835000,3.4218349609375,-1.5863037109375,-0.11822509765625,-0.669403076171875
1761232083426905000,3.431905029296875,-1.122772216796875,-0.1437835693359375,-0.5346527099609375
1761232083436974000,3.44197412109375,-0.794586181640625,-0.14190673828125,-0.3972320556640625
1761232083447044000,3.452044189453125,-0.69635009765625,-0.0938262939453125,-0.28814697265625
1761232083457113000,3.462113037109375,-0.6075897216796875,-0.059722900390625,-0.2391204833984375
1761232083467183000,3.47218310546875,-0.333648681640625,-0.015777587890625,-0.2293853759765625
1761232083477252400,3.48225244140625,-0.3099212646484375,0.06982421875,-0.168304443359375
1761232083487322000,3.492322021484375,-0.2862396240234375,0.17510986328125,-0.1630859375
1761232083497391000,3.50239111328125,-0.1019439697265625,0.29205322265625,-0.2128143310546875
1761232083507461000,3.512461181640625,0.12677001953125,0.3614959716796875,-0.2699127197265625
1761232083517530000,3.522530029296875,0.3416290283203125,0.4527587890625,-0.2134246826171875
1761232083527600000,3.53260009765625,0.4666290283203125,0.417724609375,-0.1054840087890625
1761232083537669000,3.542669189453125,0.4706878662109375,0.2869415283203125,-0.0040740966796875
1761232083547739100,3.5527392578125,0.4491424560546875,0.197235107421875,0.09814453125
1761232083557808000,3.56280810546875,0.4015350341796875,0.085693359375,0.1635284423828125
1761232083567878100,3.572878173828125,0.3364410400390625,-0.039276123046875,0.1755828857421875
1761232083577947100,3.582947021484375,0.330230712890625,-0.0265960693359375,0.1307220458984375
1761232083588017200,3.59301708984375,0.3305816650390625,0.0360870361328125,0.0488433837890625
1761232083598086100,3.603086181640625,0.341583251953125,0.0256195068359375,-0.01751708984375
1761232083608155100,3.613155029296875,0.3433837890625,-0.0304718017578125,-0.055877685546875
1761232083618225200,3.62322509765625,0.31298828125,-0.0512237548828125,-0.0866546630859375
1761232083628294100,3.633294189453125,0.275299072265625,-0.031707763671875,-0.1154327392578125
1761232083638364200,3.6433642578125,0.2241668701171875,-0.0502777099609375,-0.127960205078125
1761232083648433200,3.65343310546875,0.151580810546875,-0.0864410400390625,-0.1154937744140625
1761232083658503200,3.663503173828125,0.0871429443359375,-0.113525390625,-0.105560302734375
1761232083668572200,3.673572265625,0.05450439453125,-0.143218994140625,-0.0995635986328125
1761232083678642000,3.683641845703125,0.022979736328125,-0.175201416015625,-0.0858154296875
1761232083688711200,3.693711181640625,0.0001068115234375,-0.21441650390625,-0.057403564453125
1761232083698781200,3.70378125,-0.032623291015625,-0.259857177734375,-0.0237579345703125
1761232083708850200,3.71385009765625,-0.1141815185546875,-0.29022216796875,0.0084991455078125
1761232083718920200,3.723920166015625,-0.21124267578125,-0.29388427734375,0.02606201171875
1761232083728989200,3.7339892578125,-0.30059814453125,-0.284698486328125,0.036529541015625
1761232083739059200,3.74405908203125,-0.3934173583984375,-0.2460174560546875,0.0378570556640625
1761232083749128200,3.754128173828125,-0.4548492431640625,-0.2187042236328125,0.0375518798828125
1761232083759198200,3.7641982421875,-0.46661376953125,-0.2131500244140625,0.0296630859375
1761232083769267200,3.77426708984375,-0.42816162109375,-0.1846466064453125,-0.01165771484375
1761232083779337200,3.784337158203125,-0.3686065673828125,-0.14990234375,-0.0658416748046875
1761232083789406000,3.794406005859375,-0.3276214599609375,-0.13140869140625,-0.0843658447265625
1761232083799476200,3.804476318359375,-0.3309173583984375,-0.0959014892578125,-0.084381103515625
1761232083809545000,3.814544921875,-0.32952880859375,-0.0093994140625,-0.0890960693359375
1761232083819614200,3.8246142578125,-0.36700439453125,0.037811279296875,-0.0437774658203125
1761232083829684000,3.83468408203125,-0.436737060546875,0.0011138916015625,0.0682373046875
1761232083839753200,3.844753173828125,-0.5221405029296875,-0.076019287109375,0.2025146484375
1761232083849823200,3.8548232421875,-0.5909423828125,-0.2256317138671875,0.3280181884765625
1761232083859892200,3.864892333984375,-0.6610565185546875,-0.4855804443359375,0.4829254150390625
1761232083869962200,3.874962158203125,-0.7730560302734375,-0.784332275390625,0.5736846923828125
1761232083880031200,3.88503125,-0.831695556640625,-1.047637939453125,0.5621185302734375
1761232083890101200,3.895101318359375,-0.8679351806640625,-1.1752471923828125,0.4232025146484375
1761232083900170000,3.905169921875,-0.9331817626953125,-1.243408203125,0.1759796142578125
1761232083910240300,3.915240234375,-0.9838409423828125,-1.18328857421875,-0.207122802734375
1761232083920309000,3.92530908203125,-1.0153656005859375,-1.0272064208984375,-0.5302276611328125
1761232083930379300,3.935379150390625,-1.31268310546875,-0.6629486083984375,-0.755859375
1761232083940448000,3.945447998046875,-1.58563232421875,-0.5411224365234375,-0.7345733642578125
1761232083950518000,3.95551806640625,-1.8636627197265625,-0.7295379638671875,-0.404296875
1761232083960587000,3.9655869140625,-2.1370391845703125,-0.8180389404296875,-0.096282958984375
1761232083970657000,3.975656982421875,-2.1831817626953125,-0.8346710205078125,0.076171875
1761232083980726300,3.985726318359375,-2.1499481201171875,-0.7192230224609375,0.0863494873046875
1761232083990796000,3.995796142578125,-2.030303955078125,-0.5976409912109375,0.014404296875
1761232084000865300,4.005865234375,-1.9409637451171875,-0.5203857421875,-0.0348968505859375
1761232084010935000,4.01593505859375,-1.8938446044921875,-0.44256591796875,-0.0663299560546875
1761232084021004300,4.02600439453125,-1.85687255859375,-0.3851165771484375,-0.0834808349609375
1761232084031073000,4.036072998046875,-1.858642578125,-0.3254241943359375,-0.1025848388671875
1761232084041143300,4.046143310546875,-1.8921356201171875,-0.3018341064453125,-0.1077423095703125
1761232084051212000,4.0562119140625,-1.870452880859375,-0.269989013671875,-0.13995361328125
1761232084061282300,4.0662822265625,-1.8163299560546875,-0.197265625,-0.22174072265625
1761232084071351600,4.0763515625,-1.7592926025390625,-0.0752410888671875,-0.3648223876953125
1761232084081421300,4.08642138671875,-1.6881256103515625,0.0552825927734375,-0.528289794921875
1761232084091490600,4.096490478515625,-1.6928863525390625,0.0852813720703125,-0.583160400390625
1761232084101560300,4.106560302734375,-1.720733642578125,0.0826873779296875,-0.5428924560546875
1761232084111629600,4.116629638671875,-1.7234344482421875,0.059112548828125,-0.452423095703125
1761232084121699300,4.12669921875,-1.69677734375,0.0111846923828125,-0.3431243896484375
1761232084131768600,4.1367685546875,-1.597259521484375,-0.0334625244140625,-0.250518798828125
1761232084141838300,4.14683837890625,-1.4504547119140625,-0.0770416259765625,-0.175628662109375
1761232084151907300,4.1569072265625,-1.3017730712890625,-0.1089935302734375,-0.129241943359375
1761232084161977600,4.1669775390625,-1.220916748046875,-0.124786376953125,-0.0968017578125
1761232084172046300,4.17704638671875,-1.156402587890625,-0.118194580078125,-0.091552734375
1761232084182116600,4.18711669921875,-1.036224365234375,-0.107421875,-0.122833251953125
1761232084192185300,4.197185302734375,-0.935791015625,-0.09832763671875,-0.1457672119140625
1761232084202255400,4.20725537109375,-0.836456298828125,-0.0921173095703125,-0.1476593017578125
1761232084212324400,4.217324462890625,-0.73968505859375,-0.1042022705078125,-0.1395416259765625
1761232084222394400,4.227394287109375,-0.64154052734375,-0.10357666015625,-0.1324005126953125
1761232084232463400,4.23746337890625,-0.571258544921875,-0.11737060546875,-0.1115570068359375
1761232084242532600,4.24753271484375,-0.5365142822265625,-0.1274871826171875,-0.077178955078125
1761232084252602400,4.257602294921875,-0.51226806640625,-0.1227569580078125,-0.0413818359375
1761232084262671400,4.26767138671875,-0.508056640625,-0.121734619140625,-0.01214599609375
1761232084272741400,4.277741455078125,-0.5056610107421875,-0.108917236328125,0.006103515625
1761232084282810400,4.287810302734375,-0.514373779296875,-0.1148834228515625,0.0089263916015625
1761232084292880600,4.297880615234375,-0.466064453125,-0.141632080078125,-0.0139617919921875
1761232084302949400,4.307949462890625,-0.4031829833984375,-0.175872802734375,-0.0651702880859375
1761232084313019400,4.318019287109375,-0.4499053955078125,-0.228271484375,-0.0899658203125
1761232084323088400,4.32808837890625,-0.53021240234375,-0.259063720703125,-0.0844879150390625
1761232084333158400,4.338158447265625,-0.609710693359375,-0.2603607177734375,-0.0850372314453125
1761232084343227400,4.348227294921875,-0.631011962890625,-0.2611083984375,-0.0914764404296875
1761232084353297400,4.35829736328125,-0.6211395263671875,-0.2775726318359375,-0.09130859375
1761232084363366400,4.368366455078125,-0.66656494140625,-0.315887451171875,-0.0810089111328125
1761232084373436400,4.3784365234375,-0.7178497314453125,-0.3449859619140625,-0.07232666015625
1761232084383505400,4.38850537109375,-0.7426605224609375,-0.3554534912109375,-0.063995361328125
1761232084393575400,4.398575439453125,-0.7607574462890625,-0.3529052734375,-0.0715179443359375
1761232084403644400,4.40864453125,-0.76202392578125,-0.3722076416015625,-0.087310791015625
1761232084413714400,4.41871435546875,-0.7675628662109375,-0.42535400390625,-0.1091156005859375
1761232084423783400,4.428783447265625,-0.791656494140625,-0.4841156005859375,-0.111328125
1761232084433853400,4.438853515625,-0.8332977294921875,-0.533294677734375,-0.0772857666015625
1761232084443922400,4.44892236328125,-0.876251220703125,-0.589111328125,-0.039459228515625
1761232084453991400,4.458991455078125,-0.896087646484375,-0.6115875244140625,-0.0005340576171875
1761232084464061400,4.4690615234375,-0.8501129150390625,-0.5946502685546875,-0.0079345703125
1761232084474130400,4.47913037109375,-0.7902679443359375,-0.599609375,-0.0863800048828125
1761232084484200400,4.489200439453125,-0.7812347412109375,-0.6309051513671875,-0.1573638916015625
1761232084494269400,4.49926953125,-0.8157806396484375,-0.640869140625,-0.2209320068359375
1761232084504339500,4.50933935546875,-0.8398284912109375,-0.65826416015625,-0.2461090087890625
1761232084514408400,4.519408447265625,-0.8216552734375,-0.6620025634765625,-0.23126220703125
1761232084524478500,4.529478515625,-0.84521484375,-0.65252685546875,-0.157867431640625
1761232084534547500,4.53954736328125,-0.9232330322265625,-0.635009765625,-0.0795745849609375
1761232084544617500,4.549617431640625,-0.999847412109375,-0.615203857421875,-0.03863525390625
1761232084554686500,4.5596865234375,-1.02020263671875,-0.5888824462890625,-0.0235443115234375
1761232084564756500,4.569756591796875,-0.9797210693359375,-0.57196044921875,-0.023773193359375
1761232084574825500,4.579825439453125,-0.946685791015625,-0.5503387451171875,-0.051239013671875
1761232084584895500,4.5898955078125,-0.8719024658203125,-0.5330810546875,-0.1207122802734375
1761232084594964500,4.599964599609375,-0.874603271484375,-0.533477783203125,-0.15191650390625
1761232084605034200,4.6100341796875,-0.9176177978515625,-0.5178680419921875,-0.15386962890625
1761232084615103500,4.620103515625,-0.9390106201171875,-0.503509521484375,-0.1234588623046875
1761232084625173200,4.63017333984375,-0.976043701171875,-0.4845428466796875,-0.0703277587890625
1761232084635242500,4.640242431640625,-0.945587158203125,-0.4711456298828125,-0.001678466796875
1761232084645311200,4.650311279296875,-0.885162353515625,-0.4719390869140625,0.0487060546875
1761232084655381500,4.660381591796875,-0.82611083984375,-0.4820709228515625,0.074371337890625
1761232084665450200,4.6704501953125,-0.7693939208984375,-0.473052978515625,0.0673370361328125
1761232084675520500,4.6805205078125,-0.69000244140625,-0.4776763916015625,0.0359344482421875
1761232084685589200,4.69058935546875,-0.5995025634765625,-0.490386962890625,0.0159149169921875
1761232084695659500,4.700659423828125,-0.54107666015625,-0.513641357421875,0.03546142578125
1761232084705728500,4.710728515625,-0.5089874267578125,-0.5305633544921875,0.0897979736328125
1761232084715798300,4.72079833984375,-0.5094451904296875,-0.5221405029296875,0.1466064453125
1761232084725867500,4.730867431640625,-0.55242919921875,-0.4878387451171875,0.1858367919921875
1761232084735937300,4.740937255859375,-0.6005096435546875,-0.4415435791015625,0.219879150390625
1761232084746006500,4.751006591796875,-0.63055419921875,-0.4090423583984375,0.2489776611328125
1761232084756076300,4.761076171875,-0.648468017578125,-0.4102783203125,0.2686309814453125
1761232084766145500,4.7711455078125,-0.665618896484375,-0.3827667236328125,0.241790771484375
1761232084776215300,4.78121533203125,-0.64013671875,-0.3219146728515625,0.1927642822265625
1761232084786284500,4.791284423828125,-0.62347412109375,-0.2563018798828125,0.15447998046875
1761232084796354600,4.8013544921875,-0.5981292724609375,-0.2320709228515625,0.123504638671875
1761232084806423600,4.811423583984375,-0.5644989013671875,-0.2220306396484375,0.0919189453125
1761232084816493600,4.82149365234375,-0.545196533203125,-0.2051544189453125,0.05712890625
1761232084826562300,4.831562255859375,-0.5673980712890625,-0.1761627197265625,0.039459228515625
1761232084836631600,4.841631591796875,-0.500518798828125,-0.1414947509765625,-0.031890869140625
1761232084846699500,4.851699462890625,-0.4652862548828125,-0.117340087890625,-0.078125
1761232084856768300,4.861768310546875,-0.4769744873046875,-0.0968475341796875,-0.1075439453125
1761232084866838500,4.871838623046875,-0.48895263671875,-0.078125,-0.135650634765625
1761232084876907300,4.8819072265625,-0.475494384765625,-0.0553741455078125,-0.1418304443359375
1761232084886977500,4.8919775390625,-0.445587158203125,-0.04486083984375,-0.13275146484375
1761232084897046300,4.90204638671875,-0.43511962890625,-0.0675506591796875,-0.1113128662109375
1761232084907116300,4.9121162109375,-0.4502105712890625,-0.1115264892578125,-0.065093994140625
1761232084917185500,4.922185546875,-0.517730712890625,-0.1625213623046875,-0.007171630859375
1761232084927255300,4.93225537109375,-0.6086578369140625,-0.207366943359375,0.038970947265625
1761232084937324500,4.942324462890625,-0.6572265625,-0.2542266845703125,0.065826416015625
1761232084947394300,4.952394287109375,-0.6445770263671875,-0.2877655029296875,0.0775299072265625
1761232084957463600,4.962463623046875,-0.7124786376953125,-0.348480224609375,0.0854034423828125
1761232084967533300,4.972533203125,-0.781951904296875,-0.4005889892578125,0.102935791015625
1761232084977602600,4.9826025390625,-0.83441162109375,-0.4090423583984375,0.1159820556640625
1761232084987672300,4.99267236328125,-0.9401397705078125,-0.4062652587890625,0.1143341064453125
1761232084997741600,5.002741455078125,-1.1512603759765625,-0.4462432861328125,0.090972900390625
1761232085007811600,5.0128115234375,-1.3501129150390625,-0.5108642578125,0.0227508544921875
1761232085017880300,5.02288037109375,-1.4693603515625,-0.5567474365234375,-0.080169677734375
1761232085027949300,5.03294921875,-1.4945526123046875,-0.5995941162109375,-0.1668243408203125
1761232085038019300,5.043019287109375,-1.5259246826171875,-0.626800537109375,-0.1861419677734375
1761232085048088300,5.05308837890625,-1.6443939208984375,-0.65240478515625,-0.147735595703125
1761232085058162000,5.063161865234375,-1.7192535400390625,-0.6599884033203125,-0.0662841796875
1761232085068231000,5.07323095703125,-2.079376220703125,-0.6856689453125,0.0120849609375
1761232085078301000,5.083301025390625,-2.3898773193359375,-0.852691650390625,0.1484222412109375
1761232085088370000,5.093369873046875,-2.6751861572265625,-0.901763916015625,0.1844329833984375
1761232085098440000,5.10343994140625,-2.8541107177734375,-0.9931640625,0.1395111083984375
1761232085108509000,5.113509033203125,-2.99462890625,-1.017333984375,0.0082855224609375
1761232085118579000,5.123578857421875,-3.134979248046875,-1.0118408203125,-0.148193359375
1761232085128648000,5.13364794921875,-3.2317657470703125,-0.895233154296875,-0.3516845703125
1761232085138718000,5.143718017578125,-3.1248626708984375,-0.7561492919921875,-0.5270233154296875
1761232085148787000,5.153786865234375,-2.9616546630859375,-0.611114501953125,-0.6462860107421875
1761232085158857000,5.16385693359375,-2.774261474609375,-0.5488739013671875,-0.6900482177734375
1761232085168926000,5.173926025390625,-2.6121978759765625,-0.635498046875,-0.6234588623046875
1761232085178996000,5.183995849609375,-2.4211578369140625,-0.654205322265625,-0.519439697265625
1761232085189065000,5.19406494140625,-2.4162750244140625,-0.5843658447265625,-0.41815185546875
1761232085199134000,5.204134033203125,-2.32183837890625,-0.4482879638671875,-0.44580078125
1761232085209204000,5.214203857421875,-2.0960235595703125,-0.32275390625,-0.514739990234375
1761232085219273000,5.22427294921875,-1.925567626953125,-0.3074493408203125,-0.4933319091796875
1761232085229343000,5.234343017578125,-1.713287353515625,-0.1730194091796875,-0.5165863037109375
1761232085239411700,5.24441162109375,-1.3848114013671875,-0.048828125,-0.5424652099609375
1761232085249482000,5.25448193359375,-1.11627197265625,0.0431976318359375,-0.545684814453125
1761232085259550700,5.26455078125,-0.8804473876953125,0.1138153076171875,-0.5391082763671875
1761232085269621000,5.27462109375,-0.640228271484375,0.109039306640625,-0.50628662109375
1761232085279690000,5.28468994140625,-0.4955902099609375,0.0716400146484375,-0.429473876953125
1761232085289760000,5.294760009765625,-0.39208984375,0.111572265625,-0.36138916015625
1761232085299829000,5.3048291015625,-0.201629638671875,0.1493988037109375,-0.24603271484375
1761232085309898800,5.314898681640625,-0.0304412841796875,0.192169189453125,-0.1334381103515625
1761232085319968000,5.324968017578125,0.082122802734375,0.1985626220703125,-0.0435638427734375
1761232085330037800,5.335037841796875,0.2014312744140625,0.18719482421875,0.0533905029296875
1761232085340107000,5.34510693359375,0.2985992431640625,0.1652679443359375,0.131103515625
1761232085350176800,5.3551767578125,0.394561767578125,0.1324310302734375,0.200225830078125
1761232085360246000,5.36524609375,0.4917755126953125,0.102386474609375,0.258087158203125
1761232085370316000,5.37531591796875,0.515533447265625,0.0870819091796875,0.2832183837890625
1761232085380385000,5.385385009765625,0.4893035888671875,0.052825927734375,0.324981689453125
1761232085390453800,5.395453857421875,0.4498291015625,0.0503082275390625,0.3233642578125
1761232085400523800,5.405523681640625,0.418212890625,0.1103363037109375,0.265777587890625
1761232085410593000,5.415593017578125,0.38983154296875,0.15045166015625,0.18798828125
1761232085420662800,5.425662841796875,0.36016845703125,0.1335906982421875,0.116729736328125
1761232085430732000,5.43573193359375,0.3331756591796875,0.087554931640625,0.058990478515625
1761232085440801800,5.4458017578125,0.30694580078125,0.079498291015625,0.0015411376953125
1761232085450871000,5.45587109375,0.2446746826171875,0.0721893310546875,-0.0355224609375
1761232085460940800,5.46594091796875,0.1655120849609375,0.0275115966796875,-0.0474395751953125
1761232085471010000,5.476010009765625,0.0954742431640625,0.0031585693359375,-0.0467987060546875
1761232085481079800,5.486079833984375,0.0271148681640625,-0.04461669921875,-0.03436279296875
1761232085491149000,5.496149169921875,-0.0524139404296875,-0.11907958984375,-0.02691650390625
1761232085501219000,5.506218994140625,-0.0886993408203125,-0.1373443603515625,-0.033477783203125
1761232085511287800,5.516287841796875,-0.1085205078125,-0.1488800048828125,-0.0270843505859375
1761232085521358000,5.526358154296875,-0.1133270263671875,-0.167877197265625,-0.02294921875
1761232085531426800,5.5364267578125,-0.1113739013671875,-0.191131591796875,-0.0154876708984375
1761232085541497000,5.5464970703125,-0.1171875,-0.20440673828125,-0.0061187744140625
1761232085551565800,5.55656591796875,-0.11376953125,-0.2019500732421875,-0.0062255859375
1761232085561635000,5.566635009765625,-0.097503662109375,-0.198699951171875,-0.0223846435546875
1761232085571704800,5.576704833984375,-0.094329833984375,-0.1807098388671875,-0.0625457763671875
1761232085581774000,5.586774169921875,-0.112579345703125,-0.1653289794921875,-0.096038818359375
1761232085591843800,5.59684375,-0.138763427734375,-0.1576995849609375,-0.104888916015625
1761232085601913000,5.6069130859375,-0.1756591796875,-0.15386962890625,-0.099578857421875
1761232085611982800,5.61698291015625,-0.2051239013671875,-0.1599884033203125,-0.0843353271484375
1761232085622051800,5.6270517578125,-0.2356719970703125,-0.155242919921875,-0.07440185546875
1761232085632122000,5.6371220703125,-0.2899322509765625,-0.19024658203125,-0.0413818359375
1761232085642190800,5.64719091796875,-0.360260009765625,-0.31524658203125,0.0450592041015625
1761232085652261000,5.65726123046875,-0.4600982666015625,-0.56317138671875,0.19171142578125
1761232085662329900,5.667329833984375,-0.550384521484375,-0.9132232666015625,0.3509979248046875
1761232085672400000,5.67739990234375,-0.6035614013671875,-1.301910400390625,0.4512939453125
1761232085682468900,5.68746875,-0.645904541015625,-1.491912841796875,0.360321044921875
1761232085692539000,5.697538818359375,-0.687408447265625,-1.55291748046875,0.1339111328125
1761232085702608000,5.70760791015625,-0.7470550537109375,-1.4923095703125,-0.229644775390625
1761232085712678000,5.717677978515625,-0.713775634765625,-1.305206298828125,-0.6398468017578125
1761232085722747000,5.727746826171875,-0.974334716796875,-1.00537109375,-0.9315185546875
1761232085732816000,5.73781591796875,-1.4212188720703125,-0.682647705078125,-1.033111572265625
1761232085742886000,5.747885986328125,-1.4780731201171875,-0.8426055908203125,-0.900634765625
1761232085752955000,5.757954833984375,-1.741485595703125,-0.9220123291015625,-0.6856536865234375
1761232085763025200,5.768025146484375,-2.0355987548828125,-0.915191650390625,-0.4362640380859375
1761232085773094000,5.778093994140625,-2.2013702392578125,-0.91741943359375,-0.2730712890625
1761232085783164000,5.788163818359375,-2.2412872314453125,-0.8952789306640625,-0.251708984375
1761232085793233000,5.79823291015625,-2.197052001953125,-0.86669921875,-0.279205322265625
1761232085803303000,5.808302978515625,-2.118804931640625,-0.8545379638671875,-0.2716827392578125
1761232085813372000,5.818371826171875,-2.03961181640625,-0.80908203125,-0.265869140625
1761232085823442000,5.82844189453125,-2.001617431640625,-0.675384521484375,-0.2990570068359375
1761232085833511000,5.838510986328125,-2.00213623046875,-0.5067596435546875,-0.3485870361328125
1761232085843581000,5.848580810546875,-2.006805419921875,-0.39013671875,-0.39007568359375
1761232085853650000,5.85864990234375,-1.9857025146484375,-0.3122406005859375,-0.443450927734375
1761232085863720000,5.868719970703125,-1.939666748046875,-0.2529144287109375,-0.5031890869140625
1761232085873789000,5.878788818359375,-1.85614013671875,-0.2259063720703125,-0.5519866943359375
1761232085883859000,5.88885888671875,-1.720245361328125,-0.192626953125,-0.6056060791015625
1761232085893928000,5.898927978515625,-1.5804290771484375,-0.178466796875,-0.6409149169921875
1761232085903997000,5.908996826171875,-1.49371337890625,-0.215240478515625,-0.611785888671875
1761232085914067000,5.91906689453125,-1.47216796875,-0.2532196044921875,-0.554412841796875
1761232085924136000,5.929135986328125,-1.426300048828125,-0.26763916015625,-0.5119781494140625
1761232085934206000,5.9392060546875,-1.3389129638671875,-0.2607574462890625,-0.469268798828125
1761232085944275000,5.94927490234375,-1.2757110595703125,-0.2592620849609375,-0.4075927734375
1761232085954345000,5.959344970703125,-1.198944091796875,-0.265533447265625,-0.336944580078125
1761232085964414000,5.9694140625,-1.10125732421875,-0.2667694091796875,-0.2732696533203125
1761232085974484000,5.97948388671875,-1.00811767578125,-0.268585205078125,-0.2209320068359375
1761232085984553000,5.989552978515625,-0.9075927734375,-0.25634765625,-0.1829071044921875
1761232085994623000,5.999623046875,-0.806732177734375,-0.2261810302734375,-0.157318115234375
1761232086004691700,6.009691650390625,-0.708892822265625,-0.2039337158203125,-0.1328125
1761232086014762000,6.019761962890625,-0.6157684326171875,-0.1934051513671875,-0.106536865234375
1761232086024830700,6.029830810546875,-0.5337066650390625,-0.1835784912109375,-0.0925445556640625
1761232086034901000,6.03990087890625,-0.4635772705078125,-0.1769561767578125,-0.083587646484375
1761232086044970000,6.049969970703125,-0.4097137451171875,-0.1796112060546875,-0.072174072265625
1761232086055040000,6.0600400390625,-0.3849945068359375,-0.1937408447265625,-0.0542144775390625
1761232086065106000,6.07010595703125,-0.3775482177734375,-0.215972900390625,-0.03057861328125
1761232086075175000,6.0801748046875,-0.36083984375,-0.23028564453125,-0.0108489990234375
1761232086085245000,6.090244873046875,-0.3439178466796875,-0.252197265625,0.01556396484375
1761232086095313700,6.100313720703125,-0.35736083984375,-0.2875823974609375,0.037811279296875
1761232086105384000,6.110384033203125,-0.3806304931640625,-0.3172454833984375,0.065338134765625
1761232086115453000,6.120452880859375,-0.4110260009765625,-0.3337860107421875,0.0772247314453125
1761232086125523000,6.13052294921875,-0.462310791015625,-0.3435516357421875,0.0594329833984375
1761232086135592000,6.140592041015625,-0.4779510498046875,-0.3380889892578125,0.0217437744140625
1761232086145662000,6.150661865234375,-0.4577484130859375,-0.2949676513671875,-0.0324554443359375
1761232086155731000,6.16073095703125,-0.4954986572265625,-0.34893798828125,-0.0516357421875
1761232086165800700,6.17080078125,-0.5171966552734375,-0.413604736328125,-0.048675537109375
1761232086175870000,6.180869873046875,-0.56402587890625,-0.450469970703125,-0.058013916015625
1761232086185939700,6.190939697265625,-0.63311767578125,-0.5033111572265625,-0.0558624267578125
1761232086196009000,6.201009033203125,-0.6299285888671875,-0.5079345703125,-0.0484619140625
1761232086206078700,6.21107861328125,-0.5998992919921875,-0.4972381591796875,-0.0589752197265625
1761232086216148000,6.22114794921875,-0.582000732421875,-0.5397796630859375,-0.07257080078125
1761232086226218000,6.231218017578125,-0.6367340087890625,-0.6076202392578125,-0.07635498046875
1761232086236287000,6.241286865234375,-0.733978271484375,-0.6590118408203125,-0.0739288330078125
1761232086246355700,6.251355712890625,-0.821075439453125,-0.6870574951171875,-0.0703277587890625
1761232086256426000,6.261426025390625,-0.861083984375,-0.7050018310546875,-0.0568389892578125
1761232086266495000,6.271494873046875,-0.87969970703125,-0.705291748046875,-0.0528564453125
1761232086276564700,6.281564697265625,-0.8968505859375,-0.6913604736328125,-0.0489349365234375
1761232086286634000,6.291634033203125,-0.945037841796875,-0.6766510009765625,-0.0278472900390625
1761232086296703700,6.301703857421875,-1.0025482177734375,-0.644317626953125,0.0067138671875
1761232086306773000,6.31177294921875,-1.05523681640625,-0.59423828125,0.038177490234375
1761232086316842800,6.3218427734375,-1.0902557373046875,-0.53765869140625,0.0520172119140625
1761232086326912000,6.331912109375,-1.0800933837890625,-0.4697723388671875,0.054412841796875
1761232086336981800,6.341981689453125,-1.0900115966796875,-0.425994873046875,0.0663604736328125
1761232086347051000,6.352051025390625,-1.1210479736328125,-0.3759918212890625,0.09295654296875
1761232086357121000,6.36212109375,-1.138031005859375,-0.3838653564453125,0.0906982421875
1761232086367189800,6.372189697265625,-1.117919921875,-0.3906097412109375,0.0702362060546875
1761232086377260000,6.382260009765625,-1.087066650390625,-0.3821563720703125,0.0362091064453125
1761232086387328800,6.392328857421875,-1.0869293212890625,-0.3926544189453125,0.0357513427734375
1761232086397398000,6.40239794921875,-1.0951080322265625,-0.395538330078125,0.032745361328125
1761232086407467800,6.4124677734375,-1.0705413818359375,-0.404144287109375,0.0177001953125
1761232086417537000,6.422537109375,-1.0345458984375,-0.4053802490234375,0.017242431640625
1761232086427606800,6.432606689453125,-0.993011474609375,-0.4229888916015625,0.040069580078125
1761232086437676000,6.442676025390625,-0.942535400390625,-0.48095703125,0.04644775390625
1761232086447745800,6.452745849609375,-0.8759765625,-0.4921417236328125,0.0580902099609375
1761232086457815000,6.46281494140625,-0.843719482421875,-0.4938507080078125,0.0787200927734375
1761232086467884800,6.472884765625,-0.8262481689453125,-0.5103302001953125,0.0888519287109375
1761232086477953800,6.482953857421875,-0.791656494140625,-0.524017333984375,0.0843353271484375
1761232086488024000,6.493024169921875,-0.7598876953125,-0.535247802734375,0.0677490234375
1761232086498092800,6.5030927734375,-0.7552947998046875,-0.5499114990234375,0.0519561767578125
1761232086508163000,6.5131630859375,-0.7649078369140625,-0.5561676025390625,0.0426177978515625
1761232086518231800,6.523231689453125,-0.7769775390625,-0.5608367919921875,0.034637451171875
1761232086528302000,6.533302001953125,-0.7794342041015625,-0.5485076904296875,0.028564453125
1761232086538370800,6.543370849609375,-0.77978515625,-0.509124755859375,0.047210693359375
1761232086548440800,6.55344091796875,-0.7968902587890625,-0.516693115234375,0.0442962646484375
1761232086558509800,6.563509765625,-0.8025970458984375,-0.53094482421875,0.045745849609375
1761232086568579000,6.5735791015625,-0.801910400390625,-0.4988861083984375,0.05780029296875
1761232086578648800,6.58364892578125,-0.83172607421875,-0.4875946044921875,0.0596923828125
1761232086588717800,6.5937177734375,-0.8556365966796875,-0.45806884765625,0.056671142578125
1761232086598787800,6.603787841796875,-0.8467254638671875,-0.423248291015625,0.055206298828125
1761232086608856800,6.61385693359375,-0.833465576171875,-0.396881103515625,0.0502471923828125
1761232086618927000,6.623927001953125,-0.8128662109375,-0.3796844482421875,0.049407958984375
1761232086628995800,6.633995849609375,-0.7939300537109375,-0.378509521484375,0.0538177490234375
1761232086639065900,6.64406591796875,-0.8038787841796875,-0.382659912109375,0.04766845703125
1761232086649134800,6.654134765625,-0.81396484375,-0.379302978515625,0.0526885986328125
1761232086659204900,6.664204833984375,-0.83489990234375,-0.3693389892578125,0.0575103759765625
1761232086669273900,6.67427392578125,-0.8300018310546875,-0.36627197265625,0.058929443359375
1761232086679343900,6.68434375,-0.823455810546875,-0.3530426025390625,0.064056396484375
1761232086689412900,6.694412841796875,-0.81341552734375,-0.3389739990234375,0.0709686279296875
1761232086699483000,6.70448291015625,-0.8079071044921875,-0.3347015380859375,0.070343017578125
1761232086709551900,6.7145517578125,-0.796600341796875,-0.322296142578125,0.0641021728515625
1761232086719620900,6.724620849609375,-0.7669830322265625,-0.3087615966796875,0.048065185546875
1761232086729691000,6.73469091796875,-0.7060699462890625,-0.3116607666015625,0.019287109375
1761232086739759900,6.744759765625,-0.64361572265625,-0.3013458251953125,-0.0048675537109375
1761232086749830000,6.754829833984375,-0.598358154296875,-0.28277587890625,-0.0205230712890625
1761232086759899000,6.76489892578125,-0.54791259765625,-0.2736053466796875,-0.0369110107421875
1761232086769969000,6.774968994140625,-0.504241943359375,-0.2493438720703125,-0.0481719970703125
1761232086780038000,6.785037841796875,-0.4751129150390625,-0.222930908203125,-0.0506439208984375
1761232086790108000,6.79510791015625,-0.4545745849609375,-0.203826904296875,-0.0399017333984375
1761232086800177000,6.805177001953125,-0.4305267333984375,-0.177154541015625,-0.0149688720703125
1761232086810247000,6.815246826171875,-0.4148101806640625,-0.1329193115234375,0.0070037841796875
1761232086820316000,6.82531591796875,-0.4084625244140625,-0.0726318359375,0.031158447265625
1761232086830386000,6.835385986328125,-0.3709716796875,-0.057464599609375,0.044525146484375
1761232086840455000,6.845454833984375,-0.313507080078125,-0.019805908203125,0.0557708740234375
1761232086850525000,6.85552490234375,-0.295867919921875,-0.0099639892578125,0.0587158203125
1761232086860594000,6.865593994140625,-0.2863922119140625,-0.0145416259765625,0.0645904541015625
1761232086870663000,6.875662841796875,-0.271087646484375,-0.001312255859375,0.05816650390625
1761232086880732700,6.885732666015625,-0.3002777099609375,-0.0045013427734375,0.0484619140625
1761232086890802000,6.895802001953125,-0.3253326416015625,-0.0388031005859375,0.0767822265625
1761232086900872000,6.905871826171875,-0.312225341796875,-0.07196044921875,0.1237640380859375
1761232086910941000,6.91594091796875,-0.3245697021484375,-0.0670623779296875,0.1254425048828125
1761232086921011000,6.926010986328125,-0.3722686767578125,-0.10137939453125,0.132537841796875
1761232086931080000,6.936079833984375,-0.4066619873046875,-0.2123565673828125,0.22088623046875
1761232086941150000,6.94614990234375,-0.51971435546875,-0.2879486083984375,0.336334228515625
1761232086951219000,6.956218994140625,-0.8094329833984375,-0.2508087158203125,0.4023590087890625
1761232086961289000,6.9662890625,-1.11376953125,-0.1631622314453125,0.4764862060546875
1761232086971357700,6.976357666015625,-1.2584075927734375,-0.1336669921875,0.4418792724609375
1761232086981428000,6.986427978515625,-1.3282928466796875,-0.24627685546875,0.258209228515625
1761232086991496700,6.99649658203125,-1.43927001953125,-0.3836822509765625,0.1336212158203125
1761232087001567000,7.00656689453125,-1.6989593505859375,-0.412567138671875,0.212066650390625
1761232087011635700,7.0166357421875,-2.066497802734375,-0.402557373046875,0.2619781494140625
1761232087021705000,7.026705078125,-2.1859283447265625,-0.5791168212890625,0.109375
1761232087031775000,7.03677490234375,-2.3837738037109375,-0.7965087890625,-0.2436981201171875
1761232087041844000,7.046843994140625,-2.753326416015625,-1.07452392578125,-0.529266357421875
1761232087051914000,7.0569140625,-3.0495758056640625,-1.1278228759765625,-0.6104888916015625
1761232087061982500,7.066982421875,-3.444091796875,-1.0975494384765625,-0.6387939453125
1761232087072052200,7.07705224609375,-4.066497802734375,-1.137664794921875,-0.7958831787109375
1761232087082121500,7.08712158203125,-4.362060546875,-1.0842437744140625,-1.09649658203125
1761232087092191200,7.097191162109375,-3.9764556884765625,-0.27703857421875,-0.8477325439453125
1761232087102260200,7.10726025390625,-3.9497222900390625,0.4469146728515625,-0.7793731689453125
1761232087112330200,7.117330322265625,-3.991119384765625,0.4427947998046875,-0.905609130859375
1761232087122399200,7.127399169921875,-3.4973602294921875,0.5682830810546875,-0.797271728515625
1761232087132469500,7.137469482421875,-2.8596343994140625,0.7259979248046875,-0.683441162109375
1761232087142538200,7.147538330078125,-2.4471588134765625,0.8495941162109375,-0.532379150390625
1761232087152608500,7.1576083984375,-2.33074951171875,0.989288330078125,-0.3405914306640625
1761232087162677200,7.16767724609375,-2.20318603515625,0.6932830810546875,-0.1558837890625
1761232087172746500,7.17774658203125,-1.6029052734375,0.4841461181640625,-0.0110321044921875
1761232087182816300,7.187816162109375,-0.9034423828125,0.3868408203125,0.0035552978515625
1761232087192885500,7.197885498046875,-0.4625701904296875,0.18792724609375,0.0172119140625
1761232087202955300,7.207955322265625,-0.4065093994140625,0.23968505859375,0.0437774658203125
1761232087213024300,7.218024169921875,-0.1617279052734375,0.1803436279296875,0.0225372314453125
1761232087223094300,7.22809423828125,0.021881103515625,-0.0732574462890625,0.1232757568359375
1761232087233163300,7.238163330078125,0.0696258544921875,-0.0445404052734375,0.2618408203125
1761232087243233300,7.2482333984375,0.1698455810546875,0.0142974853515625,0.3542022705078125
1761232087253302300,7.25830224609375,0.27984619140625,0.0675048828125,0.3878631591796875
1761232087263372500,7.26837255859375,0.365966796875,0.0955352783203125,0.3231353759765625
1761232087273441300,7.278441162109375,0.44024658203125,0.0788421630859375,0.2527008056640625
1761232087283511300,7.28851123046875,0.449188232421875,0.0293731689453125,0.2208404541015625
1761232087293580300,7.298580322265625,0.421661376953125,-0.0613250732421875,0.187255859375
1761232087303650300,7.308650390625,0.3816680908203125,-0.1547393798828125,0.1490325927734375
1761232087313719300,7.31871923828125,0.3390655517578125,-0.210601806640625,0.101226806640625
1761232087323788300,7.328788330078125,0.2790374755859375,-0.262786865234375,0.0754241943359375
1761232087333858300,7.3388583984375,0.2495574951171875,-0.2879180908203125,0.022735595703125
1761232087343927300,7.34892724609375,0.241180419921875,-0.275177001953125,-0.04071044921875
1761232087353997300,7.358997314453125,0.18975830078125,-0.229522705078125,-0.09906005859375
1761232087364066300,7.36906640625,0.1579742431640625,-0.14678955078125,-0.1628265380859375
1761232087374136300,7.37913623046875,0.15106201171875,-0.0361480712890625,-0.2023773193359375
1761232087384205300,7.389205322265625,0.155975341796875,0.0428619384765625,-0.220611572265625
1761232087394275000,7.399275146484375,0.1658172607421875,0.0549163818359375,-0.214019775390625
1761232087404344300,7.40934423828125,0.1351776123046875,0.0199432373046875,-0.1778564453125
1761232087414414300,7.419414306640625,0.0794677734375,-0.0077667236328125,-0.1438140869140625
1761232087424483300,7.4294833984375,0.0230255126953125,-0.0182952880859375,-0.1318206787109375
1761232087434553300,7.43955322265625,0.0183868408203125,-0.0091094970703125,-0.142974853515625
1761232087444622300,7.449622314453125,0.00909423828125,0.0042877197265625,-0.1607818603515625
1761232087454692400,7.4596923828125,-0.03125,-0.0189666748046875,-0.1506805419921875
1761232087464761300,7.46976123046875,-0.069976806640625,-0.049591064453125,-0.1313934326171875
1761232087474830300,7.479830322265625,-0.1535797119140625,-0.064666748046875,-0.1087799072265625
1761232087484900400,7.489900390625,-0.220245361328125,-0.0822906494140625,-0.09149169921875
1761232087494969300,7.49996923828125,-0.23419189453125,-0.0904541015625,-0.07318115234375
1761232087505039000,7.5100390625,-0.22955322265625,-0.1183929443359375,-0.068389892578125
1761232087515108400,7.5201083984375,-0.2598114013671875,-0.123382568359375,-0.0320281982421875
1761232087525178000,7.53017822265625,-0.2509765625,-0.0917205810546875,0.0329742431640625
1761232087535247400,7.540247314453125,-0.2654876708984375,-0.0338897705078125,0.07415771484375
1761232087545317400,7.5503173828125,-0.2776641845703125,0.0263519287109375,0.11273193359375
1761232087555386400,7.560386474609375,-0.3307647705078125,0.0371551513671875,0.1375885009765625
1761232087565456400,7.570456298828125,-0.402557373046875,-0.0128936767578125,0.1500091552734375
1761232087575525400,7.580525390625,-0.416900634765625,-0.0955657958984375,0.189208984375
1761232087585595400,7.590595458984375,-0.5343475341796875,-0.2969512939453125,0.28369140625
1761232087595664400,7.600664306640625,-0.66070556640625,-0.53887939453125,0.3754730224609375
1761232087605733400,7.6107333984375,-0.73504638671875,-0.7968292236328125,0.3972930908203125
1761232087615803100,7.62080322265625,-0.8684234619140625,-1.0774993896484375,0.3522796630859375
1761232087625872400,7.630872314453125,-0.870849609375,-1.01702880859375,-0.0044097900390625
1761232087635942100,7.640942138671875,-0.807464599609375,-0.94207763671875,-0.508636474609375
1761232087646011400,7.651011474609375,-0.889556884765625,-0.9676055908203125,-0.90118408203125
1761232087656081200,7.6610810546875,-1.246337890625,-0.668853759765625,-1.2147979736328125
1761232087666150400,7.671150390625,-1.682952880859375,-0.2151641845703125,-1.4002227783203125
1761232087676220400,7.681220458984375,-1.8632049560546875,-0.0652008056640625,-1.333221435546875
1761232087686289400,7.691289306640625,-2.0375518798828125,-0.1439666748046875,-1.05712890625
1761232087696359400,7.701359375,-2.0790557861328125,-0.2133636474609375,-0.7795867919921875
1761232087706428400,7.711428466796875,-2.14410400390625,-0.317535400390625,-0.678955078125
1761232087716498400,7.72149853515625,-2.2931671142578125,-0.2429351806640625,-0.6879730224609375
1761232087726567200,7.731567138671875,-2.4134521484375,-0.1107330322265625,-0.7986297607421875
1761232087736637400,7.741637451171875,-2.5250244140625,0.0211639404296875,-0.8850555419921875
1761232087746706200,7.7517060546875,-2.561798095703125,0.077789306640625,-0.9216461181640625
1761232087756775400,7.761775390625,-2.6075592041015625,0.1107330322265625,-0.9066314697265625
1761232087766845200,7.77184521484375,-2.663970947265625,0.079681396484375,-0.86016845703125
1761232087776914400,7.78191455078125,-2.558258056640625,-0.0025177001953125,-0.799835205078125
1761232087786984200,7.791984130859375,-2.3511962890625,-0.0238800048828125,-0.7800445556640625
1761232087797053400,7.802053466796875,-2.1643829345703125,0.060272216796875,-0.8256072998046875
1761232087807123200,7.812123291015625,-2.1318511962890625,0.11407470703125,-0.8837127685546875
1761232087817192200,7.822192138671875,-2.0411224365234375,0.1532135009765625,-0.9132843017578125
1761232087827262500,7.832262451171875,-1.866302490234375,0.18231201171875,-0.880218505859375
1761232087837331200,7.842331298828125,-1.7687225341796875,0.132415771484375,-0.7962799072265625
1761232087847401500,7.8524013671875,-1.611175537109375,0.030059814453125,-0.682647705078125
1761232087857470200,7.86247021484375,-1.4113006591796875,-0.0293731689453125,-0.566009521484375
1761232087867540500,7.87254052734375,-1.267120361328125,-0.0274200439453125,-0.44415283203125
1761232087877609200,7.882609130859375,-1.113677978515625,-0.0373382568359375,-0.352752685546875
1761232087887679200,7.89267919921875,-0.9212646484375,-0.0402679443359375,-0.28240966796875
1761232087897748200,7.902748291015625,-0.701416015625,-0.055511474609375,-0.2262420654296875
1761232087907817500,7.9128173828125,-0.5280303955078125,-0.0825958251953125,-0.189422607421875
1761232087917887200,7.92288720703125,-0.4023590087890625,-0.0983123779296875,-0.1595001220703125
1761232087927956200,7.932956298828125,-0.3114471435546875,-0.0933837890625,-0.14776611328125
1761232087938026200,7.943026123046875,-0.2478790283203125,-0.0717010498046875,-0.147430419921875
1761232087948095200,7.95309521484375,-0.2336273193359375,-0.0543975830078125,-0.1122589111328125
1761232087958165500,7.96316552734375,-0.2774810791015625,-0.0446929931640625,-0.04534912109375
1761232087968234200,7.973234130859375,-0.3027191162109375,-0.1065216064453125,0.004119873046875
1761232087978304500,7.983304443359375,-0.25927734375,-0.142852783203125,0.0010223388671875
1761232087988373200,7.993373291015625,-0.2147979736328125,-0.147735595703125,-0.013427734375
1761232087998443300,8.003443359375,-0.22412109375,-0.16375732421875,-0.0171661376953125
1761232088008512300,8.01351220703125,-0.311767578125,-0.1806488037109375,-0.0093841552734375
1761232088018582300,8.023582275390625,-0.400787353515625,-0.20318603515625,0.01458740234375
1761232088028651300,8.0336513671875,-0.4547882080078125,-0.230560302734375,0.0421142578125
1761232088038721300,8.04372119140625,-0.4956512451171875,-0.2595672607421875,0.058837890625
1761232088048790300,8.053790283203124,-0.53851318359375,-0.28271484375,0.068115234375
1761232088058859300,8.063859375,-0.5874176025390625,-0.308868408203125,0.0753021240234375
1761232088068930000,8.073929931640626,-0.6132659912109375,-0.344146728515625,0.070892333984375
1761232088078999300,8.083999267578125,-0.642578125,-0.3804473876953125,0.082366943359375
1761232088089069300,8.0940693359375,-0.6735382080078125,-0.419708251953125,0.0888519287109375
1761232088099138300,8.10413818359375,-0.7055511474609375,-0.456573486328125,0.0870513916015625
1761232088109208300,8.114208251953125,-0.7643280029296875,-0.49853515625,0.1044921875
1761232088119277300,8.12427734375,-0.80462646484375,-0.5376129150390625,0.1241302490234375
1761232088129347300,8.134347412109374,-0.82745361328125,-0.5560150146484375,0.128082275390625
1761232088139416300,8.144416259765626,-0.851226806640625,-0.54278564453125,0.123291015625
1761232088149486300,8.154486328125,-0.8905029296875,-0.5209808349609375,0.11212158203125
1761232088159555000,8.16455517578125,-0.93902587890625,-0.52764892578125,0.1011199951171875
1761232088169625300,8.174625244140625,-0.93768310546875,-0.5843963623046875,0.101043701171875
1761232088179694000,8.184694091796874,-0.9227447509765625,-0.633880615234375,0.0955810546875
1761232088189763300,8.194763427734374,-0.9494781494140625,-0.6487579345703125,0.100128173828125
1761232088199833000,8.2048330078125,-0.991790771484375,-0.645294189453125,0.1111602783203125
1761232088209902300,8.21490234375,-1.0056304931640625,-0.617889404296875,0.11895751953125
1761232088219972400,8.224972412109375,-1.01031494140625,-0.5757904052734375,0.123626708984375
1761232088230041300,8.235041259765625,-1.000091552734375,-0.5285186767578125,0.1307830810546875
1761232088240111400,8.245111328125,-0.9878082275390625,-0.4944610595703125,0.1521148681640625
1761232088250180400,8.255180419921874,-0.973876953125,-0.48187255859375,0.1840057373046875
1761232088260250400,8.26525048828125,-0.933929443359375,-0.4761199951171875,0.208831787109375
1761232088270319000,8.275319091796876,-0.89642333984375,-0.472076416015625,0.217987060546875
1761232088280389400,8.285389404296875,-0.8703765869140625,-0.4659271240234375,0.221771240234375
1761232088290458000,8.2954580078125,-0.8314971923828125,-0.45599365234375,0.2213134765625
1761232088300528400,8.3055283203125,-0.78558349609375,-0.441070556640625,0.21466064453125
1761232088310597000,8.31559716796875,-0.755828857421875,-0.438751220703125,0.2098846435546875
1761232088320666400,8.325666259765624,-0.74267578125,-0.45550537109375,0.1966400146484375
1761232088330736000,8.335736083984376,-0.7494354248046875,-0.4774322509765625,0.19525146484375
1761232088340805400,8.345805419921875,-0.7494354248046875,-0.4993438720703125,0.1889801025390625
1761232088350875400,8.35587548828125,-0.744964599609375,-0.528045654296875,0.1837615966796875
1761232088360944400,8.3659443359375,-0.7449798583984375,-0.5646209716796875,0.1835479736328125
1761232088371014400,8.376014404296875,-0.75177001953125,-0.5902099609375,0.182281494140625
1761232088381083100,8.386083251953124,-0.77276611328125,-0.6089935302734375,0.1745452880859375
1761232088391153400,8.3961533203125,-0.786895751953125,-0.6178436279296875,0.16619873046875
1761232088401222100,8.40622216796875,-0.7961883544921875,-0.6100616455078125,0.150177001953125
1761232088411292400,8.41629248046875,-0.799530029296875,-0.5933837890625,0.1315155029296875
1761232088421361200,8.426361083984375,-0.79931640625,-0.57989501953125,0.1231536865234375
1761232088431431200,8.43643115234375,-0.7968597412109375,-0.580322265625,0.1352691650390625
1761232088441500200,8.446500244140625,-0.784576416015625,-0.5908203125,0.1509246826171875
1761232088451569400,8.4565693359375,-0.7795257568359375,-0.5952911376953125,0.16400146484375
1761232088461639200,8.46663916015625,-0.7763671875,-0.5926055908203125,0.17584228515625
1761232088471708400,8.47670849609375,-0.7824249267578125,-0.5786285400390625,0.1906280517578125
1761232088481778200,8.486778076171875,-0.7863616943359375,-0.5657958984375,0.20538330078125
1761232088491847200,8.49684716796875,-0.7908935546875,-0.55047607421875,0.21942138671875
1761232088501917400,8.50691748046875,-0.7959442138671875,-0.5287322998046875,0.232696533203125
1761232088511986200,8.516986083984374,-0.8074493408203125,-0.5191192626953125,0.2510223388671875
1761232088522056400,8.527056396484374,-0.8087615966796875,-0.518157958984375,0.263427734375
1761232088532125200,8.537125244140626,-0.8018035888671875,-0.5149993896484375,0.2673797607421875
1761232088542195200,8.5471953125,-0.7996673583984375,-0.5131988525390625,0.26739501953125
1761232088552264200,8.55726416015625,-0.798919677734375,-0.517486572265625,0.26336669921875
1761232088562334200,8.567334228515625,-0.8054656982421875,-0.522186279296875,0.2505645751953125
1761232088572403200,8.5774033203125,-0.8011474609375,-0.5262451171875,0.2288665771484375
1761232088582472400,8.587472412109374,-0.7883758544921875,-0.537628173828125,0.2097625732421875
1761232088592542200,8.597542236328126,-0.787384033203125,-0.546142578125,0.1995697021484375
1761232088602611200,8.607611083984375,-0.7878875732421875,-0.5541534423828125,0.1935882568359375
1761232088612681200,8.61768115234375,-0.770233154296875,-0.5525054931640625,0.1797943115234375
1761232088622750200,8.627750244140625,-0.7618255615234375,-0.55621337890625,0.1764373779296875
1761232088632820500,8.637820556640625,-0.7601776123046875,-0.56231689453125,0.1751708984375
1761232088642889200,8.64788916015625,-0.7514801025390625,-0.5601959228515625,0.17315673828125
1761232088652959200,8.657959228515624,-0.7437896728515625,-0.5573883056640625,0.1746063232421875
1761232088663028200,8.6680283203125,-0.7512664794921875,-0.5559844970703125,0.179229736328125
1761232088673098200,8.67809814453125,-0.751068115234375,-0.55810546875,0.1831817626953125
1761232088683167200,8.688167236328125,-0.7447662353515625,-0.55804443359375,0.1867523193359375
1761232088693237200,8.6982373046875,-0.75592041015625,-0.5631561279296875,0.2051239013671875
1761232088703306200,8.70830615234375,-0.7703399658203125,-0.57342529296875,0.2269287109375
1761232088713375200,8.718375244140624,-0.7822265625,-0.5714874267578125,0.2402496337890625
1761232088723445200,8.7284453125,-0.7890472412109375,-0.5613250732421875,0.246551513671875
1761232088733514200,8.73851416015625,-0.7930145263671875,-0.559356689453125,0.24951171875
1761232088743584300,8.748584228515625,-0.7955169677734375,-0.555419921875,0.2487030029296875
1761232088753653200,8.7586533203125,-0.7890625,-0.548309326171875,0.2415618896484375
1761232088763723300,8.76872314453125,-0.7904052734375,-0.5525360107421875,0.2304840087890625
1761232088773792300,8.778792236328124,-0.804595947265625,-0.5568389892578125,0.2193450927734375
1761232088783862300,8.7888623046875,-0.802947998046875,-0.5534820556640625,0.20941162109375
1761232088793931300,8.79893115234375,-0.79254150390625,-0.54949951171875,0.1987152099609375
1761232088804001300,8.809001220703125,-0.7917938232421875,-0.5478668212890625,0.196014404296875
1761232088814070300,8.8190703125,-0.7880401611328125,-0.550567626953125,0.1945953369140625
1761232088824140300,8.829140380859375,-0.78863525390625,-0.5538482666015625,0.1975250244140625
1761232088834209300,8.839209228515625,-0.79278564453125,-0.555877685546875,0.1999359130859375
1761232088844278300,8.8492783203125,-0.7883758544921875,-0.5545501708984375,0.200469970703125
1761232088854348300,8.859348388671876,-0.78338623046875,-0.5520477294921875,0.2009429931640625
1761232088864417300,8.869417236328125,-0.7801055908203125,-0.548248291015625,0.1979522705078125
1761232088874487000,8.879487060546875,-0.7723388671875,-0.547515869140625,0.1954803466796875
1761232088884556300,8.889556396484375,-0.7640533447265625,-0.5581512451171875,0.1922760009765625
1761232088894626300,8.899626220703125,-0.7645111083984375,-0.5726776123046875,0.1935882568359375
1761232088904695300,8.9096953125,-0.7620086669921875,-0.577911376953125,0.1904754638671875
1761232088914765300,8.919765380859374,-0.7524261474609375,-0.57965087890625,0.1872711181640625
1761232088924834300,8.929834228515626,-0.75,-0.5810394287109375,0.19476318359375
1761232088934904300,8.939904296875,-0.727386474609375,-0.575286865234375,0.2004852294921875
1761232088944973300,8.949973388671875,-0.7293701171875,-0.5637359619140625,0.221282958984375
1761232088955043300,8.960043212890625,-0.78558349609375,-0.5862884521484375,0.2249755859375
1761232088965112300,8.9701123046875,-0.7569580078125,-0.603515625,0.206024169921875
1761232088975181300,8.980181396484374,-0.7510528564453125,-0.612701416015625,0.202484130859375
1761232088985251000,8.9902509765625,-0.7580718994140625,-0.6244964599609375,0.1948089599609375
1761232088995320300,9.0003203125,-0.74639892578125,-0.6292572021484375,0.180694580078125
1761232089005390000,9.01039013671875,-0.7338714599609375,-0.6110687255859375,0.181396484375
1761232089015459300,9.020459228515625,-0.7499542236328125,-0.5790863037109375,0.2086944580078125
