time,seconds_elapsed,z,y,x
1761817979118914300,0.081914306640625,-0.027409520000219345,-0.27840420603752136,-0.017773138359189034
1761817979128842200,0.09184228515625,-0.030159233137965202,-0.3011654317378998,-0.049677807837724686
1761817979138771500,0.101771484375,-0.021732192486524582,-0.27384087443351746,-0.06166869029402733
1761817979148699600,0.11169970703125,-0.02281343750655651,-0.21395543217658997,-0.04337330535054207
1761817979158627600,0.121627685546875,-0.02287309058010578,-0.12050697207450867,-0.014936339110136032
1761817979168555500,0.131555419921875,-0.02173032984137535,-0.018558770418167114,0.021512215957045555
1761817979178483500,0.1414833984375,-0.016896691173315048,0.07484148442745209,0.04039030149579048
1761817979188411400,0.151411376953125,-0.014065751805901527,0.14223197102546692,0.048356615006923676
1761817979198340400,0.16134033203125,-0.010570619255304337,0.17366500198841095,0.03771968185901642
1761817979208268300,0.171268310546875,-0.010794324800372124,0.17542561888694763,0.01649135909974575
1761817979218196500,0.181196533203125,-0.00780572509393096,0.14857029914855957,-0.006403836887329817
1761817979228124400,0.19112451171875,-0.015729693695902824,0.0941600576043129,-0.02003203146159649
1761817979238052400,0.20105224609375,-0.018644258379936218,0.034328944981098175,-0.023081883788108826
1761817979247981300,0.210981201171875,-0.021948708221316338,-0.02695917896926403,-0.02100861258804798
1761817979257909500,0.220909423828125,-0.020668260753154755,-0.08618255704641342,-0.008777245879173279
1761817979267837400,0.23083740234375,-0.026430808007717133,-0.12580639123916626,0.009272860363125801
1761817979277765600,0.240765625,-0.024996962398290634,-0.15241430699825287,0.020590761676430702
1761817979287693600,0.250693603515625,-0.021934060379862785,-0.16306908428668976,0.02954697236418724
1761817979297621500,0.26062158203125,-0.016876718029379845,-0.1563246250152588,0.03026389516890049
1761817979307550500,0.270550537109375,-0.014517423696815968,-0.13234391808509827,0.02473916858434677
1761817979317478400,0.280478515625,-0.00917245913296938,-0.10204674303531647,0.015352324582636356
1761817979327406300,0.29040625,-0.0037878139410167933,-0.05829846113920212,0.008352738805115223
1761817979337334300,0.300334228515625,-0.00737269502133131,-0.001461010193452239,0.005571599118411541
1761817979347262500,0.310262451171875,-0.015663115307688713,0.05885586142539978,0.005649097263813019
1761817979357191400,0.32019140625,-0.010494719259440899,0.10711127519607544,0.005891445092856884
1761817979367119400,0.330119384765625,-0.003882888937368989,0.13283048570156097,-0.002544117858633399
1761817979377047300,0.34004736328125,0.0009616674506105483,0.13009728491306305,-0.002953711897134781
1761817979386975500,0.3499755859375,0.001603489276021719,0.10878187417984009,-0.00749200489372015
1761817979396903400,0.3599033203125,0.003837615018710494,0.07016337662935257,-0.012629242613911629
1761817979406831600,0.36983154296875,0.003885552054271102,0.025657426565885544,-0.00893863383680582
1761817979416760300,0.37976025390625,0.001800030586309731,-0.01587536931037903,0.0006476807757280767
1761817979426688500,0.3896884765625,-0.0015949672088027,-0.03810743987560272,0.014502775855362415
1761817979436616400,0.399616455078125,-0.0035774242132902145,-0.05251513794064522,0.023146864026784897
1761817979446544400,0.40954443359375,-0.004622715059667826,-0.056594304740428925,0.027646541595458984
1761817979456472300,0.419472412109375,0.006621151231229305,-0.061232730746269226,0.033672209829092026
1761817979466400500,0.429400390625,0.06623467803001404,-0.07890653610229492,0.06427033245563507
1761817979476329200,0.4393291015625,0.07560660690069199,-0.05735490098595619,0.0735759511590004
1761817979486257400,0.44925732421875,0.06508392840623856,0.002838397165760398,0.05495805665850639
1761817979496185300,0.459185302734375,0.06692177802324295,0.08007139712572098,0.025783127173781395
1761817979506113500,0.469113525390625,0.06273981183767319,0.15539970993995667,-0.004507666453719139
1761817979516041500,0.47904150390625,0.042154110968112946,0.2015024870634079,-0.008665659464895725
1761817979525970400,0.488970458984375,0.02243819646537304,0.1867099553346634,0.006922620814293623
1761817979535898400,0.4988984375,0.007242732681334019,0.1378936916589737,0.03694763034582138
1761817979545826600,0.50882666015625,0.006509298458695412,0.07957498729228973,0.061047639697790146
1761817979555754500,0.51875439453125,0.005965214688330889,0.02984205074608326,0.06178427115082741
1761817979565682400,0.528682373046875,0.0018381137633696198,-0.009154349565505981,0.04235251620411873
1761817979575610400,0.5386103515625,-0.006846720818430185,-0.06099943816661835,0.024346617981791496
1761817979585539300,0.548539306640625,-0.02461320161819458,-0.11683473736047745,0.03530073165893555
1761817979595467300,0.55846728515625,-0.031869783997535706,-0.1466035544872284,0.06928746402263641
1761817979605395200,0.568395263671875,-0.003853061469271779,-0.11645976454019547,0.09569882601499557
1761817979615323400,0.578323486328125,0.025645975023508072,-0.10514958947896957,0.08333057910203934
1761817979625251600,0.58825146484375,0.026031600311398506,-0.08488825708627701,0.040170323103666306
1761817979635179500,0.598179443359375,0.008952748961746693,-0.038479216396808624,0.004286091309040785
1761817979645108500,0.6081083984375,0.0025334651581943035,0.010406834073364735,-0.012974920682609081
1761817979655036400,0.618036376953125,0.0009177253232337534,0.05299663916230202,-0.0070672305300831795
1761817979664964400,0.62796435546875,-0.0014652712270617485,0.08279048651456833,0.010182064026594162
1761817979674892500,0.637892578125,0.005277852527797222,0.09295390546321869,0.03151211887598038
1761817979684820500,0.647820556640625,0.009512544609606266,0.08702331781387329,0.04568839073181152
1761817979694748400,0.65774853515625,0.004173705819994211,0.07378580421209335,0.04671850427985191
1761817979704677400,0.667677490234375,0.0030751521699130535,0.06910982728004456,0.03855697810649872
1761817979714605300,0.677605224609375,0.0034999263007193804,0.05488375574350357,0.022306637838482857
1761817979724533200,0.687533203125,0.00041278995922766626,0.03557850047945976,0.014742993749678135
1761817979734461200,0.697461181640625,0.004933239426463842,0.009795905090868473,0.004293814767152071
1761817979744389600,0.7073896484375,0.01739976368844509,0.0062243398278951645,-0.00025300029665231705
1761817979754318600,0.717318603515625,0.03810637444257736,0.0011153318919241428,-0.001534779672510922
1761817979764246500,0.72724658203125,0.057443052530288696,0.0252238642424345,-0.0005158542771823704
1761817979774174500,0.737174560546875,0.09272541105747223,0.07292560487985611,0.007889880798757076
1761817979784102400,0.747102294921875,0.17668741941452026,0.1651948094367981,0.02123684622347355
1761817979794030300,0.7570302734375,0.2880168855190277,0.3251495957374573,0.05520093813538551
1761817979803958500,0.76695849609375,0.3813899755477905,0.6037806868553162,0.08683796226978302
1761817979813887200,0.77688720703125,0.43093249201774597,1.0042487382888794,0.11647521704435349
1761817979823815400,0.7868154296875,0.4026592969894409,1.4246982336044312,0.11655111610889435
1761817979833743400,0.796743408203125,0.26017460227012634,1.6883972883224487,0.0551024004817009
1761817979843671300,0.80667138671875,0.02864203043282032,1.637427806854248,-0.05536791682243347
1761817979853599200,0.81659912109375,-0.21497435867786407,1.1690454483032227,-0.20145028829574585
1761817979863528400,0.826528564453125,-0.34786075353622437,0.2881300449371338,-0.32479673624038696
1761817979873456400,0.836456298828125,-0.3313145339488983,-0.9135044813156128,-0.3539367616176605
1761817979883384600,0.846384521484375,-0.273612916469574,-2.130507469177246,-0.24429255723953247
1761817979893312500,0.8563125,-0.11034275591373444,-2.996702194213867,-0.010118148289620876
1761817979903239000,0.866239013671875,0.23832255601882935,-3.4613232612609863,0.3042765259742737
1761817979913167400,0.87616748046875,0.7106653451919556,-3.4491448402404785,0.6388974189758301
1761817979923096000,0.886095947265625,1.1678647994995117,-3.054344654083252,0.8376959562301636
1761817979933024300,0.896024169921875,1.5607966184616089,-2.217669725418091,0.8555407524108887
1761817979942952200,0.9059521484375,1.8324646949768066,-1.0994857549667358,0.728567361831665
1761817979952880000,0.915880126953125,1.9388022422790527,-0.06966643035411835,0.4993634819984436
1761817979962808000,0.92580810546875,1.6389130353927612,0.5789225101470947,0.19497428834438324
1761817979972737000,0.935737060546875,0.8176400065422058,1.1402957439422607,-0.10400496423244476
1761817979982665000,0.9456650390625,0.1155758649110794,1.7428340911865234,-0.40653181076049805
1761817979992593200,0.95559326171875,-0.5127562284469604,2.0206267833709717,-0.4634488821029663
1761817980002521000,0.96552099609375,-1.1315627098083496,2.005176067352295,-0.31850767135620117
1761817980012449000,0.975448974609375,-1.465207576751709,1.7589049339294434,-0.16696502268314362
1761817980022378200,0.985378173828125,-1.4852094650268555,1.2269002199172974,-0.09485087543725967
1761817980032306200,0.99530615234375,-1.2561843395233154,0.5722211599349976,-0.04017431661486626
1761817980042234000,1.005234130859375,-0.7281314134597778,-0.09686103463172913,0.04216689616441727
1761817980052162000,1.015162109375,-0.17415954172611237,-0.6823726892471313,0.20824135839939117
1761817980062090200,1.02509033203125,0.19006074965000153,-1.0732001066207886,0.399591863155365
1761817980072018200,1.03501806640625,0.5232048630714417,-1.1639443635940552,0.5469810366630554
1761817980081947100,1.044947021484375,0.8429932594299316,-1.1494032144546509,0.5634961128234863
1761817980091875000,1.054875,0.9913726449012756,-1.0740318298339844,0.5131897926330566
1761817980101803000,1.064802978515625,0.9650651216506958,-0.8572819232940674,0.422823965549469
1761817980111731000,1.07473095703125,0.84153813123703,-0.4834902286529541,0.30351486802101135
1761817980121659100,1.0846591796875,0.45604556798934937,-0.06571216881275177,0.20330758392810822
1761817980131588000,1.094588134765625,-0.15044783055782318,0.3478109538555145,0.09074641764163971
1761817980141516300,1.104516357421875,-0.6879235506057739,0.8772788047790527,-0.10650806874036789
1761817980151444200,1.1144443359375,-1.1761536598205566,1.237456202507019,-0.3313678205013275
1761817980161372200,1.1243720703125,-1.4190040826797485,1.1930549144744873,-0.4813229441642761
1761817980171300000,1.134300048828125,-1.3503541946411133,0.825776994228363,-0.430145263671875
1761817980181229000,1.14422900390625,-1.030348300933838,0.366522878408432,-0.22194038331508636
1761817980191157000,1.154156982421875,-0.629198431968689,-0.10597064346075058,0.001907089608721435
1761817980201085200,1.164085205078125,-0.3345454931259155,-0.7226487398147583,0.14002341032028198
1761817980211013000,1.17401318359375,0.08329994976520538,-1.3918952941894531,0.17683975398540497
1761817980220941000,1.183941162109375,0.7597615122795105,-1.683903455734253,0.15131628513336182
1761817980230870000,1.1938701171875,1.4427989721298218,-1.5511445999145508,0.2077995389699936
1761817980240798200,1.203798095703125,1.6619774103164673,-1.3152122497558594,0.41521984338760376
1761817980250726100,1.21372607421875,1.404687762260437,-0.9305859804153442,0.5858173966407776
1761817980260654300,1.223654296875,0.8453789353370667,-0.31185802817344666,0.6238998174667358
1761817980270582300,1.233582275390625,0.2152329534292221,0.7104703783988953,0.5685031414031982
1761817980280510200,1.24351025390625,-0.3648437559604645,1.735996961593628,0.4389379322528839
1761817980290439200,1.253439208984375,-1.0446369647979736,2.4140279293060303,0.2399071305990219
1761817980300367000,1.2633671875,-1.7062345743179321,2.5493826866149902,-0.1214662417769432
1761817980310295000,1.273294921875,-2.0369701385498047,2.180133581161499,-0.5707849264144897
1761817980320223000,1.283222900390625,-1.940555214881897,1.4756444692611694,-0.8660764694213867
1761817980330151200,1.293151123046875,-1.4450231790542603,0.7474470734596252,-0.8991971611976624
1761817980340080000,1.303080078125,-0.6733877062797546,-0.26625218987464905,-0.7420347332954407
1761817980350008000,1.313008056640625,-0.08254867047071457,-1.523108959197998,-0.5040128231048584
1761817980359936300,1.322936279296875,0.6567120552062988,-2.3184680938720703,-0.22773543000221252
1761817980369864200,1.3328642578125,1.5230010747909546,-2.4557101726531982,0.2660039961338043
1761817980379792100,1.342792236328125,2.0119407176971436,-1.9463974237442017,0.9890298247337341
1761817980389721000,1.35272119140625,1.8244447708129883,-0.9658680558204651,1.587077260017395
1761817980399649000,1.36264892578125,1.2716996669769287,0.1447792947292328,1.6171880960464478
1761817980409577200,1.3725771484375,0.6462815403938293,1.2216598987579346,1.2004121541976929
1761817980419505200,1.382505126953125,-0.19426214694976807,1.9822834730148315,0.5409050583839417
1761817980429433000,1.39243310546875,-1.011065125465393,2.3627402782440186,-0.18763966858386993
1761817980439362000,1.402362060546875,-1.6680285930633545,2.2526967525482178,-0.8561453223228455
1761817980449290000,1.4122900390625,-2.0016186237335205,1.7051509618759155,-1.3344091176986694
1761817980459218000,1.422218017578125,-1.806199550628662,1.0239760875701904,-1.4817415475845337
1761817980469146000,1.43214599609375,-1.241969108581543,-0.1101539358496666,-1.436427354812622
1761817980479074300,1.44207421875,-0.614922821521759,-1.8666644096374512,-1.244346022605896
1761817980489003300,1.452003173828125,0.04156981408596039,-3.3588757514953613,-0.8512778282165527
1761817980498931200,1.46193115234375,1.259892463684082,-4.142521858215332,0.1376793086528778
1761817980508859100,1.471859130859375,2.2740654945373535,-3.9176220893859863,1.697202444076538
1761817980518787000,1.481787109375,2.649970769882202,-2.4337446689605713,2.9550094604492188
1761817980528715000,1.491715087890625,2.4693961143493652,-0.6952629089355469,3.1590218544006348
1761817980538644000,1.50164404296875,1.7768498659133911,0.8700648546218872,2.462938070297241
1761817980548572200,1.511572265625,0.7563526630401611,1.8080158233642578,1.3191038370132446
1761817980558500000,1.5215,-0.4600203335285187,2.126293182373047,0.2550128400325775
1761817980568428000,1.531427978515625,-1.7708423137664795,2.383904457092285,-0.5790087580680847
1761817980578356000,1.54135595703125,-2.554996967315674,2.0677852630615234,-1.491870641708374
1761817980588285200,1.55128515625,-2.6515510082244873,1.4785971641540527,-2.428809642791748
1761817980598213000,1.561213134765625,-2.2199647426605225,0.8600609302520752,-2.826763153076172
1761817980608141000,1.57114111328125,-1.1869431734085083,-0.3466184139251709,-2.2561264038085938
1761817980618069200,1.5810693359375,-0.12190113961696625,-1.9307055473327637,-1.185840368270874
1761817980627997200,1.5909970703125,0.8542355298995972,-2.838486909866333,-0.019906330853700638
1761817980637926100,1.600926025390625,1.957353115081787,-2.760310411453247,1.455798625946045
1761817980647854000,1.61085400390625,2.0827066898345947,-1.8595812320709229,2.8593010902404785
1761817980657782000,1.620781982421875,1.6350946426391602,-0.5741477012634277,3.3585569858551025
1761817980667710000,1.6307099609375,1.112785816192627,0.5909913778305054,2.813681125640869
1761817980677638100,1.64063818359375,0.44943666458129883,1.5499035120010376,1.6471035480499268
1761817980687567400,1.6505673828125,-0.2888416647911072,1.894547700881958,0.2574895918369293
1761817980697495300,1.660495361328125,-0.9444418549537659,1.7857615947723389,-0.903325617313385
1761817980707423200,1.67042333984375,-1.5579923391342163,1.3906360864639282,-1.7332627773284912
1761817980717351200,1.68035107421875,-1.8128920793533325,0.900938868522644,-2.303363800048828
1761817980727279000,1.690279052734375,-1.5313074588775635,0.5819252133369446,-2.436664581298828
1761817980737208000,1.7002080078125,-0.9061937928199768,-0.0658533126115799,-2.064842462539673
1761817980747136000,1.710135986328125,-0.19379743933677673,-1.2497602701187134,-1.3439439535140991
1761817980757064200,1.720064208984375,0.49685290455818176,-2.4836530685424805,-0.3584391176700592
1761817980766992100,1.7299921875,1.4686909914016724,-3.0345566272735596,0.8081591129302979
1761817980776920000,1.739920166015625,2.1957976818084717,-2.3986101150512695,2.1073999404907227
1761817980786849000,1.74984912109375,2.140732765197754,-0.9447409510612488,2.979222536087036
1761817980796777000,1.75977685546875,1.498984694480896,0.38770484924316406,2.9124841690063477
1761817980806705200,1.769705078125,0.6293792724609375,1.567353367805481,2.056540012359619
1761817980816633300,1.77963330078125,-0.3641936779022217,2.2685415744781494,0.7848745584487915
1761817980826561300,1.789561279296875,-1.2312475442886353,2.3117754459381104,-0.5113732814788818
1761817980836490200,1.799490234375,-1.8629390001296997,2.158233642578125,-1.5046684741973877
1761817980846418200,1.809418212890625,-2.1790785789489746,1.7577784061431885,-2.0973503589630127
1761817980856346000,1.81934619140625,-2.09722900390625,1.041562795639038,-2.2970354557037354
1761817980866274000,1.829274169921875,-1.4701567888259888,0.2099769413471222,-1.9116119146347046
1761817980876202000,1.839201904296875,-0.5691420435905457,-0.8735538721084595,-1.2993770837783813
1761817980886131000,1.849130859375,0.1262250393629074,-2.2204816341400146,-0.5326021313667297
1761817980896059100,1.85905908203125,0.7809836864471436,-3.1642088890075684,0.32996833324432373
1761817980905987800,1.86898779296875,1.564592719078064,-3.222824811935425,1.1719509363174438
1761817980915915800,1.878915771484375,2.122593402862549,-2.3383982181549072,1.9637107849121094
1761817980925843700,1.88884375,2.0094106197357178,-1.000393033027649,2.4479472637176514
1761817980935773000,1.89877294921875,1.4177186489105225,0.38872379064559937,2.262073278427124
1761817980945700900,1.908700927734375,0.5553466081619263,1.7954152822494507,1.4582377672195435
1761817980955628800,1.91862890625,-0.45479121804237366,2.9983294010162354,0.3228723406791687
1761817980965556700,1.928556640625,-1.38569974899292,3.4635183811187744,-0.7592666745185852
1761817980975485000,1.93848486328125,-2.1203739643096924,3.3528034687042236,-1.5762507915496826
1761817980985414000,1.948413818359375,-2.472445487976074,2.324298858642578,-2.0050768852233887
1761817980995341800,1.958341796875,-2.3452229499816895,0.945848822593689,-1.9694321155548096
1761817981005269800,1.968269775390625,-1.6405229568481445,-0.39802807569503784,-1.4857304096221924
1761817981015197700,1.97819775390625,-0.7359184622764587,-1.7086950540542603,-0.8809595704078674
1761817981025125600,1.988125732421875,0.03255821019411087,-3.2030460834503174,-0.24818237125873566
1761817981035054600,1.9980546875,0.8510509133338928,-4.062633514404297,0.4854623079299927
1761817981044982800,2.007982666015625,1.748158574104309,-4.040152549743652,1.3223886489868164
1761817981054911000,2.017910888671875,2.3802106380462646,-2.816357374191284,2.1143147945404053
1761817981064839000,2.0278388671875,2.4714694023132324,-1.0927940607070923,2.457810640335083
1761817981074768000,2.037767822265625,1.9258548021316528,0.47001704573631287,2.105430841445923
1761817981084695800,2.04769580078125,0.9172834753990173,1.8685766458511353,1.3219423294067383
1761817981094623700,2.057623779296875,-0.3036735951900482,2.9526124000549316,0.37372565269470215
1761817981104551700,2.0675517578125,-1.2388287782669067,3.6294620037078857,-0.5840733051300049
1761817981114479900,2.07747998046875,-2.0579593181610107,3.4591565132141113,-1.4622983932495117
1761817981124408800,2.087408935546875,-2.5437064170837402,2.2478275299072266,-2.0954091548919678
1761817981134336800,2.097336669921875,-2.562018394470215,0.6618301272392273,-2.2781577110290527
1761817981144264700,2.1072646484375,-1.9642925262451172,-0.6395091414451599,-1.730170488357544
1761817981154192600,2.117192626953125,-0.9013399481773376,-1.7136051654815674,-0.8343244194984436
1761817981164120800,2.127120849609375,0.16800391674041748,-2.9083516597747803,0.20986215770244598
1761817981174049800,2.1370498046875,1.037809133529663,-3.6144566535949707,1.1300482749938965
1761817981183977700,2.146977783203125,1.942434549331665,-3.402123212814331,1.8391354084014893
1761817981193906000,2.156906005859375,2.4128036499023438,-2.167762279510498,2.331932544708252
1761817981203833900,2.166833740234375,2.3062562942504883,-0.4911803901195526,2.296489715576172
1761817981213761800,2.17676171875,1.465059518814087,1.0069817304611206,1.652605652809143
1761817981223690800,2.186690673828125,0.2043752372264862,2.2737631797790527,0.6822315454483032
1761817981233618700,2.19661865234375,-0.9735185503959656,3.1204264163970947,-0.4298730790615082
1761817981243546600,2.206546630859375,-1.7949684858322144,3.6072580814361572,-1.382193684577942
1761817981253474800,2.216474853515625,-2.296696186065674,3.1176352500915527,-1.9830172061920166
1761817981263402800,2.22640283203125,-2.4282922744750977,1.8687366247177124,-2.1853575706481934
1761817981273332000,2.23633203125,-2.018646478652954,0.20992153882980347,-1.869345784187317
1761817981283260000,2.246260009765625,-1.1788301467895508,-1.5116446018218994,-1.21235191822052
1761817981293187800,2.256187744140625,-0.2131546139717102,-2.6474053859710693,-0.325729638338089
1761817981303115800,2.26611572265625,0.7169498801231384,-3.5855391025543213,0.6724194288253784
1761817981313043700,2.276043701171875,1.800612211227417,-3.977147102355957,1.5630524158477783
1761817981322972700,2.28597265625,2.697831153869629,-3.2178235054016113,2.2776644229888916
1761817981332900900,2.29590087890625,3.0317986011505127,-1.565787434577942,2.6418142318725586
1761817981342828800,2.305828857421875,2.371291160583496,0.29723086953163147,2.1971089839935303
1761817981352756700,2.3157568359375,0.9919326901435852,1.8949402570724487,1.1762667894363403
1761817981362684700,2.3256845703125,-0.3511817157268524,2.917410373687744,-0.026029469445347786
1761817981372614000,2.33561376953125,-1.5715726613998413,3.685206890106201,-1.0184037685394287
1761817981382541800,2.345541748046875,-2.395411491394043,3.921323537826538,-1.7850675582885742
1761817981392469800,2.3554697265625,-2.801115036010742,2.9822866916656494,-2.219571352005005
1761817981402398000,2.36539794921875,-2.67276930809021,1.5747122764587402,-2.1338019371032715
1761817981412326000,2.375325927734375,-1.8447314500808716,-0.23835238814353943,-1.5756715536117554
1761817981422254800,2.3852548828125,-0.7000571489334106,-2.0729055404663086,-0.7463652491569519
1761817981432182800,2.395182861328125,0.4364670515060425,-3.4350523948669434,0.18988445401191711
1761817981442110700,2.40511083984375,1.346182107925415,-4.016308784484863,1.0197464227676392
1761817981452038700,2.41503857421875,2.1047308444976807,-3.9311306476593018,1.6143187284469604
1761817981461966800,2.424966796875,2.4091477394104004,-2.7294132709503174,2.061455011367798
1761817981471895800,2.434895751953125,1.941598653793335,-0.9647154211997986,2.1442079544067383
1761817981481823700,2.44482373046875,1.0598288774490356,0.7069462537765503,1.6854890584945679
1761817981491752000,2.454751953125,-0.012426575645804405,2.369922637939453,0.8973414897918701
1761817981501679900,2.464679931640625,-1.0117928981781006,3.272231101989746,-0.10791288316249847
1761817981511607800,2.47460791015625,-1.7455623149871826,3.515673875808716,-0.9861480593681335
1761817981521536800,2.484536865234375,-2.1490478515625,3.1288235187530518,-1.664124608039856
1761817981531464700,2.494464599609375,-2.2633697986602783,1.8498564958572388,-2.002746820449829
1761817981541393000,2.504392822265625,-1.8090147972106934,0.1673937886953354,-1.8959325551986694
1761817981551320800,2.51432080078125,-0.7647538781166077,-1.3050404787063599,-1.2337794303894043
1761817981561248800,2.524248779296875,0.057682204991579056,-2.649190902709961,-0.3691852390766144
1761817981571177700,2.534177734375,0.7151439785957336,-3.8419721126556396,0.5113990902900696
1761817981581105700,2.544105712890625,1.6454087495803833,-4.50668478012085,1.182341456413269
1761817981591033600,2.55403369140625,2.4209506511688232,-3.9221878051757812,1.6689660549163818
1761817981600961800,2.5639619140625,2.769118309020996,-2.0330162048339844,2.1211843490600586
1761817981610890800,2.573890869140625,2.390594720840454,-0.276306688785553,2.141279697418213
1761817981620819000,2.58381884765625,1.3308817148208618,1.1988924741744995,1.571244239807129
1761817981630747000,2.593746826171875,0.08289728313684464,2.5232532024383545,0.7409856915473938
1761817981640674800,2.6036748046875,-0.9366869926452637,3.468297004699707,-0.15912067890167236
1761817981650602800,2.613602783203125,-1.8303735256195068,4.083930492401123,-0.8077977299690247
1761817981660531700,2.62353173828125,-2.419123411178589,4.004370212554932,-1.3883626461029053
1761817981670459600,2.633459716796875,-2.8261423110961914,2.941117525100708,-1.8343919515609741
1761817981680387800,2.643387939453125,-2.6677167415618896,0.9621537327766418,-1.9154576063156128
1761817981690315800,2.653315673828125,-1.8571058511734009,-1.0525989532470703,-1.5482531785964966
1761817981700243700,2.66324365234375,-0.7057486176490784,-2.3964245319366455,-0.7069105505943298
1761817981710171600,2.673171630859375,0.32831528782844543,-3.279815912246704,0.11382456868886948
1761817981720100900,2.683100830078125,1.1910662651062012,-4.069379806518555,0.8826104402542114
1761817981730028800,2.69302880859375,1.9188472032546997,-4.417852878570557,1.5036002397537231
1761817981739956700,2.702956787109375,2.366844892501831,-3.213064670562744,2.062209367752075
1761817981749885000,2.712885009765625,2.267138957977295,-1.3200753927230835,2.3428430557250977
1761817981759812900,2.722812744140625,1.771022915840149,0.04102333262562752,2.049785852432251
1761817981769741800,2.732741943359375,1.0008611679077148,1.4224539995193481,1.4068065881729126
1761817981779669800,2.742669677734375,0.02027278020977974,2.420935869216919,0.5712525844573975
1761817981789597700,2.75259765625,-0.8733184337615967,2.984130620956421,-0.27554449439048767
1761817981799525600,2.762525634765625,-1.5013713836669922,3.090327024459839,-1.0862435102462769
1761817981809454600,2.77245458984375,-1.9414571523666382,2.415057897567749,-1.7778406143188477
1761817981819382800,2.7823828125,-2.041743755340576,1.348880410194397,-2.162921667098999
1761817981829311000,2.79231103515625,-1.6505489349365234,0.25041624903678894,-2.0822343826293945
1761817981839239000,2.802239013671875,-0.8582449555397034,-0.7627463936805725,-1.344922423362732
1761817981849166800,2.812166748046875,-0.10462148487567902,-2.01379656791687,-0.3703138828277588
1761817981859095800,2.822095703125,0.3384789824485779,-3.1495940685272217,0.4322499632835388
1761817981869023700,2.832023681640625,0.8767166137695312,-3.972581386566162,1.0689022541046143
1761817981878951700,2.84195166015625,1.5529286861419678,-3.6205873489379883,1.6231462955474854
1761817981888879900,2.8518798828125,1.9962419271469116,-2.0691542625427246,2.131805419921875
1761817981898807800,2.861807861328125,1.995776891708374,-0.6685258746147156,2.2418832778930664
1761817981908737800,2.87173779296875,1.5639886856079102,0.6140685081481934,1.7863270044326782
1761817981918666000,2.881666015625,0.8311241269111633,1.9478269815444946,1.0881308317184448
1761817981928594000,2.891593994140625,-0.22217661142349243,2.9756534099578857,0.22115235030651093
1761817981938521900,2.90152197265625,-1.1245287656784058,3.64277720451355,-0.6144890189170837
1761817981948449800,2.91144970703125,-1.737829566001892,3.9543612003326416,-1.3706046342849731
1761817981958378800,2.921378662109375,-2.191964626312256,3.2355542182922363,-2.036689281463623
1761817981968306700,2.931306640625,-2.4427106380462646,1.5356178283691406,-2.372951030731201
1761817981978235000,2.94123486328125,-2.3555612564086914,-0.4864655137062073,-2.1645803451538086
1761817981988163000,2.9511630859375,-1.683248519897461,-2.1031129360198975,-1.1491793394088745
1761817981998091000,2.961091064453125,-0.7483402490615845,-3.1511433124542236,-0.06666424870491028
1761817982008019000,2.97101904296875,0.10286406427621841,-3.8225367069244385,0.8141760230064392
1761817982017948000,2.980947998046875,0.9842297434806824,-4.072673797607422,1.438151478767395
1761817982027875800,2.990875732421875,1.7315593957901,-3.74182391166687,1.9118151664733887
1761817982037803800,3.0008037109375,2.2643468379974365,-2.74246883392334,2.234729051589966
1761817982047732000,3.01073193359375,2.6397476196289062,-1.0767866373062134,2.198957920074463
1761817982057660000,3.020659912109375,2.5894646644592285,0.4900309443473816,1.727670669555664
1761817982067588900,3.0305888671875,1.946292757987976,1.747421383857727,1.0877801179885864
1761817982077516800,3.040516845703125,0.8537138104438782,2.473264694213867,0.40317460894584656
1761817982087444700,3.05044482421875,-0.41615086793899536,2.7786736488342285,-0.3633318543434143
1761817982097372700,3.06037255859375,-1.157374620437622,3.2699480056762695,-1.2087891101837158
1761817982107300900,3.07030078125,-1.6166099309921265,3.551889657974243,-1.9223511219024658
1761817982117229800,3.080229736328125,-2.046325206756592,2.7594566345214844,-2.3005855083465576
1761817982127158000,3.090157958984375,-2.2531509399414062,1.2668912410736084,-2.1853771209716797
1761817982137086000,3.1000859375,-2.01326847076416,0.038411837071180344,-1.3058924674987793
1761817982147014000,3.110013916015625,-1.5942771434783936,-0.9678012728691101,-0.2593892216682434
1761817982156941800,3.11994189453125,-0.8889815211296082,-1.559211015701294,0.40740665793418884
1761817982166870800,3.129870849609375,-0.1132035180926323,-2.1109211444854736,0.780576229095459
1761817982176798700,3.139798828125,0.36273133754730225,-2.5276453495025635,0.9035128355026245
1761817982186727000,3.149726806640625,0.8374411463737488,-2.6564974784851074,0.8013805747032166
1761817982196654800,3.15965478515625,1.3235721588134766,-2.357417583465576,0.701075553894043
1761817982206582800,3.169582763671875,1.6033388376235962,-1.5787339210510254,0.7855986952781677
1761817982216512000,3.179511962890625,1.6761595010757446,-0.6057895421981812,0.956540584564209
1761817982226440000,3.18943994140625,1.585957646369934,0.5209087133407593,1.0082170963287354
1761817982236368000,3.199367919921875,1.2680801153182983,1.466400146484375,0.8672040700912476
1761817982246295800,3.2092958984375,0.5836027264595032,2.1153762340545654,0.5629674792289734
1761817982256224000,3.21922412109375,-0.1834864765405655,2.547321319580078,0.09391344338655472
1761817982266153000,3.229153076171875,-0.8412337303161621,2.8837850093841553,-0.543412983417511
1761817982276081000,3.239080810546875,-1.4867842197418213,3.216087818145752,-1.189051628112793
1761817982286008800,3.2490087890625,-1.9724494218826294,2.6827080249786377,-1.5482078790664673
1761817982295936800,3.258936767578125,-2.2200028896331787,1.4966187477111816,-1.4343351125717163
1761817982305864700,3.26886474609375,-2.1194212436676025,0.4727307856082916,-0.6929433345794678
1761817982315794000,3.2787939453125,-1.8097833395004272,-0.3147651255130768,-0.11913810670375824
1761817982325721900,3.288721923828125,-1.236129641532898,-0.9473060965538025,-0.016019713133573532
1761817982335650000,3.298650146484375,-0.5083652138710022,-1.6074645519256592,-0.0368749275803566
1761817982345578000,3.308577880859375,0.025289643555879593,-2.0525567531585693,-0.02502758800983429
1761817982355506000,3.318505859375,0.6651141047477722,-2.3363237380981445,0.07164276391267776
1761817982365435000,3.328434814453125,1.3686403036117554,-2.367438793182373,0.45559629797935486
1761817982375362800,3.33836279296875,2.0204010009765625,-2.110158681869507,1.1220496892929077
1761817982385290800,3.348290771484375,2.3890380859375,-1.5996487140655518,1.6852734088897705
1761817982395219000,3.358218994140625,2.368765354156494,-0.37130191922187805,1.8081638813018799
1761817982405147000,3.36814697265625,1.7803910970687866,1.035216212272644,1.4056888818740845
1761817982415075800,3.378075927734375,0.7133708596229553,1.929505705833435,0.6688137650489807
1761817982425003800,3.388003662109375,-0.26168832182884216,2.4616150856018066,-0.1377091258764267
1761817982434932000,3.397931884765625,-0.9966430068016052,2.6565544605255127,-0.8611627221107483
1761817982444860000,3.40785986328125,-2.1941654682159424,2.2049636840820312,-1.3515928983688354
1761817982454788000,3.4177880859375,-2.909395456314087,1.2097781896591187,-1.472902774810791
1761817982464716800,3.427716796875,-2.839200258255005,0.1758543848991394,-1.3146215677261353
1761817982474645000,3.43764501953125,-2.502891778945923,-0.24097773432731628,-0.811138927936554
1761817982484573000,3.447572998046875,-1.7186875343322754,-0.4970257580280304,-0.25784966349601746
1761817982494500900,3.4575009765625,-0.5235300660133362,-0.7665823698043823,0.1115342527627945
1761817982504428800,3.4674287109375,0.4007210433483124,-1.3635096549987793,0.4127068817615509
1761817982514356700,3.477356689453125,1.0783360004425049,-1.6911677122116089,0.5517736673355103
1761817982524285700,3.48728564453125,1.7329061031341553,-1.731119990348816,0.6326555013656616
1761817982534214000,3.4972138671875,2.1403017044067383,-1.5821131467819214,0.7947897911071777
1761817982544141800,3.507141845703125,2.1823508739471436,-1.2901153564453125,0.9972462058067322
1761817982554070000,3.517070068359375,1.8801238536834717,-0.88144451379776,1.048425316810608
1761817982563998000,3.526998046875,1.3518192768096924,-0.2065097689628601,0.8682581782341003
1761817982573927000,3.536927001953125,0.6420252919197083,0.2659560441970825,0.5304585695266724
1761817982583854800,3.546854736328125,-0.13557647168636322,0.94577956199646,0.10081875324249268
1761817982593782800,3.55678271484375,-0.8888323903083801,1.6181614398956299,-0.41711705923080444
1761817982603711000,3.5667109375,-1.5772603750228882,2.119389295578003,-0.7979874610900879
1761817982613639000,3.576638916015625,-2.0316920280456543,2.310101270675659,-0.9782637357711792
1761817982623568000,3.58656787109375,-2.1676104068756104,2.047386407852173,-0.9957287311553955
1761817982633495800,3.596495849609375,-1.9323846101760864,1.3719381093978882,-0.8049452304840088
1761817982643423700,3.606423828125,-1.3792282342910767,0.25620460510253906,-0.5448878407478333
1761817982653351700,3.6163515625,-0.6314783692359924,-0.7200987935066223,-0.32215967774391174
1761817982663279900,3.62627978515625,0.04586442559957504,-1.7788456678390503,-0.06874816864728928
1761817982673208800,3.636208740234375,0.6279177069664001,-2.6426947116851807,0.20876093208789825
1761817982683137000,3.646136962890625,1.257846713066101,-3.0878727436065674,0.508741021156311
1761817982693065000,3.65606494140625,1.799590826034546,-3.0334858894348145,0.8170588612556458
1761817982702993000,3.665992919921875,2.262202501296997,-2.435802936553955,1.1528358459472656
1761817982712920800,3.6759208984375,2.656381368637085,-1.4030938148498535,1.590220332145691
1761817982722849800,3.685849853515625,2.551396131515503,-0.4487399756908417,1.6416380405426025
1761817982732777700,3.69577783203125,1.914540410041809,0.5506365299224854,1.207875370979309
1761817982742706000,3.705705810546875,0.8310950994491577,1.5004228353500366,0.7262770533561707
1761817982752633900,3.7156337890625,-0.26070404052734375,2.528367757797241,0.35635626316070557
1761817982762561800,3.725561767578125,-1.2956316471099854,3.16766357421875,-0.12875637412071228
1761817982772489700,3.73548974609375,-2.125309705734253,3.9261057376861572,-0.7325040698051453
1761817982782419000,3.7454189453125,-2.801199436187744,4.628077030181885,-1.281635046005249
1761817982792347000,3.755346923828125,-3.3670568466186523,3.761857032775879,-1.5651218891143799
1761817982802274800,3.76527490234375,-3.4349265098571777,2.1775968074798584,-1.6400361061096191
1761817982812203000,3.775203125,-2.9448111057281494,0.8381404876708984,-1.4658629894256592
1761817982822131000,3.785130859375,-1.9578795433044434,-0.08370208740234375,-0.9993738532066345
1761817982832060000,3.795059814453125,-0.7829586863517761,-0.8016162514686584,-0.42322689294815063
1761817982841987800,3.80498779296875,0.24468804895877838,-1.8755221366882324,0.15097753703594208
1761817982851915800,3.814915771484375,1.2712346315383911,-2.9240589141845703,0.5655456781387329
1761817982861843700,3.82484375,2.4332149028778076,-3.325432300567627,0.9952827095985413
1761817982871772000,3.83477197265625,3.276949644088745,-3.0439200401306152,1.5843347311019897
1761817982881701000,3.844701171875,3.79441499710083,-2.272961139678955,1.9731181859970093
1761817982891629000,3.854629150390625,3.833185911178589,-1.096266269683838,1.8997153043746948
1761817982901557000,3.864556884765625,2.8756096363067627,-0.030238064005970955,1.4175827503204346
1761817982911484000,3.87448388671875,1.965580940246582,-0.005889580585062504,0.8806453347206116
1761817982921412000,3.884412109375,1.3628649711608887,-0.31246069073677063,0.23585407435894012
1761817982931341000,3.894341064453125,0.4643780589103699,0.5986354947090149,-0.46565529704093933
1761817982941269000,3.90426904296875,-0.7148193120956421,1.7441459894180298,-1.0018763542175293
1761817982951197000,3.914197021484375,-1.9419547319412231,2.3204638957977295,-1.3654929399490356
1761817982961124900,3.924124755859375,-2.4006588459014893,1.6749749183654785,-1.6611472368240356
1761817982971052800,3.934052734375,-2.248060703277588,0.6494283676147461,-1.6443581581115723
1761817982980981000,3.94398095703125,-1.6145515441894531,-0.1905912458896637,-1.1490384340286255
1761817982990910000,3.953909912109375,-0.5217154026031494,-0.7926536798477173,-0.38304033875465393
1761817983000838100,3.963838134765625,0.2596805691719055,-1.4060415029525757,0.263937383890152
1761817983010766000,3.97376611328125,0.7552511692047119,-1.992773175239563,0.6263685822486877
1761817983020694000,3.983694091796875,1.1116899251937866,-2.4562039375305176,0.9153550863265991
1761817983030622000,3.9936220703125,1.2573564052581787,-2.4961111545562744,1.1549171209335327
1761817983040551000,4.003551025390625,1.3183451890945435,-2.094090223312378,1.336245059967041
1761817983050478800,4.013478759765625,1.2898218631744385,-1.4243783950805664,1.3941664695739746
1761817983060407000,4.023406982421875,1.2214945554733276,-0.40395545959472656,1.1882606744766235
1761817983070335000,4.0333349609375,1.017435073852539,0.3761259615421295,0.7035768032073975
1761817983080263000,4.043262939453125,0.4857957363128662,0.7436834573745728,0.157279372215271
1761817983090192100,4.053192138671875,-0.14604802429676056,1.3216900825500488,-0.43065232038497925
1761817983100120000,4.0631201171875,-0.737751305103302,1.6380683183670044,-0.9451121687889099
1761817983110048000,4.073048095703125,-1.2960911989212036,1.960357666015625,-1.2571526765823364
1761817983119976000,4.082975830078125,-1.6834397315979004,2.3357675075531006,-1.3110326528549194
1761817983129904000,4.092904052734375,-1.9149491786956787,1.936151146888733,-1.163486123085022
1761817983139833000,4.1028330078125,-1.9310048818588257,1.2523584365844727,-0.8356029987335205
1761817983149761000,4.112760986328125,-1.7055035829544067,0.48556697368621826,-0.4637085497379303
1761817983159689000,4.12268896484375,-1.0766494274139404,-0.4037935435771942,-0.18827882409095764
1761817983169617000,4.132616943359375,-0.4174116253852844,-1.516524076461792,0.06282184273004532
1761817983179544800,4.142544921875,0.09863869100809097,-2.5783963203430176,0.26404228806495667
1761817983189473000,4.15247314453125,0.8721594214439392,-2.916386604309082,0.43049973249435425
1761817983199402000,4.162402099609375,1.6358325481414795,-2.4242377281188965,0.6751720309257507
1761817983209330200,4.172330078125,1.9020516872406006,-1.7159868478775024,0.9155313968658447
1761817983219258000,4.182258056640625,1.7520073652267456,-1.0876450538635254,1.034548282623291
1761817983229186000,4.19218603515625,1.3807387351989746,-0.5797184705734253,0.9474570751190186
1761817983239114000,4.202114013671875,0.8052898645401001,0.009978065267205238,0.7010262608528137
1761817983249043000,4.21204296875,0.15134185552597046,0.9370518922805786,0.27808940410614014
1761817983258971000,4.221970947265625,-0.3829343318939209,1.9603261947631836,-0.20220182836055756
1761817983268899000,4.231899169921875,-1.0362919569015503,2.5631563663482666,-0.6138887405395508
1761817983278827000,4.241826904296875,-1.5979970693588257,3.100633144378662,-0.9046236276626587
1761817983288755000,4.2517548828125,-1.911058783531189,3.516497850418091,-1.0879987478256226
1761817983298684200,4.26168408203125,-2.1090335845947266,2.817675828933716,-1.0056495666503906
1761817983308612000,4.271612060546875,-2.0445027351379395,1.4733844995498657,-0.6729896068572998
1761817983318540000,4.2815400390625,-1.7159359455108643,0.14421603083610535,-0.34469079971313477
1761817983328468000,4.291468017578125,-1.1142040491104126,-0.9324624538421631,-0.0888904556632042
1761817983338396200,4.301396240234375,-0.39012274146080017,-1.759453296661377,0.09991834312677383
1761817983348324000,4.311323974609375,-0.003718305379152298,-2.3646862506866455,0.15238741040229797
1761817983358253000,4.321253173828125,0.5866491198539734,-2.5994858741760254,0.1444309502840042
1761817983368181000,4.331180908203125,1.3214964866638184,-2.2425448894500732,0.252959281206131
1761817983378109000,4.34110888671875,1.920295238494873,-1.4999279975891113,0.43621566891670227
1761817983388036900,4.351036865234375,2.3572516441345215,-0.6722726821899414,0.7498907446861267
1761817983397965000,4.360965087890625,2.494328260421753,0.029043368995189667,1.2543329000473022
1761817983407894000,4.37089404296875,2.0006840229034424,0.589599609375,1.3397349119186401
1761817983417822000,4.380822021484375,1.1768519878387451,1.5187160968780518,0.9098133444786072
1761817983427750100,4.390750244140625,0.19304242730140686,2.2763001918792725,0.3384353220462799
1761817983437678000,4.400677978515625,-0.6090958118438721,2.8003807067871094,-0.13641883432865143
1761817983447606000,4.41060595703125,-1.3841686248779297,3.230337142944336,-0.602141261100769
1761817983457535000,4.420534912109375,-2.0281155109405518,4.042794704437256,-1.0495909452438354
1761817983467463000,4.430462890625,-2.5352401733398438,3.830996513366699,-1.1984012126922607
1761817983477391000,4.44039111328125,-2.6595091819763184,2.6244003772735596,-0.8911435008049011
1761817983487319000,4.450319091796875,-2.486726999282837,1.0378040075302124,-0.46710753440856934
1761817983497247000,4.4602470703125,-2.0091278553009033,-0.1972970962524414,-0.170841783285141
1761817983507175000,4.4701748046875,-1.3531279563903809,-1.009057641029358,-0.07555653899908066
1761817983517103900,4.480103759765625,-0.5082941055297852,-1.8434118032455444,-0.026824690401554108
1761817983527031800,4.49003173828125,0.18909135460853577,-2.627694845199585,0.02797996997833252
1761817983536960000,4.4999599609375,1.2791551351547241,-2.860715866088867,0.2201041430234909
1761817983546888200,4.50988818359375,2.3778727054595947,-2.6327438354492188,0.6393315196037292
1761817983556816100,4.519816162109375,2.9715757369995117,-2.314837694168091,1.1459747552871704
1761817983566745000,4.5297451171875,3.0866031646728516,-1.849545955657959,1.5167392492294312
1761817983576673000,4.539673095703125,2.770836591720581,-0.8034825921058655,1.5489940643310547
1761817983586601000,4.54960107421875,1.8569351434707642,0.35864949226379395,1.2111976146697998
1761817983596529000,4.55952880859375,0.20830340683460236,1.4048659801483154,0.6010909080505371
1761817983606457000,4.56945703125,-0.9944043755531311,2.4835047721862793,-0.19869019091129303
1761817983616386000,4.579385986328125,-1.9529844522476196,3.125826358795166,-0.9420519471168518
1761817983626314000,4.58931396484375,-2.5512640476226807,3.3363988399505615,-1.4202646017074585
1761817983636242000,4.599241943359375,-2.756753444671631,2.522127866744995,-1.4449694156646729
1761817983646169900,4.609169921875,-2.447707176208496,1.300395131111145,-1.067041039466858
1761817983656097800,4.619097900390625,-1.8118747472763062,-0.18583591282367706,-0.5354871153831482
1761817983666027000,4.629027099609375,-0.8878006935119629,-1.342368245124817,-0.0249631404876709
1761817983675955000,4.638954833984375,-0.06623707711696625,-2.3706367015838623,0.42778781056404114
1761817983685883100,4.648883056640625,0.5146782398223877,-3.1577272415161133,0.6692795157432556
1761817983695811000,4.65881103515625,1.419488787651062,-3.279632091522217,0.789980411529541
1761817983705739000,4.668739013671875,2.371187210083008,-2.681607961654663,0.8846884965896606
1761817983715667000,4.6786669921875,2.951371908187866,-2.0492544174194336,0.9854750633239746
1761817983725596000,4.688595947265625,2.9011733531951904,-1.4442745447158813,0.9858910441398621
1761817983735523800,4.69852392578125,2.3525137901306152,-0.29917871952056885,0.7686841487884521
1761817983745452000,4.7084521484375,1.3439298868179321,1.01810884475708,0.33612313866615295
1761817983755380000,4.7183798828125,-0.08283762633800507,1.9358824491500854,-0.05633118376135826
1761817983765308000,4.728307861328125,-1.2904794216156006,2.660370349884033,-0.2674737870693207
1761817983775237000,4.738237060546875,-2.266774892807007,2.93339467048645,-0.3502906262874603
1761817983785165000,4.7481650390625,-2.7996997833251953,2.9631152153015137,-0.41366881132125854
1761817983795093000,4.758093017578125,-2.866518974304199,2.507534980773926,-0.4972284138202667
1761817983805021000,4.76802099609375,-2.5487048625946045,1.589836835861206,-0.614697277545929
1761817983814949000,4.77794921875,-1.8264083862304688,0.35290613770484924,-0.6491745114326477
1761817983824878000,4.787878173828125,-0.7693041563034058,-0.6775987148284912,-0.5738608837127686
1761817983834806000,4.797805908203125,0.36312466859817505,-1.7546697854995728,-0.3135563135147095
1761817983844734000,4.80773388671875,1.219521164894104,-2.3311045169830322,0.10145098716020584
1761817983854662000,4.817661865234375,1.915225625038147,-2.261050224304199,0.5085707902908325
1761817983864589800,4.82758984375,2.179720640182495,-1.8388391733169556,0.9636778831481934
1761817983874519000,4.83751904296875,1.932499647140503,-1.4887735843658447,1.213129997253418
1761817983884447000,4.847447021484375,1.4803189039230347,-1.0215057134628296,1.0017317533493042
1761817983894375200,4.857375244140625,1.0516916513442993,-0.09909089654684067,0.5611410737037659
1761817983904302800,4.867302734375,0.4480009377002716,1.1700043678283691,0.12913987040519714
1761817983914230800,4.877230712890625,-0.3801704943180084,2.3159091472625732,-0.28361520171165466
1761817983924158700,4.88715869140625,-1.2012861967086792,2.7298550605773926,-0.5791462063789368
1761817983934087700,4.897087646484375,-1.8176287412643433,2.890960454940796,-0.6965769529342651
1761817983944015600,4.907015625,-2.149703025817871,2.426119327545166,-0.7146494388580322
1761817983953943800,4.91694384765625,-1.9867101907730103,1.4047578573226929,-0.6697248220443726
1761817983963871700,4.926871826171875,-1.3350902795791626,0.12224815040826797,-0.5380474925041199
1761817983973799700,4.936799560546875,-0.44984757900238037,-1.179724931716919,-0.3137472867965698
1761817983983728600,4.946728759765625,0.2967680096626282,-2.3015894889831543,-0.09872151911258698
1761817983993656600,4.956656494140625,1.0679781436920166,-3.0816917419433594,0.10210532695055008
1761817984003584800,4.966584716796875,1.9566394090652466,-3.459038734436035,0.5293522477149963
1761817984013513000,4.976512939453125,2.6416232585906982,-3.159320116043091,1.166856050491333
1761817984023441000,4.98644091796875,2.9003381729125977,-2.193325996398926,1.663217544555664
1761817984033369900,4.996369873046875,2.4637606143951416,-0.9445564150810242,1.703627347946167
1761817984043297800,5.0062978515625,1.4052393436431885,0.5580866932868958,1.3201593160629272
1761817984053225700,5.016225830078125,0.004751079250127077,2.113213300704956,0.7719476222991943
1761817984063153700,5.026153564453125,-1.1713874340057373,3.3977601528167725,0.11800093948841095
1761817984073081900,5.036081787109375,-2.2080769538879395,4.257375717163086,-0.5311546921730042
1761817984083010600,5.046010498046875,-2.8659777641296387,4.278924465179443,-1.1308895349502563
1761817984092938800,5.055938720703125,-3.2090835571289062,3.2003402709960938,-1.654109001159668
1761817984102866700,5.06586669921875,-2.920552968978882,1.2403850555419922,-2.039839744567871
1761817984112794600,5.075794677734375,-1.8315149545669556,-0.7806409597396851,-1.9806122779846191
1761817984122722800,5.085722900390625,-0.2540024518966675,-2.856896162033081,-1.3392834663391113
1761817984132651800,5.09565185546875,1.0071308612823486,-4.528575420379639,-0.2805866599082947
1761817984142579700,5.105579833984375,2.1887292861938477,-5.229214668273926,0.590722918510437
1761817984152508000,5.1155078125,3.234405040740967,-4.762257099151611,1.3604841232299805
1761817984162435800,5.125435791015625,3.723422050476074,-3.4471044540405273,2.2121734619140625
1761817984172363800,5.13536376953125,3.586500406265259,-1.6881394386291504,2.6460165977478027
1761817984182292700,5.145292724609375,2.7280468940734863,-0.15272988379001617,2.340869665145874
1761817984192220700,5.155220703125,1.3557466268539429,0.7806851863861084,1.5200157165527344
1761817984202148600,5.165148681640625,-0.18701596558094025,1.3944737911224365,0.4219491183757782
1761817984212076500,5.17507666015625,-1.3249825239181519,2.212430715560913,-0.6816768050193787
1761817984222004700,5.185004638671875,-2.1890695095062256,2.7171103954315186,-1.4644535779953003
1761817984231934000,5.194933837890625,-2.6946277618408203,3.097543478012085,-1.6794543266296387
1761817984241862000,5.20486181640625,-2.9506497383117676,2.730905055999756,-1.4270296096801758
1761817984251789800,5.214789794921875,-2.917241334915161,1.7297500371932983,-1.0167275667190552
1761817984261717800,5.2247177734375,-2.4541234970092773,0.48284709453582764,-0.7120576500892639
1761817984271645700,5.234645751953125,-1.562859296798706,-0.6421102285385132,-0.5302841067314148
1761817984281574700,5.24457470703125,-0.37756407260894775,-1.6326892375946045,-0.3171073794364929
1761817984291502600,5.254502685546875,0.6931958198547363,-2.742583751678467,0.16870300471782684
1761817984301430800,5.2644306640625,1.5788718461990356,-3.372382402420044,0.7862929701805115
1761817984311358700,5.274358642578125,2.3210461139678955,-3.2297892570495605,1.309519648551941
1761817984321286700,5.28428662109375,2.568748712539673,-2.315274477005005,1.6616276502609253
1761817984331216000,5.2942158203125,2.3020377159118652,-1.1204015016555786,1.6433919668197632
1761817984341143800,5.304143798828125,1.7661370038986206,-0.08605392277240753,1.2583675384521484
1761817984351071700,5.31407177734375,1.0270403623580933,0.8557956218719482,0.6807838678359985
1761817984361000000,5.324,0.19072015583515167,1.6638271808624268,0.03700435534119606
1761817984370927900,5.333927978515625,-0.6149294972419739,2.4071359634399414,-0.5927054286003113
1761817984380856800,5.34385693359375,-1.3740893602371216,2.9316084384918213,-1.029617428779602
1761817984390784800,5.35378466796875,-1.8767999410629272,3.5080177783966064,-1.1750308275222778
1761817984400712700,5.363712646484375,-2.1460001468658447,3.6232059001922607,-1.0735316276550293
1761817984410640600,5.373640625,-2.2056117057800293,2.3682808876037598,-0.7427457571029663
1761817984420568800,5.38356884765625,-1.790081262588501,0.7720639705657959,-0.4335564970970154
1761817984430497500,5.39349755859375,-1.0449985265731812,-0.5937347412109375,-0.26692676544189453
1761817984440425700,5.40342578125,-0.21697066724300385,-1.530515432357788,-0.07048428803682327
1761817984450354000,5.41335400390625,0.38287389278411865,-2.1182217597961426,0.10191997140645981
1761817984460281900,5.42328173828125,0.9039090871810913,-2.2854042053222656,0.20543251931667328
1761817984470209800,5.433209716796875,1.516539216041565,-1.873767375946045,0.39832553267478943
1761817984480138800,5.443138671875,1.9496184587478638,-1.1737691164016724,0.7002361416816711
1761817984490066700,5.453066650390625,2.0419795513153076,-0.49305790662765503,0.885334312915802
1761817984499995000,5.462994873046875,1.9232547283172607,0.25693511962890625,1.0327552556991577
1761817984509922800,5.4729228515625,1.3914090394973755,0.9383115172386169,1.0366746187210083
1761817984519851800,5.482851806640625,0.288897842168808,1.7470847368240356,0.5832346677780151
1761817984529779700,5.49277978515625,-0.9851394891738892,2.5153346061706543,-0.07956220209598541
1761817984539707600,5.502707763671875,-1.8722424507141113,2.8735501766204834,-0.6162623763084412
1761817984549635600,5.512635498046875,-2.2880845069885254,2.590111017227173,-0.9346179962158203
1761817984559563500,5.5225634765625,-2.4103848934173584,1.5686132907867432,-1.0488828420639038
1761817984569492700,5.53249267578125,-2.1383466720581055,-0.09013095498085022,-1.001348614692688
1761817984579421000,5.5424208984375,-1.1727261543273926,-1.5077095031738281,-0.7016867399215698
1761817984589348900,5.552348876953125,0.09164097160100937,-2.4858756065368652,-0.09722641855478287
1761817984599276800,5.56227685546875,1.1893341541290283,-2.8001585006713867,0.4835352301597595
1761817984609204700,5.572204833984375,1.9194302558898926,-2.474360227584839,0.7550554275512695
1761817984619133700,5.5821337890625,2.3096230030059814,-1.8265659809112549,0.8273512125015259
1761817984629061600,5.5920615234375,2.272404670715332,-1.239030122756958,0.832431972026825
1761817984638989600,5.601989501953125,1.8144785165786743,-0.6603323817253113,0.7312976121902466
1761817984648917800,5.611917724609375,0.9214239120483398,0.054913848638534546,0.4673847556114197
1761817984658845700,5.621845703125,-0.06458857655525208,0.9647753834724426,0.046064428985118866
1761817984668775000,5.63177490234375,-0.8236637711524963,1.8270573616027832,-0.30701375007629395
1761817984678702800,5.641702880859375,-1.578320860862732,2.343444347381592,-0.4726940393447876
1761817984688630800,5.651630859375,-2.1363565921783447,2.478363275527954,-0.5012606978416443
1761817984698558700,5.661558837890625,-2.4412732124328613,2.1466848850250244,-0.6041303873062134
1761817984708487000,5.67148681640625,-2.4004509449005127,1.2993171215057373,-0.7504303455352783
1761817984718415600,5.68141552734375,-1.8767335414886475,0.2073819488286972,-0.684188961982727
1761817984728343800,5.69134375,-0.9047282934188843,-1.0105175971984863,-0.317699134349823
1761817984738271700,5.701271728515625,0.15743888914585114,-2.365290880203247,0.13284486532211304
1761817984748199700,5.71119970703125,1.0943427085876465,-3.306151866912842,0.4028598368167877
1761817984758127600,5.721127685546875,1.8898826837539673,-3.53289532661438,0.49777036905288696
1761817984768056800,5.731056884765625,2.5347914695739746,-3.255481004714966,0.6559128761291504
1761817984777984800,5.74098486328125,2.8067739009857178,-2.2401304244995117,0.9088007807731628
1761817984787913000,5.750912841796875,2.3648788928985596,-1.123761773109436,0.9828907251358032
1761817984797841000,5.7608408203125,1.442345380783081,-0.053109824657440186,0.7781346440315247
1761817984807768800,5.770768798828125,0.4085025489330292,0.9825605154037476,0.49801644682884216
1761817984817697800,5.78069775390625,-0.4821264147758484,1.8200998306274414,0.2179110199213028
1761817984827625700,5.790625732421875,-1.2702652215957642,2.396761417388916,-0.051188886165618896
1761817984837553700,5.8005537109375,-2.007589101791382,2.8403730392456055,-0.31792232394218445
1761817984847481600,5.810481689453125,-2.4421441555023193,3.485973358154297,-0.6520712375640869
1761817984857410600,5.82041064453125,-2.661679744720459,3.252014398574829,-1.0017813444137573
1761817984867338800,5.8303388671875,-2.456439733505249,1.5005860328674316,-1.0800590515136719
1761817984877266700,5.8402666015625,-1.8543531894683838,-0.49409839510917664,-0.8701325058937073
1761817984887194600,5.850194580078125,-0.6208608746528625,-1.7706007957458496,-0.3985777497291565
1761817984897122800,5.860122802734375,0.7172241806983948,-3.030686140060425,0.15359914302825928
1761817984907052300,5.87005224609375,1.7138416767120361,-4.075517654418945,0.4432690441608429
1761817984916980200,5.879980224609375,2.381596803665161,-4.490956783294678,0.4793546199798584
1761817984926908200,5.889908203125,2.918278694152832,-3.9483509063720703,0.5466657280921936
1761817984936836400,5.89983642578125,3.0210864543914795,-2.409386157989502,0.8852241039276123
1761817984946764300,5.909764404296875,2.2000386714935303,-0.8179334402084351,1.0382187366485596
1761817984956693200,5.919693359375,0.9792552590370178,0.40211522579193115,0.9712308645248413
1761817984966621200,5.92962109375,0.03958895429968834,1.3289061784744263,0.7971285581588745
1761817984976549000,5.939549072265625,-0.4639706015586853,2.196192502975464,0.5227953195571899
1761817984986477000,5.94947705078125,-0.9220835566520691,2.9954960346221924,0.13666996359825134
1761817984996405200,5.9594052734375,-1.5266741514205933,3.5370588302612305,-0.3307773768901825
1761817985006334200,5.969334228515625,-1.9546473026275635,3.4741404056549072,-0.7425215244293213
1761817985016262400,5.979262451171875,-2.1212871074676514,2.035616159439087,-0.9570404887199402
1761817985026190300,5.9891904296875,-1.8741135597229004,-0.057794325053691864,-0.9950589537620544
1761817985036118300,5.9991181640625,-1.0217206478118896,-1.4757091999053955,-0.7652074098587036
1761817985046046200,6.009046142578125,0.029759226366877556,-2.0372345447540283,-0.2984705865383148
1761817985055975200,6.01897509765625,0.6100620031356812,-1.9911261796951294,0.0006926882197149098
1761817985065903000,6.028903076171875,0.851398229598999,-2.064730644226074,0.06430042535066605
1761817985075831300,6.038831298828125,0.9696625471115112,-2.3175911903381348,0.1194843202829361
1761817985085759200,6.04875927734375,1.0429210662841797,-2.439127206802368,0.2907884120941162
1761817985095688400,6.0586884765625,1.0315439701080322,-1.7013905048370361,0.6992904543876648
1761817985105616400,6.068616455078125,0.8181350827217102,-0.4188143014907837,1.1589877605438232
1761817985115544300,6.07854443359375,0.4308494031429291,1.0317435264587402,1.3741527795791626
1761817985125472300,6.08847216796875,0.028569059446454048,2.608442783355713,1.2318662405014038
1761817985135400200,6.098400146484375,-0.44945743680000305,3.5680525302886963,0.8115794062614441
1761817985145329200,6.1083291015625,-1.0283026695251465,3.9007415771484375,0.2723606824874878
1761817985155257300,6.11825732421875,-1.631381630897522,3.742903470993042,-0.2825384736061096
1761817985165185300,6.128185302734375,-1.9752987623214722,2.418970823287964,-0.8316889405250549
1761817985175113200,6.13811328125,-1.8431828022003174,0.8427927494049072,-1.241214632987976
1761817985185041200,6.148041259765625,-1.3041867017745972,-0.5638540387153625,-1.356180191040039
1761817985194970400,6.157970458984375,-0.48305535316467285,-1.9477150440216064,-1.0211107730865479
1761817985204898300,6.167898193359375,0.28850477933883667,-2.9881722927093506,-0.25648850202560425
1761817985214826200,6.177826171875,0.9306418895721436,-3.5756919384002686,0.2082243114709854
1761817985224754400,6.18775439453125,1.455437183380127,-3.636559247970581,0.43615415692329407
1761817985234683400,6.197683349609375,1.8566328287124634,-3.30072283744812,0.6931042075157166
1761817985244611300,6.207611328125,2.0693235397338867,-2.7245490550994873,0.9963034987449646
1761817985254539300,6.217539306640625,2.0292248725891113,-1.8792473077774048,1.36381196975708
1761817985264467200,6.22746728515625,1.6647199392318726,-0.6658568382263184,1.6430225372314453
1761817985274395100,6.23739501953125,1.100006103515625,0.7776488661766052,1.5121912956237793
1761817985284324000,6.247323974609375,0.31892552971839905,1.969236135482788,1.0902763605117798
1761817985294252000,6.257251953125,-0.4663354754447937,2.760723352432251,0.5248879790306091
1761817985304180200,6.26718017578125,-1.0504412651062012,3.1628105640411377,-0.07802768796682358
1761817985314108200,6.277108154296875,-1.5254082679748535,3.6118357181549072,-0.6175340414047241
1761817985324036400,6.287036376953125,-1.897814154624939,3.6380507946014404,-1.0543633699417114
1761817985333965300,6.29696533203125,-2.1564414501190186,2.842620372772217,-1.3525209426879883
1761817985343893200,6.306893310546875,-2.2168102264404297,1.774542212486267,-1.4059189558029175
1761817985353821200,6.3168212890625,-2.1007771492004395,0.32346194982528687,-1.241965413093567
1761817985363749400,6.326749267578125,-1.7674851417541504,-0.9312192797660828,-0.9227772951126099
1761817985373677300,6.33667724609375,-0.9531418681144714,-1.7400466203689575,-0.3700270652770996
1761817985383606300,6.346606201171875,0.16311009228229523,-2.5000784397125244,0.21863967180252075
1761817985393534200,6.3565341796875,1.0809863805770874,-3.1883275508880615,0.6981841325759888
1761817985403462100,6.366462158203125,1.8737473487854004,-3.2559444904327393,0.8896026015281677
1761817985413390000,6.37639013671875,2.3654651641845703,-2.656407117843628,0.8654101490974426
1761817985423318300,6.386318359375,2.4421544075012207,-1.8072413206100464,0.8611379265785217
1761817985433247200,6.396247314453125,2.2884140014648438,-1.1183974742889404,0.9437041878700256
1761817985443175400,6.406175537109375,2.0771405696868896,-0.3718965947628021,1.023260235786438
1761817985453103400,6.416103271484375,1.664027452468872,0.4805687367916107,0.9248729348182678
1761817985463031300,6.42603125,1.0275524854660034,1.381758451461792,0.6149294972419739
1761817985472960300,6.435960205078125,0.1497892290353775,1.9996778964996338,0.2911149263381958
1761817985482888200,6.44588818359375,-0.5348429083824158,2.649007797241211,-0.008523181080818176
1761817985492816100,6.455816162109375,-1.1939982175827026,3.247328281402588,-0.264392226934433
1761817985502744300,6.465744384765625,-1.9930471181869507,3.866687536239624,-0.4169871211051941
1761817985512672300,6.47567236328125,-2.633847713470459,3.339831829071045,-0.46292316913604736
1761817985522601500,6.4856015625,-2.864655017852783,1.7493114471435547,-0.5497829914093018
1761817985532529400,6.495529296875,-2.7167463302612305,0.26918378472328186,-0.7819206118583679
1761817985542457300,6.505457275390625,-2.0119290351867676,-0.8169617056846619,-0.9375876784324646
1761817985552385300,6.51538525390625,-0.7463900446891785,-1.48971426486969,-0.6219615340232849
1761817985562313200,6.525313232421875,0.44176727533340454,-2.2850167751312256,-0.03271879628300667
1761817985572242200,6.5352421875,1.2717262506484985,-2.7673330307006836,0.3298335671424866
1761817985582170400,6.54517041015625,1.8270081281661987,-2.791627883911133,0.4962611496448517
1761817985592098300,6.555098388671875,2.1950652599334717,-2.6239640712738037,0.5916081666946411
1761817985602026200,6.565026123046875,2.3087196350097656,-2.3542561531066895,0.7242429256439209
1761817985611954200,6.5749541015625,2.275019407272339,-1.9570095539093018,0.8892949819564819
1761817985621883100,6.584883056640625,1.9747469425201416,-1.211334228515625,0.9588266611099243
1761817985631811000,6.59481103515625,1.5265814065933228,0.051427505910396576,0.8272529244422913
1761817985641739300,6.6047392578125,0.8699687123298645,1.2137892246246338,0.5743988156318665
1761817985651667500,6.61466748046875,-0.10653283447027206,2.0171775817871094,0.3237344026565552
1761817985661595400,6.624595458984375,-0.8445576429367065,2.8019237518310547,0.06622669100761414
1761817985671524400,6.6345244140625,-1.5709805488586426,3.3917810916900635,-0.2190852165222168
1761817985681452300,6.644452392578125,-2.2317850589752197,3.865243434906006,-0.49453675746917725
1761817985691380200,6.654380126953125,-2.6808512210845947,3.841975212097168,-0.7066916227340698
1761817985701308200,6.66430810546875,-2.9501101970672607,2.8917713165283203,-0.8079772591590881
1761817985711237000,6.674237060546875,-2.9622080326080322,1.3094435930252075,-0.8979185819625854
1761817985721165000,6.6841650390625,-2.552950859069824,-0.18286462128162384,-0.9628147482872009
1761817985731093200,6.69409326171875,-1.4582325220108032,-0.9516137838363647,-0.6506214141845703
1761817985741021200,6.704021240234375,-0.13968412578105927,-1.772896647453308,-0.1923353523015976
1761817985750949000,6.71394921875,0.6172277927398682,-2.5621161460876465,0.1824915111064911
1761817985760878300,6.72387841796875,1.0875087976455688,-3.1940174102783203,0.33652740716934204
1761817985770806300,6.73380615234375,1.5265012979507446,-3.32193660736084,0.3436526954174042
1761817985780734200,6.743734130859375,1.9191012382507324,-2.9705231189727783,0.34893161058425903
1761817985790662400,6.753662353515625,1.9806506633758545,-2.442095994949341,0.42618006467819214
1761817985800590300,6.76359033203125,1.7190885543823242,-1.8502525091171265,0.4730735421180725
1761817985810519300,6.773519287109375,1.358213186264038,-1.1854254007339478,0.4488750100135803
1761817985820447200,6.783447265625,1.0069968700408936,-0.412108451128006,0.38998106122016907
1761817985830375200,6.793375244140625,0.5133833885192871,0.12020497024059296,0.2123231738805771
1761817985840303000,6.80330322265625,-0.29280656576156616,1.0120363235473633,-0.0018615495646372437
1761817985850231300,6.813231201171875,-0.9506741762161255,2.2534303665161133,-0.30897781252861023
1761817985860160300,6.82316015625,-1.589623212814331,3.015774965286255,-0.5508764386177063
1761817985870088400,6.83308837890625,-2.1280405521392822,3.259373426437378,-0.5507323741912842
1761817985880016400,6.843016357421875,-2.56646728515625,3.140305280685425,-0.44277051091194153
1761817985889944300,6.8529443359375,-2.8721601963043213,2.5927844047546387,-0.45527589321136475
1761817985899872300,6.862872314453125,-2.9739201068878174,1.7719392776489258,-0.44099870324134827
1761817985909800200,6.87280029296875,-2.752000331878662,0.8068453669548035,-0.29227206110954285
1761817985919728400,6.882728271484375,-2.089621067047119,0.06531402468681335,-0.12769778072834015
1761817985929656300,6.89265625,-1.0464236736297607,-0.3748644292354584,-0.02154843509197235
1761817985939584500,6.90258447265625,0.04043211042881012,-0.9605705142021179,0.0856989249587059
1761817985949512400,6.912512451171875,0.9315521717071533,-1.4223309755325317,0.19151270389556885
1761817985959441400,6.92244140625,1.7334555387496948,-1.7586569786071777,0.25426316261291504
1761817985969369300,6.932369384765625,2.313286304473877,-1.9043564796447754,0.248098224401474
1761817985979297300,6.94229736328125,2.7570202350616455,-1.7853882312774658,0.27186319231987
1761817985989225500,6.9522255859375,3.0350427627563477,-1.5421860218048096,0.48011893033981323
1761817985999153400,6.9621533203125,2.905146598815918,-1.3273762464523315,0.6184629797935486
1761817986009082400,6.972082275390625,2.328914165496826,-0.788567066192627,0.4920693337917328
1761817986019010300,6.98201025390625,1.4878185987472534,-0.07816378027200699,0.21247178316116333
1761817986028938200,6.991938232421875,0.5202314853668213,0.3755752146244049,0.024988174438476562
1761817986038866200,7.0018662109375,-0.3468109369277954,1.075048565864563,-0.018311362713575363
1761817986048794400,7.01179443359375,-0.9198814034461975,1.9081426858901978,-0.04482579603791237
1761817986058723300,7.021723388671875,-1.493445873260498,2.4137117862701416,-0.009563677944242954
1761817986068651500,7.031651611328125,-2.047928810119629,2.566363573074341,0.13686330616474152
1761817986078579500,7.041579345703125,-2.55130934715271,2.0478944778442383,0.27029407024383545
1761817986088507400,7.05150732421875,-2.69374418258667,0.929419219493866,0.15111787617206573
1761817986098435300,7.061435302734375,-2.4687390327453613,-0.05011296644806862,-0.1706463098526001
1761817986108364300,7.0713642578125,-1.9163998365402222,-0.582872211933136,-0.5032133460044861
1761817986118292200,7.081292236328125,-0.902815580368042,-0.7907561659812927,-0.5100294351577759
1761817986128220400,7.091220458984375,-0.02881433814764023,-1.3455328941345215,-0.2211022973060608
1761817986138148400,7.1011484375,0.5960202217102051,-1.95132315158844,0.010904046706855297
1761817986148076300,7.111076171875,1.1472368240356445,-2.3644909858703613,0.12219062447547913
1761817986158005500,7.121005615234375,1.6228646039962769,-2.5811543464660645,0.2252940982580185
1761817986167933400,7.130933349609375,1.9620897769927979,-2.615912914276123,0.38849741220474243
1761817986177861400,7.140861328125,2.255331039428711,-2.3232696056365967,0.6771270632743835
1761817986187789600,7.15078955078125,2.3741025924682617,-1.6894545555114746,1.0756573677062988
1761817986197717500,7.160717529296875,2.1071221828460693,-0.6895856261253357,1.2841112613677979
1761817986207646500,7.170646484375,1.4018027782440186,0.4853121042251587,1.0954021215438843
1761817986217574400,7.180574462890625,0.27619990706443787,1.4252127408981323,0.6329332590103149
1761817986227502300,7.19050244140625,-0.6535743474960327,2.448758125305176,0.1201583668589592
1761817986237430300,7.20043017578125,-1.395342230796814,2.8986828327178955,-0.3796461224555969
1761817986247358200,7.210358154296875,-2.0152416229248047,2.9638049602508545,-0.7287053465843201
1761817986257287200,7.220287109375,-2.5269925594329834,2.6521286964416504,-0.9055874347686768
1761817986267215600,7.230215576171875,-2.7808682918548584,1.6885380744934082,-0.9655391573905945
1761817986277143600,7.2401435546875,-2.615964889526367,0.5841747522354126,-0.9470219612121582
1761817986287071500,7.250071533203125,-2.0053601264953613,-0.20401012897491455,-0.7325381636619568
1761817986296999400,7.25999951171875,-0.8317754864692688,-0.8471725583076477,-0.30625101923942566
1761817986306928400,7.269928466796875,0.13238386809825897,-1.7843495607376099,0.12536990642547607
1761817986316856300,7.279856201171875,0.979015588760376,-2.464958429336548,0.37955769896507263
1761817986326784300,7.2897841796875,1.8126603364944458,-3.009744644165039,0.46304354071617126
1761817986336712400,7.29971240234375,2.4868643283843994,-3.2999839782714844,0.5807749629020691
1761817986346640400,7.309640380859375,2.9107866287231445,-3.111483573913574,0.810528039932251
1761817986356569300,7.3195693359375,2.9524083137512207,-2.6084535121917725,0.9704952836036682
1761817986366497300,7.329497314453125,2.6796116828918457,-1.6704603433609009,0.9913808703422546
1761817986376425200,7.33942529296875,2.3292784690856934,-0.304065078496933,0.842150092124939
1761817986386353400,7.349353515625,1.6039681434631348,0.8248723149299622,0.5806178450584412
1761817986396281600,7.359281494140625,0.6615955233573914,1.4095605611801147,0.3439967930316925
1761817986406210300,7.369210205078125,-0.3854544758796692,1.9327139854431152,0.1985330581665039
1761817986416138500,7.379138427734375,-1.2218010425567627,2.404463052749634,-0.006249640136957169
1761817986426066400,7.38906640625,-1.894012689590454,2.6820192337036133,-0.20549270510673523
1761817986435994400,7.398994384765625,-2.3271589279174805,2.8745083808898926,-0.33744755387306213
1761817986445922300,7.40892236328125,-2.686788558959961,2.4481136798858643,-0.4585811495780945
1761817986455851300,7.418851318359375,-2.8496005535125732,1.3979874849319458,-0.594228982925415
1761817986465779200,7.428779296875,-2.6238150596618652,0.4266565144062042,-0.7092599868774414
1761817986475707400,7.438707275390625,-1.9879740476608276,-0.14678119122982025,-0.7700833678245544
1761817986485635300,7.44863525390625,-0.8453930616378784,-0.3072177469730377,-0.5366916656494141
1761817986495563300,7.458563232421875,0.16298678517341614,-1.0139250755310059,-0.15519943833351135
1761817986505492500,7.468492431640625,0.81307452917099,-1.790914535522461,0.0850435197353363
1761817986515420400,7.47842041015625,1.4389171600341797,-2.3016092777252197,0.22917060554027557
1761817986525348400,7.488348388671875,1.9197630882263184,-2.5036752223968506,0.388380765914917
1761817986535276300,7.4982763671875,2.2406718730926514,-2.2696659564971924,0.5967757701873779
1761817986545204500,7.50820458984375,2.2501721382141113,-1.8297522068023682,0.7638382911682129
1761817986555133400,7.518133544921875,1.9822237491607666,-1.2201980352401733,0.8096963167190552
1761817986565061400,7.528061279296875,1.5872389078140259,-0.3149054944515228,0.7264240384101868
1761817986574989300,7.5379892578125,1.0285191535949707,0.591768741607666,0.5767663717269897
1761817986584917200,7.547917236328125,0.16114601492881775,1.2710484266281128,0.3579144775867462
1761817986594845200,7.55784521484375,-0.6279211640357971,2.087578296661377,0.09809913486242294
1761817986604774400,7.5677744140625,-1.2948880195617676,2.5693140029907227,-0.091257743537426
1761817986614702300,7.577702392578125,-1.8965989351272583,2.8162248134613037,-0.1625143438577652
1761817986624630500,7.587630615234375,-2.2831122875213623,2.9905998706817627,-0.21399910748004913
1761817986634558500,7.597558349609375,-2.5632076263427734,2.7266998291015625,-0.35132715106010437
1761817986644486400,7.607486328125,-2.897930383682251,1.681148886680603,-0.5843790173530579
1761817986654414300,7.617414306640625,-2.9134109020233154,0.30711013078689575,-0.7704682350158691
1761817986664343300,7.62734326171875,-2.5203592777252197,-0.307234525680542,-0.8232166171073914
1761817986674271200,7.637271240234375,-1.8363914489746094,-0.09722455590963364,-0.6161001920700073
1761817986684199400,7.647199462890625,-0.8965433239936829,0.14394252002239227,-0.32375916838645935
1761817986694127400,7.65712744140625,-0.21034684777259827,-0.1490326225757599,-0.11675804108381271
1761817986704055300,7.66705517578125,0.16400544345378876,-0.7501006126403809,-0.0677068755030632
1761817986713984500,7.676984619140625,0.574800431728363,-1.4255709648132324,-0.05350317060947418
1761817986723912400,7.686912353515625,1.1240785121917725,-1.9846488237380981,0.07273172587156296
1761817986733840400,7.69684033203125,1.7059106826782227,-2.3134925365448,0.29429954290390015
1761817986743768600,7.7067685546875,2.212358236312866,-2.3734030723571777,0.504426121711731
1761817986753696500,7.716696533203125,2.7556521892547607,-1.9826363325119019,0.6749070882797241
1761817986763625500,7.72662548828125,3.2170956134796143,-1.3200064897537231,0.8394749760627747
1761817986773553400,7.736553466796875,3.4110586643218994,-0.7044519186019897,0.8993121981620789
1761817986783481300,7.7464814453125,2.710747718811035,0.0011033476330339909,0.7281976938247681
1761817986793409300,7.7564091796875,1.0534833669662476,0.5753858089447021,0.3798309564590454
1761817986803337200,7.766337158203125,-0.013165337033569813,0.985964834690094,-0.006154831498861313
1761817986813266200,7.77626611328125,-0.5576246380805969,1.0655735731124878,-0.32233116030693054
1761817986823194400,7.7861943359375,-1.4550321102142334,1.5301951169967651,-0.4403662085533142
1761817986833122600,7.79612255859375,-2.2621233463287354,1.9014573097229004,-0.4635612666606903
1761817986843050500,7.806050537109375,-2.442695379257202,1.5582823753356934,-0.527726411819458
1761817986852978400,7.815978515625,-2.484574794769287,1.0495312213897705,-0.5077002048492432
1761817986862907400,7.825907470703125,-2.337176561355591,0.5114486217498779,-0.3661732077598572
1761817986872835300,7.83583544921875,-1.8100224733352661,-0.007287207525223494,-0.20370759069919586
1761817986882763300,7.84576318359375,-0.9575190544128418,-0.34048140048980713,-0.08832134306430817
1761817986892691500,7.85569140625,-0.10235113650560379,-0.7881060838699341,0.06847652792930603
1761817986902619400,7.865619384765625,0.5097748637199402,-1.2898190021514893,0.13099104166030884
1761817986912548400,7.87554833984375,1.1309734582901,-1.5840601921081543,0.09539469331502914
1761817986922477600,7.8854775390625,1.6351276636123657,-1.8807357549667358,-0.01245081052184105
1761817986932405500,7.895405517578125,2.1067864894866943,-1.847097396850586,0.025711221620440483
1761817986942333400,7.90533349609375,2.2560510635375977,-1.8527894020080566,0.19472794234752655
1761817986952261400,7.915261474609375,2.1241867542266846,-1.9213756322860718,0.36186152696609497
1761817986962189300,7.925189208984375,1.8138611316680908,-1.6254901885986328,0.4953463673591614
1761817986972118300,7.9351181640625,1.3780052661895752,-0.9228619933128357,0.5781304836273193
1761817986982046500,7.94504638671875,0.8142237067222595,-0.11340352147817612,0.6189687252044678
1761817986991974400,7.954974365234375,-0.046244725584983826,0.8385500311851501,0.5795299410820007
1761817987001902300,7.96490234375,-0.7288837432861328,1.921581745147705,0.4112277626991272
1761817987011830300,7.974830322265625,-1.43808913230896,2.6898186206817627,0.16943855583667755
1761817987021758200,7.98475830078125,-2.0651679039001465,2.9343271255493164,-0.06341412663459778
1761817987031687400,7.9946875,-2.418515920639038,2.6117990016937256,-0.2782862186431885
1761817987041615400,8.004615478515625,-2.5337910652160645,1.7829450368881226,-0.5100728273391724
1761817987051543600,8.01454345703125,-2.3618953227996826,0.7570075392723083,-0.7551465034484863
1761817987061471500,8.024471435546875,-1.7833876609802246,-0.0006346312584355474,-0.7987749576568604
1761817987071399400,8.0343994140625,-0.920673131942749,-0.4508606493473053,-0.4655546545982361
1761817987081328400,8.044328369140626,-0.15734009444713593,-1.1550148725509644,-0.0908268392086029
1761817987091256300,8.05425634765625,0.3890223205089569,-1.865395426750183,0.10291013866662979
1761817987101184300,8.064184326171874,0.9928919672966003,-2.3530945777893066,0.13944630324840546
1761817987111112400,8.074112548828126,1.6342672109603882,-2.698996067047119,0.14805817604064941
1761817987121040400,8.084040283203125,2.2782936096191406,-2.670807361602783,0.23401090502738953
1761817987130969600,8.093969482421874,2.7506017684936523,-2.312185049057007,0.47178909182548523
1761817987140897500,8.1038974609375,2.987764358520508,-1.822799563407898,0.8228225111961365
1761817987150825500,8.113825439453125,2.8526949882507324,-1.0632479190826416,0.9971684813499451
1761817987160753400,8.12375341796875,2.426905393600464,-0.1022062599658966,0.8874451518058777
1761817987170681600,8.133681640625,1.4929814338684082,0.614395260810852,0.5852970480918884
1761817987180610300,8.1436103515625,0.24491441249847412,0.936366081237793,0.34245455265045166
1761817987190538500,8.15353857421875,-0.6573570966720581,1.6001073122024536,0.18158523738384247
1761817987200466400,8.163466552734375,-1.2862423658370972,2.2145779132843018,-0.03015523962676525
1761817987210394400,8.173394287109375,-1.896769404411316,2.6250007152557373,-0.21685241162776947
1761817987220322300,8.183322265625,-2.3375155925750732,2.8748421669006348,-0.3217724561691284
1761817987230250200,8.193250244140625,-2.6499109268188477,2.73078989982605,-0.3622751235961914
1761817987240179200,8.20317919921875,-2.9133520126342773,1.9466538429260254,-0.4195331037044525
1761817987250107600,8.213107666015626,-3.0361685752868652,0.7590914368629456,-0.575029730796814
1761817987260035600,8.22303564453125,-2.7417585849761963,-0.047872718423604965,-0.6223437190055847
1761817987269963500,8.232963623046874,-1.9772692918777466,-0.40005314350128174,-0.4758211374282837
1761817987279891500,8.242891357421875,-1.3268060684204102,-0.6218212246894836,-0.2957528233528137
1761817987289819400,8.2528193359375,-0.4579731523990631,-0.8694693446159363,-0.07967299222946167
1761817987299748400,8.262748291015624,0.1807444840669632,-1.476627230644226,0.09496619552373886
1761817987309676300,8.27267626953125,0.9268719553947449,-1.9710947275161743,0.22176514565944672
1761817987319604500,8.2826044921875,1.6756294965744019,-2.1530191898345947,0.40143370628356934
1761817987329532400,8.292532470703126,2.241600275039673,-2.067272901535034,0.5466076731681824
1761817987339460400,8.30246044921875,2.597210168838501,-1.8138492107391357,0.5900712609291077
1761817987349389300,8.312389404296875,2.849036455154419,-1.3371353149414062,0.6037266254425049
1761817987359317200,8.322317138671876,2.899399995803833,-0.6613872647285461,0.5593317151069641
1761817987369245400,8.332245361328125,2.6642630100250244,0.19259394705295563,0.43888548016548157
1761817987379173600,8.342173583984374,1.883020043373108,0.847227156162262,0.30504751205444336
1761817987389101600,8.3521015625,0.5085263252258301,1.0583058595657349,0.19315294921398163
1761817987399029500,8.362029541015625,-0.6035109162330627,1.533867359161377,0.07746602594852448
1761817987408958500,8.37195849609375,-1.3575410842895508,2.062495231628418,-0.030944334343075752
1761817987418886400,8.381886474609376,-1.9711687564849854,2.51503849029541,-0.15011893212795258
1761817987428814300,8.391814453125,-2.3707926273345947,2.7431743144989014,-0.20564024150371552
1761817987438742300,8.4017421875,-2.6350057125091553,2.419356346130371,-0.20541280508041382
1761817987448670500,8.41167041015625,-2.7203927040100098,1.6070853471755981,-0.20563597977161407
1761817987458599400,8.421599365234375,-2.5300300121307373,0.544323205947876,-0.2402259111404419
1761817987468527400,8.43152734375,-1.9518957138061523,-0.1498563438653946,-0.20324473083019257
1761817987478455300,8.441455322265625,-1.086902379989624,-0.4293457865715027,-0.1690657138824463
1761817987488383500,8.451383544921875,-0.22815993428230286,-0.7403004765510559,-0.06267722696065903
1761817987498311400,8.4613115234375,0.2526271939277649,-1.2068942785263062,-0.02552133798599243
1761817987508239600,8.471239501953125,0.7928574085235596,-1.664044737815857,-0.07915101200342178
1761817987518168600,8.48116845703125,1.3483879566192627,-2.0674099922180176,-0.057006560266017914
1761817987528096500,8.491096435546876,1.8450899124145508,-2.215513229370117,0.04718881845474243
1761817987538024400,8.5010244140625,2.2328615188598633,-2.1828033924102783,0.198990598320961
1761817987547952400,8.510952392578124,2.531932830810547,-1.9514278173446655,0.4803737998008728
1761817987557880300,8.52088037109375,2.627906084060669,-1.6305803060531616,0.7902554869651794
1761817987567809300,8.530809326171875,2.4772257804870605,-1.0423026084899902,1.0267894268035889
1761817987577737200,8.5407373046875,1.973431944847107,-0.13077053427696228,1.0149288177490234
1761817987587665400,8.55066552734375,0.9232699871063232,0.7969964742660522,0.770566463470459
1761817987597593300,8.56059326171875,-0.2850882112979889,1.785017490386963,0.4170435667037964
1761817987607521500,8.570521484375,-1.1019651889801025,2.593080759048462,0.05639989301562309
1761817987617449500,8.580449462890625,-1.8177480697631836,3.0732314586639404,-0.2174348533153534
1761817987627378400,8.59037841796875,-2.315047025680542,3.2175211906433105,-0.40831318497657776
1761817987637306400,8.600306396484376,-2.628865957260132,3.050264596939087,-0.5058909058570862
1761817987647234600,8.610234619140625,-2.848449945449829,2.417372703552246,-0.5115277171134949
1761817987657162500,8.62016259765625,-2.943937301635742,1.39674973487854,-0.4886013865470886
1761817987667090400,8.63009033203125,-2.7118890285491943,0.6093355417251587,-0.40987327694892883
1761817987677018400,8.640018310546875,-2.1544198989868164,0.2070663720369339,-0.2143935263156891
1761817987686947300,8.649947265625,-1.400567650794983,0.1688649207353592,0.030486803501844406
1761817987696875300,8.659875244140625,-0.5824772715568542,-0.08145357668399811,0.12542903423309326
1761817987706803200,8.66980322265625,-0.0167909637093544,-0.5893591642379761,0.15204572677612305
1761817987716731400,8.6797314453125,0.7003602385520935,-1.2211322784423828,0.0581277497112751
1761817987726659600,8.68965966796875,1.5083262920379639,-1.781996488571167,-0.017003484070301056
1761817987736587500,8.69958740234375,2.2368693351745605,-2.228942394256592,0.06596063822507858
1761817987746516500,8.7095166015625,2.8524539470672607,-2.4556264877319336,0.28551164269447327
1761817987756444400,8.7194443359375,3.40865421295166,-2.282130479812622,0.5930188298225403
1761817987766372400,8.729372314453125,3.7046518325805664,-1.8041211366653442,0.9838364124298096
1761817987776300500,8.739300537109376,3.554565906524658,-1.170737862586975,1.1967908143997192
1761817987786228500,8.749228515625,2.5534250736236572,-0.4124522805213928,1.0443629026412964
1761817987796156400,8.759156494140624,0.9939665198326111,0.11147193610668182,0.6912562251091003
1761817987806085400,8.76908544921875,-0.4065512418746948,0.7167330980300903,0.3504059612751007
1761817987816013300,8.779013427734375,-1.342012882232666,1.4118809700012207,0.03809332475066185
1761817987825941200,8.788941162109374,-2.06667423248291,1.9975916147232056,-0.23479759693145752
1761817987835869400,8.798869384765625,-2.467416286468506,2.3064215183258057,-0.4612640142440796
1761817987845797400,8.80879736328125,-2.7007036209106445,2.4336814880371094,-0.584669291973114
1761817987855726600,8.8187265625,-2.782797336578369,2.242321014404297,-0.6236241459846497
1761817987865654500,8.828654541015625,-2.686386823654175,1.4254710674285889,-0.6238310933113098
1761817987875582500,8.83858251953125,-2.353052854537964,0.5209342837333679,-0.6519178748130798
1761817987885510400,8.848510498046876,-1.706763744354248,-0.07412455976009369,-0.6381818056106567
1761817987895438300,8.858438232421875,-0.7306481003761292,-0.6459878087043762,-0.4212343096733093
1761817987905366500,8.868366455078124,0.04625431448221207,-1.4847098588943481,-0.10205446183681488
1761817987915295200,8.878295166015626,0.8162735104560852,-2.108206033706665,0.1412396878004074
1761817987925223200,8.88822314453125,1.560621738433838,-2.6037042140960693,0.2802811861038208
1761817987935151000,8.898151123046874,2.221524477005005,-2.7799770832061768,0.37556642293930054
1761817987945079000,8.9080791015625,2.5832817554473877,-2.618267297744751,0.5426835417747498
1761817987955007000,8.918007080078125,2.6482014656066895,-2.502532720565796,0.7477620840072632
1761817987964935200,8.92793505859375,2.5984482765197754,-2.1765663623809814,0.8852094411849976
1761817987974864100,8.937864013671875,2.3712198734283447,-1.363814115524292,0.8740785121917725
1761817987984792300,8.947792236328125,1.9959622621536255,-0.4089672565460205,0.6303015351295471
1761817987994720300,8.95772021484375,1.2991796731948853,0.21872195601463318,0.3356403112411499
1761817988004648200,8.967648193359375,0.2891644239425659,0.7394903302192688,0.14795111119747162
1761817988014576000,8.977576171875,-0.6283200979232788,1.6252368688583374,0.007741809356957674
1761817988024504000,8.987504150390626,-1.5839792490005493,2.594013214111328,-0.10182569921016693
1761817988034433000,8.99743310546875,-2.3338024616241455,3.062351942062378,-0.28400030732154846
1761817988044361200,9.007361328125,-2.7836382389068604,3.222024440765381,-0.44970962405204773
1761817988054289200,9.0172890625,-2.9826316833496094,2.9245834350585938,-0.5699255466461182
1761817988064217000,9.027217041015625,-2.9835448265075684,2.1885428428649902,-0.6565933227539062
1761817988074145000,9.03714501953125,-2.8588318824768066,1.3574481010437012,-0.7578096985816956
1761817988084073000,9.047072998046875,-2.5608909130096436,0.714303731918335,-0.8326926827430725
1761817988094002000,9.057001953125,-1.9385546445846558,0.23365163803100586,-0.7587199211120605
1761817988103930000,9.06693017578125,-0.9763215184211731,-0.3287043869495392,-0.5033278465270996
1761817988113858300,9.0768583984375,-0.24437326192855835,-1.206599235534668,-0.19819484651088715
1761817988123786200,9.0867861328125,0.4300784170627594,-2.0044102668762207,-0.016832510009407997
1761817988133714200,9.096714111328126,1.1765483617782593,-2.6153054237365723,0.11877351999282837
1761817988143642000,9.10664208984375,1.892378330230713,-2.942837715148926,0.3186512291431427
1761817988153571000,9.116571044921875,2.54990553855896,-3.0277137756347656,0.5369364023208618
1761817988163499000,9.1264990234375,2.9850854873657227,-2.7798352241516113,0.7209722995758057
1761817988173427200,9.13642724609375,3.23645281791687,-1.8753175735473633,0.8503236174583435
1761817988183355100,9.146355224609374,3.3226730823516846,-0.8021925687789917,0.9161460399627686
1761817988193283000,9.156282958984375,2.8849589824676514,0.03636466711759567,0.8185963034629822
1761817988203211000,9.1662109375,1.5990042686462402,0.5878917574882507,0.5801944136619568
1761817988213140000,9.176139892578124,0.013108078390359879,1.1323699951171875,0.3085272014141083
1761817988223068200,9.186068115234375,-1.0511547327041626,1.8743172883987427,-0.01534673199057579
1761817988232996400,9.195996337890625,-1.8696205615997314,2.4533541202545166,-0.38593199849128723
1761817988242924300,9.20592431640625,-2.2878425121307373,2.598933696746826,-0.6834896206855774
1761817988252852200,9.215852294921875,-2.378763437271118,2.1969242095947266,-0.7657232284545898
1761817988262780200,9.2257802734375,-2.330660581588745,1.6633909940719604,-0.643771231174469
1761817988272709000,9.235709228515624,-2.1548516750335693,1.023693561553955,-0.3999881446361542
1761817988282637000,9.245636962890625,-1.8363033533096313,0.2613655626773834,-0.14643551409244537
1761817988292565000,9.25556494140625,-1.4861986637115479,-0.3721599876880646,-0.007123689632862806
1761817988302493200,9.2654931640625,-1.0469785928726196,-0.8527588248252869,0.015178154222667217
1761817988312421000,9.275421142578125,-0.4848226010799408,-1.3187403678894043,0.03606506064534187
1761817988322349000,9.28534912109375,-0.07943543791770935,-1.6694706678390503,0.04369395226240158
1761817988332278000,9.295278076171876,0.4251699447631836,-1.9622095823287964,0.014682007022202015
1761817988342206200,9.305206298828125,1.0304169654846191,-2.2879984378814697,0.029341110959649086
1761817988352134100,9.315134033203124,1.5797616243362427,-2.38405442237854,0.16901059448719025
1761817988362062300,9.325062255859375,1.886542558670044,-2.2826268672943115,0.39039358496665955
1761817988371990300,9.334990234375,2.027812957763672,-1.972698450088501,0.6111632585525513
1761817988381918200,9.344918212890626,2.0991978645324707,-1.3836325407028198,0.7718349695205688
1761817988391847200,9.35484716796875,1.9929070472717285,-0.624710738658905,0.8664855360984802
1761817988401775000,9.364775146484375,1.667402982711792,0.2681334614753723,0.801720380783081
1761817988411703000,9.374703125,0.898475706577301,1.02988862991333,0.6014989018440247
1761817988421631000,9.384630859375,-0.05692107230424881,1.8932087421417236,0.3247290849685669
1761817988431559200,9.39455908203125,-0.8916583061218262,2.585169553756714,0.070010244846344
1761817988441487000,9.404487060546876,-1.7075997591018677,2.933377742767334,-0.16285176575183868
1761817988451416000,9.414416015625,-2.2574615478515625,2.919563055038452,-0.38447338342666626
1761817988461344300,9.42434423828125,-2.4693305492401123,2.350559711456299,-0.5736728310585022
1761817988471272200,9.434272216796876,-2.513563394546509,1.5157184600830078,-0.6424474120140076
1761817988481200000,9.4442001953125,-2.328434705734253,0.6025338172912598,-0.5844125747680664
1761817988491128300,9.45412841796875,-1.8243491649627686,0.03584295138716698,-0.37229713797569275
1761817988501056300,9.46405615234375,-1.1695019006729126,-0.4741300344467163,-0.18661674857139587
1761817988510985200,9.473985107421875,-0.35112738609313965,-1.0223063230514526,-0.0024825986474752426
1761817988520913200,9.4839130859375,0.20708952844142914,-1.5865877866744995,0.13684946298599243
1761817988530841000,9.493841064453125,0.743287205696106,-1.8141632080078125,0.09387563169002533
1761817988540769000,9.50376904296875,1.287825107574463,-1.772213339805603,-0.004772118292748928
1761817988550697200,9.513697265625,1.8110672235488892,-1.5082296133041382,0.006867493502795696
1761817988560626000,9.5236259765625,2.174483299255371,-1.3067727088928223,0.23314456641674042
1761817988570554000,9.53355419921875,2.3439080715179443,-1.137336254119873,0.5763296484947205
1761817988580482300,9.543482421875,2.2631425857543945,-0.8752734661102295,0.8991489410400391
1761817988590410200,9.55341015625,1.7939947843551636,-0.2601194679737091,1.0282381772994995
1761817988600338200,9.563338134765624,0.8898220062255859,0.44491034746170044,0.8685556054115295
1761817988610266000,9.57326611328125,-0.1636563092470169,1.1879093647003174,0.5477272868156433
1761817988620195000,9.583195068359375,-0.9954153299331665,1.846997857093811,0.1948339343070984
1761817988630123300,9.593123291015624,-1.7042195796966553,2.1507675647735596,-0.14537690579891205
1761817988640051200,9.60305126953125,-2.0559754371643066,1.9105826616287231,-0.4984912872314453
1761817988649979100,9.612979248046875,-2.1302525997161865,1.1625739336013794,-0.7610933780670166
1761817988659907000,9.622906982421876,-1.8664964437484741,0.43018999695777893,-0.8595682382583618
1761817988669835000,9.6328349609375,-1.2206652164459229,-0.04236317053437233,-0.7744973301887512
1761817988679764000,9.642763916015625,-0.3426699936389923,-0.623444676399231,-0.41893520951271057
1761817988689692000,9.65269189453125,0.24001286923885345,-1.3110262155532837,-0.06612628698348999
1761817988699620000,9.6626201171875,0.7421824932098389,-1.8693726062774658,0.1253342181444168
1761817988709548300,9.67254833984375,1.2321662902832031,-2.139993190765381,0.20007877051830292
1761817988719476200,9.682476318359376,1.820414662361145,-2.0885469913482666,0.25876951217651367
1761817988729404200,9.692404052734375,2.3456199169158936,-1.8708949089050293,0.48911190032958984
1761817988739333000,9.7023330078125,2.378532648086548,-1.497800350189209,0.7419260740280151
1761817988749261000,9.712260986328126,2.0801098346710205,-0.908722996711731,0.8222514986991882
1761817988759189200,9.722189208984375,1.5455822944641113,-0.05174015834927559,0.8043396472930908
1761817988769117200,9.7321171875,0.8572105765342712,0.6407017111778259,0.6911256909370422
1761817988779045000,9.742045166015625,-0.11086153984069824,1.2592746019363403,0.516741931438446
1761817988788973000,9.75197314453125,-0.8555615544319153,1.9475635290145874,0.2866767644882202
1761817988798902000,9.761902099609374,-1.4403795003890991,2.1447436809539795,0.027405524626374245
1761817988808830000,9.771829833984375,-1.8027235269546509,1.7299036979675293,-0.28133872151374817
1761817988818758000,9.7817578125,-1.8176052570343018,0.9500150680541992,-0.6030107736587524
1761817988828686300,9.791686279296876,-1.5063589811325073,0.28551244735717773,-0.8050490617752075
1761817988838614300,9.8016142578125,-0.8421434760093689,-0.17118746042251587,-0.8101972341537476
1761817988848542200,9.811542236328124,-0.014548050239682198,-0.5328623056411743,-0.5664149522781372
1761817988858471200,9.82147119140625,0.5613757371902466,-0.8564954996109009,-0.245072603225708
1761817988868399000,9.831399169921875,0.9174233078956604,-1.0372772216796875,-0.03994635120034218
1761817988878327000,9.8413271484375,1.0676496028900146,-1.0974175930023193,0.13379934430122375
1761817988888255200,9.851255126953125,0.9940680265426636,-1.0985132455825806,0.33842357993125916
1761817988898183200,9.86118310546875,0.7415119409561157,-1.0245611667633057,0.48081135749816895
1761817988908110800,9.87111083984375,0.4386172890663147,-0.8419719338417053,0.513167142868042
1761817988918039800,9.881039794921875,0.20992739498615265,-0.5351665019989014,0.43156659603118896
1761817988927967700,9.8909677734375,0.06684347987174988,-0.09634704142808914,0.27068662643432617
1761817988937895700,9.900895751953126,-0.015252456068992615,0.35548192262649536,0.06555291265249252
1761817988947823900,9.910823974609375,-0.08498013764619827,0.676115095615387,-0.12985973060131073
1761817988957752000,9.920751953125,-0.16962099075317383,0.7898057103157043,-0.29637759923934937
1761817988967680000,9.930679931640626,-0.25195369124412537,0.6331156492233276,-0.38548484444618225
1761817988977609000,9.94060888671875,-0.2130499631166458,0.11160429567098618,-0.44025087356567383
1761817988987537000,9.950536865234374,-0.07637839764356613,-0.46467313170433044,-0.4457484483718872
1761817988997464800,9.96046484375,0.0714331716299057,-0.4790169298648834,-0.27546966075897217
1761817989007392800,9.970392822265625,0.1420532763004303,-0.07407555729150772,-0.11222001165151596
1761817989017321000,9.980321044921874,0.04729348048567772,0.06858119368553162,-0.0830187201499939
1761817989027249000,9.990248779296875,0.026379676535725594,0.06813111901283264,-0.066107377409935
1761817989037177900,10.000177734375,0.051240283995866776,0.12694570422172546,-0.029766950756311417
1761817989047105800,10.010105712890624,0.034762509167194366,0.20874282717704773,-0.009388175792992115
1761817989057033700,10.02003369140625,-0.012479039840400219,0.33071666955947876,-0.04098737984895706
1761817989066961700,10.029961669921875,-0.07796457409858704,0.5598385334014893,-0.10506410151720047
1761817989076890000,10.03989013671875,-0.16646328568458557,0.8239200115203857,-0.1845802366733551
1761817989086818000,10.049818115234375,-0.2572035789489746,0.8857753872871399,-0.19009484350681305
1761817989096747000,10.0597470703125,-0.3321707546710968,0.6536840796470642,-0.10714776068925858
1761817989106675000,10.069675048828126,-0.3746452331542969,0.3095717132091522,0.01031468901783228
1761817989116603000,10.079602783203125,-0.36839401721954346,0.026368755847215652,0.09672094881534576
1761817989126530800,10.08953076171875,-0.3213130533695221,-0.12044971436262131,0.12187930196523666
1761817989136458800,10.099458740234375,-0.23144493997097015,-0.19986304640769958,0.11048682779073715
1761817989146387000,10.109386962890625,-0.14883075654506683,-0.23928821086883545,0.07467370480298996
1761817989156316000,10.11931591796875,-0.07063315808773041,-0.23418906331062317,0.032532110810279846
1761817989166243800,10.129243896484375,-0.0036764938849955797,-0.21297112107276917,-0.008077633567154408
1761817989176171800,10.139171875,0.0304548442363739,-0.11323467642068863,-0.03453906998038292
1761817989186099700,10.149099609375,0.0490301251411438,0.04601622745394707,-0.03632844612002373
1761817989196028000,10.15902783203125,0.09371424466371536,0.2211289256811142,-0.011967446655035019
1761817989205956000,10.1689560546875,0.1942373812198639,0.41823744773864746,0.04487958922982216
1761817989215884800,10.178884765625,0.29627108573913574,0.582053542137146,0.10044058412313461
1761817989225813000,10.18881298828125,0.30143067240715027,0.5800839066505432,0.09205376356840134
1761817989235741000,10.198740966796874,0.2397414892911911,0.43334585428237915,0.037087712436914444
1761817989245668900,10.2086689453125,0.16248585283756256,0.21821223199367523,-0.015126488171517849
1761817989255596800,10.2185966796875,0.07733500003814697,0.04651796817779541,-0.06994659453630447
1761817989265525000,10.22852490234375,-0.010396980680525303,-0.04313548654317856,-0.09038741886615753
1761817989275453700,10.23845361328125,-0.04512939602136612,-0.01895238645374775,-0.05210607871413231
1761817989285382000,10.2483818359375,-0.027417242527008057,0.06048757955431938,0.01581464894115925
1761817989295309800,10.258309814453124,-0.00717615382745862,0.09075706452131271,0.06789728999137878
1761817989305237800,10.26823779296875,0.018986474722623825,0.053646717220544815,0.10207337141036987
1761817989315166000,10.278166015625,0.05354471877217293,-0.016572851687669754,0.12154427170753479
1761817989325094000,10.288093994140626,0.08200591802597046,-0.05301368236541748,0.12677764892578125
1761817989335022800,10.29802294921875,0.0742766261100769,-0.04632994905114174,0.0896420031785965
1761817989344951000,10.307950927734375,0.0420241504907608,-0.04002225026488304,0.017359016463160515
1761817989354879000,10.31787890625,0.005615274887531996,-0.03594042360782623,-0.04555949568748474
1761817989364807000,10.327806884765625,-0.02635410986840725,-0.029285451397299767,-0.08308503031730652
1761817989374734800,10.33773486328125,-0.04175037518143654,-0.02460414543747902,-0.08636604994535446
1761817989384662800,10.347662841796875,-0.03182610496878624,-0.0076062544248998165,-0.04742157831788063
1761817989394591700,10.357591796875,-0.0054128747433424,0.006761499680578709,0.0008847020799294114
1761817989404519700,10.367519775390624,0.0096286591142416,-0.010948787443339825,0.03636333346366882
1761817989414447900,10.37744775390625,0.00669385539367795,-0.030111562460660934,0.030235666781663895
1761817989424375800,10.387375732421875,0.0028269453905522823,-0.02371784672141075,0.001961151836439967
1761817989434303700,10.3973037109375,-0.0073045180179178715,0.011167166754603386,-0.021746041253209114
1761817989444232000,10.40723193359375,-0.020621655508875847,0.042159438133239746,-0.03734497353434563
1761817989454161000,10.417160888671875,-0.03732340410351753,0.03259868919849396,-0.039933834224939346
1761817989464088800,10.4270888671875,-0.044434044510126114,-0.006073338910937309,-0.009829195216298103
1761817989474017000,10.43701708984375,-0.034262098371982574,-0.052268531173467636,0.03314809873700142
1761817989483945000,10.446945068359375,-0.020016051828861237,-0.10006134957075119,0.06830235570669174
1761817989493873000,10.456872802734376,0.004408597014844418,-0.13170716166496277,0.07392562180757523
1761817989503800800,10.46680078125,0.009241701103746891,-0.1304544061422348,0.0569240041077137
1761817989513729800,10.476729736328124,0.007367102429270744,-0.11630077660083771,0.0472245030105114
1761817989523657700,10.48665771484375,-0.0044171190820634365,-0.1074894443154335,0.03177923336625099
1761817989533585700,10.496585693359375,-0.01426468975841999,-0.07777176052331924,0.01284469198435545
1761817989543513900,10.506513916015624,-0.016563531011343002,-0.02328162081539631,-0.016052735969424248
1761817989553441800,10.51644189453125,-0.0014855111949145794,0.03923502191901207,-0.03957883641123772
1761817989563370000,10.526369873046875,0.006415022537112236,0.08495217561721802,-0.03960839658975601
1761817989573299000,10.536298828125,0.0033302828669548035,0.10803592205047607,-0.012860138900578022
1761817989583227000,10.546226806640625,-0.006701578386127949,0.11096353828907013,0.016649017110466957
1761817989593154800,10.55615478515625,-0.022052837535738945,0.12027048319578171,0.03904140740633011
1761817989603083000,10.5660830078125,-0.04019056260585785,0.15867246687412262,0.054913315922021866
1761817989613011000,10.576010986328125,-0.051166780292987823,0.1611899584531784,0.0758817121386528
1761817989622939000,10.58593896484375,-0.014791995286941528,0.1272418349981308,0.0993201956152916
1761817989632867800,10.595867919921876,0.040536507964134216,0.09901739656925201,0.11031106114387512
1761817989642795800,10.605795654296875,0.04035567864775658,0.02859063260257244,0.10657784342765808
1761817989652723700,10.6157236328125,-0.03448900207877159,-0.14455558359622955,0.09242340922355652
1761817989662652000,10.62565185546875,-0.17238003015518188,-0.4358191192150116,0.09984776377677917
1761817989672579800,10.635579833984375,-0.28716573119163513,-0.7846705913543701,0.11018988490104675
1761817989682508000,10.645508056640624,-0.31019914150238037,-1.154534935951233,0.10157855600118637
1761817989692437000,10.65543701171875,-0.20489029586315155,-1.4642930030822754,0.06718090176582336
1761817989702365000,10.665364990234375,-0.011506187729537487,-1.4893691539764404,0.06625918298959732
1761817989712292900,10.67529296875,0.24823936820030212,-1.292143702507019,0.10594028234481812
1761817989722220800,10.685220703125,0.47609943151474,-0.9098079800605774,0.16606992483139038
1761817989732149000,10.69514892578125,0.5618441700935364,-0.5465222001075745,0.2250719964504242
1761817989742077000,10.705076904296876,0.5734995007514954,-0.1676127016544342,0.3063356876373291
1761817989752006000,10.715005859375,0.5737261176109314,0.3599350154399872,0.3598543107509613
1761817989761933800,10.724933837890624,0.5263394117355347,0.9364529252052307,0.3405485153198242
1761817989771861800,10.73486181640625,0.41016727685928345,1.4808597564697266,0.27933016419410706
1761817989781789700,10.744789794921875,0.24440334737300873,1.9685287475585938,0.1517530381679535
1761817989791718000,10.7547177734375,0.03341548144817352,2.2712981700897217,-0.024157799780368805
1761817989801646000,10.76464599609375,-0.25306394696235657,2.387122631072998,-0.18366196751594543
1761817989811575000,10.774574951171875,-0.5819547772407532,2.260392665863037,-0.29381057620048523
1761817989821503000,10.7845029296875,-0.8930891752243042,1.6538259983062744,-0.2948497533798218
1761817989831431000,10.794430908203125,-1.0710933208465576,0.6825969219207764,-0.17334941029548645
1761817989841358800,10.80435888671875,-1.1279091835021973,-0.300218403339386,-0.04230697825551033
1761817989851286800,10.814286865234376,-1.0312303304672241,-1.0619198083877563,0.08643156290054321
1761817989861215000,10.824215087890625,-0.7162723541259766,-1.7347946166992188,0.2396693229675293
1761817989871144000,10.83414404296875,-0.23491238057613373,-2.2369368076324463,0.40190455317497253
1761817989881071900,10.84407177734375,0.3154942989349365,-2.303025245666504,0.49529576301574707
1761817989890999800,10.853999755859375,0.8699343204498291,-1.9472298622131348,0.5066778659820557
1761817989900927700,10.863927734375,1.2858718633651733,-1.537078619003296,0.47546425461769104
1761817989910856700,10.873856689453126,1.5133676528930664,-1.162756323814392,0.4726370573043823
1761817989920784600,10.88378466796875,1.5590131282806396,-0.9053317308425903,0.5365737080574036
1761817989930713600,10.893713623046875,1.384573221206665,-0.7306896448135376,0.6411991715431213
1761817989940641500,10.9036416015625,1.1123470067977905,-0.4287920892238617,0.7167232036590576
1761817989950569700,10.91356982421875,0.7729390859603882,-0.18445053696632385,0.6513298153877258
1761817989960497700,10.92349755859375,0.2422483265399933,0.2068469226360321,0.46682843565940857
1761817989970425600,10.933425537109375,-0.18801197409629822,0.9141867756843567,0.1958768218755722
1761817989980353500,10.943353515625,-0.4795476794242859,1.4927510023117065,-0.12382180988788605
1761817989990282800,10.95328271484375,-0.7706447839736938,1.7496979236602783,-0.4149535298347473
1761817990000210700,10.963210693359375,-1.0189480781555176,1.6508429050445557,-0.6525927186012268
1761817990010138600,10.973138671875,-1.1149555444717407,1.3099803924560547,-0.8140079379081726
1761817990020066800,10.98306689453125,-1.005025863647461,0.9076606631278992,-0.8467203974723816
1761817990029994800,10.992994873046875,-0.6608567833900452,0.5156441926956177,-0.7198798656463623
1761817990039922700,11.002922607421874,-0.2564600110054016,0.07299617677927017,-0.45172885060310364
1761817990049851600,11.0128515625,0.0657728910446167,-0.2319067269563675,-0.144878089427948
1761817990059779600,11.022779541015625,0.24492906033992767,-0.400075227022171,0.09704612195491791
1761817990069707500,11.03270751953125,0.2985624670982361,-0.4833429753780365,0.2469317615032196
1761817990079635700,11.0426357421875,0.2899242341518402,-0.5064826607704163,0.3204216957092285
1761817990089563600,11.052563720703125,0.2297447770833969,-0.4988396167755127,0.33637481927871704
1761817990099491600,11.06249169921875,0.16211940348148346,-0.4442019462585449,0.3071386516094208
1761817990109420800,11.0724208984375,0.11272042244672775,-0.3172253668308258,0.24810513854026794
1761817990119348700,11.0823486328125,0.087100550532341,-0.13911740481853485,0.16133137047290802
1761817990129276700,11.092276611328124,0.07177352160215378,0.0335363894701004,0.042825229465961456
1761817990139204900,11.102204833984375,0.0616828054189682,0.190810427069664,-0.06913059949874878
1761817990149132800,11.1121328125,0.05404911935329437,0.3013097643852234,-0.17478884756565094
1761817990159060700,11.122060791015626,0.054183878004550934,0.3182339072227478,-0.26396745443344116
1761817990168989700,11.13198974609375,0.08501476049423218,0.25713911652565,-0.29615098237991333
1761817990178917600,11.141917724609375,0.11026738584041595,0.13518312573432922,-0.2715899646282196
1761817990188845600,11.151845458984376,0.12816914916038513,0.00812130980193615,-0.1976286619901657
1761817990198773500,11.1617734375,0.10022220760583878,-0.07631607353687286,-0.10420549660921097
1761817990208701700,11.17170166015625,0.04915076866745949,-0.07783221453428268,-0.014434865675866604
1761817990218629600,11.181629638671875,-0.0019800602458417416,-0.053825147449970245,0.0590265691280365
1761817990228558800,11.191558837890625,-0.03361202031373978,-0.05312047526240349,0.11621875315904617
1761817990238486800,11.20148681640625,-0.055813729763031006,-0.0728803351521492,0.14134247601032257
1761817990248414700,11.211414794921875,-0.0648287981748581,-0.0730784684419632,0.13603825867176056
1761817990258342700,11.2213427734375,-0.09074641764163971,-0.05763320252299309,0.10369976609945297
1761817990268270800,11.231270751953126,-0.10359883308410645,-0.011949070729315281,0.07160627841949463
1761817990278198800,11.24119873046875,-0.08189912885427475,0.05877889320254326,0.04280339181423187
1761817990288127700,11.251127685546875,-0.049381133168935776,0.12299729138612747,0.017539313063025475
1761817990298055700,11.2610556640625,-0.008417453616857529,0.12853507697582245,0.0007872303831391037
1761817990307983600,11.270983642578125,0.019932428374886513,0.09765944629907608,-0.0031396006233990192
1761817990317911600,11.28091162109375,0.046722762286663055,0.04951801896095276,-0.008637163788080215
1761817990327839500,11.290839599609376,0.05404379218816757,-0.0031230889726430178,-0.025961825624108315
1761817990337767700,11.300767578125,0.043713126331567764,-0.027881698682904243,-0.05488641932606697
1761817990347697000,11.31069677734375,0.03530232980847359,-0.054792940616607666,-0.06825894862413406
1761817990357624800,11.320624755859376,0.019173961132764816,-0.07018601149320602,-0.054674696177244186
1761817990367552800,11.330552734375,-0.010410030372440815,-0.044020719826221466,-0.020749753341078758
1761817990377480700,11.340480712890624,-0.03117203339934349,-0.016588032245635986,0.004456799943000078
1761817990387408600,11.35040869140625,-0.05055372044444084,0.00990136619657278,0.028295287862420082
1761817990397336800,11.3603369140625,-0.05381769314408302,0.0312921442091465,0.04511900991201401
1761817990407264800,11.3702646484375,-0.05669470503926277,0.06884004920721054,0.05392954498529434
1761817990417193700,11.38019384765625,-0.05612611770629883,0.09025745838880539,0.03904487192630768
1761817990427121700,11.39012158203125,-0.03371268883347511,0.10027839988470078,0.008703210391104221
1761817990437049600,11.400049560546876,-0.013688648119568825,0.10161930322647095,-0.01817687414586544
1761817990446977500,11.4099775390625,-0.0028037759475409985,0.09984111040830612,-0.05634316802024841
1761817990456905700,11.41990576171875,0.005401156842708588,0.11580942571163177,-0.08286425471305847
1761817990466834700,11.429834716796876,-0.0012945625931024551,0.11454655230045319,-0.09592892229557037
1761817990476763000,11.439762939453125,-0.00872105360031128,0.08319209516048431,-0.07294504344463348
1761817990486690800,11.44969091796875,-0.023731162771582603,0.024324247613549232,-0.024708010256290436
1761817990496618800,11.45961865234375,-0.013680391944944859,-0.020657341927289963,0.01660454273223877
