time,seconds_elapsed,z,y,x
1761838905547495400,0.054495361328125,-0.08345185220241547,0.39594244956970215,-0.10401345789432526
1761838905557566200,0.064566162109375,-0.053080230951309204,0.28990864753723145,-0.1273636370897293
1761838905567636200,0.07463623046875,-0.03432571887969971,0.17158466577529907,-0.12115740776062012
1761838905577706200,0.084706298828125,-0.037066977471113205,0.060549911111593246,-0.08164495974779129
1761838905587776300,0.0947763671875,-0.06108629330992699,-0.041384175419807434,-0.01900447905063629
1761838905597846300,0.10484619140625,-0.08770538866519928,-0.1155771017074585,0.04017145186662674
1761838905607916300,0.114916259765625,-0.10758695006370544,-0.16572736203670502,0.09135687351226807
1761838905617986300,0.124986328125,-0.10850560665130615,-0.21038168668746948,0.12282706797122955
1761838905628056300,0.135056396484375,-0.09673496335744858,-0.2671560049057007,0.13840550184249878
1761838905638126300,0.145126220703125,-0.08199010789394379,-0.3153240382671356,0.1257106065750122
1761838905648196000,0.155196044921875,-0.08351396769285202,-0.3387835621833801,0.09152945131063461
1761838905658266400,0.165266357421875,-0.10406185686588287,-0.3310171067714691,0.04901295527815819
1761838905668336400,0.17533642578125,-0.1222350001335144,-0.2815885841846466,-0.0035506561398506165
1761838905678406100,0.18540625,-0.12848836183547974,-0.2068202793598175,-0.05502026155591011
1761838905688476400,0.195476318359375,-0.13425037264823914,-0.16024719178676605,-0.12331782281398773
1761838905698547500,0.20554736328125,-0.13066597282886505,-0.13846874237060547,-0.19959019124507904
1761838905708617200,0.2156171875,-0.13284149765968323,-0.12070651352405548,-0.26602619886398315
1761838905718687200,0.225687255859375,-0.14561349153518677,-0.1011013612151146,-0.3094511926174164
1761838905728757500,0.235757568359375,-0.15615081787109375,-0.07683437317609787,-0.3297466039657593
1761838905738827300,0.2458271484375,-0.14470961689949036,-0.07193838804960251,-0.3417847752571106
1761838905748897300,0.255897216796875,-0.11350961774587631,-0.0996917262673378,-0.3522816300392151
1761838905758967000,0.265967041015625,-0.06409993022680283,-0.14818255603313446,-0.3630701005458832
1761838905769037300,0.276037353515625,-0.01801099255681038,-0.22839270532131195,-0.37212109565734863
1761838905779107300,0.286107421875,-0.0016007949598133564,-0.31836771965026855,-0.3875637948513031
1761838905789177000,0.296177001953125,-0.01244385540485382,-0.3861188292503357,-0.3898932635784149
1761838905799247400,0.306247314453125,-0.0350642129778862,-0.40514472126960754,-0.3794700503349304
1761838905809317400,0.3163173828125,-0.04524600878357887,-0.38461682200431824,-0.3483256995677948
1761838905819387100,0.32638720703125,-0.03974778205156326,-0.3418607711791992,-0.3163297176361084
1761838905829457400,0.33645751953125,-0.023937126621603966,-0.3039855659008026,-0.28266656398773193
1761838905839528400,0.346528564453125,-0.007327256258577108,-0.2677270472049713,-0.2457907497882843
1761838905849598200,0.35659814453125,0.0014843449462205172,-0.2407417595386505,-0.20879997313022614
1761838905859668200,0.366668212890625,0.012707841582596302,-0.21486322581768036,-0.15724653005599976
1761838905869738200,0.37673828125,0.0337742418050766,-0.22322048246860504,-0.10239340364933014
1761838905879808300,0.386808349609375,0.07536829262971878,-0.26998794078826904,-0.029286334291100502
1761838905889878300,0.396878173828125,0.1286802440881729,-0.3700317144393921,0.045069120824337006
1761838905899948300,0.4069482421875,0.15450884401798248,-0.5237560272216797,0.11876768618822098
1761838905910018300,0.417018310546875,0.1309044510126114,-0.6592573523521423,0.18898539245128632
1761838905920088300,0.42708837890625,0.07699115574359894,-0.7176613807678223,0.2707240879535675
1761838905930158300,0.437158447265625,-0.004384396597743034,-0.6711370348930359,0.3668991029262543
1761838905940228000,0.44722802734375,-0.09319528937339783,-0.5682957768440247,0.44815343618392944
1761838905950298400,0.45729833984375,-0.18029770255088806,-0.46630650758743286,0.5001843571662903
1761838905960368000,0.4673681640625,-0.2518361806869507,-0.38470107316970825,0.5038490295410156
1761838905970438100,0.477438232421875,-0.3004617691040039,-0.32416820526123047,0.4538465738296509
1761838905980509200,0.48750927734375,-0.32486140727996826,-0.2989252507686615,0.36449021100997925
1761838905990579500,0.497579345703125,-0.3140508532524109,-0.27300897240638733,0.24995538592338562
1761838906000649200,0.507649169921875,-0.2834993302822113,-0.22153626382350922,0.12693868577480316
1761838906010719200,0.51771923828125,-0.24593330919742584,-0.19443753361701965,0.007662627846002579
1761838906020789500,0.52778955078125,-0.2250593900680542,-0.16633187234401703,-0.09017510712146759
1761838906030859300,0.537859375,-0.22322553396224976,-0.12391944229602814,-0.16221360862255096
1761838906040929300,0.54792919921875,-0.2208162248134613,-0.08237972855567932,-0.2153330147266388
1761838906050999000,0.5579990234375,-0.21938185393810272,-0.03917739912867546,-0.24374574422836304
1761838906061069300,0.5680693359375,-0.22287726402282715,-0.019289415329694748,-0.2510163187980652
1761838906071139300,0.578139404296875,-0.23820827901363373,-0.010979820042848587,-0.23670051991939545
1761838906081209000,0.588208984375,-0.259035587310791,-0.006718392483890057,-0.20798102021217346
1761838906091279400,0.598279296875,-0.2771347165107727,-0.012660437263548374,-0.18218111991882324
1761838906101349400,0.608349365234375,-0.2855151891708374,-0.04421773552894592,-0.15585649013519287
1761838906111419100,0.618419189453125,-0.29056933522224426,-0.08319549262523651,-0.1356838494539261
1761838906121489400,0.628489501953125,-0.29017817974090576,-0.13321083784103394,-0.12447867542505264
1761838906131560400,0.638560546875,-0.278350830078125,-0.18337787687778473,-0.12536977231502533
1761838906141630200,0.648630126953125,-0.25053176283836365,-0.21170319616794586,-0.12752336263656616
1761838906151700200,0.6587001953125,-0.21420733630657196,-0.21172849833965302,-0.11922654509544373
1761838906161770200,0.668770263671875,-0.17534682154655457,-0.17972412705421448,-0.09010826051235199
1761838906171840300,0.67884033203125,-0.1436067372560501,-0.13393667340278625,-0.06025422364473343
1761838906181910300,0.68891015625,-0.123752661049366,-0.06851977109909058,-0.02700096368789673
1761838906191980300,0.698980224609375,-0.11363717913627625,-0.017113838344812393,-0.0007728217169642448
1761838906202050300,0.70905029296875,-0.11549267172813416,0.015199512243270874,0.01290696021169424
1761838906212120300,0.719120361328125,-0.1276281625032425,0.04522345960140228,0.037511371076107025
1761838906222190300,0.7291904296875,-0.14636003971099854,0.07694077491760254,0.053640611469745636
1761838906232260400,0.73926025390625,-0.17023713886737823,0.10289168357849121,0.06666266918182373
1761838906242330400,0.749330322265625,-0.19337914884090424,0.1308230608701706,0.08206206560134888
1761838906252399600,0.759399658203125,-0.20495963096618652,0.15255658328533173,0.09915503114461899
1761838906262469600,0.7694697265625,-0.20909419655799866,0.1752471923828125,0.11446143686771393
1761838906272539600,0.77953955078125,-0.20575033128261566,0.20646104216575623,0.14890916645526886
1761838906282610700,0.789610595703125,-0.19728533923625946,0.25446656346321106,0.20803870260715485
1761838906292680400,0.799680419921875,-0.19326423108577728,0.31730225682258606,0.2769189774990082
1761838906302750500,0.80975048828125,-0.19364413619041443,0.38864314556121826,0.3512682020664215
1761838906312820700,0.81982080078125,-0.1854727566242218,0.45662248134613037,0.4385005831718445
1761838906322890500,0.829890380859375,-0.15010158717632294,0.5171288847923279,0.5165418982505798
1761838906332960500,0.83996044921875,-0.09552142769098282,0.5762702226638794,0.5787339210510254
1761838906343030500,0.850030517578125,-0.039439450949430466,0.629510223865509,0.6277987957000732
1761838906353100500,0.8601005859375,-0.0015722325770184398,0.6525098085403442,0.6538945436477661
1761838906363170600,0.870170654296875,0.028003036975860596,0.6389271020889282,0.6492817997932434
1761838906373240600,0.880240478515625,0.052191462367773056,0.5904170870780945,0.609339714050293
1761838906383310600,0.890310546875,0.07278136163949966,0.491242915391922,0.5287587642669678
1761838906393380600,0.900380615234375,0.06419292837381363,0.3888656795024872,0.4186059236526489
1761838906403450400,0.910450439453125,0.013127551414072514,0.32001832127571106,0.28004661202430725
1761838906413520600,0.920520751953125,-0.00891862902790308,0.27711185812950134,0.14296947419643402
1761838906423590700,0.930590576171875,-0.034378111362457275,0.27616092562675476,0.03035779669880867
1761838906433661400,0.940661376953125,-0.06820931285619736,0.3098994493484497,-0.06708620488643646
1761838906443731500,0.9507314453125,-0.10376924276351929,0.361146479845047,-0.13700687885284424
1761838906453801700,0.9608017578125,-0.13282112777233124,0.4203179180622101,-0.17872822284698486
1761838906463871500,0.97087158203125,-0.1453373283147812,0.4813371002674103,-0.19440586864948273
1761838906473941500,0.98094140625,-0.14476847648620605,0.5394124388694763,-0.20053593814373016
1761838906484011800,0.99101171875,-0.13548122346401215,0.613365888595581,-0.20159076154232025
1761838906494081500,1.00108154296875,-0.11984261125326157,0.6831766366958618,-0.21903526782989502
1761838906504151600,1.011151611328125,-0.07999620586633682,0.7356147766113281,-0.2580200731754303
1761838906514221600,1.0212216796875,-0.024384072050452232,0.762589693069458,-0.31625115871429443
1761838906524291600,1.03129150390625,0.04254669323563576,0.7742289304733276,-0.3471059799194336
1761838906534361600,1.041361572265625,0.12306550145149231,0.7385367155075073,-0.3180104196071625
1761838906544431400,1.051431396484375,0.2001320719718933,0.6500486135482788,-0.2157074213027954
1761838906554501600,1.061501708984375,0.2715316712856293,0.5045939683914185,-0.059733808040618896
1761838906564571600,1.071571533203125,0.3304305374622345,0.3540697395801544,0.10624036937952042
1761838906574641400,1.081641357421875,0.37167227268218994,0.2316892147064209,0.2472214549779892
1761838906584711400,1.09171142578125,0.37705159187316895,0.2050718069076538,0.36163294315338135
1761838906594782500,1.101782470703125,0.3474944829940796,0.237091526389122,0.43163251876831055
1761838906604852700,1.111852783203125,0.3035406172275543,0.26456499099731445,0.4373275637626648
1761838906614922500,1.121922607421875,0.25880882143974304,0.2571121156215668,0.3763510286808014
1761838906624992500,1.131992431640625,0.22058959305286407,0.22280891239643097,0.27251267433166504
1761838906635062500,1.1420625,0.1946043223142624,0.189779594540596,0.1460370421409607
1761838906645132500,1.152132568359375,0.20246711373329163,0.16005432605743408,0.041644252836704254
1761838906655202600,1.16220263671875,0.2361513078212738,0.13820335268974304,-0.022142445668578148
1761838906665272600,1.1722724609375,0.2867879271507263,0.11470423638820648,-0.042513541877269745
1761838906675342600,1.182342529296875,0.3446972966194153,0.09796147793531418,-0.03722742944955826
1761838906685412600,1.19241259765625,0.3936629891395569,0.10149664431810379,-0.019263651221990585
1761838906695482400,1.202482421875,0.4335941672325134,0.11350669711828232,-0.009680533781647682
1761838906705552600,1.212552734375,0.4509761333465576,0.13439452648162842,-0.009549576789140701
1761838906715622700,1.22262255859375,0.44061964750289917,0.13498441874980927,-0.022698933258652687
1761838906725692400,1.2326923828125,0.41138145327568054,0.11924154311418533,-0.05937351658940315
1761838906735763500,1.242763427734375,0.36804676055908203,0.0933803841471672,-0.11627302318811417
1761838906745833700,1.252833740234375,0.31866455078125,0.0780366063117981,-0.19818320870399475
1761838906755903500,1.262903564453125,0.26434779167175293,0.08807805180549622,-0.2946157455444336
1761838906765973500,1.272973388671875,0.208375945687294,0.13451848924160004,-0.39439037442207336
1761838906776043800,1.283043701171875,0.15161146223545074,0.21922725439071655,-0.49359527230262756
1761838906786113500,1.293113525390625,0.08265429735183716,0.3524508476257324,-0.6041479706764221
1761838906796183600,1.30318359375,-0.0075616114772856236,0.5051658153533936,-0.7060953974723816
1761838906806253600,1.313253662109375,-0.07998248189687729,0.6736765503883362,-0.785338819026947
1761838906816323600,1.323323486328125,-0.10118923336267471,0.8350350856781006,-0.8336480259895325
1761838906826393600,1.3333935546875,-0.06878961622714996,0.9837689995765686,-0.8439176678657532
1761838906836463400,1.34346337890625,-0.01341157779097557,1.0914291143417358,-0.8265623450279236
1761838906846533600,1.35353369140625,0.016773151233792305,1.1305097341537476,-0.7876034379005432
1761838906856603600,1.363603759765625,0.038616664707660675,1.0470036268234253,-0.7560740113258362
1761838906866673400,1.37367333984375,0.04475385695695877,0.8766553401947021,-0.724416971206665
1761838906876743700,1.38374365234375,0.03721844032406807,0.6801955699920654,-0.6877521872520447
1761838906886813700,1.393813720703125,0.025911856442689896,0.49338671565055847,-0.6480938196182251
1761838906896884700,1.403884765625,0.005499526392668486,0.3287722170352936,-0.6138859987258911
1761838906906954500,1.41395458984375,-0.009165901690721512,0.20409990847110748,-0.5788294672966003
1761838906917024500,1.4240244140625,-0.014622185379266739,0.09030622988939285,-0.5591287016868591
1761838906927094500,1.434094482421875,-0.013068899512290955,-0.00903581827878952,-0.5402554273605347
1761838906937164500,1.44416455078125,-0.01304439827799797,-0.07733099162578583,-0.5240069627761841
1761838906947234600,1.454234619140625,-0.0042554340325295925,-0.11526734381914139,-0.4882888197898865
1761838906957304600,1.4643046875,0.01246681995689869,-0.13315126299858093,-0.4422667324542999
1761838906967374600,1.47437451171875,0.02315668761730194,-0.13161000609397888,-0.3973384499549866
1761838906977444600,1.484444580078125,0.03222182020545006,-0.11630453914403915,-0.36274316906929016
1761838906987514400,1.494514404296875,0.048830289393663406,-0.09631083905696869,-0.33797964453697205
1761838906997584600,1.504584716796875,0.06485452502965927,-0.08825664222240448,-0.3342999517917633
1761838907007654700,1.514654541015625,0.06599003821611404,-0.10002268850803375,-0.3642038404941559
1761838907017724400,1.524724365234375,0.0505218580365181,-0.14824321866035461,-0.4151080548763275
1761838907027794700,1.534794677734375,0.014857607893645763,-0.18165019154548645,-0.4698219895362854
1761838907037864700,1.54486474609375,-0.02371082454919815,-0.19501394033432007,-0.5294184684753418
1761838907047935500,1.554935546875,-0.039583925157785416,-0.12824420630931854,-0.5471069812774658
1761838907058005500,1.565005615234375,-0.02287098951637745,-0.00683975126594305,-0.5272863507270813
1761838907068075800,1.57507568359375,0.006415520794689655,0.12164820730686188,-0.4772249460220337
1761838907078145500,1.5851455078125,0.035294309258461,0.2176216095685959,-0.40429162979125977
1761838907088215600,1.595215576171875,0.05471634492278099,0.24888509511947632,-0.31081804633140564
1761838907098285600,1.60528564453125,0.06288532167673111,0.2296442985534668,-0.21736319363117218
1761838907108355600,1.61535546875,0.059150438755750656,0.19514387845993042,-0.10473000258207321
1761838907118425600,1.625425537109375,0.03371085971593857,0.1605432778596878,0.01214308850467205
1761838907128495400,1.635495361328125,-0.006385024171322584,0.10412180423736572,0.1129891574382782
1761838907138565600,1.645565673828125,-0.0620885007083416,0.022051174193620682,0.18943677842617035
1761838907148635600,1.6556357421875,-0.12083517760038376,-0.08603043109178543,0.23697414994239807
1761838907158705400,1.665705322265625,-0.17311222851276398,-0.21817141771316528,0.2496558576822281
1761838907168775700,1.675775634765625,-0.22305162250995636,-0.3498421907424927,0.2474747747182846
1761838907178845700,1.685845703125,-0.290939599275589,-0.4407010078430176,0.23239034414291382
1761838907188915500,1.69591552734375,-0.3691718876361847,-0.48319220542907715,0.21047984063625336
1761838907198985500,1.7059853515625,-0.4456104636192322,-0.4485008120536804,0.18758250772953033
1761838907209056500,1.716056396484375,-0.49452605843544006,-0.33005592226982117,0.1527431756258011
1761838907219126500,1.72612646484375,-0.5108770728111267,-0.17217177152633667,0.09301141649484634
1761838907229196500,1.736196533203125,-0.4803270995616913,-0.007304755970835686,0.01587919518351555
1761838907239266600,1.7462666015625,-0.41038981080055237,0.11687631160020828,-0.0829848051071167
1761838907249336600,1.756336669921875,-0.3150990605354309,0.18305543065071106,-0.1834423542022705
1761838907259406600,1.766406494140625,-0.22111104428768158,0.20983564853668213,-0.26202157139778137
1761838907269476600,1.7764765625,-0.14732636511325836,0.19718779623508453,-0.2990182340145111
1761838907279546600,1.786546630859375,-0.1000768318772316,0.1587945967912674,-0.2985154092311859
1761838907289616600,1.79661669921875,-0.07149053364992142,0.14329694211483002,-0.24596451222896576
1761838907299686700,1.806686767578125,-0.074923075735569,0.1766812652349472,-0.16059128940105438
1761838907309756400,1.81675634765625,-0.09262411296367645,0.22634491324424744,-0.050592854619026184
1761838907319826700,1.82682666015625,-0.10965476185083389,0.2663775384426117,0.05726330727338791
1761838907329896400,1.836896484375,-0.10329153388738632,0.2969376742839813,0.15669436752796173
1761838907339966500,1.846966552734375,-0.0776868388056755,0.29254746437072754,0.23353882133960724
1761838907350037500,1.85703759765625,-0.03922007605433464,0.24421897530555725,0.2838543653488159
1761838907360107800,1.867107666015625,-0.003152351826429367,0.15411943197250366,0.31213101744651794
1761838907370177500,1.877177490234375,0.019711095839738846,0.027905933558940887,0.32710155844688416
1761838907380247600,1.88724755859375,0.018571795895695686,-0.07887830585241318,0.347358375787735
1761838907390317600,1.897317626953125,-0.018700819462537766,-0.1407550871372223,0.36707523465156555
1761838907400387600,1.9073876953125,-0.09566457569599152,-0.1574709415435791,0.3754602074623108
1761838907410457600,1.91745751953125,-0.18911457061767578,-0.12280946969985962,0.36756783723831177
1761838907420527400,1.92752734375,-0.2892923057079315,-0.04441506788134575,0.3425072133541107
1761838907430597600,1.93759765625,-0.38024789094924927,0.0482524074614048,0.29367050528526306
1761838907440667600,1.947667724609375,-0.4699857831001282,0.12954220175743103,0.2126675397157669
1761838907450737400,1.9577373046875,-0.547092854976654,0.17814643681049347,0.09753072261810303
1761838907460807700,1.9678076171875,-0.6079492568969727,0.18425865471363068,-0.04617290943861008
1761838907470877700,1.977877685546875,-0.6428057551383972,0.18459489941596985,-0.20095272362232208
1761838907480947500,1.987947509765625,-0.6493848562240601,0.18916834890842438,-0.3536975085735321
1761838907491017500,1.998017578125,-0.6131027340888977,0.18164217472076416,-0.49528709053993225
1761838907501087700,2.008087646484375,-0.5286746621131897,0.1336999535560608,-0.6327856183052063
1761838907511158500,2.018158447265625,-0.4132344126701355,0.04832278564572334,-0.7498236894607544
1761838907521228500,2.028228515625,-0.29056787490844727,-0.048657022416591644,-0.8059045076370239
1761838907531298600,2.038298583984375,-0.17630450427532196,-0.14282366633415222,-0.8075639605522156
1761838907541368600,2.04836865234375,-0.07688149809837341,-0.22626875340938568,-0.758073627948761
1761838907551438600,2.0584384765625,-0.0015335502102971077,-0.2754687964916229,-0.6639010310173035
1761838907561508600,2.068508544921875,0.03899363428354263,-0.28866076469421387,-0.5370792150497437
1761838907571578600,2.07857861328125,0.03977680578827858,-0.2623404860496521,-0.38431107997894287
1761838907581648600,2.088648681640625,0.017742343246936798,-0.24605236947536469,-0.2339911013841629
1761838907591718700,2.09871875,-0.018506940454244614,-0.25695234537124634,-0.09543043375015259
1761838907601788400,2.108788330078125,-0.07361546903848648,-0.29463741183280945,0.018141135573387146
1761838907611858700,2.118858642578125,-0.13257499039173126,-0.3276798129081726,0.0993485227227211
1761838907621928400,2.128928466796875,-0.19195283949375153,-0.3335297107696533,0.1495741456747055
1761838907631998500,2.13899853515625,-0.24412867426872253,-0.31740516424179077,0.15851639211177826
1761838907642068700,2.14906884765625,-0.28264811635017395,-0.2932433784008026,0.12583167850971222
1761838907652138500,2.159138427734375,-0.3075472116470337,-0.2709704041481018,0.05418473854660988
1761838907662209500,2.16920947265625,-0.3227804899215698,-0.22714863717556,-0.04573813080787659
1761838907672279600,2.179279541015625,-0.33836862444877625,-0.17666441202163696,-0.16226926445960999
1761838907682349600,2.189349609375,-0.34704095125198364,-0.12367016077041626,-0.289844810962677
1761838907692419600,2.199419677734375,-0.35356131196022034,-0.0752439796924591,-0.3954370617866516
1761838907702489600,2.209489501953125,-0.35123211145401,-0.011531580239534378,-0.45921364426612854
1761838907712559400,2.219559326171875,-0.3251267969608307,0.05702606216073036,-0.49339058995246887
1761838907722629600,2.229629638671875,-0.2561514377593994,0.13087685406208038,-0.48057228326797485
1761838907732699600,2.23969970703125,-0.16546642780303955,0.19498412311077118,-0.43689849972724915
1761838907742769400,2.249769287109375,-0.07726439833641052,0.23756808042526245,-0.37060683965682983
1761838907752839700,2.259839599609375,0.014154533855617046,0.2491614669561386,-0.27618467807769775
1761838907762909700,2.26990966796875,0.09725821018218994,0.24500826001167297,-0.16032755374908447
1761838907772979500,2.2799794921875,0.1413296014070511,0.22632329165935516,-0.01708853244781494
1761838907783049500,2.290049560546875,0.13805870711803436,0.19992578029632568,0.13295236229896545
1761838907793119700,2.30011962890625,0.0973052829504013,0.1593157947063446,0.27986228466033936
1761838907803189500,2.310189453125,0.04509773477911949,0.12341292947530746,0.41731923818588257
1761838907813259500,2.320259521484375,0.015628399327397346,0.09599517285823822,0.5286819338798523
1761838907823330600,2.33033056640625,0.007168334908783436,0.0692349299788475,0.6176656484603882
1761838907833400600,2.340400634765625,0.020172342658042908,0.034783985465765,0.6665796637535095
1761838907843470600,2.350470703125,0.033274296671152115,-0.009456977248191833,0.6754743456840515
1761838907853540600,2.36054052734375,0.03840760886669159,-0.038437940180301666,0.653100311756134
1761838907863610600,2.370610595703125,0.0305267833173275,-0.05488775297999382,0.6095003485679626
1761838907873680600,2.3806806640625,-0.0014115769881755114,-0.09118782728910446,0.5388585925102234
1761838907883750700,2.390750732421875,-0.06437136232852936,-0.16959527134895325,0.4342493414878845
1761838907893820400,2.4008203125,-0.14070941507816315,-0.25505340099334717,0.30904534459114075
1761838907903890700,2.410890625,-0.20625540614128113,-0.3118034899234772,0.19186465442180634
1761838907913960400,2.42096044921875,-0.24039386212825775,-0.30042582750320435,0.09553886950016022
1761838907924030500,2.431030517578125,-0.22391289472579956,-0.19766831398010254,0.06585394591093063
1761838907934100700,2.441100830078125,-0.16081395745277405,-0.06275173276662827,0.08735908567905426
1761838907944170500,2.45117041015625,-0.07372645288705826,0.06504937261343002,0.13439610600471497
1761838907954240500,2.461240478515625,0.022510133683681488,0.15258575975894928,0.20245765149593353
1761838907964310500,2.471310546875,0.11670427769422531,0.16199524700641632,0.27634197473526
1761838907974381600,2.481381591796875,0.20445410907268524,0.11232565343379974,0.34872257709503174
1761838907984451600,2.49145166015625,0.2739415466785431,0.037359271198511124,0.4123156666755676
1761838907994521600,2.501521484375,0.3199142515659332,-0.06108422949910164,0.457526832818985
1761838908004591400,2.51159130859375,0.36187103390693665,-0.15804219245910645,0.4791514277458191
1761838908014661600,2.52166162109375,0.4254050850868225,-0.23817124962806702,0.49569401144981384
1761838908024731600,2.531731689453125,0.5010484457015991,-0.30104607343673706,0.5128313899040222
1761838908034801400,2.541801513671875,0.5625551342964172,-0.3810240924358368,0.5166306495666504
1761838908044871700,2.55187158203125,0.5998473763465881,-0.45170706510543823,0.5003347396850586
1761838908054941700,2.561941650390625,0.6002979874610901,-0.4778141379356384,0.4668567180633545
1761838908065011500,2.572011474609375,0.5735196471214294,-0.4346877336502075,0.4122033417224884
1761838908075081500,2.58208154296875,0.5214148759841919,-0.3408595025539398,0.333932101726532
1761838908085151700,2.59215185546875,0.45814964175224304,-0.224689781665802,0.226631760597229
1761838908095221500,2.602221435546875,0.3959093689918518,-0.10924603790044785,0.09853865206241608
1761838908105291500,2.61229150390625,0.33769690990448,0.015670601278543472,-0.03690412640571594
1761838908115361500,2.622361572265625,0.299364298582077,0.1309656947851181,-0.17384010553359985
1761838908125432600,2.6324326171875,0.28289875388145447,0.2080301195383072,-0.30531930923461914
1761838908135502600,2.642502685546875,0.29640114307403564,0.26071712374687195,-0.41338294744491577
1761838908145572600,2.652572509765625,0.3218977153301239,0.28853118419647217,-0.48611146211624146
1761838908155642600,2.662642578125,0.35114285349845886,0.292576402425766,-0.5127823352813721
1761838908165712600,2.672712646484375,0.39770743250846863,0.282081663608551,-0.5028146505355835
1761838908175782700,2.68278271484375,0.4538194537162781,0.2593505382537842,-0.4561728537082672
1761838908185852400,2.692852294921875,0.5085487365722656,0.21859484910964966,-0.3915325999259949
1761838908195922700,2.702922607421875,0.55425626039505,0.16299079358577728,-0.3014795780181885
1761838908205992400,2.712992431640625,0.5960465669631958,0.07704100012779236,-0.20660260319709778
1761838908216062500,2.7230625,0.6160794496536255,-0.02963273972272873,-0.128825381398201
1761838908226132700,2.7331328125,0.6082979440689087,-0.16252395510673523,-0.06919373571872711
1761838908236202500,2.743202392578125,0.5830168724060059,-0.3133050799369812,-0.03895293176174164
1761838908246272500,2.7532724609375,0.535628616809845,-0.4607158303260803,-0.04714028909802437
1761838908256343000,2.763343017578125,0.4791022539138794,-0.5662679076194763,-0.09408938884735107
1761838908266413000,2.7734130859375,0.41403430700302124,-0.6056360602378845,-0.1608942449092865
1761838908276484000,2.783484130859375,0.3319869041442871,-0.5590906143188477,-0.23549194633960724
1761838908286554000,2.79355419921875,0.2414436787366867,-0.4536145031452179,-0.3184560537338257
1761838908296623900,2.803623779296875,0.1507757604122162,-0.28944694995880127,-0.4046799838542938
1761838908306694100,2.813694091796875,0.06503795832395554,-0.09868554025888443,-0.4993380606174469
1761838908316764200,2.82376416015625,0.0030749179422855377,0.08677422255277634,-0.5955355167388916
1761838908326834000,2.833833984375,-0.02977837063372135,0.2522745132446289,-0.6841990947723389
1761838908336904000,2.843904052734375,-0.03288508206605911,0.3894715905189514,-0.7659339308738708
1761838908346974200,2.85397412109375,-0.007098225876688957,0.5080717206001282,-0.8099011182785034
1761838908357044000,2.8640439453125,0.04421103373169899,0.5903524160385132,-0.8108599185943604
1761838908367114000,2.874114013671875,0.126376211643219,0.5999943614006042,-0.7724786996841431
1761838908377184000,2.88418408203125,0.22951585054397583,0.5762085914611816,-0.7004836201667786
1761838908387254000,2.89425390625,0.33200040459632874,0.5003910660743713,-0.5929518342018127
1761838908397324000,2.904323974609375,0.4257245659828186,0.3708936274051666,-0.4691334068775177
1761838908407394000,2.91439404296875,0.4997841715812683,0.21787504851818085,-0.32521164417266846
1761838908417464000,2.924464111328125,0.5540673136711121,0.06143907457590103,-0.18323306739330292
1761838908427535000,2.93453515625,0.5842598080635071,-0.08936508744955063,-0.04423203691840172
1761838908437605000,2.944605224609375,0.5918480753898621,-0.21694688498973846,0.06892628222703934
1761838908447675000,2.9546748046875,0.5833129286766052,-0.3129597008228302,0.16888883709907532
1761838908457745200,2.9647451171875,0.5624461770057678,-0.39840540289878845,0.23893345892429352
1761838908467815000,2.97481494140625,0.5376787781715393,-0.4568466246128082,0.28498804569244385
1761838908477885000,2.984885009765625,0.49957168102264404,-0.4845436215400696,0.31358444690704346
1761838908487955200,2.994955078125,0.4546912908554077,-0.4817286729812622,0.3248016834259033
1761838908498025000,3.00502490234375,0.40204086899757385,-0.4753245413303375,0.32793182134628296
1761838908508095000,3.015094970703125,0.3350541293621063,-0.451114296913147,0.32946154475212097
1761838908518165000,3.0251650390625,0.26057928800582886,-0.41782844066619873,0.33087846636772156
1761838908528235000,3.035235107421875,0.17217272520065308,-0.38496050238609314,0.33606788516044617
1761838908538305000,3.045304931640625,0.08758912980556488,-0.3580853044986725,0.3359187841415405
1761838908548375000,3.055375,-0.000002764863893389702,-0.355800062417984,0.332366943359375
1761838908558445000,3.065445068359375,-0.07965691387653351,-0.3596753776073456,0.32923009991645813
1761838908568515000,3.07551513671875,-0.15107303857803345,-0.37833401560783386,0.3291392922401428
1761838908578584800,3.085584716796875,-0.2035539597272873,-0.3946663439273834,0.3227560520172119
1761838908588655000,3.095655029296875,-0.2500056028366089,-0.42699363827705383,0.30835235118865967
1761838908598726100,3.10572607421875,-0.28601309657096863,-0.4438098073005676,0.2909579873085022
1761838908608796200,3.115796142578125,-0.32879969477653503,-0.4556496739387512,0.2603239119052887
1761838908618866000,3.125865966796875,-0.37176236510276794,-0.4684913754463196,0.20005428791046143
1761838908628936000,3.13593603515625,-0.41413724422454834,-0.4848296046257019,0.11716818809509277
1761838908639006200,3.146006103515625,-0.4629800021648407,-0.5126966834068298,0.014112641103565693
1761838908649076000,3.156075927734375,-0.5190765261650085,-0.5055567622184753,-0.09395071119070053
1761838908659146000,3.16614599609375,-0.5804901123046875,-0.4850955605506897,-0.20340362191200256
1761838908669216000,3.176216064453125,-0.6319578289985657,-0.4747302532196045,-0.304132342338562
1761838908679286000,3.1862861328125,-0.6772936582565308,-0.4647104740142822,-0.39198148250579834
1761838908689356000,3.19635595703125,-0.7229125499725342,-0.43721598386764526,-0.45157530903816223
1761838908699426000,3.206426025390625,-0.755727231502533,-0.39417678117752075,-0.48188191652297974
1761838908709496000,3.21649609375,-0.7719876766204834,-0.33572572469711304,-0.4719930589199066
1761838908719566000,3.226566162109375,-0.7518908977508545,-0.27437540888786316,-0.4243743121623993
1761838908729635800,3.2366357421875,-0.6802148222923279,-0.1970452070236206,-0.3280211389064789
1761838908739707000,3.246706787109375,-0.5680732131004333,-0.1280161738395691,-0.19285540282726288
1761838908749777200,3.256777099609375,-0.431521475315094,-0.07381845265626907,-0.030525892972946167
1761838908759847000,3.266846923828125,-0.2870427370071411,-0.05633920803666115,0.13462425768375397
1761838908769917000,3.2769169921875,-0.16143259406089783,-0.07280392944812775,0.29821717739105225
1761838908779987200,3.2869873046875,-0.07289474457502365,-0.09959160536527634,0.45469918847084045
1761838908790057000,3.297056884765625,-0.011534981429576874,-0.12462585419416428,0.6057286262512207
1761838908800127000,3.307126953125,0.030125509947538376,-0.13537298142910004,0.7503814101219177
1761838908810197000,3.317197021484375,0.03924204409122467,-0.13541612029075623,0.8782549500465393
1761838908820267000,3.32726708984375,0.029197266325354576,-0.14438951015472412,0.9788407683372498
1761838908830337000,3.3373369140625,0.01038629561662674,-0.1795206069946289,1.0352579355239868
1761838908840407000,3.347406982421875,-0.010998157784342766,-0.2524806559085846,1.0450794696807861
1761838908850477000,3.35747705078125,-0.02980087511241436,-0.3464422821998596,1.0009006261825562
1761838908860547000,3.367547119140625,-0.05787571519613266,-0.46075817942619324,0.9007673859596252
1761838908870616800,3.377616943359375,-0.09628728777170181,-0.587532103061676,0.7551990151405334
1761838908880687000,3.38768701171875,-0.14805953204631805,-0.7008467316627502,0.5905194878578186
1761838908890757000,3.397757080078125,-0.19881963729858398,-0.7573113441467285,0.4210452139377594
1761838908900828200,3.407828125,-0.24477694928646088,-0.7486434578895569,0.2666318416595459
1761838908910898000,3.41789794921875,-0.28816384077072144,-0.6915979981422424,0.1373596340417862
1761838908920968000,3.427968017578125,-0.3334462344646454,-0.5853168368339539,0.03935956209897995
1761838908931038200,3.4380380859375,-0.3783458173274994,-0.42836931347846985,-0.017408909276127815
1761838908941108000,3.44810791015625,-0.4192681312561035,-0.23905594646930695,-0.0394304022192955
1761838908951178000,3.458177978515625,-0.4651312232017517,-0.06749777495861053,-0.027305830270051956
1761838908961248000,3.468248046875,-0.49394670128822327,0.07441714406013489,0.003210734575986862
1761838908971318000,3.478318115234375,-0.511709451675415,0.1755610704421997,0.028690528124570847
1761838908981388000,3.488387939453125,-0.5166237354278564,0.21373964846134186,0.021432340145111084
1761838908991458000,3.4984580078125,-0.5176570415496826,0.21457909047603607,-0.01349315419793129
1761838909001528000,3.508528076171875,-0.47345080971717834,0.22238649427890778,-0.05993993580341339
1761838909011598000,3.51859814453125,-0.37942230701446533,0.2688930332660675,-0.10173505544662476
1761838909021667800,3.528667724609375,-0.26980075240135193,0.33245500922203064,-0.12921278178691864
1761838909031738000,3.538738037109375,-0.12843137979507446,0.35416802763938904,-0.1630072295665741
1761838909041808100,3.54880810546875,0.021933162584900856,0.36876049637794495,-0.17812010645866394
1761838909051879000,3.55887890625,0.16131742298603058,0.3760756552219391,-0.16836974024772644
1761838909061949000,3.568948974609375,0.279597669839859,0.33924952149391174,-0.14657072722911835
1761838909072019200,3.579019287109375,0.3687560260295868,0.2781156003475189,-0.11754335463047028
1761838909082089000,3.5890888671875,0.4214123785495758,0.222860187292099,-0.0712890699505806
1761838909092159000,3.599158935546875,0.4265344440937042,0.16954050958156586,-0.013283563777804375
1761838909102229000,3.60922900390625,0.4001835286617279,0.11417516320943832,0.05176098644733429
1761838909112299000,3.619299072265625,0.3669869601726532,0.06652960926294327,0.11869128793478012
1761838909122369000,3.629369140625,0.34096962213516235,0.03592417389154434,0.1764487773180008
1761838909132439000,3.63943896484375,0.32353976368904114,0.018553439527750015,0.2107955664396286
1761838909142509000,3.649509033203125,0.30089154839515686,-0.015599326230585575,0.19888609647750854
1761838909152579000,3.6595791015625,0.28544628620147705,-0.06809528917074203,0.14314614236354828
1761838909162648800,3.66964892578125,0.2840820848941803,-0.12960252165794373,0.06430349498987198
1761838909172719000,3.679718994140625,0.28675296902656555,-0.20087537169456482,-0.03045630268752575
1761838909182789000,3.6897890625,0.27599412202835083,-0.26916635036468506,-0.12497425079345703
1761838909192859000,3.69985888671875,0.2220938801765442,-0.3324047029018402,-0.21165481209754944
1761838909202929000,3.709928955078125,0.17834433913230896,-0.3748413920402527,-0.2758023738861084
1761838909213000000,3.72,0.16425329446792603,-0.3737335205078125,-0.3212018311023712
1761838909223070000,3.730070068359375,0.1721336394548416,-0.36280396580696106,-0.3567166328430176
1761838909233140000,3.740139892578125,0.19231028854846954,-0.3163216710090637,-0.38072237372398376
1761838909243210000,3.7502099609375,0.21543830633163452,-0.2531704604625702,-0.39188337326049805
1761838909253280000,3.760280029296875,0.2610156536102295,-0.1517368108034134,-0.3794322907924652
1761838909263349800,3.770349853515625,0.30640122294425964,-0.03845754638314247,-0.365870863199234
1761838909273419500,3.78041943359375,0.3267967700958252,0.07373850792646408,-0.35336360335350037
1761838909283489800,3.79048974609375,0.31919246912002563,0.16125380992889404,-0.34363898634910583
1761838909293559800,3.800559814453125,0.3081286549568176,0.2255433201789856,-0.33390194177627563
1761838909303629600,3.810629638671875,0.31939712166786194,0.2589970827102661,-0.3367035686969757
1761838909313699800,3.820699951171875,0.3428739607334137,0.24545225501060486,-0.3610917329788208
1761838909323769900,3.830769775390625,0.3736790120601654,0.2204311639070511,-0.3974466919898987
1761838909333839600,3.840839599609375,0.4121023118495941,0.19795142114162445,-0.4308142364025116
1761838909343909600,3.85090966796875,0.45748111605644226,0.18359462916851044,-0.45218199491500854
1761838909353979600,3.860979736328125,0.5125983953475952,0.19186773896217346,-0.4484354555606842
1761838909364049700,3.871049560546875,0.573720395565033,0.19171468913555145,-0.42349663376808167
1761838909374120700,3.88112060546875,0.6360312104225159,0.1634383201599121,-0.3922172784805298
1761838909384190700,3.891190673828125,0.6717888116836548,0.108474001288414,-0.36893489956855774
1761838909394260700,3.9012607421875,0.6744524836540222,0.02212553843855858,-0.3448562026023865
1761838909404330800,3.911330810546875,0.6391804814338684,-0.09763381630182266,-0.3426508903503418
1761838909414400500,3.921400390625,0.5816367268562317,-0.2034212350845337,-0.3403046429157257
1761838909424470800,3.931470703125,0.5217827558517456,-0.24325031042099,-0.30950549244880676
1761838909434540800,3.941540771484375,0.4773992896080017,-0.1639259308576584,-0.20842787623405457
1761838909444608800,3.95160888671875,0.45774146914482117,0.030372999608516693,-0.053527384996414185
1761838909454678800,3.9616787109375,0.459920734167099,0.294967383146286,0.14632287621498108
1761838909464749600,3.97174951171875,0.4994872808456421,0.5046093463897705,0.34548455476760864
1761838909474819600,3.981819580078125,0.5604811310768127,0.59154212474823,0.5011508464813232
1761838909484889900,3.991889892578125,0.6305758357048035,0.5372538566589355,0.5931846499443054
1761838909494959600,4.001959716796875,0.6920455694198608,0.3886190950870514,0.6394783854484558
1761838909505029600,4.012029541015625,0.7244280576705933,0.19018378853797913,0.6526286602020264
1761838909515099600,4.022099609375,0.7313024997711182,-0.01334110926836729,0.6483058333396912
1761838909525169700,4.032169677734375,0.705639123916626,-0.19115374982357025,0.6265002489089966
1761838909535239700,4.04223974609375,0.6684070229530334,-0.30639058351516724,0.5934306979179382
1761838909545309700,4.052309814453125,0.6332961320877075,-0.36029285192489624,0.5505115985870361
1761838909555379700,4.062379638671875,0.6137301921844482,-0.3386690616607666,0.4984390437602997
1761838909565449700,4.07244970703125,0.602210283279419,-0.2641772925853729,0.4330764412879944
1761838909575519700,4.082519775390625,0.5928871035575867,-0.1504211723804474,0.3532037138938904
1761838909585589800,4.09258984375,0.5790359973907471,-0.01622900925576687,0.23881401121616364
1761838909595659800,4.10265966796875,0.5568037033081055,0.11737219244241714,0.09382219612598419
1761838909605729500,4.1127294921875,0.5273914933204651,0.2302664965391159,-0.08479054272174835
1761838909615799600,4.122799560546875,0.4859907925128937,0.31652894616127014,-0.2773786187171936
1761838909625870600,4.13287060546875,0.4370783865451813,0.3817142844200134,-0.4510141611099243
1761838909635940900,4.14294091796875,0.3904014229774475,0.4471399188041687,-0.5850047469139099
1761838909646010600,4.1530107421875,0.34724000096321106,0.50251704454422,-0.6502808928489685
1761838909656080600,4.16308056640625,0.3287685811519623,0.535468339920044,-0.6732770204544067
1761838909666151000,4.17315087890625,0.3376035690307617,0.5477690696716309,-0.6463658809661865
1761838909676220700,4.183220703125,0.3678179085254669,0.5484929084777832,-0.5928701758384705
1761838909686290700,4.193290771484375,0.4107111394405365,0.5259557962417603,-0.5328360199928284
1761838909696360700,4.203360595703125,0.45387032628059387,0.462267130613327,-0.4826540946960449
1761838909706430700,4.2134306640625,0.49760711193084717,0.35767170786857605,-0.4479561746120453
1761838909716500700,4.223500732421875,0.545818030834198,0.22901253402233124,-0.41964811086654663
1761838909726570500,4.233570556640625,0.588107168674469,0.09912628680467606,-0.3854551613330841
1761838909736640800,4.243640869140625,0.6391253471374512,-0.02434718981385231,-0.344747930765152
1761838909746710800,4.253710693359375,0.6785454154014587,-0.15013504028320312,-0.2966713011264801
1761838909756780500,4.263780517578125,0.7026078701019287,-0.2594072222709656,-0.24574552476406097
1761838909766850800,4.273850830078125,0.6938695907592773,-0.33778977394104004,-0.19996507465839386
1761838909776920800,4.2839208984375,0.6682294607162476,-0.36632075905799866,-0.16736264526844025
1761838909786991600,4.29399169921875,0.62328040599823,-0.33131515979766846,-0.14923739433288574
1761838909797061600,4.3040615234375,0.5739575624465942,-0.23761317133903503,-0.15489742159843445
1761838909807131600,4.314131591796875,0.5184598565101624,-0.09963049739599228,-0.18315637111663818
1761838909817201700,4.32420166015625,0.47525617480278015,0.06570333242416382,-0.2262500375509262
1761838909827271700,4.334271728515625,0.45714107155799866,0.2339264303445816,-0.2864409387111664
1761838909837341700,4.344341796875,0.4659625291824341,0.3746023178100586,-0.3523877263069153
1761838909847411700,4.35441162109375,0.5086618661880493,0.48334529995918274,-0.39905256032943726
1761838909857481700,4.364481689453125,0.5665691494941711,0.5507885217666626,-0.4236907958984375
1761838909867551700,4.3745517578125,0.631742537021637,0.5697576403617859,-0.4232865273952484
1761838909877621800,4.384621826171875,0.6969886422157288,0.5400956273078918,-0.4016890823841095
1761838909887691800,4.39469189453125,0.7577973008155823,0.4609701335430145,-0.3654782176017761
1761838909897761500,4.404761474609375,0.8067675232887268,0.3580901026725769,-0.3157503306865692
1761838909907831600,4.41483154296875,0.8441821932792664,0.23574185371398926,-0.25354501605033875
1761838909917901800,4.42490185546875,0.8742149472236633,0.11013172566890717,-0.19144169986248016
1761838909927971600,4.4349716796875,0.8940223455429077,-0.013018734753131866,-0.13292603194713593
1761838909938041600,4.44504150390625,0.9065554141998291,-0.12528881430625916,-0.08085697889328003
1761838909948112000,4.45511181640625,0.9134809374809265,-0.21149945259094238,-0.039315998554229736
1761838909958182700,4.4651826171875,0.9166660308837891,-0.2781069576740265,-0.017963573336601257
1761838909968252700,4.475252685546875,0.9180392622947693,-0.31878066062927246,-0.021410351619124413
1761838909978322700,4.48532275390625,0.9179569482803345,-0.34799742698669434,-0.046436607837677
1761838909988392700,4.495392822265625,0.9145181179046631,-0.3608745336532593,-0.09280574321746826
1761838909998462700,4.505462646484375,0.9061070680618286,-0.373936265707016,-0.14140497148036957
1761838910008532700,4.51553271484375,0.8887732028961182,-0.36075180768966675,-0.1726379543542862
1761838910018602500,4.5256025390625,0.8671467304229736,-0.3370179831981659,-0.1915929913520813
1761838910028672800,4.5356728515625,0.8549240231513977,-0.29854461550712585,-0.19700416922569275
1761838910038742800,4.54574267578125,0.8530228137969971,-0.2502036988735199,-0.18430115282535553
1761838910048812500,4.5558125,0.8610416054725647,-0.18961109220981598,-0.14304576814174652
1761838910058884600,4.565884521484375,0.8752943277359009,-0.13526423275470734,-0.08623043447732925
1761838910068954600,4.57595458984375,0.8952683806419373,-0.08985549211502075,-0.02144930139183998
1761838910079025000,4.58602490234375,0.9166687726974487,-0.05897907167673111,0.0488501600921154
1761838910089094700,4.5960947265625,0.9216665625572205,-0.055506039410829544,0.0957886353135109
1761838910099164700,4.60616455078125,0.9165370464324951,-0.05673881247639656,0.12141170352697372
1761838910109234700,4.616234619140625,0.9041478633880615,-0.04792146384716034,0.12897861003875732
1761838910119304700,4.6263046875,0.8905436396598816,-0.011453470215201378,0.12327439337968826
1761838910129374700,4.636374755859375,0.8855448961257935,0.05884002149105072,0.1190650463104248
1761838910139444500,4.646444580078125,0.9019424915313721,0.14429686963558197,0.1196054071187973
1761838910149514800,4.6565146484375,0.9390007853507996,0.22154107689857483,0.12192980200052261
1761838910159584800,4.666584716796875,0.987217366695404,0.28014206886291504,0.1348743736743927
1761838910169654500,4.676654541015625,1.0422451496124268,0.3093233108520508,0.15952074527740479
1761838910179724800,4.686724853515625,1.102676272392273,0.30534589290618896,0.202448770403862
1761838910189794800,4.696794921875,1.1607327461242676,0.2755562365055084,0.24938251078128815
1761838910199865600,4.706865478515625,1.2075047492980957,0.22640278935432434,0.30121269822120667
1761838910209935600,4.716935546875,1.2374565601348877,0.16919629275798798,0.3526562452316284
1761838910220005600,4.727005615234375,1.2461999654769897,0.09616043418645859,0.40243422985076904
1761838910230075600,4.73707568359375,1.2311111688613892,0.017097540199756622,0.44123849272727966
1761838910240145700,4.747145751953125,1.2020769119262695,-0.052149444818496704,0.47113940119743347
1761838910250215700,4.757215576171875,1.1536158323287964,-0.08788245916366577,0.4963189363479614
1761838910260285700,4.76728564453125,1.1002397537231445,-0.07809267938137054,0.516233503818512
1761838910270355500,4.77735546875,1.0327264070510864,-0.028717419132590294,0.5257013440132141
1761838910280425500,4.787425537109375,0.9606276154518127,0.04549688845872879,0.5232256650924683
1761838910290495700,4.797495849609375,0.8813033699989319,0.12322258949279785,0.49727290868759155
1761838910300565500,4.8075654296875,0.8049737215042114,0.20635181665420532,0.4540327489376068
1761838910310635500,4.817635498046875,0.735001266002655,0.29082390666007996,0.39565396308898926
1761838910320705500,4.82770556640625,0.6778730154037476,0.36886757612228394,0.32194405794143677
1761838910330775600,4.837775634765625,0.6358277201652527,0.4347530007362366,0.23981672525405884
1761838910340845600,4.847845458984375,0.6131000518798828,0.48301056027412415,0.1587090939283371
1761838910350915300,4.857915283203125,0.6119991540908813,0.508787214756012,0.08023524284362793
1761838910360985600,4.867985595703125,0.6286218166351318,0.5115630030632019,0.012341676279902458
1761838910371056600,4.878056640625,0.6547777056694031,0.504263162612915,-0.04727406054735184
1761838910381126700,4.888126708984375,0.6970546245574951,0.4834074378013611,-0.10110799223184586
1761838910391196400,4.898196533203125,0.7534500360488892,0.41668495535850525,-0.1571783721446991
1761838910401266700,4.9082666015625,0.8191539645195007,0.3252170979976654,-0.21357347071170807
1761838910411336400,4.91833642578125,0.888598620891571,0.238015279173851,-0.2514782249927521
1761838910421406500,4.928406494140625,0.9485554099082947,0.1531086415052414,-0.28524869680404663
1761838910431476500,4.9384765625,1.0086995363235474,0.052911024540662766,-0.3196330666542053
1761838910441546500,4.94854638671875,1.0697740316390991,-0.045417144894599915,-0.3573399484157562
1761838910451616500,4.958616455078125,1.1299084424972534,-0.1389828771352768,-0.4029659926891327
1761838910461686500,4.9686865234375,1.1951137781143188,-0.22802487015724182,-0.4408550560474396
1761838910471756500,4.978756591796875,1.2571073770523071,-0.28805744647979736,-0.46101152896881104
1761838910481826600,4.98882666015625,1.3166828155517578,-0.3169538080692291,-0.4596248269081116
1761838910491896600,4.998896484375,1.3636583089828491,-0.32198816537857056,-0.4411957859992981
1761838910501966600,5.008966552734375,1.4001103639602661,-0.2981742024421692,-0.4128299057483673
1761838910512036600,5.01903662109375,1.4333345890045166,-0.2652853727340698,-0.3821726143360138
1761838910522106400,5.0291064453125,1.4661072492599487,-0.23546673357486725,-0.35680174827575684
1761838910532176400,5.03917626953125,1.4989140033721924,-0.2044617235660553,-0.32303881645202637
1761838910542247400,5.049247314453125,1.538021445274353,-0.17049789428710938,-0.2676472067832947
1761838910552317700,5.059317626953125,1.5764429569244385,-0.13962244987487793,-0.20426082611083984
1761838910562387500,5.069387451171875,1.6148641109466553,-0.12232177704572678,-0.13820165395736694
1761838910572457500,5.07945751953125,1.65299654006958,-0.1134192943572998,-0.08368981629610062
1761838910582527700,5.08952783203125,1.6907660961151123,-0.10673076659440994,-0.03986111283302307
1761838910592597500,5.099597412109375,1.720604658126831,-0.11539480835199356,-0.01975332945585251
1761838910602667500,5.10966748046875,1.7434511184692383,-0.1287849247455597,-0.014355368912220001
1761838910612737500,5.119737548828125,1.7510405778884888,-0.13530167937278748,-0.020838836207985878
1761838910622807600,5.1298076171875,1.7537386417388916,-0.12291371077299118,-0.03901863843202591
1761838910632877600,5.139877685546875,1.7508056163787842,-0.09281475096940994,-0.07475102692842484
1761838910642947300,5.149947265625,1.7462319135665894,-0.03864392265677452,-0.1187291368842125
1761838910653017600,5.160017578125,1.7378826141357422,0.024049753323197365,-0.16768412292003632
1761838910663087600,5.170087646484375,1.7380343675613403,0.09746404737234116,-0.2185600996017456
1761838910673157400,5.180157470703125,1.7482428550720215,0.1619282066822052,-0.27222687005996704
1761838910683227600,5.1902275390625,1.761178970336914,0.19338440895080566,-0.32339179515838623
1761838910693297700,5.200297607421875,1.7670292854309082,0.18963775038719177,-0.37229764461517334
1761838910703367400,5.210367431640625,1.782987117767334,0.15727314352989197,-0.41163840889930725
1761838910713438500,5.2204384765625,1.809320330619812,0.10859651863574982,-0.4412152171134949
1761838910723508500,5.230508544921875,1.8450535535812378,0.06026068329811096,-0.4473569989204407
1761838910733578500,5.24057861328125,1.8961858749389648,0.005853736773133278,-0.43541958928108215
1761838910743648500,5.2506484375,1.956167221069336,-0.029712248593568802,-0.4047357141971588
1761838910753718500,5.260718505859375,2.017106056213379,-0.04525705799460411,-0.37272629141807556
1761838910763788500,5.27078857421875,2.0739598274230957,-0.040230605751276016,-0.33151891827583313
1761838910773858600,5.280858642578125,2.129704475402832,-0.016433661803603172,-0.2813810408115387
1761838910783928600,5.290928466796875,2.1780126094818115,0.024781951680779457,-0.23132747411727905
1761838910793998600,5.30099853515625,2.2202460765838623,0.07243987172842026,-0.1697460561990738
1761838910804068600,5.311068603515625,2.2642483711242676,0.1206798404455185,-0.10512606054544449
1761838910814138400,5.321138427734375,2.293192148208618,0.15787364542484283,-0.04820289462804794
1761838910824208400,5.33120849609375,2.3199846744537354,0.19610120356082916,0.007299779448658228
1761838910834278700,5.341278564453125,2.3433315753936768,0.21944209933280945,0.05744687467813492
1761838910844348400,5.351348388671875,2.3541383743286133,0.218429833650589,0.09218727797269821
1761838910854418400,5.36141845703125,2.3551032543182373,0.20151087641716003,0.10883079469203949
1761838910864488700,5.37148876953125,2.349905490875244,0.17613041400909424,0.10884463787078857
1761838910874558500,5.381558349609375,2.351822853088379,0.14252963662147522,0.10041957348585129
1761838910884629500,5.39162939453125,2.3529043197631836,0.11025157570838928,0.08539508283138275
1761838910894699500,5.401699462890625,2.3595147132873535,0.08666744828224182,0.07610037922859192
1761838910904769500,5.41176953125,2.367640256881714,0.06646870821714401,0.06581658124923706
1761838910914839600,5.421839599609375,2.3717753887176514,0.05483904480934143,0.06864573806524277
1761838910924909600,5.43190966796875,2.3703951835632324,0.04659975320100784,0.08718426525592804
1761838910934979300,5.441979248046875,2.3667526245117188,0.04963364452123642,0.11782926321029663
1761838910945049600,5.452049560546875,2.362231969833374,0.050797976553440094,0.15520672500133514
1761838910955119600,5.46211962890625,2.361790657043457,0.025336140766739845,0.18900339305400848
1761838910965189400,5.472189453125,2.3613898754119873,-0.015642184764146805,0.2259552776813507
1761838910975259600,5.482259765625,2.3529603481292725,-0.06788478046655655,0.2585471272468567
1761838910985329700,5.49232958984375,2.3349218368530273,-0.1377781182527542,0.28824615478515625
1761838910995399400,5.5023994140625,2.308364152908325,-0.21660985052585602,0.3060535192489624
1761838911005469400,5.512469482421875,2.277235269546509,-0.277571439743042,0.32613298296928406
1761838911015539500,5.52253955078125,2.2361795902252197,-0.34428727626800537,0.33192023634910583
1761838911025609500,5.532609375,2.1840579509735107,-0.39069101214408875,0.3256447911262512
1761838911035679500,5.542679443359375,2.1240930557250977,-0.4127815365791321,0.3229374587535858
1761838911045749500,5.55274951171875,2.0550320148468018,-0.42318785190582275,0.30731722712516785
1761838911055819500,5.562819580078125,1.9672738313674927,-0.4264594614505768,0.2781803607940674
1761838911065890600,5.572890625,1.8674143552780151,-0.3969431221485138,0.2501199543476105
1761838911075960600,5.582960693359375,1.7633877992630005,-0.3275541663169861,0.23025208711624146
1761838911086030600,5.593030517578125,1.6662836074829102,-0.21729959547519684,0.2125316858291626
1761838911096100600,5.6031005859375,1.5861458778381348,-0.07360483705997467,0.19852817058563232
1761838911106170400,5.61317041015625,1.5281366109848022,0.08315175026655197,0.18593674898147583
1761838911116240400,5.623240478515625,1.485723853111267,0.2214602679014206,0.16056101024150848
1761838911126310700,5.633310546875,1.4603819847106934,0.3196030855178833,0.12729041278362274
1761838911136380400,5.64338037109375,1.4414805173873901,0.3813544511795044,0.09280718863010406
1761838911146450400,5.653450439453125,1.4218809604644775,0.41272836923599243,0.06355448812246323
1761838911156520700,5.663520751953125,1.3986974954605103,0.40506330132484436,0.03785456717014313
1761838911166590500,5.673590576171875,1.3706700801849365,0.3813510537147522,0.02139543555676937
1761838911176660500,5.683660400390625,1.3464120626449585,0.3589211702346802,0.015854427590966225
1761838911186730500,5.69373046875,1.3287407159805298,0.3416934609413147,0.01666615903377533
1761838911196800500,5.703800537109375,1.321527123451233,0.33734330534935,0.023634513840079308
1761838911206870500,5.71387060546875,1.325797438621521,0.34681403636932373,0.03718600794672966
1761838911216940500,5.7239404296875,1.3337236642837524,0.36172592639923096,0.0557028166949749
1761838911227011300,5.73401123046875,1.3493183851242065,0.3699897229671478,0.06719115376472473
1761838911237081600,5.74408154296875,1.364753246307373,0.3821081519126892,0.08775250613689423
1761838911247151600,5.754151611328125,1.3815703392028809,0.40259212255477905,0.1062401756644249
1761838911257221600,5.7642216796875,1.3942590951919556,0.3984215259552002,0.12094032764434814
1761838911267292000,5.7742919921875,1.400566577911377,0.3946387767791748,0.13501140475273132
1761838911277361700,5.784361572265625,1.402526617050171,0.3876189887523651,0.1549071967601776
1761838911287431700,5.794431640625,1.398922324180603,0.37515565752983093,0.16605305671691895
1761838911297501700,5.804501708984375,1.3936606645584106,0.36236631870269775,0.17557135224342346
1761838911307571700,5.81457177734375,1.3801281452178955,0.35433369874954224,0.16667293012142181
1761838911317641700,5.824641845703125,1.3642330169677734,0.36942359805107117,0.16527602076530457
1761838911327711500,5.83471142578125,1.3547215461730957,0.38324540853500366,0.1576215624809265
1761838911337781800,5.84478173828125,1.3447519540786743,0.3999044895172119,0.14885619282722473
1761838911347851800,5.854851806640625,1.3392237424850464,0.4126969575881958,0.14271467924118042
1761838911357921500,5.864921630859375,1.3316919803619385,0.4120524227619171,0.1383853554725647
1761838911367991800,5.87499169921875,1.3240110874176025,0.392340749502182,0.135186105966568
1761838911378061800,5.885061767578125,1.321304440498352,0.35835492610931396,0.1235409826040268
1761838911388131600,5.895131591796875,1.319227695465088,0.3145243525505066,0.1039867177605629
1761838911398201600,5.90520166015625,1.3107284307479858,0.2688927948474884,0.07686382532119751
1761838911408272600,5.915272705078125,1.2946481704711914,0.22344356775283813,0.04311944916844368
1761838911418342700,5.9253427734375,1.2709088325500488,0.20332731306552887,0.015975868329405785
1761838911428412700,5.93541259765625,1.2474803924560547,0.21667854487895966,-0.010753747075796127
1761838911438482700,5.945482666015625,1.2234926223754883,0.24264082312583923,-0.03829106688499451
1761838911448552700,5.955552734375,1.2044321298599243,0.27698442339897156,-0.06817332655191422
1761838911458622700,5.965622802734375,1.1858930587768555,0.31890246272087097,-0.09519048780202866
1761838911468692700,5.975692626953125,1.1716794967651367,0.3528023660182953,-0.1280568242073059
1761838911478762800,5.9857626953125,1.1661696434020996,0.38036948442459106,-0.15589283406734467
1761838911488832800,5.995832763671875,1.1627190113067627,0.3876444399356842,-0.18480411171913147
1761838911498902800,6.00590283203125,1.1539171934127808,0.3428332209587097,-0.23407840728759766
1761838911508972500,6.01597265625,1.1660462617874146,0.28756141662597656,-0.2898191511631012
1761838911519042800,6.026042724609375,1.1888476610183716,0.28711989521980286,-0.33144649863243103
1761838911529112600,6.036112548828125,1.1955300569534302,0.26981493830680847,-0.38128170371055603
1761838911539182600,6.0461826171875,1.189018964767456,0.2216574251651764,-0.43361130356788635
1761838911549252900,6.0562529296875,1.1702308654785156,0.190322145819664,-0.48323318362236023
1761838911559322600,6.066322509765625,1.1456563472747803,0.19545985758304596,-0.5194922089576721
1761838911569392600,6.076392578125,1.1183778047561646,0.21347801387310028,-0.5333718061447144
1761838911579463700,6.086463623046875,1.095461368560791,0.22902166843414307,-0.5155962109565735
1761838911589533700,6.09653369140625,1.0813393592834473,0.23842263221740723,-0.45547378063201904
1761838911599603700,6.106603759765625,1.0639209747314453,0.24672822654247284,-0.3599575161933899
1761838911609673700,6.116673828125,1.050567388534546,0.24336865544319153,-0.23234255611896515
1761838911619743500,6.126743408203125,1.0405198335647583,0.22967015206813812,-0.07476263493299484
1761838911629813800,6.136813720703125,1.031148910522461,0.21012015640735626,0.09619073569774628
1761838911639883800,6.1468837890625,1.009155511856079,0.20877885818481445,0.2707265317440033
1761838911649953500,6.15695361328125,0.9676341414451599,0.21626047790050507,0.4238865077495575
1761838911660023800,6.16702392578125,0.9191066026687622,0.20112426578998566,0.5368925929069519
1761838911670093800,6.17709375,0.8705491423606873,0.18597035109996796,0.6070599555969238
1761838911680163600,6.18716357421875,0.8294544816017151,0.1596372425556183,0.6592068672180176
1761838911690233600,6.197233642578125,0.7843703031539917,0.14846475422382355,0.68988037109375
1761838911700304000,6.207303955078125,0.7435745596885681,0.15703637897968292,0.7098609805107117
1761838911710373600,6.21737353515625,0.7058841586112976,0.15146398544311523,0.7138956785202026
1761838911720443600,6.227443603515625,0.6784417629241943,0.14681270718574524,0.7104993462562561
1761838911730513700,6.237513671875,0.6422864198684692,0.15796548128128052,0.6981601715087891
1761838911740583700,6.247583740234375,0.605420708656311,0.18232852220535278,0.6619558334350586
1761838911750653700,6.25765380859375,0.563807487487793,0.21316365897655487,0.6156932711601257
1761838911760724700,6.267724853515625,0.5219108462333679,0.24242965877056122,0.5500548481941223
1761838911770794800,6.277794677734375,0.4834952652454376,0.26755207777023315,0.46828410029411316
1761838911780864800,6.28786474609375,0.459636926651001,0.2832222878932953,0.3659275472164154
1761838911790934800,6.297934814453125,0.4463275074958801,0.28197726607322693,0.24685601890087128
1761838911801004500,6.308004638671875,0.45337605476379395,0.25717055797576904,0.11851038038730621
1761838911811074800,6.31807470703125,0.47885212302207947,0.21027013659477234,-0.012198096141219139
1761838911821144600,6.32814453125,0.5141769647598267,0.1586572378873825,-0.13392490148544312
1761838911831214600,6.338214599609375,0.5667136311531067,0.12491579353809357,-0.2372417002916336
1761838911841284900,6.348284912109375,0.6278940439224243,0.11905280500650406,-0.31452569365501404
1761838911851354600,6.358354736328125,0.6898367404937744,0.09917896240949631,-0.36469218134880066
1761838911861424600,6.368424560546875,0.7509862184524536,0.06490060687065125,-0.38494592905044556
1761838911871494700,6.37849462890625,0.804902970790863,0.03735766187310219,-0.377816379070282
1761838911881564700,6.388564697265625,0.8434048891067505,0.01681741699576378,-0.3409286141395569
1761838911891634700,6.398634765625,0.8659543991088867,-0.017743755131959915,-0.2940109074115753
1761838911901704700,6.40870458984375,0.864910364151001,-0.07266256213188171,-0.2369914948940277
1761838911911774700,6.418774658203125,0.8400290012359619,-0.13597095012664795,-0.1681429147720337
1761838911921844700,6.4288447265625,0.7946503758430481,-0.18143515288829803,-0.09442272782325745
1761838911931914800,6.438914794921875,0.7367370128631592,-0.2251024842262268,-0.03050820156931877
1761838911941985500,6.448985595703125,0.677929699420929,-0.2804821729660034,0.013078315183520317
1761838911952055800,6.459055908203125,0.61763995885849,-0.32330578565597534,0.03283790498971939
1761838911962125800,6.469125732421875,0.5626612305641174,-0.33449864387512207,0.031344324350357056
1761838911972195600,6.479195556640625,0.5195467472076416,-0.3138650059700012,0.022330323234200478
1761838911982265600,6.489265625,0.48081305623054504,-0.2779511511325836,0.0033849747851490974
1761838911992336000,6.4993359375,0.4462662637233734,-0.2359541803598404,-0.01028716191649437
1761838912002405600,6.509405517578125,0.41022083163261414,-0.1781737208366394,-0.030648890882730484
1761838912012475600,6.5194755859375,0.3803761303424835,-0.12363697588443756,-0.051288653165102005
1761838912022545700,6.529545654296875,0.35311222076416016,-0.0684744343161583,-0.08216451108455658
1761838912032615700,6.53961572265625,0.3273434638977051,-0.031884998083114624,-0.12461449950933456
1761838912042685700,6.549685791015625,0.31009551882743835,-0.003122961148619652,-0.1708017736673355
1761838912052755700,6.559755615234375,0.300255686044693,0.02625090628862381,-0.21372979879379272
1761838912062825700,6.56982568359375,0.3059779405593872,0.04644087702035904,-0.244673490524292
1761838912072895700,6.579895751953125,0.3174465596675873,0.05902617797255516,-0.25264567136764526
1761838912082965500,6.589965576171875,0.3369361162185669,0.06813845038414001,-0.2391839176416397
1761838912093035800,6.600035888671875,0.3541364073753357,0.05367295816540718,-0.21011072397232056
1761838912103105800,6.610105712890625,0.363878071308136,0.0228753499686718,-0.16828642785549164
1761838912113175600,6.620175537109375,0.3684232831001282,-0.022258572280406952,-0.12094128131866455
1761838912123246600,6.63024658203125,0.36946743726730347,-0.055178530514240265,-0.0736597403883934
1761838912133316900,6.64031689453125,0.37118569016456604,-0.06903229653835297,-0.02761848270893097
1761838912143386600,6.65038671875,0.3696887791156769,-0.07753876596689224,0.0049884989857673645
1761838912153456600,6.66045654296875,0.35416948795318604,-0.07897207885980606,0.030206771567463875
1761838912163526700,6.670526611328125,0.337002694606781,-0.06961473077535629,0.045166775584220886
1761838912173596700,6.6805966796875,0.3165823817253113,-0.05339101701974869,0.05120096355676651
1761838912183666700,6.690666748046875,0.2938610315322876,-0.026331383734941483,0.04515543580055237
1761838912193736700,6.70073681640625,0.2716366648674011,0.023421257734298706,0.04641883820295334
1761838912203806700,6.710806640625,0.2550755441188812,0.08614631742238998,0.05563569813966751
1761838912213876700,6.720876708984375,0.246800035238266,0.15237168967723846,0.06479058414697647
1761838912223946500,6.730946533203125,0.25661376118659973,0.2001381516456604,0.07283466309309006
1761838912234016800,6.741016845703125,0.27836620807647705,0.21732671558856964,0.08585352450609207
1761838912244086800,6.751086669921875,0.3076844811439514,0.1982872635126114,0.10605637729167938
1761838912254156500,6.761156494140625,0.3277447521686554,0.14721795916557312,0.13634636998176575
1761838912264226600,6.7712265625,0.33670467138290405,0.044837526977062225,0.18072475492954254
1761838912274296600,6.781296630859375,0.3424837291240692,-0.06404981017112732,0.2414006143808365
1761838912284366300,6.791366455078125,0.3410272002220154,-0.1474316269159317,0.33126091957092285
1761838912294437400,6.801437255859375,0.35155653953552246,-0.23293347656726837,0.4315904378890991
1761838912304507400,6.81150732421875,0.38169094920158386,-0.3373951017856598,0.5034595727920532
1761838912314577400,6.821577392578125,0.39269912242889404,-0.4460403621196747,0.5340182781219482
1761838912324647400,6.8316474609375,0.3604491055011749,-0.5731833577156067,0.5052090883255005
1761838912334717400,6.841717529296875,0.2673756182193756,-0.6946192383766174,0.42495232820510864
1761838912344787500,6.851787353515625,0.13255742192268372,-0.7635272741317749,0.3053857684135437
1761838912354857500,6.861857421875,-0.0068026077933609486,-0.7068448662757874,0.20110675692558289
1761838912364927500,6.871927490234375,-0.12325211614370346,-0.5284796953201294,0.13004647195339203
1761838912374997500,6.88199755859375,-0.1763387769460678,-0.2740465998649597,0.10540983825922012
1761838912385067500,6.892067626953125,-0.14223159849643707,0.02270476520061493,0.1258360892534256
1761838912395137500,6.902137451171875,-0.10007189214229584,0.206333190202713,0.12465391308069229
1761838912405207300,6.912207275390625,-0.04850897565484047,0.32036614418029785,0.10805808007717133
1761838912415277600,6.922277587890625,0.03165989741683006,0.42401957511901855,0.09815271943807602
1761838912425347300,6.932347412109375,0.1255408525466919,0.47943252325057983,0.082720085978508
1761838912435417300,6.942417236328125,0.2071813941001892,0.47014129161834717,0.059719424694776535
1761838912445487600,6.952487548828125,0.27219003438949585,0.4264219403266907,0.042525336146354675
1761838912455557400,6.962557373046875,0.32891911268234253,0.36984866857528687,0.05562702566385269
1761838912465628400,6.97262841796875,0.39330819249153137,0.3008233606815338,0.10380661487579346
1761838912475698400,6.982698486328125,0.45121169090270996,0.20618845522403717,0.17635831236839294
1761838912485768400,6.9927685546875,0.4824391305446625,0.11434556543827057,0.24792532622814178
1761838912495838500,7.00283837890625,0.47677165269851685,0.04413185268640518,0.311440646648407
1761838912505908500,7.012908447265625,0.43823978304862976,-0.004990840330719948,0.3515860140323639
1761838912515978200,7.022978271484375,0.366909921169281,-0.013811763375997543,0.36299633979797363
1761838912526048500,7.033048583984375,0.28264909982681274,0.019052792340517044,0.35701775550842285
1761838912536118500,7.043118408203125,0.20044584572315216,0.07738001644611359,0.31357309222221375
1761838912546188300,7.053188232421875,0.1395898163318634,0.1463862806558609,0.25414183735847473
1761838912556258600,7.063258544921875,0.10712562501430511,0.2052333503961563,0.18389135599136353
1761838912566328600,7.07332861328125,0.10587680339813232,0.25145667791366577,0.12226041406393051
1761838912576398300,7.0833984375,0.11579414457082748,0.30752527713775635,0.06878014653921127
1761838912586468400,7.09346826171875,0.1328500211238861,0.35216930508613586,0.031530436128377914
1761838912596538600,7.10353857421875,0.16414722800254822,0.3797175884246826,-0.001954019535332918
1761838912606608400,7.1136083984375,0.21104149520397186,0.38900935649871826,-0.030196309089660645
1761838912616678400,7.123678466796875,0.2521093189716339,0.38218954205513,-0.06091640517115593
1761838912626748400,7.13374853515625,0.28127801418304443,0.32916060090065,-0.09572213143110275
1761838912636818400,7.143818359375,0.2935165762901306,0.22603367269039154,-0.13883577287197113
1761838912646888400,7.153888427734375,0.2911008596420288,0.09055446088314056,-0.1922878473997116
1761838912656959500,7.16395947265625,0.2741450369358063,-0.030445467680692673,-0.2366960644721985
1761838912667029500,7.174029541015625,0.2499268651008606,-0.09046521782875061,-0.2573971450328827
1761838912677099500,7.184099609375,0.24814334511756897,-0.09607063978910446,-0.25532492995262146
1761838912687169500,7.19416943359375,0.2763301134109497,-0.0809888169169426,-0.24115100502967834
1761838912697239300,7.2042392578125,0.3019891381263733,-0.06981845200061798,-0.23324649035930634
1761838912707309600,7.2143095703125,0.31654495000839233,-0.020938698202371597,-0.23055113852024078
1761838912717379300,7.22437939453125,0.3066052496433258,0.05652439966797829,-0.23489075899124146
1761838912727449300,7.234449462890625,0.2915261685848236,0.16729716956615448,-0.2505093514919281
1761838912737519600,7.24451953125,0.2557404637336731,0.28311803936958313,-0.29031747579574585
1761838912747589400,7.25458935546875,0.21720685064792633,0.379536896944046,-0.3380165100097656
1761838912757659400,7.264659423828125,0.17897291481494904,0.468635618686676,-0.3858354389667511
1761838912767729400,7.2747294921875,0.13998530805110931,0.521918535232544,-0.41870203614234924
1761838912777799400,7.28479931640625,0.1069975271821022,0.5451980233192444,-0.42488059401512146
1761838912787869400,7.294869384765625,0.10766198486089706,0.5555862188339233,-0.4031149446964264
1761838912797939500,7.304939453125,0.1267310231924057,0.5266456007957458,-0.3597288727760315
1761838912808009500,7.315009521484375,0.1514810472726822,0.48136377334594727,-0.31398525834083557
1761838912818079500,7.32507958984375,0.16799157857894897,0.41210028529167175,-0.25377172231674194
1761838912828149500,7.3351494140625,0.17175064980983734,0.33063969016075134,-0.19944383203983307
1761838912838219500,7.345219482421875,0.18117104470729828,0.2361331582069397,-0.1399693340063095
1761838912848290600,7.35529052734375,0.20289023220539093,0.16765570640563965,-0.07504862546920776
1761838912858360600,7.365360595703125,0.2423795759677887,0.13376937806606293,-0.009508494287729263
1761838912868430300,7.375430419921875,0.28181275725364685,0.14434248208999634,0.045628488063812256
1761838912878500400,7.385500244140625,0.29599329829216003,0.15867134928703308,0.07788202911615372
1761838912888570600,7.395570556640625,0.27717018127441406,0.12034923583269119,0.07748841494321823
1761838912898640400,7.405640380859375,0.22270694375038147,0.05587384104728699,0.05654957890510559
1761838912908710400,7.41571044921875,0.1357596069574356,-0.0013023708015680313,0.03543725609779358
1761838912918780400,7.425780517578125,0.02650955133140087,-0.03654877468943596,0.021995484828948975
1761838912928850400,7.435850341796875,-0.08919373899698257,-0.03339262306690216,0.02713683247566223
1761838912938920400,7.44592041015625,-0.19543150067329407,0.006442409474402666,0.05564916878938675
1761838912948990500,7.455990478515625,-0.30637580156326294,0.0361543633043766,0.09083263576030731
1761838912959060500,7.466060546875,-0.4290924072265625,0.05689932405948639,0.13606323301792145
1761838912969130500,7.476130615234375,-0.5642969012260437,0.04814794287085533,0.17085930705070496
1761838912979200300,7.4862001953125,-0.6847698092460632,0.0004485994577407837,0.20285238325595856
1761838912989270500,7.4962705078125,-0.7508395910263062,-0.029838182032108307,0.2383633553981781
1761838912999340500,7.506340576171875,-0.7416077256202698,-0.06006532907485962,0.27906206250190735
1761838913009410300,7.516410400390625,-0.68343585729599,-0.11034883558750153,0.32409533858299255
1761838913019480600,7.52648046875,-0.6036960482597351,-0.18701697885990143,0.3519078195095062
1761838913029550600,7.536550537109375,-0.5256281495094299,-0.30622509121894836,0.35557469725608826
1761838913039620400,7.546620361328125,-0.4509965479373932,-0.43387627601623535,0.33389711380004883
1761838913049690400,7.5566904296875,-0.4099203646183014,-0.5176586508750916,0.29102322459220886
1761838913059761400,7.566761474609375,-0.4008632004261017,-0.5122010707855225,0.24857908487319946
1761838913069831400,7.57683154296875,-0.42494726181030273,-0.43416568636894226,0.21479251980781555
1761838913079901400,7.5869013671875,-0.4488890767097473,-0.31721270084381104,0.1872144192457199
1761838913089971500,7.596971435546875,-0.4496309757232666,-0.15853948891162872,0.14166705310344696
1761838913100041500,7.60704150390625,-0.41512706875801086,-0.01657888852059841,0.0991094782948494
1761838913110111500,7.617111572265625,-0.37404119968414307,0.09532171487808228,0.0689966231584549
1761838913120181200,7.62718115234375,-0.33656278252601624,0.1530902087688446,0.0640905499458313
1761838913130251500,7.63725146484375,-0.2859686613082886,0.17245124280452728,0.09407877177000046
1761838913140321500,7.647321533203125,-0.23529615998268127,0.17233219742774963,0.15728864073753357
1761838913150391300,7.657391357421875,-0.18580691516399384,0.1667117178440094,0.2577163577079773
1761838913160461300,7.66746142578125,-0.1377488374710083,0.15571552515029907,0.36535972356796265
1761838913170531600,7.677531494140625,-0.09815042465925217,0.1343928724527359,0.4757262170314789
1761838913180601300,7.687601318359375,-0.07600624114274979,0.08577686548233032,0.5646334886550903
1761838913190671400,7.69767138671875,-0.0640953779220581,0.009481229819357395,0.6269118189811707
1761838913200741600,7.70774169921875,-0.047729991376399994,-0.053792279213666916,0.6618615388870239
1761838913210811400,7.717811279296875,-0.016955237835645676,-0.09228158742189407,0.6572450399398804
1761838913220881400,7.72788134765625,0.040460385382175446,-0.10349828749895096,0.6147255301475525
1761838913230951400,7.737951416015625,0.10460028797388077,-0.07618825882673264,0.5482920408248901
1761838913241021400,7.748021484375,0.13682560622692108,-0.0353982150554657,0.4642665982246399
1761838913251092500,7.758092529296875,0.10461262613534927,-0.025720473378896713,0.3813910186290741
1761838913261163000,7.7681630859375,0.016370117664337158,-0.022351574152708054,0.32398366928100586
1761838913271232800,7.778232666015625,-0.1106717437505722,0.015938401222229004,0.3189376890659332
1761838913281303000,7.788302978515625,-0.25348028540611267,0.033166658133268356,0.32968035340309143
1761838913291373000,7.798373046875,-0.41803455352783203,0.011813626624643803,0.31317463517189026
1761838913301442800,7.80844287109375,-0.5748401284217834,0.009337686002254486,0.2920725345611572
1761838913311512800,7.818512939453125,-0.7204672694206238,0.008238795213401318,0.265552818775177
1761838913321583000,7.8285830078125,-0.8459336161613464,-0.007033368572592735,0.20750869810581207
1761838913331652900,7.83865283203125,-0.9197975993156433,0.015040135942399502,0.15662717819213867
1761838913341723000,7.848722900390625,-0.947842538356781,0.045166078954935074,0.11316199600696564
1761838913351793200,7.858793212890625,-0.9669008851051331,0.062100134789943695,0.07869467884302139
1761838913361863000,7.86886279296875,-0.9914901256561279,0.1039770096540451,0.08385268598794937
1761838913371933000,7.878932861328125,-0.9950425028800964,0.17275793850421906,0.12694689631462097
1761838913382003000,7.8890029296875,-0.9731491804122925,0.2563875913619995,0.18666215240955353
1761838913392073000,7.899072998046875,-0.9302951097488403,0.30211934447288513,0.2711193859577179
1761838913402143000,7.90914306640625,-0.8972322344779968,0.33713430166244507,0.36195048689842224
1761838913412212700,7.919212646484375,-0.8916987776756287,0.3366425633430481,0.44651564955711365
1761838913422283000,7.929282958984375,-0.8793134689331055,0.24503569304943085,0.5027222037315369
1761838913432353000,7.93935302734375,-0.8338135480880737,0.07233472168445587,0.5038875341415405
1761838913442422000,7.949422119140625,-0.8042076826095581,-0.08778064697980881,0.46729084849357605
1761838913452492000,7.959491943359375,-0.7969496250152588,-0.22279569506645203,0.3958030939102173
1761838913462561800,7.969561767578125,-0.8014426231384277,-0.40120723843574524,0.3046007454395294
1761838913472631800,7.9796318359375,-0.7948724031448364,-0.5970854163169861,0.193830668926239
1761838913482702000,7.9897021484375,-0.7692868709564209,-0.7785947322845459,0.05027509853243828
1761838913492771800,7.999771728515625,-0.710458517074585,-0.9286377429962158,-0.11709700524806976
1761838913502841900,8.009841796875,-0.6368732452392578,-0.9801850914955139,-0.2693632245063782
1761838913512912100,8.019912109375,-0.5461843609809875,-0.9111022353172302,-0.40398022532463074
1761838913522982000,8.02998193359375,-0.45251941680908203,-0.7664846181869507,-0.5074232816696167
1761838913533052000,8.040052001953125,-0.3570227026939392,-0.6454843282699585,-0.5830042958259583
1761838913543122200,8.0501220703125,-0.24511322379112244,-0.5745512843132019,-0.67867511510849
1761838913553192000,8.06019189453125,-0.12254463881254196,-0.46039044857025146,-0.7994188070297241
1761838913563262000,8.070261962890624,-0.020497631281614304,-0.22319304943084717,-0.8448754549026489
1761838913573331700,8.080331787109374,0.04836020991206169,0.011501884087920189,-0.8367956876754761
1761838913583402000,8.090402099609374,0.07434041053056717,0.16747364401817322,-0.8008056879043579
1761838913593473000,8.10047314453125,0.05623616278171539,0.2681277096271515,-0.727437436580658
1761838913603543000,8.11054296875,0.008834026753902435,0.28163447976112366,-0.6372327208518982
1761838913613612800,8.12061279296875,-0.05862590670585632,0.2086949348449707,-0.5604260563850403
1761838913623683000,8.13068310546875,-0.10370869189500809,0.11859088391065598,-0.5045353770256042
1761838913633752800,8.1407529296875,-0.09976840019226074,0.0919823870062828,-0.44314679503440857
1761838913643822800,8.15082275390625,-0.09962885081768036,0.11796817928552628,-0.3632698059082031
1761838913653893000,8.16089306640625,-0.10580812394618988,0.17987072467803955,-0.27266520261764526
1761838913663963000,8.170962890625,-0.12306247651576996,0.2624177932739258,-0.16508015990257263
1761838913674033000,8.181032958984375,-0.13880422711372375,0.3138958811759949,-0.045061614364385605
1761838913684103000,8.19110302734375,-0.129312202334404,0.34165695309638977,0.06774242967367172
1761838913694173000,8.2011728515625,-0.10353480279445648,0.38142654299736023,0.17049114406108856
1761838913704243000,8.211242919921874,-0.07017125189304352,0.45326077938079834,0.25247922539711
1761838913714313000,8.22131298828125,-0.02035028487443924,0.5426779985427856,0.31194785237312317
1761838913724383000,8.231383056640626,0.039182547479867935,0.6028106212615967,0.346550852060318
1761838913734453000,8.241452880859375,0.09285855293273926,0.6237898468971252,0.33833158016204834
1761838913744523000,8.25152294921875,0.15034155547618866,0.5646761655807495,0.29417985677719116
1761838913754592800,8.2615927734375,0.20192182064056396,0.3971281051635742,0.22230957448482513
1761838913764663000,8.2716630859375,0.22290940582752228,0.21968384087085724,0.16193917393684387
1761838913774732800,8.28173291015625,0.20341776311397552,0.15034526586532593,0.1267196238040924
1761838913784802800,8.291802734375,0.15762203931808472,0.19735699892044067,0.12617634236812592
1761838913794873000,8.301873046875,0.09194605052471161,0.31305044889450073,0.15341976284980774
1761838913804942800,8.31194287109375,0.023262323811650276,0.40405547618865967,0.18433372676372528
1761838913815014000,8.322013916015624,-0.02770002745091915,0.44139936566352844,0.2110971063375473
1761838913825084000,8.332083984375,-0.028100566938519478,0.4349159002304077,0.2272891253232956
1761838913835154200,8.342154296875,0.004485832527279854,0.4195064604282379,0.2449605017900467
1761838913845224000,8.352223876953126,0.03760436922311783,0.39736199378967285,0.2645251452922821
1761838913855294000,8.3622939453125,0.06856350600719452,0.3742028474807739,0.2955686151981354
1761838913865363700,8.37236376953125,0.08587351441383362,0.3589783310890198,0.3330978751182556
1761838913875434000,8.38243408203125,0.09044167399406433,0.3417045772075653,0.36146262288093567
1761838913885504000,8.39250390625,0.07973230630159378,0.2931751310825348,0.3788194954395294
1761838913895573800,8.40257373046875,0.04905130714178085,0.22542144358158112,0.3728080689907074
1761838913905644000,8.41264404296875,0.003255321644246578,0.1413571685552597,0.3636361360549927
1761838913915714000,8.422714111328125,-0.04934725537896156,0.06373356282711029,0.3594292104244232
1761838913925783800,8.43278369140625,-0.08338218927383423,0.00842982716858387,0.3592718243598938
1761838913935854000,8.44285400390625,-0.06909451633691788,-0.016073819249868393,0.3703151047229767
1761838913945924000,8.452924072265626,-0.01073453575372696,-0.0520363450050354,0.3754483461380005
1761838913955993900,8.462993896484376,0.062366023659706116,-0.12255905568599701,0.36872777342796326
1761838913966063900,8.47306396484375,0.11335916817188263,-0.20513063669204712,0.3525884747505188
1761838913976134000,8.4831337890625,0.1377352923154831,-0.2916560471057892,0.3294627368450165
1761838913986204000,8.493203857421875,0.14209754765033722,-0.3592659831047058,0.3225640654563904
1761838913996274000,8.50327392578125,0.13503576815128326,-0.38775432109832764,0.3326731026172638
1761838914006344000,8.513343994140625,0.11098689585924149,-0.33786240220069885,0.34613698720932007
1761838914016417000,8.5234169921875,0.08221922069787979,-0.24970951676368713,0.34963327646255493
1761838914026486800,8.53348681640625,0.045724064111709595,-0.1354156881570816,0.34269893169403076
1761838914036557000,8.54355712890625,0.0104793356731534,0.005753253120929003,0.3144318461418152
1761838914046627000,8.553626953125,0.007824963890016079,0.1525011509656906,0.2737214267253876
1761838914056696800,8.56369677734375,0.02883484773337841,0.24390347301959991,0.22738923132419586
1761838914066767000,8.57376708984375,0.05933842808008194,0.279140830039978,0.19112764298915863
1761838914076836900,8.5838369140625,0.07417617738246918,0.2706637680530548,0.1688685268163681
1761838914086907000,8.593906982421874,0.07417750358581543,0.2339574247598648,0.15525232255458832
1761838914096977000,8.603976806640626,0.0609198696911335,0.16489329934120178,0.13346049189567566
1761838914107047000,8.614046875,0.03089725598692894,0.07105600833892822,0.10400860011577606
1761838914117117000,8.624116943359375,-0.010313027538359165,-0.014134700410068035,0.08037140965461731
1761838914127187000,8.63418701171875,-0.04558899253606796,-0.06041910499334335,0.05836997553706169
1761838914137257000,8.644257080078125,-0.0857178345322609,-0.07598806172609329,0.03211831673979759
1761838914147327000,8.654326904296875,-0.12661759555339813,-0.0778229758143425,-0.0014697343576699495
1761838914157397000,8.66439697265625,-0.1745886504650116,-0.07636038959026337,-0.05244690179824829
1761838914167466800,8.674466796875,-0.22121821343898773,-0.07723816484212875,-0.1140546053647995
1761838914177537000,8.684537109375,-0.2712154984474182,-0.05493687838315964,-0.18538258969783783
1761838914187607000,8.69460693359375,-0.31633901596069336,-0.0014824429526925087,-0.256412535905838
1761838914197676800,8.7046767578125,-0.34326815605163574,0.07024353742599487,-0.3252986967563629
1761838914207747000,8.7147470703125,-0.34347641468048096,0.13467872142791748,-0.3870757818222046
1761838914217816800,8.72481689453125,-0.32599952816963196,0.161935955286026,-0.439971923828125
1761838914227886800,8.734886962890625,-0.2815476357936859,0.1532263457775116,-0.4811907112598419
1761838914237957000,8.74495703125,-0.22910653054714203,0.13655760884284973,-0.512353241443634
1761838914248027000,8.75502685546875,-0.18029212951660156,0.09593135863542557,-0.5294398665428162
1761838914258098000,8.765097900390625,-0.15327265858650208,0.06794284284114838,-0.5347740650177002
1761838914268167400,8.77516748046875,-0.17056748270988464,0.04197622090578079,-0.5247730612754822
1761838914278237400,8.785237548828125,-0.20537938177585602,0.02817726507782936,-0.5038205981254578
1761838914288307500,8.795307373046874,-0.22346118092536926,0.051490578800439835,-0.4640524387359619
1761838914298377500,8.80537744140625,-0.22579051554203033,0.08989758044481277,-0.4189074635505676
1761838914308447500,8.815447509765624,-0.21341001987457275,0.11123775690793991,-0.3670530617237091
1761838914318517500,8.825517578125,-0.20019017159938812,0.09618264436721802,-0.3190752863883972
1761838914328587300,8.835587158203126,-0.18733641505241394,0.05450204014778137,-0.2772197127342224
1761838914338657300,8.8456572265625,-0.17187370359897614,0.020307160913944244,-0.2328171283006668
1761838914348727600,8.8557275390625,-0.16805073618888855,-0.004808577708899975,-0.1784883737564087
1761838914358797300,8.86579736328125,-0.18069349229335785,-0.03890535235404968,-0.1029982641339302
1761838914368867300,8.875867431640625,-0.20819702744483948,-0.08856052160263062,-0.015015946701169014
1761838914378937600,8.8859375,-0.23336482048034668,-0.1352049559354782,0.07509408891201019
1761838914389007400,8.89600732421875,-0.25992530584335327,-0.18514348566532135,0.15628880262374878
1761838914399077400,8.906077392578124,-0.28481850028038025,-0.2469007819890976,0.22184033691883087
1761838914409147400,8.9161474609375,-0.31569546461105347,-0.32270926237106323,0.27280205488204956
1761838914419217400,8.926217529296874,-0.3586340844631195,-0.3574567139148712,0.3245062530040741
1761838914429287400,8.936287353515626,-0.4023541510105133,-0.34523865580558777,0.3826315999031067
1761838914439357200,8.946357177734376,-0.44311338663101196,-0.3051513135433197,0.4371531903743744
1761838914449427500,8.956427490234375,-0.47269684076309204,-0.25873029232025146,0.46405965089797974
1761838914459497500,8.96649755859375,-0.49830546975135803,-0.22428807616233826,0.47022685408592224
1761838914469567200,8.976567138671875,-0.5210813283920288,-0.2116124927997589,0.45537468791007996
1761838914479637500,8.986637451171875,-0.5393010377883911,-0.2376895248889923,0.42566877603530884
1761838914489707500,8.99670751953125,-0.5439453125,-0.2715441584587097,0.39312654733657837
1761838914499777300,9.00677734375,-0.5469523668289185,-0.3082858622074127,0.3533874452114105
1761838914509847300,9.016847412109374,-0.558048665523529,-0.3376283049583435,0.3120895326137543
1761838914519918300,9.02691845703125,-0.5690473318099976,-0.31173866987228394,0.27219662070274353
1761838914529988400,9.03698828125,-0.5795173048973083,-0.22327910363674164,0.25484055280685425
1761838914540058400,9.047058349609374,-0.5901823043823242,-0.13096573948860168,0.2383263111114502
1761838914550128400,9.05712841796875,-0.6004349589347839,-0.0771656259894371,0.22162242233753204
1761838914560198400,9.067198486328126,-0.6000103950500488,-0.0276651568710804,0.21614256501197815
1761838914570268400,9.077268310546875,-0.5823661088943481,0.04049152880907059,0.23399506509304047
1761838914580338400,9.08733837890625,-0.5517277717590332,0.07761040329933167,0.26118993759155273
1761838914590408400,9.097408447265625,-0.5317322611808777,0.0986805334687233,0.3264126181602478
1761838914600478500,9.107478515625,-0.5544236898422241,-0.05205843597650528,0.420014888048172
1761838914610548500,9.117548583984375,-0.5664633512496948,-0.3834110498428345,0.4545923173427582
1761838914620618200,9.1276181640625,-0.5400386452674866,-0.6348690390586853,0.4744705259799957
1761838914630688500,9.1376884765625,-0.5460909605026245,-0.7275151014328003,0.4551604688167572
1761838914640758500,9.147758544921874,-0.5766806602478027,-0.7241645455360413,0.3733784556388855
1761838914650828300,9.157828369140624,-0.617674708366394,-0.6670293211936951,0.23676256835460663
1761838914660898600,9.167898681640626,-0.7001999616622925,-0.6105309724807739,0.10490977019071579
1761838914670968300,9.17796826171875,-0.76665860414505,-0.5237929224967957,-0.0008403570391237736
