time,seconds_elapsed,z,y,x
1761838949269090000,0.067090087890625,-1.085418701171875,-0.240386962890625,-0.0693817138671875
1761838949279160000,0.07716015625,-1.1101837158203125,-0.2629852294921875,-0.0847930908203125
1761838949289229800,0.087229736328125,-1.109527587890625,-0.2846527099609375,-0.096282958984375
1761838949299299000,0.097299072265625,-1.0957489013671875,-0.28704833984375,-0.1091461181640625
1761838949309369000,0.107369140625,-1.0731201171875,-0.2931365966796875,-0.111968994140625
1761838949319438800,0.11743896484375,-1.0438385009765625,-0.2991790771484375,-0.106689453125
1761838949329509000,0.127509033203125,-1.0223236083984375,-0.30767822265625,-0.096588134765625
1761838949339579100,0.1375791015625,-0.9882354736328125,-0.309600830078125,-0.0834808349609375
1761838949349649000,0.14764892578125,-0.9554443359375,-0.308685302734375,-0.06805419921875
1761838949359719000,0.157718994140625,-0.932464599609375,-0.3130950927734375,-0.0508270263671875
1761838949369789200,0.1677890625,-0.9184417724609375,-0.32000732421875,-0.03289794921875
1761838949379859000,0.17785888671875,-0.903350830078125,-0.3232574462890625,-0.0142669677734375
1761838949389929000,0.187928955078125,-0.8897247314453125,-0.3183746337890625,0.000823974609375
1761838949399999200,0.197999267578125,-0.89544677734375,-0.317352294921875,0.0165252685546875
1761838949410069000,0.208069091796875,-0.892120361328125,-0.31561279296875,0.0225830078125
1761838949420139000,0.218138916015625,-0.8877410888671875,-0.312408447265625,0.02276611328125
1761838949430209000,0.228208984375,-0.8926239013671875,-0.3144683837890625,0.022857666015625
1761838949440279000,0.238279052734375,-0.90057373046875,-0.3185882568359375,0.0197296142578125
1761838949450350000,0.24835009765625,-0.900726318359375,-0.3209381103515625,0.012664794921875
1761838949460420000,0.258420166015625,-0.9010467529296875,-0.3194122314453125,0.00439453125
1761838949470489900,0.26848974609375,-0.9089508056640625,-0.3159332275390625,-0.004119873046875
1761838949480560000,0.27856005859375,-0.9160919189453125,-0.309173583984375,-0.0077972412109375
1761838949490630100,0.288630126953125,-0.914947509765625,-0.3076934814453125,-0.0076751708984375
1761838949500700000,0.298699951171875,-0.920654296875,-0.3101348876953125,-0.00811767578125
1761838949510770200,0.308770263671875,-0.9219818115234375,-0.316070556640625,-0.012420654296875
1761838949520840000,0.31883984375,-0.9151611328125,-0.3193359375,-0.017608642578125
1761838949530910000,0.328909912109375,-0.922515869140625,-0.3297271728515625,-0.0220947265625
1761838949540980200,0.338980224609375,-0.9302215576171875,-0.33953857421875,-0.0257720947265625
1761838949551050000,0.349050048828125,-0.9287567138671875,-0.3377532958984375,-0.0298004150390625
1761838949561120000,0.3591201171875,-0.931549072265625,-0.3385009765625,-0.0248870849609375
1761838949571190000,0.36918994140625,-0.939697265625,-0.3411102294921875,-0.01727294921875
1761838949581260000,0.379260009765625,-0.9436492919921875,-0.340789794921875,-0.0136871337890625
1761838949591330000,0.389330078125,-0.9550018310546875,-0.3394927978515625,-0.009063720703125
1761838949601400000,0.399400146484375,-0.9673614501953125,-0.3338775634765625,-0.004669189453125
1761838949611470000,0.409469970703125,-0.978271484375,-0.3262176513671875,-0.000579833984375
1761838949621540000,0.4195400390625,-0.991485595703125,-0.3246307373046875,0.0048828125
1761838949631610000,0.429610107421875,-0.9984283447265625,-0.326690673828125,0.0113372802734375
1761838949641680100,0.43968017578125,-1.0077362060546875,-0.331298828125,0.020751953125
1761838949651750100,0.449750244140625,-1.0163421630859375,-0.335845947265625,0.0316162109375
1761838949661820000,0.45981982421875,-1.019439697265625,-0.3433685302734375,0.0426483154296875
1761838949671890000,0.469889892578125,-1.019622802734375,-0.358367919921875,0.0564727783203125
1761838949681960200,0.479960205078125,-1.0305023193359375,-0.3693084716796875,0.0635528564453125
1761838949692030000,0.490030029296875,-1.053009033203125,-0.3730926513671875,0.065216064453125
1761838949702100000,0.500099853515625,-1.0680084228515625,-0.373260498046875,0.062347412109375
1761838949712170200,0.510170166015625,-1.0750274658203125,-0.3707275390625,0.05120849609375
1761838949722240000,0.520239990234375,-1.0829315185546875,-0.36083984375,0.0359649658203125
1761838949732310000,0.53031005859375,-1.0909576416015625,-0.3429412841796875,0.018829345703125
1761838949742380000,0.540380126953125,-1.09417724609375,-0.3173675537109375,0.008636474609375
1761838949752450000,0.550449951171875,-1.08880615234375,-0.291595458984375,-0.0031280517578125
1761838949762521000,0.56052099609375,-1.072357177734375,-0.263397216796875,-0.010040283203125
1761838949772591000,0.570591064453125,-1.0559234619140625,-0.234161376953125,-0.0078125
1761838949782660900,0.580660888671875,-1.03753662109375,-0.2100067138671875,0.0065460205078125
1761838949792731100,0.590731201171875,-1.0200042724609375,-0.20208740234375,0.0367279052734375
1761838949802801200,0.60080126953125,-1.009674072265625,-0.20306396484375,0.0742645263671875
1761838949812871000,0.610870849609375,-0.99322509765625,-0.1992950439453125,0.104339599609375
1761838949822941200,0.620941162109375,-0.980682373046875,-0.19573974609375,0.11669921875
1761838949833011200,0.63101123046875,-0.9592742919921875,-0.190521240234375,0.114532470703125
1761838949843081000,0.6410810546875,-0.9330902099609375,-0.1789093017578125,0.100433349609375
1761838949853151000,0.65115087890625,-0.94940185546875,-0.17852783203125,0.1009674072265625
1761838949863221000,0.661220947265625,-0.937957763671875,-0.1671295166015625,0.0894317626953125
1761838949873291000,0.671291015625,-0.9236297607421875,-0.1555023193359375,0.07550048828125
1761838949883361000,0.681361083984375,-0.9255523681640625,-0.15936279296875,0.074127197265625
1761838949893431000,0.69143115234375,-0.9205780029296875,-0.1715087890625,0.08123779296875
1761838949903501000,0.7015009765625,-0.9129180908203125,-0.18231201171875,0.0917205810546875
1761838949913571000,0.711571044921875,-0.9065093994140625,-0.1905670166015625,0.10076904296875
1761838949923641000,0.72164111328125,-0.89129638671875,-0.1956024169921875,0.1046905517578125
1761838949933711000,0.731711181640625,-0.87237548828125,-0.1919708251953125,0.10809326171875
1761838949943781000,0.741781005859375,-0.864990234375,-0.192047119140625,0.11871337890625
1761838949953851000,0.751850830078125,-0.8675537109375,-0.1959686279296875,0.134124755859375
1761838949963921200,0.761921142578125,-0.866302490234375,-0.19549560546875,0.1469879150390625
1761838949973991200,0.7719912109375,-0.8642578125,-0.1917572021484375,0.156036376953125
1761838949984061000,0.78206103515625,-0.877044677734375,-0.1953125,0.173797607421875
1761838949994131200,0.792131103515625,-0.8983154296875,-0.2000732421875,0.1884002685546875
1761838950004201000,0.802200927734375,-0.9090423583984375,-0.1966094970703125,0.1920013427734375
1761838950014271000,0.81227099609375,-0.95672607421875,-0.2015228271484375,0.2076263427734375
1761838950024341000,0.822341064453125,-0.973968505859375,-0.1961517333984375,0.2003021240234375
1761838950034411000,0.832410888671875,-0.983612060546875,-0.189544677734375,0.1854248046875
1761838950044481000,0.84248095703125,-0.998291015625,-0.1921844482421875,0.1740570068359375
1761838950054552000,0.852552001953125,-1.004302978515625,-0.197296142578125,0.1597442626953125
1761838950064621800,0.862621826171875,-1.0080718994140625,-0.200958251953125,0.1468048095703125
1761838950074692000,0.872692138671875,-1.0130615234375,-0.20721435546875,0.139068603515625
1761838950084762000,0.88276220703125,-1.0128173828125,-0.2136688232421875,0.13458251953125
1761838950094831900,0.892831787109375,-1.00860595703125,-0.2151947021484375,0.1261749267578125
1761838950104902100,0.902902099609375,-0.996490478515625,-0.2165374755859375,0.1185150146484375
1761838950114972200,0.91297216796875,-0.982452392578125,-0.2159881591796875,0.1155242919921875
1761838950125042000,0.9230419921875,-0.9720001220703125,-0.2155609130859375,0.118316650390625
1761838950135112000,0.93311181640625,-0.9649505615234375,-0.2215423583984375,0.128753662109375
1761838950145182200,0.94318212890625,-0.954833984375,-0.2319183349609375,0.14306640625
1761838950155252000,0.953251953125,-0.9468994140625,-0.239959716796875,0.1557769775390625
1761838950165322000,0.963322021484375,-0.9384002685546875,-0.2482147216796875,0.1612701416015625
1761838950175392300,0.973392333984375,-0.9329071044921875,-0.254486083984375,0.1645965576171875
1761838950185462000,0.9834619140625,-0.926849365234375,-0.2595672607421875,0.168701171875
1761838950195532000,0.993531982421875,-0.9169921875,-0.2638702392578125,0.1706085205078125
1761838950205602000,1.00360205078125,-0.904632568359375,-0.2705535888671875,0.1647186279296875
1761838950215672000,1.013672119140625,-0.8915557861328125,-0.27630615234375,0.1576080322265625
1761838950225742000,1.0237421875,-0.88409423828125,-0.282684326171875,0.1451873779296875
1761838950235811800,1.033811767578125,-0.8851318359375,-0.292266845703125,0.1383209228515625
1761838950245882000,1.043882080078125,-0.89306640625,-0.294189453125,0.1248779296875
1761838950255952100,1.0539521484375,-0.911590576171875,-0.2958526611328125,0.1233062744140625
1761838950266022000,1.06402197265625,-0.9293212890625,-0.29327392578125,0.1240692138671875
1761838950276092200,1.074092041015625,-0.9405517578125,-0.287139892578125,0.1256256103515625
1761838950286163200,1.0841630859375,-0.9594573974609375,-0.288482666015625,0.1297149658203125
1761838950296233200,1.094233154296875,-0.9808197021484375,-0.2881927490234375,0.1295623779296875
1761838950306303200,1.10430322265625,-0.9951171875,-0.278900146484375,0.124847412109375
1761838950316373000,1.114373046875,-1.0094146728515625,-0.2735137939453125,0.1177825927734375
1761838950326443300,1.124443359375,-1.01995849609375,-0.272491455078125,0.114166259765625
1761838950336513300,1.13451318359375,-1.0239715576171875,-0.2755584716796875,0.1119232177734375
1761838950346583000,1.1445830078125,-1.0286865234375,-0.2801971435546875,0.1144866943359375
1761838950356653300,1.1546533203125,-1.0346832275390625,-0.2778167724609375,0.1153717041015625
1761838950366723300,1.164723388671875,-1.052886962890625,-0.276214599609375,0.12158203125
1761838950376793000,1.17479296875,-1.0676422119140625,-0.2734527587890625,0.122589111328125
1761838950386863000,1.184863037109375,-1.067138671875,-0.2690277099609375,0.1171112060546875
1761838950396933400,1.194933349609375,-1.0585784912109375,-0.262115478515625,0.1084136962890625
1761838950407003100,1.205003173828125,-1.0480499267578125,-0.2591705322265625,0.1027984619140625
1761838950417073200,1.2150732421875,-1.0335235595703125,-0.2641754150390625,0.1050872802734375
1761838950427143200,1.22514306640625,-1.0261077880859375,-0.2722015380859375,0.1073760986328125
1761838950437213200,1.235213134765625,-1.0307769775390625,-0.2743988037109375,0.1082611083984375
1761838950447283200,1.245283203125,-1.0308837890625,-0.2842254638671875,0.109588623046875
1761838950457353200,1.255353271484375,-1.03192138671875,-0.29791259765625,0.1033935546875
1761838950467423200,1.26542333984375,-1.0229034423828125,-0.3043060302734375,0.0863800048828125
1761838950477493200,1.2754931640625,-1.014862060546875,-0.3092498779296875,0.072296142578125
1761838950487563000,1.28556298828125,-1.008636474609375,-0.313690185546875,0.0599517822265625
1761838950497634000,1.295634033203125,-1.0078887939453125,-0.314208984375,0.0441741943359375
1761838950507704300,1.305704345703125,-1.0066680908203125,-0.3084564208984375,0.0276336669921875
1761838950517774000,1.315774169921875,-1.01934814453125,-0.3022613525390625,0.02105712890625
1761838950527844000,1.325843994140625,-1.042236328125,-0.29656982421875,0.013824462890625
1761838950537914400,1.335914306640625,-1.0511932373046875,-0.2841339111328125,0.0032958984375
1761838950547984100,1.345984130859375,-1.045318603515625,-0.2636871337890625,-0.003082275390625
1761838950558054100,1.35605419921875,-1.0160369873046875,-0.2394256591796875,-0.0202484130859375
1761838950568124400,1.36612451171875,-0.9974212646484375,-0.2274932861328125,-0.0294647216796875
1761838950578194200,1.376194091796875,-0.989990234375,-0.2305450439453125,-0.0267791748046875
1761838950588264200,1.38626416015625,-0.98114013671875,-0.2373199462890625,-0.0205078125
1761838950598334200,1.396334228515625,-0.9675140380859375,-0.24005126953125,-0.011138916015625
1761838950608404200,1.406404296875,-0.9600372314453125,-0.2447967529296875,-0.005340576171875
1761838950618474200,1.41647412109375,-0.9310302734375,-0.239654541015625,-0.0055084228515625
1761838950628544000,1.4265439453125,-0.902313232421875,-0.230072021484375,-0.0016021728515625
1761838950638614300,1.4366142578125,-0.882049560546875,-0.22442626953125,0.006805419921875
1761838950648684300,1.446684326171875,-0.856353759765625,-0.2191619873046875,0.0154876708984375
1761838950658754000,1.456754150390625,-0.832733154296875,-0.218597412109375,0.0249176025390625
1761838950668824300,1.46682421875,-0.8199310302734375,-0.2212677001953125,0.0331268310546875
1761838950678894300,1.476894287109375,-0.81292724609375,-0.2267303466796875,0.0406341552734375
1761838950688964000,1.486964111328125,-0.8078460693359375,-0.2274932861328125,0.0423431396484375
1761838950699034000,1.4970341796875,-0.8041229248046875,-0.229248046875,0.0425262451171875
1761838950709105200,1.507105224609375,-0.8152008056640625,-0.233642578125,0.0472412109375
1761838950719175200,1.517175048828125,-0.828521728515625,-0.240692138671875,0.05218505859375
1761838950729245200,1.5272451171875,-0.8466796875,-0.2485198974609375,0.04931640625
1761838950739315200,1.537315185546875,-0.863128662109375,-0.25408935546875,0.036590576171875
1761838950749385200,1.54738525390625,-0.8816375732421875,-0.256927490234375,0.0213165283203125
1761838950759455200,1.557455322265625,-0.90289306640625,-0.2567596435546875,0.006866455078125
1761838950769525200,1.567525146484375,-0.914825439453125,-0.2581634521484375,-0.01220703125
1761838950779595300,1.57759521484375,-0.9320526123046875,-0.264892578125,-0.0250244140625
1761838950789665300,1.587665283203125,-0.9559478759765625,-0.2739105224609375,-0.035064697265625
1761838950799735300,1.5977353515625,-0.97869873046875,-0.2821044921875,-0.046966552734375
1761838950809805000,1.60780517578125,-1.0077362060546875,-0.29302978515625,-0.0558624267578125
1761838950819875300,1.617875244140625,-1.02911376953125,-0.311553955078125,-0.0653228759765625
1761838950829945000,1.627945068359375,-1.0423736572265625,-0.3324127197265625,-0.074310302734375
1761838950840015000,1.63801513671875,-1.0565643310546875,-0.347991943359375,-0.0790557861328125
1761838950850085400,1.64808544921875,-1.0597381591796875,-0.357421875,-0.0827789306640625
1761838950860155100,1.658155029296875,-1.0475311279296875,-0.3624267578125,-0.08062744140625
1761838950870225200,1.66822509765625,-1.03692626953125,-0.3637542724609375,-0.062469482421875
1761838950880295200,1.678295166015625,-0.98577880859375,-0.346343994140625,-0.048858642578125
1761838950890366200,1.6883662109375,-0.958709716796875,-0.3367156982421875,-0.0200958251953125
1761838950900436200,1.698436279296875,-0.955413818359375,-0.344757080078125,0.0249176025390625
1761838950910506200,1.70850634765625,-0.9375,-0.34710693359375,0.0649261474609375
1761838950920576000,1.718575927734375,-0.9114990234375,-0.3425140380859375,0.092193603515625
1761838950930646300,1.728646240234375,-0.885284423828125,-0.335968017578125,0.1143646240234375
1761838950940716300,1.73871630859375,-0.87005615234375,-0.33221435546875,0.1346893310546875
1761838950950786000,1.7487861328125,-0.846771240234375,-0.32611083984375,0.148773193359375
1761838950960856300,1.758856201171875,-0.8323516845703125,-0.3254547119140625,0.1689910888671875
1761838950970926300,1.76892626953125,-0.823272705078125,-0.3274383544921875,0.1895904541015625
1761838950980996000,1.77899609375,-0.8171539306640625,-0.3250885009765625,0.20330810546875
1761838950991066000,1.789066162109375,-0.81939697265625,-0.3253021240234375,0.2202606201171875
1761838951001136400,1.799136474609375,-0.8134002685546875,-0.3227386474609375,0.226806640625
1761838951011206100,1.8092060546875,-0.8111114501953125,-0.313018798828125,0.231292724609375
1761838951021276200,1.819276123046875,-0.8130950927734375,-0.306488037109375,0.2369537353515625
1761838951031346400,1.829346435546875,-0.8092041015625,-0.2952880859375,0.2393646240234375
1761838951041416200,1.839416259765625,-0.8207550048828125,-0.29034423828125,0.2443389892578125
1761838951051486200,1.849486328125,-0.829742431640625,-0.2800750732421875,0.2506866455078125
1761838951061556200,1.85955615234375,-0.85491943359375,-0.2678680419921875,0.25531005859375
1761838951071627300,1.869627197265625,-0.8722991943359375,-0.2406768798828125,0.2471466064453125
1761838951081697300,1.879697265625,-0.901702880859375,-0.2006988525390625,0.2301025390625
1761838951091767300,1.889767333984375,-0.941192626953125,-0.15728759765625,0.20819091796875
1761838951101837000,1.899837158203125,-0.97686767578125,-0.1255950927734375,0.1831512451171875
1761838951111907300,1.9099072265625,-1.0074462890625,-0.094512939453125,0.152130126953125
1761838951121977000,1.91997705078125,-1.0285186767578125,-0.0418243408203125,0.121734619140625
1761838951132047000,1.930047119140625,-1.0631256103515625,0.0060577392578125,0.096282958984375
1761838951142117400,1.940117431640625,-1.0883331298828125,0.036407470703125,0.08001708984375
1761838951152187100,1.950187255859375,-1.0946044921875,0.0529937744140625,0.0726318359375
1761838951162257200,1.960257080078125,-1.0938262939453125,0.063079833984375,0.070404052734375
1761838951172327200,1.9703271484375,-1.0900115966796875,0.0757904052734375,0.0669708251953125
1761838951182397200,1.980397216796875,-1.0771026611328125,0.077850341796875,0.069488525390625
1761838951192467200,1.99046728515625,-1.064483642578125,0.06951904296875,0.0712127685546875
1761838951202537200,2.000537109375,-1.0479888916015625,0.0543975830078125,0.069976806640625
1761838951212607200,2.010607177734375,-1.024658203125,0.035980224609375,0.0694427490234375
1761838951222677200,2.02067724609375,-1.0055389404296875,0.0153961181640625,0.0729522705078125
1761838951232747300,2.030747314453125,-0.9964599609375,-0.0078582763671875,0.0761871337890625
1761838951242817300,2.0408173828125,-0.9825439453125,-0.0287017822265625,0.070892333984375
1761838951252887300,2.05088720703125,-0.97174072265625,-0.040863037109375,0.061767578125
1761838951262958300,2.060958251953125,-0.961090087890625,-0.0438079833984375,0.0452117919921875
1761838951273028000,2.071028076171875,-0.94989013671875,-0.042694091796875,0.029510498046875
1761838951283098000,2.08109814453125,-0.9355316162109375,-0.0352020263671875,0.0240631103515625
1761838951293168400,2.09116845703125,-0.9295654296875,-0.0293731689453125,0.025115966796875
1761838951303241700,2.10124169921875,-0.9187469482421875,-0.028076171875,0.0308074951171875
1761838951313311700,2.111311767578125,-0.9053802490234375,-0.025909423828125,0.041656494140625
1761838951323382000,2.121382080078125,-0.899749755859375,-0.02398681640625,0.05535888671875
1761838951333451800,2.13145166015625,-0.9014434814453125,-0.0236053466796875,0.07086181640625
1761838951343521800,2.141521728515625,-0.9011077880859375,-0.022796630859375,0.089508056640625
1761838951353591800,2.151591796875,-0.907745361328125,-0.0214080810546875,0.1119537353515625
1761838951363661800,2.161661865234375,-0.9192962646484375,-0.0232086181640625,0.1312713623046875
1761838951373731800,2.17173193359375,-0.9275054931640625,-0.032989501953125,0.154998779296875
1761838951383801900,2.1818017578125,-0.94171142578125,-0.03558349609375,0.1797332763671875
1761838951393872000,2.191871826171875,-0.9588623046875,-0.0307464599609375,0.203887939453125
1761838951403942000,2.20194189453125,-0.973846435546875,-0.02069091796875,0.22259521484375
1761838951414013000,2.212012939453125,-0.9912261962890625,0.001556396484375,0.235198974609375
1761838951424082700,2.222082763671875,-1.0159912109375,0.029693603515625,0.245513916015625
1761838951434153000,2.232153076171875,-1.0348052978515625,0.052154541015625,0.25469970703125
1761838951444223000,2.242222900390625,-1.0631256103515625,0.0704803466796875,0.2597503662109375
1761838951454292700,2.252292724609375,-1.09661865234375,0.0794830322265625,0.2685699462890625
1761838951464362800,2.26236279296875,-1.1325225830078125,0.088958740234375,0.2744903564453125
1761838951474433000,2.27243310546875,-1.17340087890625,0.0976715087890625,0.278656005859375
1761838951484502800,2.282502685546875,-1.21307373046875,0.092193603515625,0.2707366943359375
1761838951494572800,2.29257275390625,-1.249603271484375,0.083160400390625,0.249053955078125
1761838951504642800,2.302642822265625,-1.290618896484375,0.0760345458984375,0.2178192138671875
1761838951514712800,2.312712890625,-1.320281982421875,0.0615386962890625,0.1779937744140625
1761838951524782800,2.322782958984375,-1.3607330322265625,0.043731689453125,0.14923095703125
1761838951534852900,2.332852783203125,-1.3562774658203125,0.0540008544921875,0.0933685302734375
1761838951544923000,2.3429228515625,-1.345672607421875,0.0582733154296875,0.041351318359375
1761838951554993000,2.352992919921875,-1.3444671630859375,0.0511322021484375,0.0051116943359375
1761838951565062700,2.363062744140625,-1.3425445556640625,0.0355377197265625,-0.017669677734375
1761838951575133000,2.3731328125,-1.338409423828125,0.0145111083984375,-0.0224761962890625
1761838951585204000,2.383203857421875,-1.3240966796875,0.002349853515625,-0.0166015625
1761838951595273700,2.393273681640625,-1.2802734375,-0.0021209716796875,-0.01531982421875
1761838951605343700,2.40334375,-1.2379608154296875,-0.0073699951171875,-0.009307861328125
1761838951615414000,2.4134140625,-1.2042694091796875,-0.014312744140625,0.0068206787109375
1761838951625483800,2.42348388671875,-1.1691131591796875,-0.02099609375,0.025726318359375
1761838951635553800,2.4335537109375,-1.136260986328125,-0.0305938720703125,0.0406646728515625
1761838951645623800,2.443623779296875,-1.109893798828125,-0.040679931640625,0.0494537353515625
1761838951655693800,2.45369384765625,-1.087432861328125,-0.0496673583984375,0.0552978515625
1761838951665763800,2.463763916015625,-1.0692596435546875,-0.052947998046875,0.055633544921875
1761838951675833900,2.473833740234375,-1.060760498046875,-0.055877685546875,0.0582122802734375
1761838951685904000,2.48390380859375,-1.0668182373046875,-0.0649566650390625,0.056427001953125
1761838951695974000,2.493973876953125,-1.0710601806640625,-0.0789794921875,0.0544891357421875
1761838951706043600,2.504043701171875,-1.074859619140625,-0.089752197265625,0.044708251953125
1761838951716114000,2.514114013671875,-1.0780487060546875,-0.095977783203125,0.03021240234375
1761838951726184000,2.524183837890625,-1.07879638671875,-0.097259521484375,0.0087127685546875
1761838951736253700,2.534253662109375,-1.077667236328125,-0.0959625244140625,-0.01416015625
1761838951746324700,2.54432470703125,-1.0780487060546875,-0.096160888671875,-0.0280609130859375
1761838951756394800,2.554394775390625,-1.07733154296875,-0.095672607421875,-0.0386505126953125
1761838951766464800,2.56446484375,-1.0777435302734375,-0.10003662109375,-0.04425048828125
1761838951776534800,2.57453466796875,-1.0776519775390625,-0.1120147705078125,-0.0466766357421875
1761838951786604800,2.584604736328125,-1.083740234375,-0.1202239990234375,-0.051239013671875
1761838951796674800,2.5946748046875,-1.0788421630859375,-0.1181182861328125,-0.0569915771484375
1761838951806744800,2.604744873046875,-1.071990966796875,-0.113311767578125,-0.063323974609375
1761838951816814800,2.61481494140625,-1.0531463623046875,-0.1094512939453125,-0.06695556640625
1761838951826884900,2.624884765625,-1.033599853515625,-0.1079254150390625,-0.0677337646484375
1761838951836955000,2.634954833984375,-1.0146484375,-0.1069793701171875,-0.0686187744140625
1761838951847025000,2.64502490234375,-0.9874725341796875,-0.10516357421875,-0.0684967041015625
1761838951857094700,2.6550947265625,-0.9584503173828125,-0.10589599609375,-0.067718505859375
1761838951867165000,2.6651650390625,-0.93621826171875,-0.105987548828125,-0.0662384033203125
1761838951877235000,2.67523486328125,-0.89752197265625,-0.1019744873046875,-0.07354736328125
1761838951887304700,2.6853046875,-0.882476806640625,-0.105133056640625,-0.070465087890625
1761838951897375000,2.695375,-0.86224365234375,-0.1037445068359375,-0.0678558349609375
1761838951907446000,2.705446044921875,-0.8310699462890625,-0.1009674072265625,-0.0692901611328125
1761838951917515800,2.715515869140625,-0.8101348876953125,-0.0984344482421875,-0.069183349609375
1761838951927585800,2.725585693359375,-0.79412841796875,-0.100555419921875,-0.062530517578125
1761838951937655800,2.73565576171875,-0.777374267578125,-0.110107421875,-0.0519256591796875
1761838951947725800,2.745725830078125,-0.776947021484375,-0.1158905029296875,-0.0485687255859375
1761838951957795800,2.7557958984375,-0.78240966796875,-0.122650146484375,-0.0475616455078125
1761838951967865900,2.765865966796875,-0.7922515869140625,-0.137054443359375,-0.0440826416015625
1761838951977936000,2.775935791015625,-0.826019287109375,-0.151336669921875,-0.04241943359375
1761838951988006000,2.786005859375,-0.8451080322265625,-0.153717041015625,-0.0560760498046875
1761838951998075600,2.79607568359375,-0.844024658203125,-0.14849853515625,-0.0785369873046875
1761838952008146000,2.80614599609375,-0.855621337890625,-0.149261474609375,-0.098052978515625
1761838952018216000,2.8162158203125,-0.876434326171875,-0.1530914306640625,-0.111480712890625
1761838952028285700,2.82628564453125,-0.8900604248046875,-0.16387939453125,-0.122222900390625
1761838952038355700,2.836355712890625,-0.9040374755859375,-0.175750732421875,-0.124298095703125
1761838952048426000,2.846426025390625,-0.9171600341796875,-0.18255615234375,-0.127471923828125
1761838952058495700,2.856495849609375,-0.9122314453125,-0.1864166259765625,-0.1289520263671875
1761838952068566800,2.86656689453125,-0.9160919189453125,-0.1945343017578125,-0.1178436279296875
1761838952078636800,2.87663671875,-0.939117431640625,-0.213958740234375,-0.0963287353515625
1761838952088706800,2.886706787109375,-0.955169677734375,-0.2305450439453125,-0.078521728515625
1761838952098776800,2.89677685546875,-0.961944580078125,-0.23846435546875,-0.067901611328125
1761838952108846800,2.906846923828125,-0.9687957763671875,-0.2473297119140625,-0.0636749267578125
1761838952118916900,2.916916748046875,-0.9851531982421875,-0.26092529296875,-0.0595703125
1761838952128987000,2.92698681640625,-1.012420654296875,-0.27410888671875,-0.0554656982421875
1761838952139057000,2.937056884765625,-1.03216552734375,-0.276153564453125,-0.052581787109375
1761838952149126700,2.947126708984375,-1.04339599609375,-0.269256591796875,-0.0526580810546875
1761838952159197000,2.957197021484375,-1.0574951171875,-0.2584075927734375,-0.0513916015625
1761838952169267000,2.967266845703125,-1.071197509765625,-0.2501068115234375,-0.0462799072265625
1761838952179336700,2.977336669921875,-1.0782012939453125,-0.244049072265625,-0.03753662109375
1761838952189407000,2.987406982421875,-1.07666015625,-0.233795166015625,-0.02874755859375
1761838952199476700,2.997476806640625,-1.0625,-0.214599609375,-0.0175018310546875
1761838952209546800,3.007546630859375,-1.0463104248046875,-0.19488525390625,-0.005126953125
1761838952219616800,3.01761669921875,-1.03076171875,-0.179931640625,0.0113525390625
1761838952229687800,3.027687744140625,-1.021636962890625,-0.1715545654296875,0.034149169921875
1761838952239757800,3.0377578125,-1.0134429931640625,-0.1602935791015625,0.053436279296875
1761838952249827800,3.047827880859375,-0.995086669921875,-0.1457366943359375,0.0636749267578125
1761838952259897900,3.05789794921875,-0.9764251708984375,-0.131866455078125,0.069091796875
1761838952269968000,3.0679677734375,-0.958770751953125,-0.126434326171875,0.0747833251953125
1761838952280038000,3.078037841796875,-0.9431610107421875,-0.1258392333984375,0.07757568359375
1761838952290107600,3.088107666015625,-0.9263916015625,-0.1247100830078125,0.0757598876953125
1761838952300174600,3.098174560546875,-0.9159393310546875,-0.1282196044921875,0.073883056640625
1761838952310244900,3.108244873046875,-0.910003662109375,-0.1356964111328125,0.0703125
1761838952320315000,3.11831494140625,-0.89727783203125,-0.138153076171875,0.061737060546875
1761838952330384600,3.128384521484375,-0.8876190185546875,-0.143585205078125,0.0539398193359375
1761838952340455000,3.138454833984375,-0.8852691650390625,-0.1503143310546875,0.047515869140625
1761838952350525000,3.14852490234375,-0.88629150390625,-0.157257080078125,0.0446014404296875
1761838952360594700,3.1585947265625,-0.8916168212890625,-0.1666107177734375,0.0445098876953125
1761838952370665000,3.1686650390625,-0.888214111328125,-0.1740264892578125,0.037811279296875
1761838952380735000,3.17873486328125,-0.8873748779296875,-0.1820831298828125,0.0275115966796875
1761838952390805800,3.1888056640625,-0.8922576904296875,-0.1879730224609375,0.01727294921875
1761838952400875800,3.198875732421875,-0.896026611328125,-0.192291259765625,0.008026123046875
1761838952410945800,3.20894580078125,-0.8996429443359375,-0.1981201171875,0.0003204345703125
1761838952421015800,3.219015869140625,-0.909698486328125,-0.201416015625,-0.002960205078125
1761838952431085800,3.2290859375,-0.9185638427734375,-0.2035369873046875,-0.0050201416015625
1761838952441155800,3.23915576171875,-0.92047119140625,-0.20001220703125,-0.0076446533203125
1761838952451225900,3.249225830078125,-0.9203338623046875,-0.1975860595703125,-0.00592041015625
1761838952461295900,3.2592958984375,-0.91729736328125,-0.196319580078125,-0.002227783203125
1761838952471366000,3.269365966796875,-0.9085845947265625,-0.1925506591796875,0.00030517578125
1761838952481435600,3.279435546875,-0.89862060546875,-0.189910888671875,0.000457763671875
1761838952491506000,3.289505859375,-0.8910064697265625,-0.1868896484375,-0.0002288818359375
1761838952501576000,3.299575927734375,-0.8908233642578125,-0.183074951171875,0.0020904541015625
1761838952511645700,3.309645751953125,-0.891510009765625,-0.181304931640625,-0.0004730224609375
1761838952521716000,3.319716064453125,-0.8911285400390625,-0.1788177490234375,-0.0030364990234375
1761838952531785700,3.32978564453125,-0.8991851806640625,-0.1761474609375,-0.0069580078125
1761838952541855700,3.339855712890625,-0.9012298583984375,-0.1754608154296875,-0.0120697021484375
1761838952551926800,3.3499267578125,-0.910430908203125,-0.1760406494140625,-0.017425537109375
1761838952561997000,3.3599970703125,-0.924530029296875,-0.1739044189453125,-0.02239990234375
1761838952572066800,3.37006689453125,-0.9351806640625,-0.168243408203125,-0.0291748046875
1761838952582136800,3.38013671875,-0.9473114013671875,-0.1613311767578125,-0.03656005859375
1761838952592206600,3.39020654296875,-0.96832275390625,-0.1553802490234375,-0.03936767578125
1761838952602276900,3.40027685546875,-0.9867706298828125,-0.1534576416015625,-0.04266357421875
1761838952612347000,3.410346923828125,-0.998779296875,-0.1523895263671875,-0.0463409423828125
1761838952622416600,3.420416748046875,-1.01385498046875,-0.15496826171875,-0.0480804443359375
1761838952632487000,3.43048681640625,-1.034820556640625,-0.1673126220703125,-0.0456085205078125
1761838952642557000,3.440556884765625,-1.055633544921875,-0.1797332763671875,-0.04638671875
1761838952652626700,3.450626708984375,-1.0667724609375,-0.19342041015625,-0.04608154296875
1761838952662697000,3.460697021484375,-1.0813446044921875,-0.20660400390625,-0.047698974609375
1761838952672767000,3.47076708984375,-1.0959930419921875,-0.2194366455078125,-0.05096435546875
1761838952682836700,3.480836669921875,-1.1044158935546875,-0.23089599609375,-0.0553741455078125
1761838952692906800,3.49090673828125,-1.100799560546875,-0.2301483154296875,-0.0644378662109375
1761838952702977000,3.50097705078125,-1.1148529052734375,-0.2295074462890625,-0.0667572021484375
1761838952713047800,3.5110478515625,-1.118408203125,-0.22705078125,-0.0625762939453125
1761838952723117800,3.521117919921875,-1.118316650390625,-0.2220306396484375,-0.0625762939453125
1761838952733187800,3.531187744140625,-1.1300506591796875,-0.21124267578125,-0.058990478515625
1761838952743257900,3.5412578125,-1.145172119140625,-0.206207275390625,-0.048095703125
1761838952753327900,3.551327880859375,-1.1534576416015625,-0.1977691650390625,-0.03973388671875
1761838952763398000,3.56139794921875,-1.1589202880859375,-0.1841888427734375,-0.0342254638671875
1761838952773468000,3.571468017578125,-1.164276123046875,-0.173736572265625,-0.0241241455078125
1761838952783538000,3.581537841796875,-1.1645965576171875,-0.1643829345703125,-0.019378662109375
1761838952793607700,3.591607666015625,-1.1666717529296875,-0.1528472900390625,-0.021759033203125
1761838952803677700,3.601677734375,-1.170562744140625,-0.1397705078125,-0.026153564453125
1761838952813748000,3.611748046875,-1.176116943359375,-0.1225433349609375,-0.0363922119140625
1761838952823817700,3.621817626953125,-1.178253173828125,-0.09521484375,-0.0496368408203125
1761838952833887700,3.6318876953125,-1.1740264892578125,-0.063568115234375,-0.0582427978515625
1761838952843958000,3.6419580078125,-1.1622772216796875,-0.0373687744140625,-0.0599822998046875
1761838952854027800,3.65202783203125,-1.142791748046875,-0.0229034423828125,-0.0560760498046875
1761838952864097800,3.662097900390625,-1.11328125,-0.0079498291015625,-0.045013427734375
1761838952874167800,3.672167724609375,-1.0744171142578125,0.001953125,-0.024169921875
1761838952884238600,3.682238525390625,-1.047332763671875,-0.001739501953125,0.0017547607421875
1761838952894308900,3.692308837890625,-1.020660400390625,-0.0116119384765625,0.0252532958984375
1761838952904379000,3.70237890625,-0.9839019775390625,-0.020294189453125,0.0443878173828125
1761838952914448600,3.71244873046875,-0.95648193359375,-0.029296875,0.0574951171875
1761838952924519000,3.722518798828125,-0.938201904296875,-0.0423126220703125,0.0650482177734375
1761838952934589000,3.7325888671875,-0.9196929931640625,-0.0499267578125,0.07281494140625
1761838952944658700,3.74265869140625,-0.898590087890625,-0.0567474365234375,0.0712127685546875
1761838952954729000,3.75272900390625,-0.8725128173828125,-0.0662384033203125,0.0671234130859375
1761838952964799000,3.762799072265625,-0.8621063232421875,-0.0771636962890625,0.0667724609375
1761838952974868700,3.77286865234375,-0.8597869873046875,-0.097900390625,0.071044921875
1761838952984938800,3.782938720703125,-0.8590240478515625,-0.112060546875,0.071868896484375
1761838952995009000,3.793009033203125,-0.8634796142578125,-0.115875244140625,0.0690765380859375
1761838953005078800,3.803078857421875,-0.8660888671875,-0.11993408203125,0.0713653564453125
1761838953015148800,3.813148681640625,-0.866546630859375,-0.12237548828125,0.0804290771484375
1761838953025218800,3.82321875,-0.868255615234375,-0.1202392578125,0.09625244140625
1761838953035288800,3.833288818359375,-0.8773040771484375,-0.1215362548828125,0.12432861328125
1761838953045358800,3.84335888671875,-0.89385986328125,-0.1232147216796875,0.1564483642578125
1761838953055430000,3.853429931640625,-0.9089202880859375,-0.1212158203125,0.1860809326171875
1761838953065500000,3.8635,-0.913421630859375,-0.111419677734375,0.1988525390625
1761838953075570000,3.87356982421875,-0.94427490234375,-0.110992431640625,0.2235260009765625
1761838953085639700,3.8836396484375,-0.9931793212890625,-0.1101531982421875,0.2486724853515625
1761838953095709700,3.893709716796875,-1.01300048828125,-0.101531982421875,0.2487030029296875
1761838953105780000,3.903780029296875,-1.0292510986328125,-0.0858001708984375,0.229766845703125
1761838953115849700,3.913849609375,-1.054229736328125,-0.075653076171875,0.203857421875
1761838953125919700,3.923919677734375,-1.069549560546875,-0.0695343017578125,0.177703857421875
1761838953135990000,3.933989990234375,-1.07861328125,-0.0620880126953125,0.1541900634765625
1761838953146059800,3.944059814453125,-1.078094482421875,-0.0592803955078125,0.1309967041015625
1761838953156129800,3.9541298828125,-1.074005126953125,-0.0641021728515625,0.116424560546875
1761838953166199800,3.96419970703125,-1.0578460693359375,-0.064239501953125,0.1038360595703125
1761838953176269800,3.974269775390625,-1.0389556884765625,-0.0640869140625,0.1035308837890625
1761838953186339800,3.98433984375,-1.016357421875,-0.069183349609375,0.11676025390625
1761838953196409900,3.994409912109375,-0.987213134765625,-0.0784149169921875,0.1360321044921875
1761838953206480000,4.00447998046875,-0.9547271728515625,-0.09063720703125,0.157684326171875
1761838953216550000,4.0145498046875,-0.9248199462890625,-0.1038818359375,0.1728668212890625
1761838953226617900,4.024617919921875,-0.8906707763671875,-0.110260009765625,0.18121337890625
1761838953236688000,4.03468798828125,-0.864715576171875,-0.1222991943359375,0.187042236328125
1761838953246757600,4.044757568359375,-0.84613037109375,-0.140472412109375,0.2000579833984375
1761838953256828000,4.054827880859375,-0.8363189697265625,-0.1517791748046875,0.2056427001953125
1761838953266898000,4.06489794921875,-0.8251190185546875,-0.1590423583984375,0.2055816650390625
1761838953276968700,4.07496875,-0.8225860595703125,-0.16961669921875,0.20709228515625
1761838953287038700,4.085038818359375,-0.8268280029296875,-0.177001953125,0.2052154541015625
1761838953297109000,4.09510888671875,-0.8388519287109375,-0.18511962890625,0.201812744140625
1761838953307178800,4.1051787109375,-0.858551025390625,-0.19146728515625,0.1926116943359375
1761838953317248500,4.11524853515625,-0.877716064453125,-0.1902313232421875,0.176788330078125
1761838953327318800,4.12531884765625,-0.8970489501953125,-0.1845550537109375,0.1577911376953125
1761838953337388800,4.135388916015625,-0.926116943359375,-0.1781005859375,0.1436309814453125
1761838953347458600,4.14545849609375,-0.95745849609375,-0.1751556396484375,0.1335906982421875
1761838953357528600,4.155528564453125,-0.97698974609375,-0.1703643798828125,0.12042236328125
1761838953367598800,4.165598876953125,-0.9925689697265625,-0.1633758544921875,0.1123809814453125
1761838953377668600,4.175668701171875,-1.0139923095703125,-0.161590576171875,0.1132354736328125
1761838953387738600,4.185738525390625,-1.0369110107421875,-0.16326904296875,0.115203857421875
1761838953397808600,4.19580859375,-1.060028076171875,-0.1663970947265625,0.1175537109375
1761838953407878700,4.205878662109375,-1.082794189453125,-0.162689208984375,0.114410400390625
1761838953417948700,4.21594873046875,-1.110595703125,-0.1545562744140625,0.1119232177734375
1761838953428018700,4.226018798828125,-1.1333465576171875,-0.1490020751953125,0.1080474853515625
1761838953438088700,4.236088623046875,-1.1352386474609375,-0.1372528076171875,0.096282958984375
1761838953448159700,4.24615966796875,-1.1387939453125,-0.13330078125,0.0853729248046875
1761838953458229800,4.256229736328125,-1.150970458984375,-0.138916015625,0.078369140625
1761838953468299500,4.266299560546875,-1.154327392578125,-0.1460418701171875,0.071563720703125
1761838953478369800,4.276369873046875,-1.1530609130859375,-0.150726318359375,0.0701904296875
1761838953488439600,4.286439453125,-1.154388427734375,-0.1571807861328125,0.0716705322265625
1761838953498509600,4.296509521484375,-1.15753173828125,-0.164459228515625,0.071136474609375
1761838953508579800,4.306579833984375,-1.1650848388671875,-0.1748809814453125,0.0659637451171875
1761838953518649600,4.316649658203125,-1.1651611328125,-0.1867523193359375,0.0567626953125
1761838953528719600,4.3267197265625,-1.171234130859375,-0.1841583251953125,0.040069580078125
1761838953538789600,4.33678955078125,-1.17449951171875,-0.170928955078125,0.017120361328125
1761838953548859600,4.346859619140625,-1.1710357666015625,-0.1485748291015625,-0.008544921875
1761838953558929700,4.3569296875,-1.1731414794921875,-0.126739501953125,-0.0191497802734375
1761838953568999700,4.366999755859375,-1.13568115234375,-0.1002960205078125,-0.03167724609375
1761838953579069700,4.377069580078125,-1.1046295166015625,-0.082763671875,-0.0370635986328125
1761838953589139700,4.3871396484375,-1.0892791748046875,-0.0901641845703125,-0.020599365234375
1761838953599209500,4.39720947265625,-1.0754547119140625,-0.1058502197265625,0.00030517578125
1761838953609279700,4.40727978515625,-1.04315185546875,-0.1179351806640625,0.01812744140625
1761838953619350800,4.417350830078125,-1.010162353515625,-0.132232666015625,0.0290985107421875
1761838953629420800,4.4274208984375,-0.96954345703125,-0.1446990966796875,0.033203125
1761838953639490600,4.437490478515625,-0.927398681640625,-0.15423583984375,0.0348358154296875
1761838953649560600,4.447560546875,-0.8886871337890625,-0.1542205810546875,0.034210205078125
1761838953659630800,4.457630859375,-0.849945068359375,-0.1478118896484375,0.033660888671875
1761838953669700600,4.46770068359375,-0.8141326904296875,-0.1416473388671875,0.030731201171875
1761838953679770600,4.4777705078125,-0.7965240478515625,-0.141876220703125,0.030303955078125
1761838953689840600,4.487840576171875,-0.7900238037109375,-0.140777587890625,0.041290283203125
1761838953699910700,4.49791064453125,-0.7926177978515625,-0.1397552490234375,0.0416717529296875
1761838953709980700,4.507980712890625,-0.7964935302734375,-0.1416473388671875,0.0440521240234375
1761838953720050700,4.51805078125,-0.813232421875,-0.1477508544921875,0.04437255859375
1761838953730120700,4.52812060546875,-0.830963134765625,-0.1537933349609375,0.0334320068359375
1761838953740190700,4.538190673828125,-0.8506011962890625,-0.1570892333984375,0.008270263671875
1761838953750260500,4.548260498046875,-0.8772430419921875,-0.1531829833984375,-0.0189971923828125
1761838953760330800,4.558330810546875,-0.892303466796875,-0.14288330078125,-0.0464935302734375
1761838953770400800,4.56840087890625,-0.9132080078125,-0.136749267578125,-0.071258544921875
1761838953780470500,4.578470458984375,-0.937774658203125,-0.129241943359375,-0.0893707275390625
1761838953790540800,4.588540771484375,-0.9584503173828125,-0.1177215576171875,-0.0976409912109375
1761838953800611800,4.59861181640625,-0.97991943359375,-0.104583740234375,-0.0972900390625
1761838953810681600,4.608681640625,-1.002777099609375,-0.092926025390625,-0.0865631103515625
1761838953820751600,4.618751708984375,-1.0145416259765625,-0.0784912109375,-0.0750732421875
1761838953830821600,4.628821533203125,-1.0207977294921875,-0.0601806640625,-0.0703125
1761838953840891600,4.6388916015625,-1.0206451416015625,-0.0561065673828125,-0.0627288818359375
1761838953850962700,4.648962646484375,-1.0291595458984375,-0.0845489501953125,-0.04730224609375
1761838953861032700,4.65903271484375,-1.048583984375,-0.13336181640625,-0.028289794921875
1761838953871102500,4.6691025390625,-1.063446044921875,-0.176910400390625,-0.0224761962890625
1761838953881173500,4.679173583984375,-1.069183349609375,-0.2039337158203125,-0.0313720703125
1761838953891243800,4.689243896484375,-1.0591278076171875,-0.219146728515625,-0.0489044189453125
1761838953901313500,4.6993134765625,-1.0406951904296875,-0.232208251953125,-0.063934326171875
1761838953911383600,4.709383544921875,-1.013427734375,-0.2402801513671875,-0.074493408203125
1761838953921453800,4.719453857421875,-0.9875640869140625,-0.241912841796875,-0.0725250244140625
1761838953931523600,4.729523681640625,-0.9555511474609375,-0.243438720703125,-0.065826416015625
1761838953941593600,4.739593505859375,-0.922119140625,-0.249359130859375,-0.0472259521484375
1761838953951663600,4.74966357421875,-0.9010772705078125,-0.25946044921875,-0.0266571044921875
1761838953961733600,4.759733642578125,-0.8743743896484375,-0.2635345458984375,-0.0112457275390625
1761838953971803600,4.7698037109375,-0.852508544921875,-0.2649383544921875,-0.0025787353515625
1761838953981873700,4.779873779296875,-0.836883544921875,-0.26751708984375,0.0099334716796875
1761838953991943700,4.789943603515625,-0.823944091796875,-0.2708892822265625,0.02008056640625
1761838954002013700,4.800013671875,-0.8053436279296875,-0.2701873779296875,0.0259857177734375
1761838954012083700,4.810083740234375,-0.796234130859375,-0.2670135498046875,0.0290679931640625
1761838954022153700,4.82015380859375,-0.7901611328125,-0.2674102783203125,0.035919189453125
1761838954032223700,4.8302236328125,-0.7974395751953125,-0.272125244140625,0.0475006103515625
1761838954042293500,4.84029345703125,-0.8050384521484375,-0.27423095703125,0.0515899658203125
1761838954052363500,4.850363525390625,-0.8063812255859375,-0.273162841796875,0.0515289306640625
1761838954062434600,4.8604345703125,-0.8194580078125,-0.2769622802734375,0.055999755859375
1761838954072504800,4.8705048828125,-0.8450775146484375,-0.2877349853515625,0.062164306640625
1761838954082574600,4.88057470703125,-0.8655548095703125,-0.2994842529296875,0.0617523193359375
1761838954092644600,4.89064453125,-0.891326904296875,-0.315093994140625,0.06024169921875
1761838954102715000,4.90071484375,-0.922119140625,-0.3365631103515625,0.0560760498046875
1761838954112784600,4.91078466796875,-0.9637603759765625,-0.3520050048828125,0.0485382080078125
1761838954122854700,4.920854736328125,-1.008209228515625,-0.3562774658203125,0.0320892333984375
1761838954132924700,4.930924560546875,-1.0428009033203125,-0.351043701171875,0.0104522705078125
1761838954142994700,4.94099462890625,-1.0872344970703125,-0.3458709716796875,-0.003631591796875
1761838954153064700,4.951064697265625,-1.126861572265625,-0.33636474609375,-0.0109100341796875
1761838954163134500,4.961134521484375,-1.1630859375,-0.318939208984375,-0.015533447265625
1761838954173204700,4.971204833984375,-1.1833038330078125,-0.29425048828125,-0.021209716796875
1761838954183274800,4.981274658203125,-1.18658447265625,-0.2726593017578125,-0.023193359375
1761838954193344500,4.991344482421875,-1.1791534423828125,-0.2558135986328125,-0.020111083984375
1761838954203414800,5.001414794921875,-1.197784423828125,-0.23919677734375,-0.00836181640625
1761838954213484800,5.01148486328125,-1.21661376953125,-0.2314910888671875,0.013427734375
1761838954223554600,5.021554443359375,-1.2193145751953125,-0.2322998046875,0.0240936279296875
1761838954233624600,5.03162451171875,-1.2148590087890625,-0.226959228515625,0.0233306884765625
1761838954243695600,5.041695556640625,-1.201416015625,-0.2177581787109375,0.015533447265625
1761838954253765600,5.051765625,-1.183319091796875,-0.1997528076171875,0.0070648193359375
1761838954263835600,5.061835693359375,-1.1636505126953125,-0.182891845703125,0.0028076171875
1761838954273905700,5.07190576171875,-1.136627197265625,-0.16888427734375,0.0045013427734375
1761838954283975700,5.0819755859375,-1.1120147705078125,-0.1589202880859375,0.01251220703125
1761838954294045700,5.092045654296875,-1.0860137939453125,-0.1524505615234375,0.0262908935546875
1761838954304115000,5.102114990234375,-1.056427001953125,-0.148590087890625,0.0420074462890625
1761838954314185200,5.112185302734375,-1.0231781005859375,-0.1425323486328125,0.05731201171875
1761838954324255200,5.122255126953125,-0.9984893798828125,-0.14251708984375,0.072235107421875
1761838954334325000,5.132324951171875,-0.9710540771484375,-0.142333984375,0.084381103515625
1761838954344395300,5.142395263671875,-0.95050048828125,-0.137542724609375,0.090667724609375
1761838954354465300,5.15246533203125,-0.930816650390625,-0.134979248046875,0.0958251953125
1761838954364535000,5.16253515625,-0.9116668701171875,-0.1378326416015625,0.1070404052734375
1761838954374605000,5.17260498046875,-0.8985748291015625,-0.147216796875,0.1179046630859375
1761838954384675300,5.18267529296875,-0.88824462890625,-0.1529998779296875,0.1252288818359375
1761838954394745000,5.1927451171875,-0.872955322265625,-0.1510772705078125,0.1245269775390625
1761838954404815000,5.202815185546875,-0.8636016845703125,-0.1516265869140625,0.117828369140625
1761838954414886100,5.21288623046875,-0.861480712890625,-0.1512451171875,0.10888671875
1761838954424956200,5.2229560546875,-0.852447509765625,-0.149566650390625,0.1024322509765625
1761838954435026200,5.233026123046875,-0.849822998046875,-0.153472900390625,0.10797119140625
1761838954445096200,5.24309619140625,-0.8539276123046875,-0.1630401611328125,0.1217498779296875
1761838954455166200,5.253166259765625,-0.8609771728515625,-0.16998291015625,0.1344146728515625
1761838954465236200,5.263236328125,-0.8771514892578125,-0.1738433837890625,0.144683837890625
1761838954475306200,5.27330615234375,-0.8984527587890625,-0.174285888671875,0.154998779296875
1761838954485376000,5.2833759765625,-0.9160919189453125,-0.16839599609375,0.1610107421875
1761838954495446300,5.2934462890625,-0.9333953857421875,-0.165191650390625,0.162445068359375
1761838954505516000,5.30351611328125,-0.95147705078125,-0.1614532470703125,0.1601715087890625
1761838954515586000,5.3135859375,-0.96331787109375,-0.16351318359375,0.1597900390625
1761838954525656300,5.32365625,-0.986175537109375,-0.158843994140625,0.1575469970703125
1761838954535726000,5.33372607421875,-1.0171051025390625,-0.15313720703125,0.1571197509765625
1761838954545796000,5.343796142578125,-1.0361175537109375,-0.1443634033203125,0.150726318359375
1761838954555866400,5.353866455078125,-1.0566253662109375,-0.126800537109375,0.1417999267578125
1761838954565936000,5.36393603515625,-1.0704803466796875,-0.1022796630859375,0.1283111572265625
1761838954576006100,5.374006103515625,-1.0752716064453125,-0.07952880859375,0.11431884765625
1761838954586076200,5.384076171875,-1.07501220703125,-0.0608673095703125,0.1005096435546875
1761838954596146200,5.394146240234375,-1.0465850830078125,-0.055755615234375,0.1002349853515625
1761838954606217200,5.40421728515625,-1.02679443359375,-0.0471343994140625,0.091766357421875
1761838954616287200,5.414287353515625,-0.99853515625,-0.0398101806640625,0.0753936767578125
1761838954626357000,5.42435693359375,-0.9513702392578125,-0.0429229736328125,0.0670166015625
1761838954636427300,5.43442724609375,-0.920867919921875,-0.0503692626953125,0.0615386962890625
1761838954646497300,5.444497314453125,-0.8936920166015625,-0.0625457763671875,0.0695037841796875
1761838954656567000,5.454567138671875,-0.87005615234375,-0.078643798828125,0.086700439453125
1761838954666637000,5.464636962890625,-0.8488006591796875,-0.10382080078125,0.1063232421875
1761838954676707300,5.474707275390625,-0.8460845947265625,-0.1376495361328125,0.128082275390625
1761838954686777000,5.484777099609375,-0.8476104736328125,-0.1631622314453125,0.1405487060546875
1761838954696847000,5.49484716796875,-0.84588623046875,-0.1805877685546875,0.1396026611328125
1761838954706917000,5.504917236328125,-0.8487548828125,-0.1942138671875,0.131378173828125
1761838954716987100,5.514987060546875,-0.8615875244140625,-0.206787109375,0.1207275390625
1761838954727057200,5.52505712890625,-0.876922607421875,-0.2147674560546875,0.1082763671875
1761838954737127200,5.535127197265625,-0.8876953125,-0.21533203125,0.0967559814453125
1761838954747197200,5.545197265625,-0.9055023193359375,-0.2161865234375,0.0890350341796875
1761838954757267200,5.55526708984375,-0.9247283935546875,-0.22039794921875,0.0830230712890625
1761838954767337000,5.5653369140625,-0.9427032470703125,-0.2232513427734375,0.076202392578125
1761838954777408000,5.575407958984375,-0.9637298583984375,-0.228851318359375,0.0715179443359375
1761838954787478300,5.585478271484375,-0.9867706298828125,-0.2346954345703125,0.072479248046875
1761838954797548000,5.595548095703125,-1.00750732421875,-0.2386322021484375,0.0750732421875
1761838954807618000,5.6056181640625,-1.0295257568359375,-0.2357177734375,0.071380615234375
1761838954817688300,5.615688232421875,-1.0512542724609375,-0.2266082763671875,0.064361572265625
1761838954827758000,5.625758056640625,-1.0723724365234375,-0.21844482421875,0.0560150146484375
1761838954837828000,5.635828125,-1.0926971435546875,-0.2104644775390625,0.04901123046875
1761838954847898400,5.6458984375,-1.121185302734375,-0.19866943359375,0.0501861572265625
1761838954857968000,5.655968017578125,-1.1172027587890625,-0.1708526611328125,0.0391998291015625
1761838954868038100,5.6660380859375,-1.118072509765625,-0.1485137939453125,0.0292510986328125
1761838954878108200,5.676108154296875,-1.125274658203125,-0.13800048828125,0.0272674560546875
1761838954888178200,5.68617822265625,-1.1338043212890625,-0.13153076171875,0.0312957763671875
1761838954898248200,5.696248291015625,-1.1317138671875,-0.1263580322265625,0.03656005859375
1761838954908318000,5.70631787109375,-1.1275482177734375,-0.1275177001953125,0.04449462890625
1761838954918388200,5.71638818359375,-1.117889404296875,-0.1339569091796875,0.0489044189453125
1761838954928458200,5.726458251953125,-1.1049652099609375,-0.1405792236328125,0.0473480224609375
1761838954938528000,5.736528076171875,-1.090728759765625,-0.1462554931640625,0.0392303466796875
1761838954948598300,5.746598388671875,-1.07763671875,-0.1490325927734375,0.025360107421875
1761838954958669300,5.75666943359375,-1.0609283447265625,-0.1514434814453125,0.006744384765625
1761838954968739300,5.7667392578125,-1.043121337890625,-0.1544189453125,-0.0125579833984375
1761838954978809000,5.77680908203125,-1.012603759765625,-0.155029296875,-0.0286712646484375
1761838954988879000,5.786879150390625,-0.9916839599609375,-0.1579132080078125,-0.0365753173828125
1761838954998949000,5.79694921875,-0.9878692626953125,-0.1618804931640625,-0.028717041015625
1761838955009019100,5.80701904296875,-0.9802398681640625,-0.163421630859375,-0.0181121826171875
1761838955019089200,5.817089111328125,-0.9705963134765625,-0.1619415283203125,-0.0088653564453125
1761838955029159200,5.8271591796875,-0.981231689453125,-0.160888671875,0.003326416015625
1761838955039229200,5.837229248046875,-0.9925689697265625,-0.156707763671875,0.0143585205078125
1761838955049299200,5.84729931640625,-0.98846435546875,-0.146514892578125,0.0120697021484375
1761838955059369000,5.857368896484375,-0.9769744873046875,-0.12255859375,-0.0008697509765625
1761838955069439200,5.867439208984375,-0.9608306884765625,-0.0946502685546875,-0.015655517578125
1761838955079509200,5.87750927734375,-0.9505615234375,-0.07806396484375,-0.0256195068359375
1761838955089579000,5.8875791015625,-0.94219970703125,-0.06787109375,-0.034423828125
1761838955099649300,5.897649169921875,-0.9304656982421875,-0.0636749267578125,-0.0404205322265625
1761838955109719300,5.90771923828125,-0.9190826416015625,-0.0687408447265625,-0.0398406982421875
1761838955119789000,5.9177890625,-0.9145965576171875,-0.0790863037109375,-0.043701171875
1761838955129859300,5.927859375,-0.9102325439453125,-0.0841064453125,-0.045684814453125
1761838955139930400,5.937930419921875,-0.9113006591796875,-0.092681884765625,-0.0533905029296875
1761838955150000000,5.948000244140625,-0.9088134765625,-0.0919952392578125,-0.0626373291015625
1761838955160070100,5.958070068359375,-0.9080810546875,-0.0923004150390625,-0.073455810546875
1761838955170140200,5.96814013671875,-0.9117889404296875,-0.099334716796875,-0.0835418701171875
1761838955180210200,5.978210205078125,-0.913909912109375,-0.1029205322265625,-0.0954132080078125
1761838955190280200,5.9882802734375,-0.91424560546875,-0.1035614013671875,-0.1067962646484375
1761838955200350000,5.998349853515625,-0.90771484375,-0.1036834716796875,-0.11279296875
1761838955210420200,6.008420166015625,-0.911407470703125,-0.10369873046875,-0.113525390625
1761838955220490200,6.018490234375,-0.9229888916015625,-0.1035308837890625,-0.10711669921875
1761838955230560000,6.02856005859375,-0.9326171875,-0.1035003662109375,-0.0977783203125
1761838955240630300,6.03863037109375,-0.9410858154296875,-0.1076812744140625,-0.0864715576171875
1761838955250700300,6.0487001953125,-0.9543304443359375,-0.1145782470703125,-0.0744171142578125
1761838955260770000,6.05877001953125,-0.979034423828125,-0.1272430419921875,-0.06512451171875
1761838955270840000,6.068840087890625,-0.9964599609375,-0.140594482421875,-0.0653228759765625
1761838955280910300,6.078910400390625,-1.016326904296875,-0.147491455078125,-0.0718994140625
1761838955290980000,6.08897998046875,-1.0411224365234375,-0.1585693359375,-0.0767364501953125
1761838955301050400,6.09905029296875,-1.05584716796875,-0.170440673828125,-0.082916259765625
1761838955311121400,6.109121337890625,-1.06878662109375,-0.180877685546875,-0.087158203125
1761838955321191400,6.11919140625,-1.0701141357421875,-0.1908721923828125,-0.087127685546875
1761838955331261700,6.12926171875,-1.035675048828125,-0.1925506591796875,-0.1046600341796875
1761838955341331500,6.13933154296875,-1.0214080810546875,-0.197357177734375,-0.1166229248046875
1761838955351401500,6.1494013671875,-1.023284912109375,-0.2109375,-0.1157684326171875
1761838955361471700,6.1594716796875,-1.028289794921875,-0.2228546142578125,-0.107574462890625
1761838955371541500,6.16954150390625,-1.019073486328125,-0.230987548828125,-0.10296630859375
1761838955381611500,6.179611572265625,-1.004608154296875,-0.2361297607421875,-0.09918212890625
1761838955391681500,6.189681640625,-0.99517822265625,-0.2377777099609375,-0.0983123779296875
1761838955401751600,6.19975146484375,-0.9859619140625,-0.236541748046875,-0.095916748046875
1761838955411821600,6.209821533203125,-0.9809417724609375,-0.2350006103515625,-0.0911865234375
1761838955421891300,6.219891357421875,-0.981781005859375,-0.2303924560546875,-0.0853424072265625
1761838955431961600,6.229961669921875,-0.976715087890625,-0.223388671875,-0.0806884765625
1761838955442031600,6.240031494140625,-0.97564697265625,-0.212158203125,-0.071502685546875
1761838955452101400,6.250101318359375,-0.9766082763671875,-0.2056732177734375,-0.0614013671875
1761838955462171600,6.260171630859375,-0.9759521484375,-0.20233154296875,-0.0506134033203125
1761838955472241700,6.27024169921875,-0.9829559326171875,-0.2006378173828125,-0.0392608642578125
1761838955482312400,6.2803125,-0.987030029296875,-0.199798583984375,-0.02740478515625
1761838955492382500,6.290382568359375,-0.982818603515625,-0.1968231201171875,-0.0177459716796875
1761838955502452700,6.30045263671875,-0.9826812744140625,-0.19207763671875,-0.0074615478515625
1761838955512522500,6.3105224609375,-0.98828125,-0.1919403076171875,0.00665283203125
1761838955522592500,6.320592529296875,-0.986785888671875,-0.199737548828125,0.0225830078125
1761838955532662500,6.33066259765625,-0.983123779296875,-0.21002197265625,0.0398712158203125
1761838955542732500,6.340732666015625,-0.9893951416015625,-0.2200164794921875,0.0529327392578125
1761838955552802600,6.350802490234375,-1.007110595703125,-0.2230072021484375,0.0553131103515625
1761838955562872600,6.36087255859375,-1.0287017822265625,-0.223876953125,0.0462646484375
1761838955572942600,6.370942626953125,-1.0412750244140625,-0.211151123046875,0.0222930908203125
1761838955583012600,6.3810126953125,-1.039398193359375,-0.18646240234375,-0.013916015625
1761838955593082400,6.391082275390625,-1.0344085693359375,-0.1572723388671875,-0.03564453125
1761838955603152600,6.401152587890625,-1.022796630859375,-0.1360015869140625,-0.0449371337890625
1761838955613222700,6.41122265625,-0.9970855712890625,-0.11883544921875,-0.0472412109375
1761838955623292400,6.42129248046875,-0.97283935546875,-0.1037445068359375,-0.0336456298828125
1761838955633362400,6.431362548828125,-0.96533203125,-0.09747314453125,-0.001861572265625
1761838955643432700,6.4414326171875,-0.9685516357421875,-0.102935791015625,0.0341796875
1761838955653503500,6.45150341796875,-0.96478271484375,-0.1189727783203125,0.06622314453125
1761838955663573500,6.461573486328125,-0.9644622802734375,-0.137939453125,0.0882720947265625
1761838955673643500,6.4716435546875,-0.958892822265625,-0.148345947265625,0.0977630615234375
1761838955683713500,6.481713623046875,-0.94873046875,-0.1537933349609375,0.095794677734375
1761838955693783600,6.491783447265625,-0.9488067626953125,-0.1620635986328125,0.0878143310546875
1761838955703853600,6.501853515625,-0.9530792236328125,-0.1705169677734375,0.0773468017578125
1761838955713923300,6.51192333984375,-0.955108642578125,-0.1736602783203125,0.0620880126953125
1761838955723993600,6.52199365234375,-0.9534912109375,-0.1719818115234375,0.0438995361328125
1761838955734063600,6.532063720703125,-0.9571075439453125,-0.1697998046875,0.030975341796875
1761838955744133400,6.54213330078125,-0.9660491943359375,-0.17041015625,0.0246124267578125
1761838955754203600,6.55220361328125,-0.9764404296875,-0.169830322265625,0.02252197265625
1761838955764273700,6.562273681640625,-0.9929962158203125,-0.1656341552734375,0.0261383056640625
1761838955774343400,6.572343505859375,-1.0144500732421875,-0.163299560546875,0.037109375
1761838955784413700,6.58241357421875,-1.0308837890625,-0.166656494140625,0.0502777099609375
1761838955794483500,6.5924833984375,-1.048675537109375,-0.1688690185546875,0.05902099609375
1761838955804553500,6.602553466796875,-1.053558349609375,-0.1631927490234375,0.0614776611328125
1761838955814623500,6.61262353515625,-1.051116943359375,-0.1527252197265625,0.0608062744140625
1761838955824694500,6.622694580078125,-1.052093505859375,-0.141571044921875,0.0546722412109375
1761838955834764500,6.6327646484375,-1.040985107421875,-0.1302642822265625,0.0475616455078125
1761838955844834600,6.64283447265625,-1.0213775634765625,-0.1210174560546875,0.040985107421875
1761838955854904600,6.652904541015625,-1.0109100341796875,-0.1225433349609375,0.04180908203125
1761838955864974600,6.662974609375,-0.999420166015625,-0.1324920654296875,0.0468292236328125
1761838955875044600,6.673044677734375,-0.980255126953125,-0.137420654296875,0.045806884765625
1761838955885114400,6.6831142578125,-0.9665069580078125,-0.1424102783203125,0.0450592041015625
1761838955895184600,6.6931845703125,-0.966583251953125,-0.15289306640625,0.053436279296875
1761838955905254700,6.703254638671875,-0.9621734619140625,-0.1654815673828125,0.0576629638671875
1761838955915324400,6.713324462890625,-0.9459075927734375,-0.1734161376953125,0.0539703369140625
1761838955925394400,6.72339453125,-0.9338531494140625,-0.179168701171875,0.049346923828125
1761838955935464700,6.733464599609375,-0.931304931640625,-0.1862640380859375,0.04266357421875
1761838955945534500,6.743534423828125,-0.9385223388671875,-0.1878509521484375,0.0347747802734375
1761838955955604500,6.7536044921875,-0.946685791015625,-0.1839599609375,0.0288238525390625
1761838955965674800,6.7636748046875,-0.9590911865234375,-0.1788177490234375,0.02783203125
1761838955975745500,6.77374560546875,-0.9783172607421875,-0.1727294921875,0.029815673828125
1761838955985815600,6.783815673828125,-0.9998779296875,-0.161834716796875,0.033843994140625
1761838955995885600,6.793885498046875,-1.015380859375,-0.148834228515625,0.0366363525390625
1761838956005955600,6.80395556640625,-1.0222015380859375,-0.13702392578125,0.041748046875
1761838956016025600,6.814025634765625,-1.022125244140625,-0.1268310546875,0.0459747314453125
1761838956026095600,6.824095703125,-1.0190887451171875,-0.1197052001953125,0.0531463623046875
1761838956036165400,6.834165283203125,-1.0091705322265625,-0.11474609375,0.0588531494140625
1761838956046235600,6.844235595703125,-0.9968719482421875,-0.1221771240234375,0.0688629150390625
1761838956056305700,6.8543056640625,-0.9942474365234375,-0.1404876708984375,0.081329345703125
1761838956066375400,6.86437548828125,-0.9929046630859375,-0.1611175537109375,0.0918731689453125
1761838956076445700,6.87444580078125,-0.996337890625,-0.182281494140625,0.09954833984375
1761838956086515500,6.884515380859375,-0.99658203125,-0.1959686279296875,0.0991363525390625
1761838956096585500,6.89458544921875,-0.988311767578125,-0.197540283203125,0.0901031494140625
1761838956106655500,6.904655517578125,-0.9821929931640625,-0.19219970703125,0.08062744140625
1761838956116725500,6.9147255859375,-0.9813690185546875,-0.19122314453125,0.0787811279296875
1761838956126795500,6.92479541015625,-0.9871063232421875,-0.190155029296875,0.0651092529296875
1761838956136865500,6.934865478515625,-0.9822235107421875,-0.194732666015625,0.057708740234375
1761838956146936600,6.9449365234375,-0.982696533203125,-0.1978302001953125,0.0506591796875
1761838956157006600,6.955006591796875,-0.98553466796875,-0.1930084228515625,0.0395660400390625
1761838956167076600,6.96507666015625,-0.9733428955078125,-0.19171142578125,0.02911376953125
1761838956177146400,6.975146484375,-0.9652099609375,-0.1934356689453125,0.01690673828125
1761838956187216600,6.985216552734375,-0.9717559814453125,-0.2052001953125,0.0154266357421875
1761838956197286700,6.99528662109375,-0.979156494140625,-0.2212677001953125,0.020904541015625
1761838956207356400,7.0053564453125,-0.9859771728515625,-0.2394256591796875,0.02447509765625
1761838956217426400,7.015426513671875,-0.9853363037109375,-0.2540740966796875,0.0305938720703125
1761838956227496700,7.02549658203125,-0.987396240234375,-0.2591094970703125,0.032623291015625
1761838956237566500,7.03556640625,-1.0001678466796875,-0.25433349609375,0.0302276611328125
1761838956247636500,7.045636474609375,-1.0186614990234375,-0.2533721923828125,0.030364990234375
1761838956257706800,7.055706787109375,-1.0321807861328125,-0.2613067626953125,0.0278778076171875
1761838956267776500,7.065776611328125,-1.03741455078125,-0.24969482421875,0.0194854736328125
1761838956277846500,7.075846435546875,-1.060394287109375,-0.21722412109375,0.0043182373046875
1761838956287916500,7.08591650390625,-1.08001708984375,-0.18682861328125,-0.007110595703125
1761838956297987600,7.095987548828125,-1.0809478759765625,-0.1644134521484375,-0.0143280029296875
1761838956308057300,7.106057373046875,-1.094696044921875,-0.1469268798828125,-0.0149078369140625
1761838956318127400,7.11612744140625,-1.059906005859375,-0.122955322265625,-0.0210723876953125
1761838956328197000,7.126197021484375,-1.006591796875,-0.098480224609375,-0.0312957763671875
1761838956338267400,7.136267333984375,-0.980804443359375,-0.080047607421875,-0.034454345703125
1761838956348337200,7.146337158203125,-0.9774322509765625,-0.0733642578125,-0.028564453125
1761838956358407200,7.1564072265625,-0.98883056640625,-0.083526611328125,-0.0078887939453125
1761838956368477400,7.1664775390625,-0.997711181640625,-0.0889739990234375,0.004150390625
1761838956378547200,7.176547119140625,-0.983978271484375,-0.09014892578125,0.0059051513671875
1761838956388617200,7.1866171875,-0.95782470703125,-0.09356689453125,-0.001800537109375
1761838956398687500,7.1966875,-0.9402313232421875,-0.0959014892578125,-0.0093994140625
1761838956408757200,7.20675732421875,-0.9219970703125,-0.098876953125,-0.0198516845703125
1761838956418827300,7.2168271484375,-0.90020751953125,-0.1002197265625,-0.028839111328125
1761838956428897300,7.226897216796875,-0.8864898681640625,-0.10382080078125,-0.0349884033203125
1761838956438967300,7.23696728515625,-0.8839874267578125,-0.1114349365234375,-0.0382232666015625
1761838956449038300,7.247038330078125,-0.891815185546875,-0.1187286376953125,-0.0479736328125
1761838956459108400,7.2571083984375,-0.90777587890625,-0.1153106689453125,-0.070556640625
1761838956469178000,7.26717822265625,-0.896881103515625,-0.1108856201171875,-0.08587646484375
1761838956479248400,7.277248291015625,-0.902130126953125,-0.1021575927734375,-0.1002655029296875
1761838956489318400,7.287318359375,-0.9179229736328125,-0.1004791259765625,-0.1065673828125
1761838956499388200,7.29738818359375,-0.932708740234375,-0.1087188720703125,-0.1091766357421875
1761838956509458200,7.307458251953125,-0.9445037841796875,-0.1206817626953125,-0.108734130859375
1761838956519528400,7.317528564453125,-0.9692535400390625,-0.1273040771484375,-0.1041107177734375
1761838956529598200,7.32759814453125,-0.9952239990234375,-0.13897705078125,-0.100738525390625
1761838956539668200,7.337668212890625,-1.0140380859375,-0.144073486328125,-0.102783203125
1761838956549738200,7.34773828125,-1.03314208984375,-0.1461944580078125,-0.10736083984375
1761838956559808300,7.357808349609375,-1.04998779296875,-0.1501312255859375,-0.1120452880859375
1761838956569878300,7.367878173828125,-1.06219482421875,-0.1537017822265625,-0.1136016845703125
1761838956579948300,7.3779482421875,-1.07720947265625,-0.157623291015625,-0.119873046875
1761838956590018300,7.388018310546875,-1.0820159912109375,-0.159698486328125,-0.126373291015625
1761838956600088300,7.39808837890625,-1.06011962890625,-0.15728759765625,-0.1412506103515625
1761838956610159400,7.408159423828125,-1.051910400390625,-0.1613922119140625,-0.1445465087890625
1761838956620229000,7.41822900390625,-1.042938232421875,-0.16015625,-0.1529998779296875
1761838956630299400,7.42829931640625,-1.0341949462890625,-0.165191650390625,-0.1504974365234375
1761838956640369200,7.438369140625,-1.02252197265625,-0.169097900390625,-0.1431427001953125
1761838956650439200,7.448439208984375,-1.00665283203125,-0.1669769287109375,-0.1358489990234375
1761838956660509400,7.458509521484375,-0.984832763671875,-0.1685028076171875,-0.1296844482421875
1761838956670579200,7.4685791015625,-0.96832275390625,-0.171722412109375,-0.1228485107421875
1761838956680649200,7.478649169921875,-0.956756591796875,-0.17254638671875,-0.1162567138671875
1761838956690719500,7.488719482421875,-0.953033447265625,-0.1737518310546875,-0.1082000732421875
1761838956700789200,7.498789306640625,-0.9582977294921875,-0.17852783203125,-0.1013641357421875
1761838956710859300,7.508859375,-0.9635162353515625,-0.180419921875,-0.0986785888671875
1761838956720929300,7.51892919921875,-0.96807861328125,-0.173614501953125,-0.104766845703125
1761838956730999300,7.528999267578125,-0.975372314453125,-0.1615447998046875,-0.1175537109375
1761838956741069300,7.5390693359375,-0.989410400390625,-0.1486053466796875,-0.1316986083984375
1761838956751140400,7.549140380859375,-1.00457763671875,-0.1365509033203125,-0.141571044921875
1761838956761210000,7.559210205078125,-1.00634765625,-0.1260833740234375,-0.150115966796875
1761838956771280400,7.5692802734375,-1.019073486328125,-0.128662109375,-0.15130615234375
1761838956781350400,7.579350341796875,-1.030548095703125,-0.138916015625,-0.14849853515625
1761838956791420200,7.589420166015625,-1.027374267578125,-0.142486572265625,-0.14691162109375
1761838956801490400,7.599490478515625,-1.0229034423828125,-0.1400909423828125,-0.1337432861328125
1761838956811560400,7.609560546875,-1.030029296875,-0.14990234375,-0.1016845703125
1761838956821630200,7.619630126953125,-1.037811279296875,-0.16876220703125,-0.0687408447265625
1761838956831700200,7.6297001953125,-1.0340728759765625,-0.190948486328125,-0.04144287109375
1761838956841770200,7.639770263671875,-1.0265655517578125,-0.2070770263671875,-0.01849365234375
1761838956851840300,7.64984033203125,-1.0190887451171875,-0.215576171875,-0.006622314453125
1761838956861910300,7.65991015625,-1.0031280517578125,-0.2190093994140625,-0.003997802734375
1761838956871980300,7.669980224609375,-0.976654052734375,-0.2169952392578125,-0.01055908203125
1761838956882050300,7.68005029296875,-0.947784423828125,-0.2144622802734375,-0.01904296875
1761838956892120300,7.690120361328125,-0.9242095947265625,-0.215667724609375,-0.02349853515625
1761838956902191400,7.70019140625,-0.9050140380859375,-0.2213897705078125,-0.01568603515625
1761838956912261000,7.71026123046875,-0.8951568603515625,-0.2308807373046875,-0.003204345703125
1761838956922331400,7.720331298828125,-0.8874664306640625,-0.24267578125,0.0071868896484375
1761838956932401200,7.730401123046875,-0.8822174072265625,-0.2552642822265625,0.017608642578125
1761838956942471200,7.74047119140625,-0.8816986083984375,-0.2672576904296875,0.02685546875
1761838956952541400,7.75054150390625,-0.8810882568359375,-0.2736968994140625,0.0346221923828125
1761838956962611200,7.760611083984375,-0.88031005859375,-0.27862548828125,0.045867919921875
1761838956972681200,7.77068115234375,-0.89019775390625,-0.2847747802734375,0.058868408203125
1761838956982751500,7.78075146484375,-0.902557373046875,-0.29150390625,0.07293701171875
1761838956992821200,7.7908212890625,-0.9246063232421875,-0.2923126220703125,0.0776824951171875
1761838957002891300,7.800891357421875,-0.9337005615234375,-0.286285400390625,0.0750885009765625
1761838957012961300,7.810961181640625,-0.932708740234375,-0.279144287109375,0.0637359619140625
1761838957023031300,7.82103125,-0.9339599609375,-0.2672119140625,0.052734375
1761838957033101300,7.831101318359375,-0.939300537109375,-0.2477874755859375,0.0517425537109375
1761838957043172400,7.84117236328125,-0.9423675537109375,-0.22210693359375,0.0436553955078125
1761838957053242000,7.8512421875,-0.9323577880859375,-0.1959991455078125,0.0422821044921875
1761838957063312400,7.8613125,-0.936920166015625,-0.178497314453125,0.0516510009765625
1761838957073382400,7.87138232421875,-0.9585113525390625,-0.1733551025390625,0.0759124755859375
1761838957083452200,7.8814521484375,-0.9884033203125,-0.1720123291015625,0.1048126220703125
1761838957093522400,7.8915224609375,-1.0127410888671875,-0.174041748046875,0.1198883056640625
1761838957103592400,7.901592529296875,-1.0197906494140625,-0.1738739013671875,0.119415283203125
1761838957113662200,7.911662109375,-1.0198211669921875,-0.16717529296875,0.1048431396484375
1761838957123732200,7.921732177734375,-1.024200439453125,-0.1588287353515625,0.0854644775390625
1761838957133802200,7.93180224609375,-1.0247344970703125,-0.1489410400390625,0.064666748046875
1761838957143872300,7.941872314453125,-1.0130615234375,-0.1396636962890625,0.0423431396484375
1761838957153942300,7.9519423828125,-0.997344970703125,-0.1331787109375,0.029754638671875
1761838957164012300,7.96201220703125,-0.9881591796875,-0.1320037841796875,0.0265655517578125
1761838957174082300,7.972082275390625,-0.980987548828125,-0.137603759765625,0.0315704345703125
1761838957184152300,7.98215234375,-0.972686767578125,-0.1461181640625,0.0422515869140625
1761838957194223400,7.992223388671875,-0.9620513916015625,-0.15484619140625,0.0529632568359375
1761838957204293400,8.00229345703125,-0.958709716796875,-0.1660308837890625,0.061248779296875
1761838957214363400,8.01236328125,-0.96014404296875,-0.1763763427734375,0.066009521484375
1761838957224431400,8.022431396484375,-0.9647674560546875,-0.180267333984375,0.064361572265625
1761838957234501400,8.03250146484375,-0.9684295654296875,-0.17926025390625,0.0572509765625
1761838957244571100,8.042571044921875,-0.97454833984375,-0.1726226806640625,0.052093505859375
1761838957254641400,8.052641357421875,-0.9838714599609375,-0.15997314453125,0.0510101318359375
1761838957264712400,8.06271240234375,-0.9945068359375,-0.1464691162109375,0.052581787109375
1761838957274782200,8.0727822265625,-1.0057525634765625,-0.1394500732421875,0.054901123046875
1761838957284852200,8.082852294921874,-1.0158843994140625,-0.137359619140625,0.0624237060546875
1761838957294922200,8.092922119140624,-1.0178070068359375,-0.1376495361328125,0.066497802734375
1761838957304992300,8.1029921875,-1.02655029296875,-0.1376953125,0.0714111328125
1761838957315062800,8.113062744140626,-1.0294036865234375,-0.1412506103515625,0.074554443359375
1761838957325132500,8.123132568359376,-1.02197265625,-0.1469879150390625,0.080352783203125
1761838957335202800,8.133202880859375,-1.017730712890625,-0.152435302734375,0.0861968994140625
1761838957345272800,8.14327294921875,-1.0101776123046875,-0.160064697265625,0.0920257568359375
1761838957355342600,8.153342529296875,-1.0001373291015625,-0.1688079833984375,0.100372314453125
1761838957365412600,8.16341259765625,-0.99005126953125,-0.1797332763671875,0.1105804443359375
1761838957375483000,8.17348291015625,-0.9868316650390625,-0.1908111572265625,0.12396240234375
1761838957385552600,8.183552734375,-0.991912841796875,-0.1998138427734375,0.13531494140625
1761838957395622700,8.19362255859375,-0.9975433349609375,-0.210357666015625,0.1456146240234375
1761838957405693700,8.203693603515624,-1.0035247802734375,-0.2199859619140625,0.1527099609375
1761838957415763700,8.213763671875,-1.0107879638671875,-0.2216339111328125,0.153594970703125
1761838957425833700,8.223833740234374,-1.011993408203125,-0.21466064453125,0.1466522216796875
1761838957435903700,8.23390380859375,-0.9997711181640625,-0.2051849365234375,0.1345367431640625
1761838957445973800,8.243973876953126,-0.991546630859375,-0.19580078125,0.127960205078125
1761838957456043800,8.254043701171875,-0.9941864013671875,-0.1939849853515625,0.1279144287109375
1761838957466113800,8.26411376953125,-0.995208740234375,-0.1961212158203125,0.128509521484375
1761838957476183600,8.27418359375,-0.993377685546875,-0.190673828125,0.1305999755859375
1761838957486253800,8.28425390625,-0.9983978271484375,-0.18927001953125,0.1383209228515625
1761838957496323600,8.294323486328125,-1.0119476318359375,-0.194854736328125,0.1483306884765625
1761838957506393600,8.3043935546875,-1.0081329345703125,-0.1937713623046875,0.1437530517578125
1761838957516463900,8.3144638671875,-0.993011474609375,-0.1886749267578125,0.1385040283203125
1761838957526533600,8.32453369140625,-0.9794921875,-0.18548583984375,0.1367034912109375
1761838957536603600,8.334603759765624,-0.9697723388671875,-0.1853485107421875,0.13458251953125
1761838957546673700,8.344673583984376,-0.9618682861328125,-0.184234619140625,0.1340484619140625
1761838957556744700,8.35474462890625,-0.946990966796875,-0.1835479736328125,0.132568359375
1761838957566814700,8.364814697265626,-0.944549560546875,-0.1858978271484375,0.1353302001953125
1761838957576884700,8.374884765625,-0.934234619140625,-0.190032958984375,0.1407470703125
1761838957586954500,8.38495458984375,-0.9256744384765625,-0.1953125,0.145965576171875
1761838957597024800,8.395024658203125,-0.9230804443359375,-0.2008514404296875,0.147186279296875
1761838957607094800,8.4050947265625,-0.91729736328125,-0.2066650390625,0.1461639404296875
1761838957617164500,8.41516455078125,-0.9099578857421875,-0.2076416015625,0.1391448974609375
1761838957627234800,8.42523486328125,-0.907318115234375,-0.2030487060546875,0.130279541015625
1761838957637304800,8.435304931640625,-0.9092559814453125,-0.19830322265625,0.1244049072265625
1761838957647374600,8.44537451171875,-0.9155731201171875,-0.1922454833984375,0.12139892578125
1761838957657444600,8.455444580078124,-0.91680908203125,-0.1833038330078125,0.115753173828125
1761838957667515000,8.465514892578126,-0.9197998046875,-0.173858642578125,0.1154327392578125
1761838957677584600,8.475584716796876,-0.931549072265625,-0.170623779296875,0.112518310546875
1761838957687655700,8.48565576171875,-0.94451904296875,-0.1710052490234375,0.115997314453125
1761838957697725700,8.4957255859375,-0.97259521484375,-0.174774169921875,0.12176513671875
1761838957707795700,8.505795654296875,-0.9576416015625,-0.174072265625,0.1143798828125
1761838957717865700,8.51586572265625,-0.9727935791015625,-0.17877197265625,0.1108551025390625
1761838957727935700,8.525935791015625,-0.9743194580078125,-0.188385009765625,0.1070709228515625
1761838957738005800,8.536005859375,-0.9851837158203125,-0.1966552734375,0.1067657470703125
1761838957748075800,8.54607568359375,-1.0061187744140625,-0.203704833984375,0.1136474609375
1761838957758145800,8.556145751953125,-0.9952392578125,-0.2017059326171875,0.116973876953125
1761838957768215600,8.566215576171874,-1.002685546875,-0.1945343017578125,0.1186370849609375
1761838957778285800,8.576285888671874,-1.00634765625,-0.1877899169921875,0.1265106201171875
1761838957788355600,8.58635546875,-0.99749755859375,-0.176361083984375,0.130340576171875
1761838957798425600,8.596425537109376,-1.0133819580078125,-0.1688385009765625,0.1379241943359375
1761838957808495900,8.606495849609376,-1.0385894775390625,-0.1705474853515625,0.14849853515625
1761838957818568700,8.616568603515624,-1.0585784912109375,-0.17437744140625,0.1509246826171875
1761838957828638700,8.626638671875,-1.0646514892578125,-0.1677398681640625,0.1428375244140625
1761838957838708700,8.636708740234376,-1.0751800537109375,-0.166229248046875,0.1313323974609375
1761838957848778800,8.64677880859375,-1.09161376953125,-0.1807861328125,0.1154937744140625
1761838957858848800,8.656848876953125,-1.0968780517578125,-0.188232421875,0.0953216552734375
1761838957868918800,8.666918701171875,-1.0872650146484375,-0.1941680908203125,0.0849456787109375
1761838957878988800,8.67698876953125,-1.083465576171875,-0.1842041015625,0.060455322265625
1761838957889058600,8.68705859375,-1.103729248046875,-0.1807403564453125,0.038421630859375
1761838957899128600,8.697128662109375,-1.1107330322265625,-0.181182861328125,0.013641357421875
1761838957909198800,8.70719873046875,-1.1200103759765625,-0.1720123291015625,-0.010345458984375
1761838957919268600,8.7172685546875,-1.12994384765625,-0.167144775390625,-0.02874755859375
1761838957929339600,8.727339599609374,-1.1334381103515625,-0.1703643798828125,-0.0424652099609375
1761838957939409700,8.73740966796875,-1.1242218017578125,-0.1665191650390625,-0.0576324462890625
1761838957949480000,8.74747998046875,-1.107177734375,-0.1583404541015625,-0.0697784423828125
1761838957959549700,8.7575498046875,-1.0883331298828125,-0.1515045166015625,-0.0735626220703125
1761838957969619700,8.76761962890625,-1.0796051025390625,-0.1493377685546875,-0.0685272216796875
1761838957979689500,8.777689453125,-1.0348358154296875,-0.1461029052734375,-0.067718505859375
1761838957989759700,8.787759765625,-1.017547607421875,-0.1468048095703125,-0.062774658203125
1761838957999829800,8.797829833984375,-1.015594482421875,-0.154296875,-0.044830322265625
1761838958009899500,8.8078994140625,-0.9988861083984375,-0.1539306640625,-0.0342254638671875
1761838958019969800,8.8179697265625,-0.9643707275390625,-0.14862060546875,-0.0333404541015625
1761838958030039800,8.828039794921875,-0.9319915771484375,-0.139862060546875,-0.020477294921875
1761838958040109600,8.838109619140624,-0.915863037109375,-0.12109375,-0.0129852294921875
1761838958050179800,8.848179931640624,-0.901702880859375,-0.1010894775390625,0.000946044921875
1761838958060251000,8.8582509765625,-0.888580322265625,-0.08306884765625,0.0111083984375
1761838958070320600,8.868320556640626,-0.8839111328125,-0.07086181640625,0.0152740478515625
1761838958080390700,8.878390625,-0.881439208984375,-0.0648193359375,0.0124664306640625
1761838958090460700,8.888460693359375,-0.875732421875,-0.061737060546875,0.00872802734375
1761838958100530700,8.89853076171875,-0.887481689453125,-0.06646728515625,0.001190185546875
1761838958110600700,8.9086005859375,-0.9027099609375,-0.0763092041015625,-0.0106658935546875
1761838958120670700,8.918670654296875,-0.9132232666015625,-0.0836029052734375,-0.03448486328125
1761838958130740700,8.92874072265625,-0.93463134765625,-0.0885162353515625,-0.065216064453125
1761838958140810800,8.938810791015625,-0.95263671875,-0.090667724609375,-0.100921630859375
1761838958150880800,8.948880859375,-0.9626617431640625,-0.0858154296875,-0.135589599609375
1761838958160950800,8.95895068359375,-0.9769744873046875,-0.0784454345703125,-0.159027099609375
1761838958171020800,8.969020751953124,-0.9849090576171875,-0.074310302734375,-0.1745452880859375
1761838958181091800,8.979091796875,-0.9889984130859375,-0.072540283203125,-0.181671142578125
1761838958191161600,8.98916162109375,-0.9933624267578125,-0.0692138671875,-0.179351806640625
1761838958201231600,8.999231689453126,-0.999786376953125,-0.0642852783203125,-0.17352294921875
1761838958211302000,9.009302001953126,-1.0081024169921875,-0.0565185546875,-0.165130615234375
1761838958221371600,9.01937158203125,-1.014312744140625,-0.0596923828125,-0.1549224853515625
1761838958231441700,9.029441650390625,-1.0147552490234375,-0.081146240234375,-0.1473388671875
1761838958241512000,9.039511962890625,-1.0116729736328125,-0.110076904296875,-0.1429290771484375
1761838958251581700,9.049581787109375,-1.005859375,-0.1390533447265625,-0.1427154541015625
1761838958261651700,9.059651611328125,-0.9943695068359375,-0.1648406982421875,-0.14697265625
1761838958271721700,9.0697216796875,-0.9686126708984375,-0.17694091796875,-0.1509857177734375
1761838958281791700,9.079791748046874,-0.9518280029296875,-0.1786346435546875,-0.145233154296875
1761838958291861800,9.08986181640625,-0.9365386962890625,-0.1861572265625,-0.132232666015625
1761838958301931500,9.099931640625,-0.92987060546875,-0.198150634765625,-0.11029052734375
1761838958312002600,9.11000244140625,-0.9276275634765625,-0.210235595703125,-0.08953857421875
1761838958322072600,9.120072509765626,-0.91168212890625,-0.216217041015625,-0.0769195556640625
1761838958332142600,9.130142578125,-0.8987884521484375,-0.21600341796875,-0.0619659423828125
1761838958342212600,9.140212646484375,-0.89862060546875,-0.21514892578125,-0.044036865234375
1761838958352282600,9.15028271484375,-0.8990631103515625,-0.2145843505859375,-0.02923583984375
1761838958362352600,9.1603525390625,-0.906524658203125,-0.21527099609375,-0.01904296875
1761838958372422700,9.170422607421875,-0.917724609375,-0.2168426513671875,-0.0112152099609375
1761838958382492400,9.180492431640625,-0.9332122802734375,-0.224090576171875,-0.004913330078125
1761838958392562700,9.190562744140625,-0.9450531005859375,-0.231292724609375,-0.007537841796875
1761838958402632400,9.200632568359374,-0.95562744140625,-0.2335968017578125,-0.01580810546875
1761838958412702500,9.210702392578124,-0.961822509765625,-0.23291015625,-0.0302276611328125
1761838958422772700,9.220772705078126,-0.963165283203125,-0.2303466796875,-0.046173095703125
1761838958432842500,9.230842529296876,-0.9664459228515625,-0.22930908203125,-0.0543670654296875
1761838958442913500,9.24091357421875,-0.9714813232421875,-0.2255096435546875,-0.0579681396484375
1761838958452983600,9.250983642578126,-0.97235107421875,-0.2270050048828125,-0.0516815185546875
1761838958463053600,9.261053466796875,-0.97808837890625,-0.23101806640625,-0.032501220703125
1761838958473123600,9.27112353515625,-0.9831695556640625,-0.2322998046875,-0.0177459716796875
1761838958483193600,9.281193603515625,-0.98077392578125,-0.234466552734375,-0.0031280517578125
1761838958493263400,9.291263427734375,-0.9891357421875,-0.2390594482421875,0.00927734375
1761838958503333600,9.301333740234375,-0.9993743896484375,-0.2442169189453125,0.0140228271484375
1761838958513403600,9.311403564453125,-1.0052337646484375,-0.2469635009765625,0.0114898681640625
1761838958523473400,9.321473388671874,-1.000457763671875,-0.245330810546875,0.008880615234375
1761838958533543700,9.331543701171874,-1.009979248046875,-0.251129150390625,0.0106048583984375
1761838958543613700,9.34161376953125,-1.0248870849609375,-0.2644500732421875,0.0168914794921875
1761838958553683500,9.351683349609376,-1.03424072265625,-0.279388427734375,0.0193634033203125
1761838958563754500,9.36175439453125,-1.05242919921875,-0.28619384765625,0.01171875
1761838958573824800,9.37182470703125,-1.0720977783203125,-0.2805633544921875,-0.0039825439453125
1761838958583894500,9.38189453125,-1.079498291015625,-0.27142333984375,-0.02410888671875
1761838958593964500,9.391964599609375,-1.0885162353515625,-0.263153076171875,-0.03961181640625
1761838958604034600,9.40203466796875,-1.105377197265625,-0.256622314453125,-0.043182373046875
1761838958614104600,9.4121044921875,-1.117156982421875,-0.246124267578125,-0.0445098876953125
1761838958624174600,9.422174560546875,-1.1197357177734375,-0.2324676513671875,-0.0440826416015625
1761838958634244600,9.43224462890625,-1.1226654052734375,-0.217803955078125,-0.0411834716796875
1761838958644314600,9.442314697265624,-1.1177520751953125,-0.195281982421875,-0.038543701171875
1761838958654384600,9.452384521484374,-1.10186767578125,-0.1702117919921875,-0.0366363525390625
1761838958664454400,9.462454345703126,-1.0807037353515625,-0.15301513671875,-0.02459716796875
1761838958674524700,9.472524658203126,-1.0605926513671875,-0.1424713134765625,-0.010406494140625
1761838958684595700,9.482595703125,-1.037689208984375,-0.135986328125,0.0043182373046875
1761838958694665700,9.492665771484376,-1.0155181884765625,-0.13592529296875,0.019317626953125
1761838958704735500,9.502735595703125,-0.9877777099609375,-0.1416168212890625,0.0341033935546875
1761838958714805500,9.512805419921875,-0.9535675048828125,-0.1533355712890625,0.0462799072265625
1761838958724875800,9.522875732421875,-0.9263458251953125,-0.1727447509765625,0.0552520751953125
1761838958734945500,9.532945556640625,-0.9092559814453125,-0.196075439453125,0.0644989013671875
1761838958745015600,9.543015625,-0.8912353515625,-0.2180023193359375,0.0652313232421875
1761838958755085600,9.55308544921875,-0.865814208984375,-0.233154296875,0.066436767578125
1761838958765155600,9.563155517578124,-0.84295654296875,-0.2425994873046875,0.0721282958984375
1761838958775225600,9.5732255859375,-0.8300933837890625,-0.2488250732421875,0.0785064697265625
1761838958785295400,9.58329541015625,-0.81658935546875,-0.25091552734375,0.086273193359375
1761838958795365600,9.59336572265625,-0.80657958984375,-0.2486724853515625,0.10174560546875
1761838958805435600,9.603435546875,-0.7916107177734375,-0.239593505859375,0.11865234375
1761838958815506700,9.613506591796876,-0.7982330322265625,-0.232391357421875,0.143951416015625
1761838958825576400,9.623576416015625,-0.815948486328125,-0.22247314453125,0.1769256591796875
1761838958835646700,9.633646728515625,-0.84881591796875,-0.2111053466796875,0.2142486572265625
1761838958845716500,9.643716552734375,-0.8814544677734375,-0.1966400146484375,0.2462310791015625
1761838958855786500,9.653786376953125,-0.9077301025390625,-0.1800079345703125,0.265960693359375
1761838958865856800,9.663856689453125,-0.926483154296875,-0.1683807373046875,0.27972412109375
1761838958875926500,9.673926513671875,-0.951324462890625,-0.1645050048828125,0.2830657958984375
1761838958885996500,9.68399658203125,-0.9795989990234375,-0.1646270751953125,0.27288818359375
1761838958896066600,9.694066650390624,-1.000701904296875,-0.1592559814453125,0.251373291015625
1761838958906136600,9.704136474609374,-1.0233612060546875,-0.151763916015625,0.22589111328125
1761838958916206600,9.71420654296875,-1.039886474609375,-0.152679443359375,0.2029571533203125
1761838958926276600,9.724276611328126,-1.042022705078125,-0.1558380126953125,0.17919921875
1761838958936347400,9.734347412109376,-1.041748046875,-0.1572113037109375,0.1571044921875
1761838958946417700,9.744417724609375,-1.031463623046875,-0.156341552734375,0.136077880859375
1761838958956487700,9.75448779296875,-1.0109405517578125,-0.1548309326171875,0.1192779541015625
1761838958966557400,9.764557373046875,-0.9989166259765625,-0.1683197021484375,0.11737060546875
1761838958976627700,9.774627685546875,-0.9889068603515625,-0.1793670654296875,0.119873046875
1761838958986697700,9.78469775390625,-0.9766998291015625,-0.18743896484375,0.1291961669921875
1761838958996767500,9.794767578125,-0.951934814453125,-0.2022552490234375,0.1385955810546875
1761838959006837500,9.80483740234375,-0.9265289306640625,-0.211761474609375,0.1453857421875
1761838959016907800,9.81490771484375,-0.9123992919921875,-0.22430419921875,0.1528472900390625
1761838959026977500,9.8249775390625,-0.9072418212890625,-0.24139404296875,0.1553802490234375
1761838959037047600,9.835047607421876,-0.901275634765625,-0.2547760009765625,0.1549224853515625
1761838959047117600,9.84511767578125,-0.897735595703125,-0.2681884765625,0.151214599609375
1761838959057187600,9.8551875,-0.8948974609375,-0.2746124267578125,0.1421966552734375
1761838959067258600,9.865258544921875,-0.89215087890625,-0.2793731689453125,0.1346435546875
1761838959077328600,9.87532861328125,-0.8995361328125,-0.2906036376953125,0.133758544921875
1761838959087398700,9.885398681640625,-0.9130401611328125,-0.299957275390625,0.134765625
1761838959097468700,9.89546875,-0.9154052734375,-0.3010711669921875,0.133087158203125
1761838959107538400,9.905538330078125,-0.9224700927734375,-0.2945556640625,0.130859375
1761838959117608400,9.9156083984375,-0.9328765869140625,-0.2842559814453125,0.1289520263671875
1761838959127678700,9.9256787109375,-0.9418792724609375,-0.2747650146484375,0.131011962890625
1761838959137748500,9.93574853515625,-0.9592742919921875,-0.2662811279296875,0.1334228515625
1761838959147818500,9.945818603515624,-0.98065185546875,-0.257476806640625,0.131988525390625
1761838959157888800,9.955888671875,-0.9954833984375,-0.250335693359375,0.1245880126953125
1761838959167958500,9.96595849609375,-1.003662109375,-0.2439727783203125,0.1162872314453125
1761838959178028500,9.976028564453125,-1.0212554931640625,-0.237823486328125,0.1124267578125
1761838959188099600,9.986099609375,-1.0321807861328125,-0.232147216796875,0.109100341796875
1761838959198169300,9.99616943359375,-1.043853759765625,-0.2260894775390625,0.103118896484375
1761838959208239600,10.006239501953125,-1.0543212890625,-0.220794677734375,0.0938568115234375
1761838959218309600,10.0163095703125,-1.058074951171875,-0.2196807861328125,0.0886383056640625
1761838959228379400,10.02637939453125,-1.072357177734375,-0.220947265625,0.08489990234375
1761838959238449700,10.03644970703125,-1.0774078369140625,-0.2224273681640625,0.07763671875
1761838959248519700,10.046519775390625,-1.071258544921875,-0.2269439697265625,0.0743408203125
1761838959258589400,10.05658935546875,-1.0646820068359375,-0.2369537353515625,0.07366943359375
1761838959268659700,10.06665966796875,-1.056640625,-0.2429962158203125,0.076507568359375
1761838959278729700,10.076729736328126,-1.0618896484375,-0.243011474609375,0.074798583984375
1761838959288799500,10.086799560546876,-1.059173583984375,-0.25335693359375,0.06866455078125
1761838959298869500,10.096869384765625,-1.047882080078125,-0.2613067626953125,0.0637359619140625
1761838959308940500,10.1069404296875,-1.0487060546875,-0.257049560546875,0.057220458984375
1761838959319010800,10.1170107421875,-1.04901123046875,-0.2529296875,0.0503082275390625
1761838959329080600,10.12708056640625,-1.05096435546875,-0.2476959228515625,0.039886474609375
1761838959339150600,10.137150634765625,-1.05291748046875,-0.2404937744140625,0.0279998779296875
1761838959349220900,10.147220947265625,-1.057769775390625,-0.2340545654296875,0.016082763671875
1761838959359290600,10.15729052734375,-1.06329345703125,-0.2283172607421875,0.002532958984375
1761838959369360600,10.167360595703125,-1.071044921875,-0.2233428955078125,-0.01226806640625
1761838959379430700,10.1774306640625,-1.081390380859375,-0.2144927978515625,-0.0252838134765625
1761838959389500700,10.187500732421874,-1.0853424072265625,-0.2023773193359375,-0.0393829345703125
1761838959399570700,10.19757080078125,-1.089508056640625,-0.1918182373046875,-0.049774169921875
1761838959409640400,10.207640380859376,-1.088043212890625,-0.188232421875,-0.0600738525390625
1761838959419710700,10.217710693359376,-1.0877532958984375,-0.1874542236328125,-0.06353759765625
1761838959429781800,10.22778173828125,-1.046295166015625,-0.1787567138671875,-0.0774688720703125
1761838959439851800,10.237851806640625,-1.0091400146484375,-0.1627044677734375,-0.088714599609375
1761838959449921500,10.247921630859375,-0.9748077392578125,-0.1504364013671875,-0.079315185546875
1761838959459991800,10.25799169921875,-0.9332122802734375,-0.1403656005859375,-0.0637664794921875
1761838959470061800,10.268061767578125,-0.90435791015625,-0.1370086669921875,-0.048980712890625
1761838959480131600,10.278131591796875,-0.8807830810546875,-0.1357574462890625,-0.031097412109375
1761838959490201600,10.28820166015625,-0.85638427734375,-0.1324005126953125,-0.0120086669921875
1761838959500271600,10.298271728515624,-0.8403167724609375,-0.13031005859375,0.0018463134765625
1761838959510341600,10.308341552734374,-0.8160552978515625,-0.13427734375,0.0041656494140625
1761838959520411600,10.31841162109375,-0.818939208984375,-0.1461639404296875,0.0098724365234375
1761838959530481700,10.328481689453126,-0.8315582275390625,-0.1605987548828125,0.0150909423828125
1761838959540551700,10.3385517578125,-0.8438720703125,-0.17364501953125,0.00750732421875
1761838959550622700,10.348622802734376,-0.8389129638671875,-0.17669677734375,-0.011138916015625
1761838959560692500,10.3586923828125,-0.83428955078125,-0.177978515625,-0.0343475341796875
1761838959570762800,10.3687626953125,-0.847320556640625,-0.183807373046875,-0.0482025146484375
1761838959580832800,10.378832763671875,-0.873046875,-0.192352294921875,-0.049591064453125
1761838959590902500,10.388902587890625,-0.8949737548828125,-0.19195556640625,-0.048675537109375
1761838959600972500,10.39897265625,-0.9158935546875,-0.1830596923828125,-0.0470123291015625
1761838959611042800,10.409042724609375,-0.9363555908203125,-0.1722259521484375,-0.040283203125
1761838959621112600,10.419112548828124,-0.960113525390625,-0.166046142578125,-0.029449462890625
1761838959631182600,10.4291826171875,-0.9799346923828125,-0.1606903076171875,-0.0247802734375
1761838959641252900,10.4392529296875,-0.9976043701171875,-0.1558074951171875,-0.0283050537109375
1761838959651322600,10.449322509765626,-1.0068359375,-0.154876708984375,-0.0344696044921875
1761838959661392600,10.459392578125,-1.014495849609375,-0.158477783203125,-0.0419769287109375
1761838959671463700,10.469463623046876,-1.021026611328125,-0.1619720458984375,-0.0531463623046875
1761838959681533700,10.47953369140625,-1.0208587646484375,-0.16986083984375,-0.0601806640625
1761838959691603700,10.489603759765625,-1.01580810546875,-0.1796722412109375,-0.0628814697265625
1761838959701673700,10.499673828125,-1.0083465576171875,-0.189910888671875,-0.0599212646484375
1761838959711743500,10.509743408203125,-0.995819091796875,-0.2058868408203125,-0.05364990234375
1761838959721813800,10.519813720703125,-0.9730987548828125,-0.220611572265625,-0.04180908203125
1761838959731883800,10.5298837890625,-0.9448089599609375,-0.230987548828125,-0.02923583984375
1761838959741953500,10.53995361328125,-0.9250030517578125,-0.23980712890625,-0.01470947265625
1761838959752023800,10.55002392578125,-0.9100799560546875,-0.2516326904296875,-0.005218505859375
1761838959762093600,10.560093505859374,-0.8981170654296875,-0.263092041015625,-0.000579833984375
1761838959772163600,10.57016357421875,-0.89117431640625,-0.270416259765625,-0.0018463134765625
1761838959782233600,10.580233642578126,-0.890289306640625,-0.2762908935546875,-0.0070343017578125
1761838959792304600,10.5903046875,-0.8870849609375,-0.27716064453125,-0.014190673828125
1761838959802374700,10.600374755859375,-0.89166259765625,-0.2782745361328125,-0.016571044921875
1761838959812444700,10.610444580078125,-0.8987274169921875,-0.2824859619140625,-0.011871337890625
1761838959822514700,10.6205146484375,-0.91162109375,-0.2877044677734375,-0.00885009765625
1761838959832584700,10.630584716796875,-0.9220733642578125,-0.290374755859375,-0.0028533935546875
1761838959842654700,10.64065478515625,-0.93902587890625,-0.2935943603515625,0.0068359375
1761838959852724500,10.650724365234375,-0.9590301513671875,-0.288543701171875,0.0024261474609375
1761838959862794800,10.660794677734375,-0.9572906494140625,-0.2799224853515625,-0.014923095703125
1761838959872864800,10.67086474609375,-0.9616851806640625,-0.271759033203125,-0.01910400390625
1761838959882934500,10.6809345703125,-0.98114013671875,-0.266143798828125,-0.0186309814453125
1761838959893004500,10.691004638671876,-0.9878692626953125,-0.2686004638671875,-0.01361083984375
1761838959903074800,10.70107470703125,-0.994171142578125,-0.2704925537109375,-0.0065765380859375
1761838959913145900,10.711145751953126,-0.999847412109375,-0.270050048828125,0.000152587890625
1761838959923215600,10.721215576171875,-0.998870849609375,-0.2674407958984375,0.0087432861328125
1761838959933285600,10.73128564453125,-1.0053863525390625,-0.26702880859375,0.019012451171875
1761838959943355600,10.741355712890625,-1.013702392578125,-0.267974853515625,0.0264739990234375
1761838959953425700,10.75142578125,-1.026336669921875,-0.2647552490234375,0.0367889404296875
1761838959963495700,10.76149560546875,-1.0432586669921875,-0.2550201416015625,0.0477447509765625
1761838959973565700,10.771565673828125,-1.051239013671875,-0.2471923828125,0.0501556396484375
1761838959983635700,10.7816357421875,-1.0747222900390625,-0.22552490234375,0.0453643798828125
1761838959993705700,10.791705810546874,-1.1043701171875,-0.1971282958984375,0.0430145263671875
1761838960003775500,10.801775390625,-1.13018798828125,-0.18212890625,0.0392913818359375
1761838960013845800,10.811845703125,-1.142181396484375,-0.16485595703125,0.033905029296875
1761838960023915800,10.821915771484376,-1.1596832275390625,-0.1454620361328125,0.033294677734375
1761838960033985500,10.831985595703125,-1.16021728515625,-0.12445068359375,0.027435302734375
1761838960044056600,10.842056640625,-1.1416168212890625,-0.1070404052734375,0.022308349609375
1761838960054126800,10.852126953125,-1.1252288818359375,-0.0964202880859375,0.027801513671875
1761838960064196600,10.862196533203125,-1.10797119140625,-0.0936737060546875,0.037994384765625
1761838960074266600,10.8722666015625,-1.086883544921875,-0.0932159423828125,0.05010986328125
1761838960084336600,10.882336669921875,-1.0689239501953125,-0.093048095703125,0.0700225830078125
1761838960094406700,10.89240673828125,-1.0513763427734375,-0.1033935546875,0.0865478515625
1761838960104476700,10.9024765625,-1.0197296142578125,-0.111053466796875,0.0905609130859375
1761838960114546700,10.912546630859374,-0.985992431640625,-0.1127471923828125,0.088134765625
1761838960124616700,10.92261669921875,-0.9620361328125,-0.1218109130859375,0.0959625244140625
1761838960134686700,10.932686767578126,-0.9481048583984375,-0.1360626220703125,0.1070709228515625
1761838960144756500,10.942756591796876,-0.937652587890625,-0.1515350341796875,0.1118011474609375
1761838960154826800,10.95282666015625,-0.9240264892578125,-0.1645660400390625,0.1063385009765625
1761838960164897800,10.962897705078126,-0.92327880859375,-0.1724853515625,0.1000823974609375
1761838960174967800,10.9729677734375,-0.9170074462890625,-0.161773681640625,0.092803955078125
1761838960185037600,10.98303759765625,-0.91046142578125,-0.14697265625,0.092071533203125
1761838960195107600,10.993107666015625,-0.9036712646484375,-0.1390380859375,0.0906982421875
1761838960205177600,11.003177490234375,-0.8997344970703125,-0.1283721923828125,0.1009063720703125
1761838960215247600,11.01324755859375,-0.89569091796875,-0.124908447265625,0.1059417724609375
1761838960225317600,11.023317626953125,-0.8851470947265625,-0.1184539794921875,0.114501953125
1761838960235387600,11.0333876953125,-0.87957763671875,-0.1127777099609375,0.130584716796875
1761838960245457700,11.043457763671874,-0.8555450439453125,-0.1048736572265625,0.143035888671875
1761838960255527700,11.053527587890626,-0.857086181640625,-0.096343994140625,0.1587982177734375
1761838960265597700,11.06359765625,-0.886260986328125,-0.1071319580078125,0.1915283203125
1761838960275667700,11.073667724609376,-0.888336181640625,-0.105010986328125,0.2194061279296875
1761838960285738800,11.08373876953125,-0.8889007568359375,-0.0991363525390625,0.2398834228515625
1761838960295808500,11.09380859375,-0.9082794189453125,-0.102630615234375,0.260101318359375
1761838960305878300,11.103878173828125,-0.8920135498046875,-0.0820465087890625,0.28265380859375
1761838960315948300,11.1139482421875,-0.9609375,-0.05975341796875,0.3122100830078125
1761838960326018000,11.12401806640625,-1.0302276611328125,-0.08209228515625,0.2987213134765625
1761838960336088000,11.134088134765625,-1.035919189453125,-0.108551025390625,0.266082763671875
1761838960346158300,11.144158447265625,-1.0487060546875,-0.104339599609375,0.239288330078125
1761838960356228000,11.15422802734375,-1.038330078125,-0.1000518798828125,0.210693359375
1761838960366298000,11.164298095703124,-1.03485107421875,-0.0944061279296875,0.1865234375
1761838960376368400,11.174368408203126,-1.051483154296875,-0.0975494384765625,0.1678619384765625
1761838960386438100,11.184438232421876,-1.0284881591796875,-0.076385498046875,0.1508941650390625
1761838960396508200,11.194508056640625,-1.004974365234375,-0.0377044677734375,0.139251708984375
