time,seconds_elapsed,z,y,x
1761309027046646800,0.095646728515625,-0.03880640825629234,-0.28229017044901844,0.038467166364565486
1761309027056574700,0.10557470703125,0.018920973569154738,-0.21365093398690221,0.01661541830683127
1761309027066502000,0.115501953125,0.09481997190117836,-0.000991933646798134,-0.01508243658589199
1761309027076429800,0.125429931640625,0.13479951559007167,0.12517594719827174,-0.03168700470514595
1761309027086357000,0.13535693359375,0.12504033811986445,0.10942191322743892,-0.0503241746305488
1761309027096285000,0.145284912109375,0.06939560778737068,-0.029213819524645804,-0.07493139540888369
1761309027106211800,0.1552119140625,-0.0007633855879306793,-0.1485363645195961,-0.10343765118606388
1761309027116139800,0.165139892578125,-0.01901098994016647,-0.13828443509638308,-0.11205067256214096
1761309027126067000,0.17506689453125,-0.0230617266356945,-0.009845102187991141,-0.132587465563789
1761309027135995000,0.184994873046875,-0.008338789278268813,0.10502806218266486,-0.14117095031812787
1761309027145922800,0.1949228515625,-0.018422376397252083,0.1234831718057394,-0.14981964579578488
1761309027155850000,0.20485009765625,-0.05420739100575447,0.02443769116401672,-0.1529059396396391
1761309027165778000,0.21477783203125,-0.08265665589869022,-0.06743044519424438,-0.15124986126199363
1761309027175704800,0.224704833984375,-0.08334230007529259,-0.08113514541983603,-0.14108023982737214
1761309027185633000,0.234633056640625,-0.04492693696320057,0.006997896063327789,-0.11597323456704615
1761309027195560000,0.244559814453125,-0.0014671499431133269,0.08737725467979908,-0.10261305519649758
1761309027205487900,0.25448779296875,-0.006380056425929069,0.07502338454127311,-0.08588778330702335
1761309027215414800,0.264414794921875,-0.00973579659461975,-0.004715922605991363,-0.059940637428127226
1761309027225343000,0.274343017578125,-0.03469254319667816,-0.07421148363649845,-0.038149789244774725
1761309027235270000,0.284269775390625,-0.02783668595254421,-0.09515899459719657,-0.018731371564476285
1761309027245197800,0.29419775390625,-0.0003214870393276214,-0.055361237215995784,0.0017068587168119847
1761309027255124700,0.304124755859375,0.02889993126988411,-0.007842530193924904,0.02897913398593664
1761309027265052700,0.314052734375,0.02581073308289051,-0.006255553263425827,0.03791826377753168
1761309027274980900,0.32398095703125,0.023387889850139617,-0.0527507624566555,0.05255156835643574
1761309027284907800,0.33390771484375,0.022948329389095305,-0.09492050966620445,0.04848428238490596
1761309027294835700,0.343835693359375,0.013508300870656966,-0.09575929857790469,0.0436022824970074
1761309027304763000,0.353762939453125,0.007982815447449684,-0.06325637437999249,0.03756906674737111
1761309027314690800,0.36369091796875,0.015451251631975173,-0.01023556281030178,0.024438440082687883
1761309027324618000,0.373617919921875,0.00022679449319839477,0.0035299276918172836,0.01150317159332335
1761309027334546000,0.3835458984375,-0.019929858350753782,-0.02730944720804691,-0.005676766994781791
1761309027344472800,0.393472900390625,-0.02351882275342941,-0.04374561822414398,-0.020953283114358782
1761309027354400800,0.40340087890625,-0.04537994142770767,-0.04012275155186653,-0.04530298546766862
1761309027364328000,0.413327880859375,-0.0278764334410429,-0.004350596424937248,-0.06021030294867232
1761309027374255900,0.423255859375,-0.026534371182322502,0.026014731222391126,-0.06717690882459282
1761309027384183800,0.433183837890625,-0.027006080347299573,0.023326515051722525,-0.08226657886886969
1761309027394111000,0.443111083984375,-0.01747252832651138,-0.0017886369824409484,-0.08535221512559801
1761309027404039000,0.453038818359375,-0.01987023711800575,-0.02499240243732929,-0.09687759855072944
1761309027413965800,0.4629658203125,-0.007442132699489593,-0.042969957676529884,-0.0985146799669601
1761309027423894000,0.47289404296875,0.01056757124364376,-0.02028992383480072,-0.08353754865275695
1761309027433821000,0.482821044921875,0.02004500916302204,0.006437924093008041,-0.08771419501658528
1761309027443748900,0.492748779296875,0.02864624876976013,-0.0012613982379436493,-0.06616287294384092
1761309027453676000,0.502676025390625,0.029248890838026998,-0.01905950525701046,-0.06028428150033578
1761309027463604000,0.51260400390625,0.00732289023399353,-0.02869067243337631,-0.052378202817216515
1761309027473531000,0.52253076171875,0.007238134559988975,-0.03382920436561108,-0.04144179826118052
1761309027483459000,0.532458984375,-0.0021849428236484524,-0.02155073755085468,-0.025477208545897155
1761309027493385700,0.5423857421875,-0.008479074531793593,-0.015697335347533224,-0.00932074952032417
1761309027503313700,0.552313720703125,-0.018993454283475875,-0.02343698968887329,0.008121474999468773
1761309027513241900,0.562241943359375,-0.02460778703391552,-0.03293897752761841,0.016451165372540707
1761309027523168800,0.572168701171875,-0.03537175763249397,-0.029662147814035415,0.010662848311662674
1761309027533096700,0.5820966796875,-0.027404724276065825,-0.031500469157099725,0.0047506468595005565
1761309027543023900,0.59202392578125,-0.03101999216377735,-0.026247370934486387,0.018553124354162717
1761309027552951800,0.601951904296875,-0.02149286988377571,-0.01977788265943527,0.011715992360096425
1761309027562878700,0.611878662109375,-0.017299509847164152,-0.02337912202179432,0.005719309228565544
1761309027572807000,0.621806884765625,-0.0007604629784822463,-0.0292968216329813,-0.009289697936578887
1761309027582732800,0.63173291015625,0.009084639209508895,-0.030908933004736898,-0.024907080507744102
1761309027592661000,0.641660888671875,-0.00014788403809070586,-0.02496317634284496,-0.03587324088122695
1761309027602588000,0.651587890625,0.00023848493099212645,-0.018752631264925,-0.03505489196935668
1761309027612515800,0.661515869140625,0.01478255859017372,-0.01592412984073162,-0.05062745015975088
1761309027622444000,0.671444091796875,0.0008674304842948913,-0.012620412120223044,-0.05951402778020128
1761309027632371000,0.681370849609375,0.015405074402689933,-0.017718027520179747,-0.06798396915746853
1761309027642299000,0.691298828125,-0.004176408901810646,-0.0009738134682178497,-0.06303465792071074
1761309027652226000,0.70122607421875,-0.01956044051647186,-0.0037011926054954527,-0.05964284179164096
1761309027662154000,0.711154052734375,-0.015291092634201049,-0.027584172496199606,-0.06312589813442901
1761309027672081000,0.721080810546875,-0.014090484672784804,-0.020268881046772002,-0.0521495999594219
1761309027682009000,0.731009033203125,-0.014870821395516395,-0.025787352207303046,-0.045232678444124756
1761309027691936000,0.74093603515625,-0.005969722059369087,-0.03545475974082946,-0.03312310192286968
1761309027701864000,0.750864013671875,0.007621580919623374,-0.02376549099087715,-0.03411037766085937
1761309027711791000,0.760791015625,-0.00003039513826370239,-0.027638533031940457,-0.02331931812595576
1761309027721719000,0.770718994140625,0.029234862312674522,-0.03010930705964565,-0.01772330648349598
1761309027731647000,0.78064697265625,0.02487082188427448,-0.024226094239950178,-0.01371951534387772
1761309027741574100,0.79057421875,0.013561492362618445,-0.02979951045811176,-0.015189989755238638
1761309027751502000,0.800502197265625,0.01039630632996559,-0.017028876212239266,-0.011345916938688605
1761309027761429000,0.810428955078125,-0.01054886654317379,-0.015211597657203674,-0.0076984466897614765
1761309027771357200,0.820357177734375,-0.017152794852852822,-0.015029811349511146,-0.005848196305241435
1761309027781284000,0.8302841796875,-0.031548984473943706,-0.027849545434117315,-0.008812032813206314
1761309027791212000,0.8402119140625,-0.03740180215537548,-0.03022562691569328,-0.012727709561242953
1761309027801139200,0.85013916015625,-0.037489480438828465,-0.015487491989135741,-0.018669228439434662
1761309027811067100,0.860067138671875,-0.030571663874387738,0.00421498734652996,-0.02555224654348567
1761309027820995000,0.8699951171875,-0.022912089031934736,-0.008252864560484886,-0.021274057767633348
1761309027830922000,0.879921875,-0.018221300867199898,-0.016555998003482817,-0.03137147248256952
1761309027840850200,0.88985009765625,-0.009421323817968367,-0.02746902168393135,-0.041019992652535434
1761309027850776800,0.89977685546875,-0.004250643181800842,-0.03264847014844417,-0.03770142442276701
1761309027860705000,0.909705078125,0.014050152662396431,-0.022216507983207703,-0.04030095766298473
1761309027870632000,0.9196318359375,0.01761865879893303,-0.018299042278528212,-0.044773025043122465
1761309027880559900,0.929559814453125,0.030424948880076408,-0.012085574591159819,-0.04634219232229515
1761309027890487000,0.939487060546875,0.029916999357938765,-0.017841946160793303,-0.04757023627990856
1761309027900415000,0.9494150390625,0.00917114844918251,-0.024156536135077476,-0.03973137761410325
1761309027910342000,0.959341796875,0.002274959194660187,-0.022176175972819328,-0.034936544553004205
1761309027920270000,0.96927001953125,-0.018572598522901534,-0.016583470532298087,-0.03297958353264257
1761309027930198000,0.979197998046875,-0.0213408941924572,-0.017254501661658286,-0.036262477660831065
1761309027940125000,0.989125,-0.04030044620633125,-0.0014426000237464905,-0.019760219138581305
1761309027950052900,0.999052978515625,-0.041560675400495524,-0.022193711629509925,-0.010821838265657423
1761309027959980000,1.00897998046875,-0.03318856837451458,-0.015924714362621308,-0.011153537313389824
1761309027969908000,1.018907958984375,-0.027708091136813162,-0.010961538997292518,-0.003798005185119109
1761309027979835100,1.028835205078125,-0.03888122705817222,-0.012091419810056686,-0.0003001337240450084
1761309027989763000,1.03876318359375,-0.01625730731785297,-0.014691373175382614,0.0033159378812648355
1761309027999690000,1.04868994140625,-0.010231471157073974,-0.029267011016607284,-0.004403586987499148
1761309028009618000,1.058617919921875,0.00886135184764862,-0.04523614904284477,-0.002453914224449545
1761309028019546000,1.068546142578125,0.009826397487521172,-0.02899403929412365,-0.008647618907067226
1761309028029473000,1.07847314453125,0.025024551141262053,-0.019496727630496025,-0.012196195358783007
1761309028039401000,1.08840087890625,0.027695816177129743,-0.02320259641110897,-0.0250548914805986
1761309028049328000,1.098328125,0.03194529031515121,-0.023982933133840558,-0.03029334012335166
1761309028059256000,1.108256103515625,0.014845102432370185,-0.029447628280520437,-0.03638583004586399
1761309028069183200,1.118183349609375,-0.010589198553562164,-0.02208966673314571,-0.04558804948674515
1761309028079111200,1.128111083984375,-0.019971943926811217,-0.009393851289153099,-0.047324956281948834
1761309028089037800,1.138037841796875,-0.03499240292608738,-0.014864391654729843,-0.0502883726648055
1761309028098966000,1.147966064453125,-0.040379941183328626,-0.009476853397488593,-0.05281493200035765
1761309028108894200,1.157894287109375,-0.04183013999164104,-0.011927753680944442,-0.04334788761083037
1761309028118820900,1.16782080078125,-0.030393969219923017,-0.015149053815007208,-0.05830614982778206
1761309028128748800,1.177748779296875,-0.01948328362703323,-0.010367080235481262,-0.05641317568803206
1761309028138676000,1.187676025390625,-0.022059856116771696,-0.011402268502116203,-0.049384939285367725
1761309028148604000,1.19760400390625,-0.010795534780621528,-0.011610942816734313,-0.03404091088753194
1761309028158531000,1.207531005859375,0.0004623568147420883,-0.02856558474898338,-0.037966961757466194
1761309028168459000,1.217458984375,0.007902735948562622,-0.04004325657486915,-0.03191860323762521
1761309028178386000,1.227385986328125,0.023947861820459364,-0.025101123508810996,-0.027586072192341087
1761309028188313900,1.23731396484375,0.021796821266412733,-0.03355331003367901,-0.018572799452301114
1761309028198242000,1.247241943359375,0.02934650599360466,-0.021923662516474724,-0.011106409094389527
1761309028208169000,1.2571689453125,0.023529928669333455,0.004872574472427368,-0.008126114641968161
1761309028218097000,1.267096923828125,0.01250643035173416,-0.01414952138364315,-0.006373955478705466
1761309028228024000,1.277024169921875,-0.014119126245379447,-0.018618191230297086,-0.011075704570516244
1761309028237952000,1.286951904296875,-0.03848492121696472,-0.018625205492973328,-0.006902874723635614
1761309028247879000,1.29687890625,-0.04100654864907265,-0.00876373669207096,0.0033439949319697916
1761309028257807000,1.30680712890625,-0.04960369660258293,-0.006458966881036758,-0.006022129241685615
1761309028267734000,1.316734130859375,-0.05500643242895603,-0.009603694647550582,0.0018494272589683531
1761309028277662000,1.326661865234375,-0.05560147571265697,-0.019804770666360855,-0.005490979223762405
1761309028287590100,1.336590087890625,-0.048119011002779,-0.017439795100688934,-0.013438541836384684
1761309028297517000,1.34651708984375,-0.02883329577445984,-0.022239304336905477,-0.017584665197785943
1761309028307445000,1.356445068359375,-0.00933364553451538,-0.014227847316861152,-0.019315854638256132
1761309028317372200,1.3663720703125,-0.00017769465446472167,-0.013068155887722968,-0.025833127577789126
1761309028327300000,1.376300048828125,0.014065934753417967,-0.014141922599077223,-0.03155391637738794
1761309028337227000,1.38622705078125,0.022010171756148337,-0.023427052816748617,-0.03224684881130233
1761309028347155200,1.3961552734375,0.019085808742046354,-0.032009587723016736,-0.034649635636713354
1761309028357083100,1.406083251953125,0.015856909823417663,-0.024127310040593146,-0.037611152323428536
1761309028367010000,1.416010009765625,-0.0009036708414554595,-0.015579261925816535,-0.03826457473086193
1761309028376938000,1.42593798828125,-0.009063596421480179,-0.009199790021777152,-0.049357521555479615
1761309028386865000,1.435864990234375,-0.019108020573854446,-0.01665828933417797,-0.035363428195565934
1761309028396792800,1.445792724609375,-0.022248656687140465,-0.01995265470445156,-0.03377789430348203
1761309028406720000,1.455719970703125,-0.03261632144451141,-0.02769815426468849,-0.028357001765910533
1761309028416648000,1.46564794921875,-0.03996142351031303,-0.016924246793985367,-0.027193839738052335
1761309028426574800,1.475574951171875,-0.0285123932570219,-0.011329203265905379,-0.029649781522806732
1761309028436503000,1.4855029296875,-0.017034136909246444,-0.017733809611201284,-0.01695051374640316
1761309028446431000,1.495430908203125,-0.015311550900340079,-0.018262801921367644,-0.022233221655990926
1761309028456358000,1.50535791015625,-0.00016015899777412413,-0.0084352353900671,-0.014276983688212931
1761309028466285800,1.515285888671875,-0.010080664509534836,-0.025008184528350828,-0.012734887079056352
1761309028476213000,1.525212890625,-0.013940847069025038,-0.03386602924466133,-0.022273864193633197
1761309028486141000,1.535140869140625,0.003641571372747421,-0.025103461596369742,-0.00349723099861294
1761309028496068000,1.545068115234375,0.009721768069267273,-0.010667524486780166,0.0027157434984110295
1761309028505996000,1.55499609375,0.005611994662880897,-0.0020528408765792846,-0.008077160933706909
1761309028515923000,1.5649228515625,-0.005858662900328636,-0.013761398848891257,-0.013381733615230769
1761309028525851100,1.57485107421875,-0.019122633621096608,-0.03160860570669174,-0.005858772498182952
1761309028535779000,1.584779052734375,-0.032360300856828686,-0.023299627044796944,-0.009731997202336787
1761309028545706000,1.5947060546875,-0.03677577921152115,-0.028756723406910895,-0.016245836075767874
1761309028555634000,1.604634033203125,-0.03170037564337253,-0.010345452925562859,-0.019571619497612117
1761309028565561000,1.61456103515625,-0.02444704351425171,-0.0019014497071504592,-0.021331139983423054
1761309028575489000,1.624489013671875,-0.023389058893918988,-0.015838789644837377,-0.027764534031786022
1761309028585416200,1.634416259765625,-0.016140987461805343,-0.014417816931009292,-0.03287495411438867
1761309028595344400,1.644344482421875,-0.015267711758613585,-0.02891512883901596,-0.030800942585617302
1761309028605272300,1.654272216796875,-0.007490648016333579,-0.017993921852111815,-0.03142849989943206
1761309028615199200,1.66419921875,-0.002713350611925125,-0.007359130591154098,-0.028378409880120307
1761309028625127400,1.67412744140625,-0.003595394143462181,-0.011857026532292366,-0.03628677185187116
1761309028635054300,1.684054443359375,0.0003197334736585617,-0.009031447717547415,-0.03365461498368531
1761309028644982300,1.693982177734375,0.0004395604610443115,-0.02007072812616825,-0.02125164500642568
1761309028654909400,1.703909423828125,-0.006933598655462264,-0.027351532784104345,-0.03196907304953783
1761309028664837400,1.71383740234375,-0.01437690039873123,-0.03232113789021969,-0.02224343252275139
1761309028674764000,1.723763916015625,-0.014227262794971465,-0.024234862068295476,-0.014070081205572932
1761309028684692200,1.733692138671875,-0.025143793606758117,-0.013012626308202742,-0.015687818600516764
1761309028694620400,1.743620361328125,-0.013660861083865165,-0.02015782188773155,-0.01043937828671187
1761309028704547000,1.753547119140625,-0.02302840888798237,-0.016779285365343094,-0.003685794106964022
1761309028714475300,1.763475341796875,-0.019892448949813842,-0.017071546310186383,-0.002865563765261322
1761309028724402200,1.773402099609375,-0.009485621225833893,-0.0213408941924572,-0.010063932570442557
1761309028734330000,1.783330078125,-0.024379238975048064,-0.015876783567667006,-0.012283398718200623
1761309028744257300,1.79325732421875,-0.012490063738822936,-0.014750994408130646,-0.006506075692083686
1761309028754185200,1.803185302734375,-0.015621347501873968,-0.01969955672621727,-0.011702018633671105
1761309028764112100,1.813112060546875,-0.022431027516722678,-0.010941080731153487,-0.020244111931696535
1761309028774040300,1.823040283203125,-0.020184125372767446,-0.0184258835285902,-0.017349596066586672
1761309028783968300,1.83296826171875,-0.019124971708655358,-0.010512041664123534,-0.018058657651394604
1761309028793895200,1.842895263671875,-0.03200081989467144,-0.016933014622330666,-0.014283449961617588
1761309028803823400,1.8528232421875,-0.025737083324789998,-0.0073369187593460075,-0.02804548813132569
1761309028813750300,1.862750244140625,-0.023562077373266217,-0.011309914043545722,-0.02439352322872728
1761309028823678200,1.87267822265625,-0.020192893201112744,-0.01932078654170036,-0.026987320847902445
1761309028833605400,1.88260546875,-0.01417524034678936,-0.015466449201107024,-0.02157906859619543
1761309028843533300,1.892533203125,-0.013476152166724204,-0.017963526713848113,-0.026384203855600207
1761309028853461200,1.902461181640625,-0.016648352462053297,-0.013595394632220268,-0.027344664651900528
1761309028863388400,1.912388427734375,-0.01745265458226204,-0.02371054593324661,-0.02781076605999842
1761309028873316400,1.92231640625,-0.0009784896433353424,-0.02192249347269535,-0.02587722244784236
1761309028883243300,1.9322431640625,-0.011267828467488288,-0.02240004785656929,-0.016603234678693114
1761309028893171200,1.942171142578125,-0.014161796343326568,-0.021142741271853446,-0.022882260149251668
1761309028903098400,1.952098388671875,-0.02055003607571125,-0.021779285609722136,-0.013516612041275947
1761309028913026300,1.9620263671875,-0.014717092138528823,-0.005609656575322151,-0.013868567284103482
1761309028922953500,1.971953369140625,-0.02708557532429695,-0.012393033105134963,-0.01455114272078499
1761309028932881400,1.98188134765625,-0.019285715228319168,-0.033959552747011186,-0.01008082890631631
1761309028942809300,1.991809326171875,-0.021463059267401694,-0.02145370691716671,-0.01643366853175685
1761309028952736300,2.001736328125,-0.01701250959932804,-0.015137363377213477,-0.01221687282063067
1761309028962664400,2.01166455078125,-0.022435119169950484,-0.023040683847665784,-0.01363585450677201
1761309028972591000,2.021591064453125,-0.024334815311431883,-0.015308628290891647,-0.010518453138601034
1761309028982519000,2.03151904296875,-0.018650924456119537,-0.022944237735867498,-0.007775785100646316
1761309028992446200,2.0414462890625,-0.027209493964910507,-0.014985387685894965,-0.02545828464971855
1761309029002374100,2.0513740234375,-0.005866261684894561,-0.011484686088562011,-0.01590379943875596
1761309029012302000,2.061302001953125,-0.015258359408378601,-0.023489012137055395,-0.014946772708557545
1761309029022229200,2.071229248046875,-0.007778232786059379,-0.02093815861046314,-0.02081204801276326
1761309029032157200,2.0811572265625,-0.0007879355072975159,-0.01923895347714424,-0.026384824910107997
1761309029042084000,2.091083984375,-0.009119126001000405,-0.012247487154603004,-0.009215407716017216
1761309029052012300,2.10101220703125,-0.013991700473427772,-0.008114332872629165,-0.014757771208789199
1761309029061939200,2.110939208984375,-0.024047230541706082,-0.013018471527099609,-0.02406920491149649
1761309029071867100,2.1208671875,-0.025277649119496343,-0.021360183414816856,-0.02756225292533636
1761309029081794300,2.130794189453125,-0.02565174312889576,-0.01156184297800064,-0.023938746932242065
1761309029091722200,2.14072216796875,-0.03363514309823513,-0.008673720321059227,-0.02318626633081585
1761309029101650200,2.150650146484375,-0.01983399676084518,-0.01589490374624729,-0.02816944330455735
1761309029111577300,2.160577392578125,-0.02527121937870979,-0.029619477716088295,-0.021591818479914218
1761309029121505300,2.17050537109375,-0.011138064607977867,-0.029247137272357938,-0.02664663591776043
1761309029131432200,2.18043212890625,-0.02327273903787136,-0.018166355809569358,-0.01571750135272741
1761309029141360400,2.1903603515625,-0.02281915005147457,-0.021611527827382085,-0.013341931327804922
1761309029151287300,2.200287353515625,-0.0034603695869445798,-0.021066753426194188,-0.01966890585962683
1761309029161215200,2.21021533203125,-0.01184767418205738,-0.02478898881971836,-0.010507968277204781
1761309029171142400,2.220142333984375,-0.0027080899149179456,-0.01805471212863922,-0.014501494892779737
1761309029181070300,2.2300703125,0.002273205628991127,-0.011051555368304253,-0.01692771739270538
1761309029190998300,2.239998291015625,-0.0021294132441282273,-0.012319383347034453,-0.020136048447340727
1761309029200925400,2.249925537109375,-0.016089549535512924,-0.007776479220390319,-0.01433908913899213
1761309029210853400,2.259853271484375,-0.023564415460824967,-0.004784311667084693,-0.009546119241416453
1761309029220780300,2.2697802734375,-0.03429682187736034,-0.015448913544416427,-0.013848894469253718
1761309029230708500,2.27970849609375,-0.032799861317873,-0.007225859600305556,-0.013771755846124141
1761309029240635100,2.28963525390625,-0.04113748155236244,-0.013855506873130797,-0.008379413549602031
1761309029250563000,2.29956298828125,-0.04382862033247947,-0.012678279787302016,-0.011616806301940232
1761309029260490200,2.309490234375,-0.026716742011904715,-0.011101824250817299,-0.007855188746098429
1761309029270418200,2.319418212890625,-0.02551438048481941,-0.013218962535262106,-0.012525281182676554
1761309029280346000,2.32934619140625,-0.0072498249977827065,-0.032249241697788235,-0.014586944686528295
1761309029290273300,2.339273193359375,-0.00852934341430664,-0.02140226899087429,-0.006795340962242335
1761309029300201200,2.349201171875,-0.0023918635725975034,-0.02020750624835491,-0.009516509554442018
1761309029310128000,2.359128173828125,0.010946341428160667,-0.021418051081895827,-0.014650858501903712
1761309029320056300,2.369056396484375,0.006418050348758697,-0.02390752981007099,-0.015478486698772758
1761309029329983200,2.378983154296875,0.010455343040823935,-0.022533903369307516,-0.01921376423696056
1761309029339911200,2.3889111328125,-0.00732289023399353,-0.019551088166236876,-0.029510610514134165
1761309029349839000,2.398839111328125,-0.019696634116768835,-0.016734861701726913,-0.025509302450902757
1761309029359766300,2.408766357421875,-0.026579963889718054,-0.019267010527849196,-0.021020466599054634
1761309029369694200,2.418694091796875,-0.03768646431565285,-0.018475567889213562,-0.023514621502347288
1761309029379621400,2.428621337890625,-0.03222819890975952,-0.01959142017662525,-0.01972967786984518
1761309029389549300,2.43854931640625,-0.04062602489888668,-0.007907412123680114,-0.022040475562866774
1761309029399476200,2.448476318359375,-0.041161446949839586,-0.007829670712351798,-0.010851941142976284
1761309029409404200,2.458404052734375,-0.033199674290418625,-0.012809797212481497,-0.0160131232984364
1761309029419331300,2.468331298828125,-0.0351005394756794,-0.010769231295585631,-0.011662910465989261
1761309029429259300,2.47825927734375,-0.012145780345797538,-0.022510522493720053,-0.010841949471924453
1761309029439187200,2.488187255859375,-0.008224807509779929,-0.019857962158322334,-0.016805040861107408
1761309029449114400,2.4981142578125,-0.0004898293435573578,-0.018466215538978575,-0.011672299348842351
1761309029459042300,2.508042236328125,0.0016530279040336607,-0.01926116530895233,-0.010722834870591759
1761309029468969500,2.517969482421875,-0.0037467853128910064,-0.019985387930274007,-0.013681830806657672
1761309029478897400,2.5278974609375,0.004573299264907836,-0.024998247656226158,-0.0019236432726494968
1761309029488824300,2.53782421875,-0.01856441521644592,-0.021897359031438825,-0.011867913252487778
1761309029498752300,2.547752197265625,-0.026482933256030083,-0.010973813956975937,-0.014362196019943803
1761309029508679200,2.55767919921875,-0.021148001968860623,-0.01765256106853485,-0.011788929732143879
1761309029518607000,2.567607177734375,-0.02200432653725147,-0.009606032735109328,-0.016525146207492798
1761309029528535300,2.577535400390625,-0.036000703185796734,-0.01491115340590477,-0.011082133169658481
1761309029538462200,2.587462158203125,-0.024968437039852142,-0.008880056548118591,-0.003986658483371138
1761309029548390100,2.59739013671875,-0.02954816604554653,-0.012234627673029899,-0.016167455343622714
1761309029558317300,2.6073173828125,-0.0305342544734478,-0.012460837644338607,-0.018861023542843757
1761309029568245200,2.617245361328125,-0.02323474511504173,-0.01303366909623146,-0.018930417250934986
1761309029578172200,2.627172119140625,-0.02277823351919651,-0.01499298647046089,-0.02257748678270727
1761309029588099800,2.637099853515625,-0.015626608198881148,-0.018859598770737646,-0.024896486048493534
1761309029598027000,2.647027099609375,-0.009289806392788886,-0.019214403557777402,-0.015633805124647914
1761309029607955000,2.656954833984375,0.00001987374424934387,-0.01879588588476181,-0.014795144077111034
1761309029617883000,2.6668828125,-0.0005985504150390625,-0.018322423154115676,-0.01630204150872305
1761309029627810000,2.67681005859375,0.0066261401414871215,-0.029879005435109136,-0.017885858367756007
1761309029637738000,2.686738037109375,0.0007768295913934707,-0.023270400950312613,-0.0177339192090556
1761309029647665000,2.696664794921875,-0.013113164073228835,-0.02343348255753517,-0.014329736788757144
1761309029657593000,2.706593017578125,-0.009940379256010054,-0.014622399592399596,-0.011846943529695272
1761309029667520000,2.71652001953125,-0.013099720069766044,-0.02491933720111847,-0.011760543887875974
1761309029677448000,2.726447998046875,-0.03198562232553959,-0.021291794353723525,-0.009999763026740402
1761309029687375000,2.736375,-0.03374912486672401,-0.018779519271850585,-0.018542824439145622
1761309029697303000,2.746302978515625,-0.031043373039364813,-0.006676409024000168,-0.009687920598592609
1761309029707230200,2.756230224609375,-0.030150808113813397,-0.0027928455889225006,-0.006747300569433718
1761309029717158100,2.766158203125,-0.020391046121716497,-0.021995558708906172,-0.01178697523707524
1761309029727086000,2.776086181640625,-0.023753800553083418,-0.02642857272028923,-0.019657489416468887
1761309029737013000,2.786012939453125,-0.0136550158649683,-0.02740881592929363,-0.016411840292438865
1761309029746941200,2.795941162109375,0.0035632454395294185,-0.028321839120984075,-0.01787352860914543
1761309029756867800,2.805867919921875,0.006899111863970756,-0.015938742887973784,-0.016216829176992176
1761309029766796000,2.815796142578125,0.0072749594390392296,-0.01810088935792446,-0.015165347362682222
1761309029776723000,2.825722900390625,-0.00044482115805149076,-0.016658873856067655,-0.011471333416644483
1761309029786651000,2.83565087890625,0.00275017549097538,-0.025969138514995573,-0.010689955514296889
1761309029796578000,2.845578125,-0.007535656201839446,-0.028240006056427954,-0.02103394713513553
1761309029806506000,2.855506103515625,-0.005837035590410232,-0.014511924955248832,-0.022056111523415894
1761309029816434000,2.865433837890625,-0.035299276918172834,-0.013025485789775847,-0.00867090730946511
1761309029826360800,2.87536083984375,-0.027680034086108207,-0.0007435118436813354,-0.018431783546414227
1761309029836289000,2.8852890625,-0.04187047200202942,-0.003610591712594032,-0.02015188533728942
1761309029846216000,2.8952158203125,-0.043514147555828095,-0.014692542219161987,-0.01691454738387838
1761309029856144000,2.905143798828125,-0.03967208517491817,-0.02901566660404205,-0.017020309313293545
1761309029866071000,2.915071044921875,-0.031949966490268704,-0.008321253621578217,-0.01064405227964744
1761309029875999000,2.9249990234375,-0.024175825357437133,-0.005488660544157028,-0.010447123201750218
1761309029885926000,2.93492578125,-0.020766309174895286,-0.010257190120220184,-0.0105394776603207
1761309029895854000,2.94485400390625,-0.018973580539226532,-0.018944938966631887,-0.010804741000384092
1761309029905782000,2.954781982421875,-0.0030330840855836865,-0.0303992299169302,-0.013034838140010833
1761309029915709000,2.964708984375,-0.005744096609950065,-0.028736265140771863,-0.007452342995427898
1761309029925637000,2.97463720703125,-0.0013087445110082625,-0.022987492355704305,-0.007501443404983729
1761309029935564000,2.98456396484375,0.007135258707404136,-0.025737083324789998,-0.004804787628710619
1761309029945492000,2.994491943359375,0.006121697750687599,-0.02456102528274059,-0.006992690165247768
1761309029955419100,3.004419189453125,-0.00890928264260292,-0.019541151294112203,-0.010826569239702075
1761309029965347000,3.01434716796875,-0.01512508841753006,-0.030070728614926337,-0.016141663315240293
1761309029975274000,3.02427392578125,-0.029670331120491025,-0.03107844435274601,-0.009278572612721473
1761309029985202200,3.0342021484375,-0.02641805132627487,-0.01666881072819233,-0.017532350488658994
1761309029995129000,3.044129150390625,-0.008719897550344467,-0.00907704042494297,-0.01724162391377613
1761309030005057000,3.05405712890625,-0.02626023041605949,-0.010542436802387237,-0.016574629638716577
1761309030014985000,3.06398486328125,-0.029144845941662785,-0.016343816557526588,-0.015101725808251648
1761309030024912100,3.073912109375,-0.0332137028157711,-0.01932078654170036,-0.011621555542293936
1761309030034840000,3.083840087890625,-0.02517769587635994,-0.018834464329481125,-0.0239089545821771
1761309030044767000,3.09376708984375,-0.015251929667592048,-0.020090601870417595,-0.015743530843127518
1761309030054695000,3.10369482421875,-0.020735329514741895,-0.013719313272833824,-0.017410843000840396
1761309030064621800,3.113621826171875,-0.02223521268367767,-0.024196283623576162,-0.018236900295130906
1761309030074550000,3.123550048828125,0.0007113631397485733,-0.01781681171953678,-0.015082144324947148
1761309030084477000,3.133476806640625,-0.007894552642107009,-0.027613398590683937,-0.01122685713628307
1761309030094404900,3.14340478515625,-0.0038841479569673536,-0.022791093000769615,-0.011809663134563015
1761309030104332800,3.153332763671875,-0.007927870389819144,-0.010654665005207061,-0.011200297922920434
1761309030114260000,3.163260009765625,-0.008434650868177414,-0.01911737292408943,-0.007810070962738246
1761309030124188000,3.17318798828125,-0.012833762609958648,-0.016355506995320318,-0.01398724349401891
1761309030134115000,3.183114990234375,-0.021807342660427092,-0.01889817721545696,-0.01286090634521097
1761309030144043000,3.19304296875,-0.013968319597840308,-0.022688801670074463,-0.008613441501185298
1761309030153970000,3.202969970703125,-0.03144435505568981,-0.019128478839993475,-0.01243263446316123
1761309030163898000,3.212898193359375,-0.031188334468007086,-0.008313070315122604,-0.014039156344346701
1761309030173825000,3.222824951171875,-0.029002807122468947,-0.008561492118239403,-0.01948153006136417
1761309030183753000,3.2327529296875,-0.024552257454395293,-0.013462708163261413,-0.01181176261845976
1761309030193680100,3.24268017578125,-0.017210662519931794,-0.02485562431514263,-0.011906254235189408
1761309030203608000,3.252608154296875,-0.02380114682614803,-0.021420389169454573,-0.01172987475497648
1761309030213536000,3.262535888671875,-0.00584931055009365,-0.01633329516351223,-0.017735216116998343
1761309030223463200,3.272463134765625,-0.0019084639698266981,-0.016238018095493315,-0.008092321970220655
1761309030233391000,3.28239111328125,-0.009607201778888701,-0.020656419059634206,-0.011526041012257337
1761309030243318000,3.292318115234375,-0.0013853168785572052,-0.02228898869752884,-0.013531535615772009
1761309030253246000,3.302245849609375,-0.00722527507841587,-0.016288286978006362,-0.01173480665842071
1761309030263173000,3.312173095703125,-0.01390811384320259,-0.028751462709903714,-0.012947653046902268
1761309030273101000,3.32210107421875,-0.015377017351984977,-0.0163519998639822,-0.008830371616673074
1761309030283028000,3.332028076171875,-0.017331658551096914,-0.005557634127140045,-0.01664601437449455
1761309030292956200,3.3419560546875,-0.007073299387097358,-0.01581248615980148,-0.01929322268133983
1761309030302882800,3.3518828125,-0.0214104522973299,-0.013145312777161598,-0.009087981373243383
1761309030312811000,3.36181103515625,-0.025339023917913435,-0.024925182420015332,-0.008668459624052048
1761309030322739000,3.371739013671875,-0.03763502638936043,-0.025049101060628888,-0.009432064407691359
1761309030332665900,3.381665771484375,-0.020415596041083336,-0.011592822638154029,-0.004917107733897865
1761309030342593800,3.39159375,-0.02242225968837738,-0.017369067952036858,0.007773063420597463
1761309030352521000,3.40152099609375,-0.019806524232029915,-0.016098317363858222,-0.0023086240022443232
1761309030362449000,3.411448974609375,-0.019060089778900145,-0.022387188374996186,0.0057477864043787115
1761309030372376000,3.4213759765625,-0.017758944052457808,-0.016064999616146085,-0.0060326129614375525
1761309030382304000,3.431303955078125,-0.010654080483317374,-0.02062836200892925,-0.011531520904973148
1761309030392231000,3.44123095703125,-0.01146247425675392,-0.014137246423959731,-0.008910725681018083
1761309030402158800,3.451158935546875,-0.01277004972398281,-0.025996026521921158,-0.009432301869709045
1761309030412086000,3.4610859375,-0.011593991681933402,-0.019236615389585494,-0.016550463311839847
1761309030422014000,3.471013916015625,-0.013820435559749603,-0.021343232280015945,-0.012198332516942172
1761309030431942000,3.48094189453125,-0.0020598551392555235,-0.027857144218683242,-0.013058456477615981
1761309030441869000,3.490869140625,-0.0014893617749214172,-0.026777532288432118,-0.017782215330190955
1761309030451797000,3.500796875,-0.008379121288657188,-0.011651859349012373,-0.02324621635712683
1761309030461724200,3.51072412109375,-0.010008768317103385,-0.018396072912216184,-0.021960231667198238
1761309030471652000,3.520652099609375,-0.017833178332448005,-0.017001988205313682,-0.020858791497629134
1761309030481579000,3.5305791015625,-0.020581015735864638,-0.013950783941149712,-0.015462120085861532
1761309030491507000,3.5405068359375,-0.032255086916685105,-0.015894319224357602,-0.009199461228214204
1761309030501434000,3.55043408203125,-0.026836568999290464,-0.020268881046772002,-0.01573216805725242
1761309030511362000,3.560362060546875,-0.03203647572994232,-0.015223872616887091,-0.010818148471228778
1761309030521289200,3.570289306640625,-0.01347849025428295,-0.006104162093997001,-0.010791717122029513
1761309030531217200,3.580217041015625,-0.010232640200853347,-0.004113865059614181,-0.004392973120295209
1761309030541145000,3.59014501953125,-0.02543547002971172,-0.01914133832156658,-0.020894575197063385
1761309030551072000,3.600072021484375,-0.020987842971086502,-0.019400281518697736,-0.021648060445487498
1761309030561000200,3.610000244140625,-0.011101239728927612,-0.022254501906037328,-0.012697550743352621
1761309030570926800,3.6199267578125,-0.02135959889292717,-0.01393909350335598,-0.008126096375659107
1761309030580854800,3.629854736328125,-0.012803951993584632,-0.02698269947171211,-0.01053860087748617
1761309030590781400,3.639781494140625,-0.012507014873623847,-0.025633622950315474,-0.006060322952270507
1761309030600709400,3.64970947265625,-0.009193944802880287,-0.022960019826889038,-0.012115091804944677
1761309030610636500,3.659636474609375,-0.010280570995807647,-0.015136194333434104,-0.013688734329835278
1761309030620564500,3.669564453125,-0.006781622964143753,-0.01878185735940933,-0.010862077802856219
1761309030630491400,3.679491455078125,-0.01544657545685768,-0.015803133809566498,-0.007098141567409038
1761309030640419600,3.689419677734375,-0.018892916518449782,-0.018491934502124784,-0.014071579042915254
1761309030650347500,3.699347412109375,-0.015720716223120688,-0.014486205992102623,-0.006489507008128567
1761309030660274200,3.709274169921875,-0.029085224708914757,-0.018487842848896978,-0.006564983397134346
1761309030670202400,3.719202392578125,-0.027281974679231644,-0.017304770544171334,-0.0099450736974366
1761309030680129300,3.72912939453125,-0.02687690100967884,-0.01711830806136131,-0.016713288049091352
1761309030690057200,3.73905712890625,-0.028366262784600256,-0.014887772530317306,-0.00652857978483662
1761309030699984400,3.748984375,-0.01783259381055832,-0.012854805397987366,-0.012371442327834666
1761309030709912300,3.758912353515625,-0.014347674304246901,-0.015900748965144155,-0.012541538197733461
1761309030719839200,3.768839111328125,-0.01248597208559513,-0.016868132692575453,-0.0051384234760247635
1761309030729767400,3.778767333984375,-0.009585574468970298,-0.037872926798462866,-0.010635503647010772
1761309030739694300,3.7886943359375,-0.01007306572496891,-0.027804537248611448,-0.01851336088264361
1761309030749622300,3.798622314453125,-0.011583470287919043,-0.018207856863737104,-0.014979049276653677
1761309030759550200,3.80855029296875,0.002207154655456543,-0.012389525973796844,-0.012875062734726815
1761309030769477400,3.818477294921875,-0.012689970225095748,-0.013351064482331275,-0.015649897742923347
1761309030779405300,3.8284052734375,-0.026982114949822424,-0.018353987336158752,-0.010652929705847055
1761309030789332500,3.83833251953125,-0.02187280911207199,-0.018369184905290603,-0.012004070320166647
1761309030799260400,3.848260498046875,-0.030391046610474585,-0.022563129463791846,-0.0024606716171547303
1761309030809187300,3.858187255859375,-0.027426936107873914,-0.017298925325274467,-0.006830284411460161
1761309030819115500,3.868115478515625,-0.037004327270388604,-0.006824293062090874,-0.0015376396297477185
1761309030829042400,3.87804248046875,-0.022981062614917752,-0.009026771542429923,0.0023888873058662283
1761309030838970400,3.887970458984375,-0.025046762973070142,-0.011759995898604393,-0.009425817329995334
1761309030848897500,3.8978974609375,-0.027959435549378395,-0.01648176372349262,-0.007995985456276684
1761309030858825500,3.907825439453125,-0.03321837899088859,-0.025888474494218824,-0.004856664517242461
1761309030868752400,3.91775244140625,-0.02093874313235283,-0.006301730492711067,-0.007843827101867646
1761309030878680600,3.9276806640625,-0.024564532414078712,-0.006717325556278228,-0.010776537819206714
1761309030888608500,3.9376083984375,-0.014617723417282104,-0.004696633383631706,-0.011290606554877012
1761309030898535400,3.947535400390625,-0.011842998006939887,-0.01973871969282627,-0.007332991502899676
1761309030908463400,3.95746337890625,-0.02695581146478653,-0.020637714359164238,-0.006106591513101011
1761309030918390300,3.967390380859375,-0.020247838258743284,-0.02091243964731693,-0.013821001815330237
1761309030928318200,3.977318115234375,-0.014154197558760642,-0.01234393326640129,-0.01484628974245861
1761309030938245400,3.987245361328125,-0.01568622943162918,-0.020384616380929945,-0.01082680670171976
1761309030948173300,3.99717333984375,-0.019107436051964757,-0.013217208969593048,-0.009503193415142596
1761309030958100200,4.007100341796875,-0.009902385333180427,-0.02346621578335762,-0.006477725238789571
1761309030968028400,4.0170283203125,-0.016622633498907087,-0.023778934994339942,-0.009971249318309127
1761309030977955300,4.026955322265625,-0.025378771406412124,-0.021154431709647176,-0.01719466123320162
1761309030987883300,4.03688330078125,-0.016086042404174803,-0.019373393511772155,-0.006450984503980726
1761309030997810400,4.046810546875,-0.017824410504102706,-0.011648352217674254,-0.012485077036451547
1761309031007738400,4.05673828125,-0.023245851030945775,-0.013110241463780403,-0.0012275130930065642
1761309031017666300,4.066666259765625,-0.02153729354739189,-0.025740005934238433,-0.012686791887320577
1761309031027593500,4.076593505859375,-0.019353519767522812,-0.014602525848150253,-0.010199158056359738
1761309031037521400,4.086521484375,-0.00926701003909111,-0.018108488142490387,-0.000895451002381742
1761309031047448300,4.0964482421875,-0.010444821646809578,-0.01737842030227184,-0.004939739690814167
1761309031057376500,4.10637646484375,-0.011926000115275382,-0.012006079614162444,0.007529007265344262
1761309031067303400,4.116303466796875,-0.011053308933973311,-0.02380290039181709,-0.001337696610856801
1761309031077231400,4.1262314453125,-0.016031097346544263,-0.016426818665862084,0.002851991897635162
1761309031087158500,4.136158447265625,-0.017271452796459197,-0.022066285857558248,-0.0005055749019607901
1761309031097086500,4.14608642578125,-0.026302900514006612,-0.02200958723425865,-0.005275201598211424
1761309031107013400,4.156013427734375,-0.029865561431646346,-0.014555764096975326,-0.006698311470198677
1761309031116941600,4.165941650390625,-0.01666355003118515,-0.011595745247602462,-0.0025337197287008165
1761309031126869500,4.175869384765625,-0.01810264292359352,-0.011502221745252608,0.0029696451942436393
1761309031136796400,4.18579638671875,-0.01733575020432472,-0.02080313405394554,-0.008395486759924096
1761309031146724400,4.195724365234375,-0.011295300996303558,-0.023556232154369354,-0.0019170674013905225
1761309031156651500,4.205651611328125,-0.014452888244390488,-0.01635901412665844,-0.010662501251790671
1761309031166579500,4.215579345703125,-0.009988310050964355,-0.008254618126153945,-0.012784480108134448
1761309031176506400,4.22550634765625,-0.0031850597769021985,-0.013565584015846252,-0.020494250767864285
1761309031186434300,4.235434326171875,-0.0104699560880661,-0.015406243446469306,-0.013079499265644699
1761309031196361200,4.245361328125,-0.017068039178848266,-0.020175942066311837,-0.008946363249979912
1761309031206289400,4.255289306640625,-0.02645955238044262,-0.019611293920874594,-0.018789510942902415
1761309031216216300,4.26521630859375,-0.01903203272819519,-0.012070961543917656,-0.015064590401947497
1761309031226144300,4.275144287109375,-0.028888240832090375,-0.004607786056399345,-0.003016169483400881
1761309031236071400,4.285071533203125,-0.03127016753256321,-0.011502221745252608,-0.002067233586468501
1761309031245999400,4.294999267578125,-0.015611995151638984,-0.01758592557311058,-0.0037039873507805168
1761309031255926300,4.30492626953125,-0.016094225710630416,-0.011572948893904686,-0.001186725566536188
1761309031265854500,4.3148544921875,-0.0211316353559494,-0.006688683983683586,-0.005940532497502863
1761309031275782400,4.324782470703125,-0.024686112967133522,-0.013313655081391334,0.00024645018338342195
1761309031285709300,4.334709228515625,-0.006965747359395026,-0.014576806885004043,0.0009096267998509575
1761309031295637200,4.34463720703125,-0.002554360657930374,-0.014796002593636512,-0.005439779901131987
1761309031305564400,4.354564453125,-0.01374912388920784,-0.0308346987247467,-0.007434259920287877
1761309031315492400,4.364492431640625,-0.013241758888959884,-0.0262467864125967,0.004089479537028819
1761309031325419500,4.37441943359375,-0.013898761492967605,-0.01675765805542469,-0.0028520101639442144
1761309031335347500,4.384347412109375,-0.014966098463535308,-0.017331658551096914,-0.004603475207462906
1761309031345274400,4.3942744140625,-0.021880407896637914,-0.016841244685649872,-0.002375276622333331
1761309031355202600,4.40420263671875,-0.017893384087085722,-0.015438392150402068,-0.012654168259352444
1761309031365129500,4.41412939453125,-0.019885434687137604,-0.01718377451300621,-0.009240103765856473
1761309031375057400,4.424057373046875,-0.029980712243914603,-0.019355857855081558,-0.010071237952419322
1761309031384984600,4.433984619140625,-0.0309872589379549,-0.00039747488498687744,-0.014228887354832841
1761309031394912500,4.44391259765625,-0.02377542786300182,-0.012252163329720496,-0.006474017178051872
1761309031404840400,4.45384033203125,-0.015279986718297004,-0.021952304089069365,-0.006727425683540059
1761309031414767400,4.463767333984375,-0.02745557768046856,-0.01516600494980812,-0.007018828111857874
1761309031424695600,4.473695556640625,-0.019164134675264358,-0.010443068081140518,-0.01745172300050035
1761309031434622200,4.483622314453125,0.00025251345634460447,-0.01773965483009815,-0.014684030119143425
1761309031444550400,4.49355029296875,-0.013971826729178427,-0.017432196316123007,-0.00910991978123784
1761309031454477300,4.503477294921875,-0.006504559588432312,-0.012772387811541556,-0.004468760036554885
1761309031464405200,4.5134052734375,-0.0033726913034915922,-0.017694646644592284,-0.015460823177918791
1761309031474332400,4.52333251953125,-0.015856909823417663,-0.020619009658694266,-0.01173648715885356
1761309031484260400,4.53326025390625,-0.014684943434596061,-0.025377017840743064,-0.006573605095007224
1761309031494187300,4.543187255859375,-0.01729132654070854,-0.024257658421993254,-0.004512617444590432
1761309031504115500,4.553115478515625,-0.021940613651275632,-0.016909633746743202,-0.0036003431715711486
1761309031514042400,4.56304248046875,-0.0266390006005764,-0.010113397735357283,-0.009088365536555648
1761309031523970300,4.57297021484375,-0.035166005927324294,-0.009067688074707984,-0.009265914060547947
1761309031533897500,4.5828974609375,-0.03388590298891067,-0.009457564175128936,-0.0077372237805917385
1761309031543825400,4.592825439453125,-0.026896774753928182,-0.016154431465268133,-0.00687088927484001
1761309031553753300,4.60275341796875,-0.028066987577080725,-0.026067922714352605,-0.009334265447378856
1761309031563680500,4.612680419921875,-0.02639583949446678,-0.03388531846702099,-0.003244133020378649
1761309031573608400,4.6226083984375,-0.03067103259563446,-0.02483691961467266,-0.002765135598089546
1761309031583537000,4.632536865234375,-0.009808861830830573,-0.019217326167225837,-0.004102194029773818
1761309031593464800,4.64246484375,-0.0012269114464521407,-0.02270925993621349,-0.01114248505476862
1761309031603391700,4.652391845703125,-0.005407996523380279,-0.023753216031193732,-0.008858538836054503
1761309031613319700,4.662319580078125,0.0033130700707435607,-0.029767946276068685,-0.01244370384644717
1761309031623246600,4.67224658203125,-0.0013765490502119064,-0.021171967366337776,-0.008740701734711183
1761309031633174800,4.6821748046875,0.004247136050462723,-0.01870119333863258,-0.009036014294810593
1761309031643101700,4.692101806640625,-0.010485153657197951,-0.023706454280018805,-0.00558717074887827
1761309031653029600,4.702029541015625,-0.02289279980957508,-0.004852116206288337,-0.009119764180172933
1761309031662956800,4.711956787109375,-0.020042086553573608,-0.007846621847152709,-0.004268781626690179
1761309031672884700,4.721884765625,-0.025332594177126883,0.0007335749715566634,-0.015100958623271434
1761309031682811600,4.731811767578125,-0.0377799878180027,-0.01570493413209915,-0.008100761005003005
1761309031692739800,4.74173974609375,-0.040859249132871624,-0.010540683236718177,-0.005142733183316886
1761309031702667800,4.751667724609375,-0.036523265755176545,-0.02042494839131832,-0.012666971800354076
1761309031712594700,4.7615947265625,-0.023677228185534475,-0.014877251136302947,-0.0014139025105803739
1761309031722522600,4.771522705078125,-0.023809330132603643,-0.006226911690831184,-0.009049622695054858
1761309031732449800,4.78144970703125,-0.012504092264175414,-0.013498948520421982,-0.010143610210530458
1761309031742377700,4.791377685546875,-0.010182371318340301,-0.017321137157082556,-0.006501143788639456
1761309031752305000,4.801304931640625,0.0021054478466510772,-0.028262217888236043,-0.005304463083669543
1761309031762232800,4.81123291015625,-0.012103694769740103,-0.020181202763319014,-0.008456477965851082
1761309031772159700,4.82115966796875,-0.003800561326742172,-0.02144318552315235,0.0052366768107749515
1761309031782087700,4.831087646484375,-0.009767360776662825,-0.019210896426439285,-0.0022455127628229093
1761309031792014800,4.841014892578125,-0.002101940715312958,-0.019537059640884397,-0.008682579480949788
1761309031801942800,4.85094287109375,-0.021876900765299797,-0.021150340056419373,-0.008305945312947732
1761309031811870000,4.860869873046875,-0.0245475812792778,-0.02191021851301193,-0.007138656240887939
1761309031821798000,4.8707978515625,-0.02391279050707817,-0.02852291465103626,-0.003000113397743553
1761309031831724500,4.880724609375,-0.024755671072006224,-0.023489012137055395,-0.009227262550592422
1761309031841653000,4.890653076171875,-0.011714987713098526,-0.005553542473912239,-0.01567550710821524
1761309031851579600,4.90057958984375,-0.02087503024637699,-0.007473112359642982,-0.01385073936646804
1761309031861507600,4.910507568359375,-0.022229951986670493,-0.01404839909672737,-0.010988024003774625
1761309031871435500,4.920435546875,-0.02375847672820091,-0.019703648379445073,-0.011951317219622433
1761309031881362700,4.93036279296875,-0.02739186479449272,-0.008440496087074279,-0.011074351722002029
1761309031891290600,4.94029052734375,-0.02042670195698738,-0.007626257094740867,-0.0209108687447384
1761309031901217800,4.9502177734375,-0.012723287972807883,-0.009047229808568953,-0.007533590967272175
1761309031911145700,4.960145751953125,-0.01767126576900482,-0.010534253495931624,-0.013664167285803705
1761309031921072600,4.97007275390625,-0.023605331993103027,-0.013582535150647163,-0.00909196399943903
1761309031931000800,4.980000732421875,-0.036194179931282995,-0.018650924456119537,-0.0053447574197954964
1761309031940927700,4.989927734375,-0.02712006211578846,-0.010968553259968757,-0.004356313779670745
1761309031950855700,4.999855712890625,-0.016893851655721662,-0.013273323071002959,-0.005097213541157543
1761309031960782800,5.009782958984375,-0.02450432665944099,-0.008959551525115966,-0.0036635822751559313
1761309031970710800,5.019710693359375,-0.015695581781864164,-0.024360534274578093,-0.006836239228211343
1761309031980637700,5.0296376953125,-0.017559622088074683,-0.032225276300311086,-0.005771604529739125
1761309031990566000,5.03956591796875,-0.00760346074104309,-0.02647299638390541,-0.006794975636061281
1761309032000492800,5.049492919921875,-0.022153964141011236,-0.019555764341354368,-0.009611365355708402
1761309032010420700,5.059420654296875,0.0016571195572614669,-0.02270984445810318,-0.0026696758669801056
1761309032020348700,5.0693486328125,0.004933949270844459,-0.012957096728682517,-0.003716407299292041
1761309032030275800,5.07927587890625,-0.01521218217909336,-0.01644084719121456,-0.011498057026788591
1761309032040203800,5.089203857421875,-0.009198036456108092,-0.019298574709892272,-0.007747635576751781
1761309032050131000,5.099130859375,-0.006679916155338287,-0.016570026528835297,-0.006825242910161614
1761309032060059000,5.109058837890625,-0.029103929409384725,-0.014633505508303642,-0.013950910663668764
1761309032069985800,5.11898583984375,-0.032304771277308464,-0.008735679641366005,-0.015013790654827606
1761309032079913700,5.128913818359375,-0.03755436236858368,-0.011566519153118134,-0.00850625479966402
1761309032089840600,5.138840576171875,-0.03060088996887207,-0.011789221993088721,-0.010874043376930057
1761309032099768600,5.1487685546875,-0.035812487137317654,-0.01182546235024929,-0.007457476399093866
1761309032109695700,5.15869580078125,-0.0247872352540493,-0.00864215613901615,-0.0029356150604784486
1761309032119623700,5.168623779296875,-0.02033376297652721,-0.004722352346777915,-0.011073712401185183
1761309032129550600,5.178550537109375,-0.022044658547639845,-0.0164870244204998,-0.0057941280304454265
1761309032139478800,5.188478759765625,-0.019111527705192564,-0.019876666858792302,0.00018204203601926563
1761309032149405700,5.19840576171875,-0.013628712379932403,-0.02371580663025379,-0.0031183146836236118
1761309032159333600,5.208333740234375,-0.007504092019796371,-0.01920972738265991,0.000993723745085299
1761309032169260800,5.2182607421875,-0.014981880554556846,-0.02429623686671257,-0.00046257601045072077
1761309032179188700,5.228188720703125,-0.018874796339869496,-0.008277414479851723,0.0022599442886188626
1761309032189115600,5.23811572265625,-0.020658757147192952,-0.015310381856560706,-0.01963988069454208
1761309032199043800,5.2480439453125,-0.016383564046025274,-0.02122398981451988,-0.0042438481148332355
1761309032208971800,5.2579716796875,-0.030475802284479138,-0.016255553752183915,-0.009669946550484747
1761309032218898700,5.267898681640625,-0.02643207985162735,-0.013415946412086486,-0.0095536472440348
1761309032228827000,5.277826904296875,-0.03161971162259578,-0.009572714987397193,-0.012596043722302419
1761309032238753800,5.28775390625,-0.03129764006137848,-0.003914543095231056,-0.02009286689274013
1761309032248681700,5.297681640625,-0.03861117794513702,-0.015764555364847183,-0.011324180030915886
1761309032258609000,5.30760888671875,-0.0274754514247179,-0.015231471401453017,-0.002393142214231193
1761309032268536800,5.317536865234375,-0.021059154641628264,-0.01626782871186733,-0.0044490335644222796
1761309032278463700,5.327463623046875,-0.009763853645324706,-0.022932547298073768,-0.014012834593001752
1761309032288392000,5.337391845703125,-0.01241407589316368,-0.01639466996192932,-0.017527546449378133
1761309032298318800,5.34731884765625,-0.02007072812616825,-0.023104396733641622,-0.013797109483089298
1761309032308246800,5.357246826171875,-0.014818798947334288,-0.020419103172421453,-0.012166092481464146
1761309032318173700,5.367173583984375,-0.009843348622322083,-0.02075344969332218,-0.007404631967004388
1761309032328101600,5.3771015625,-0.008729834422469138,-0.013328852650523184,-0.00942218119284953
1761309032338028500,5.387028564453125,-0.015400982749462127,-0.02670095992088318,0.002233695602510124
1761309032347956700,5.396956787109375,-0.01977320648431778,-0.017834931898117065,0.0022747217326425013
1761309032357883600,5.406883544921875,-0.007366144853830337,-0.006899111863970756,-0.008105217984411864
1761309032367811600,5.4168115234375,-0.01984802528619766,-0.010730652850866317,0.006811068254336714
1761309032377738800,5.42673876953125,-0.027702245917916295,0.0017599954098463056,-0.004154307809501188
1761309032387666700,5.436666748046875,-0.03275485313236713,-0.00905307502746582,0.0006292012816295027
1761309032397594600,5.4465947265625,-0.02756137614250183,-0.018445172750949857,-0.004388499016221612
1761309032407521800,5.456521728515625,-0.02551964118182659,-0.02004500916302204,-0.00044392610890790817
1761309032417449700,5.46644970703125,-0.01189209784567356,-0.01811608692705631,-0.003682486763381166
1761309032427376600,5.476376708984375,-0.01744330223202705,-0.018407763350009917,-0.01018965957565233
1761309032437304800,5.486304931640625,-0.012951251509785652,-0.016920739662647247,-0.008476754710543901
1761309032447231700,5.496231689453125,-0.006241524738073349,-0.01869301003217697,-0.010771659573045326
1761309032457159700,5.50615966796875,-0.008371522504091263,-0.017456161713600156,-0.01506667161953519
1761309032467086800,5.5160869140625,-0.00903261676132679,-0.01574409709870815,-0.015574348288681357
1761309032477014800,5.526014892578125,-0.026689269483089445,-0.020976737055182455,-0.02272153489589691
1761309032486941700,5.535941650390625,-0.014355273088812827,-0.021181904238462446,-0.02162371145552024
1761309032496870000,5.545869873046875,-0.022264438778162,-0.018352818292379378,-0.021629355745017526
1761309032506796800,5.555796875,-0.0265823019772768,-0.004151858982443809,-0.02087031753864139
1761309032516724700,5.565724853515625,-0.025913024413585662,-0.013497779476642607,-0.014844335247389972
1761309032526652000,5.57565185546875,-0.04014613242745399,-0.0009060089290142059,-0.011688574630208313
1761309032536579800,5.585579833984375,-0.03248071236610412,-0.009915829336643218,-0.008940444965846835
1761309032546506800,5.5955068359375,-0.03412555696368217,-0.007976970228552817,-0.010985210992180508
1761309032556435000,5.60543505859375,-0.026781623941659925,-0.014727613532543182,-0.011017214707285165
1761309032566361600,5.615361572265625,-0.030572832918167113,-0.016480010157823563,0.0006503000102296936
1761309032576289500,5.62528955078125,-0.029919921967387197,-0.019686112722754476,-0.00785604612097959
1761309032586216700,5.635216796875,-0.014844517910480498,-0.015614917761087416,-0.00628359204782173
1761309032596144600,5.64514453125,-0.011216390541195869,-0.014907646274566649,-0.011159179319598478
1761309032606072600,5.655072509765625,-0.00993102690577507,-0.015591536885499952,0.002270429150015116
1761309032615999700,5.664999755859375,-0.004631751453876495,-0.008918634992837906,-0.0011845153431408106
1761309032625927700,5.674927734375,-0.0019885434687137602,-0.02097965966463089,-0.007489789499808102
1761309032635854800,5.684854736328125,-0.012639701342582702,-0.02184066040813923,-0.002184851492103189
1761309032645782800,5.69478271484375,-0.016810849547386167,-0.012726210582256316,-0.01223585151573643
1761309032655709700,5.704709716796875,-0.009232523247599602,-0.008025485545396805,-0.008363631458580493
1761309032665637600,5.7146376953125,-0.01973345899581909,-0.01383095695376396,-0.010374806884210556
1761309032675564500,5.724564453125,-0.021686931151151657,-0.0018517653465270996,-0.01909364384698565
1761309032685492500,5.734492431640625,-0.03340016529858112,-0.013184475743770598,-0.012128208156488835
1761309032695419600,5.744419677734375,-0.047370822983980175,-0.01223930384814739,-0.009633175328717334
1761309032705347600,5.75434765625,-0.03130056267082691,-0.013355156135559081,-0.0106955438632227
1761309032715274500,5.7642744140625,-0.0152191964417696,-0.004306757283210754,-0.008519570938963442
1761309032725202700,5.77420263671875,-0.014862638089060782,-0.0027267946153879162,-0.016525420202128587
1761309032735129600,5.784129638671875,-0.0046831893801689145,-0.011564765587449073,-0.010389620860852301
1761309032745057500,5.7940576171875,-0.005121580797433853,-0.016063830572366714,-0.015328684698231518
1761309032754984700,5.803984619140625,-0.016022914040088654,-0.021173136410117147,-0.014486753981374204
1761309032764912600,5.81391259765625,-0.010579846203327178,-0.014492051210999488,-0.004331526398286223
1761309032774839600,5.823839599609375,-0.005558218649029731,-0.011429741030931473,-0.0060418363058648535
1761309032784767700,5.833767822265625,-0.02107318316698074,-0.005640051713585853,-0.007494812734797597
1761309032794694700,5.843694580078125,-0.01882861911058426,-0.017461422410607337,-0.001284194591641426
1761309032804622600,5.85362255859375,-0.015085925450921057,-0.022402385944128037,-0.007536660848837346
1761309032814550500,5.863550537109375,-0.0339805955350399,-0.03687865506410599,-0.005074344122223556
1761309032824477700,5.873477783203125,-0.009872574716806411,-0.016244447836279867,-0.00318902242432232
1761309032834404600,5.883404541015625,-0.014272855502367019,-0.009895955592393875,-0.0044886531887575985
1761309032844332800,5.893332763671875,-0.015364742392301558,-0.0017675941944122313,-0.011483023854438215
1761309032854260700,5.9032607421875,-0.018230068695545196,0.00020458266139030456,-0.0132732682720758
1761309032864187600,5.913187744140625,-0.018221300867199898,-0.01296528003513813,-0.00943105976069346
1761309032874115600,5.923115478515625,-0.02833469860255718,-0.021254384952783582,-0.013039823700737906
1761309032884042800,5.933042724609375,-0.02590133397579193,-0.013510638958215714,-0.01062350154031883
1761309032893970700,5.942970703125,-0.028303718942403792,-0.004524199426174163,-0.012411902202386409
1761309032903897600,5.952897705078125,-0.03455518055260181,-0.005758125135302544,-0.006207036804937525
1761309032913825500,5.962825439453125,-0.03237082225084305,-0.007950082221627235,-0.007460837399959563
1761309032923752400,5.97275244140625,-0.03010404636263847,-0.008725742769241332,0.0004259703271090984
1761309032933680600,5.9826806640625,-0.02689735927581787,-0.017477204501628874,-0.005581800454016774
1761309032943607600,5.992607666015625,-0.013010872742533684,-0.017454992669820785,-0.0036336072620004414
1761309032953535500,6.002535400390625,-0.02550561265647411,-0.013641571861505507,-0.006977437797188758
1761309032963462700,6.012462646484375,-0.011487608698010444,-0.014792495462298392,-0.0003021978169679642
1761309032973390600,6.022390625,-0.007288987964391708,-0.022283143478631973,-0.011811853950005023
1761309032983317500,6.0323173828125,-0.004476268631219864,-0.028234160837531087,-0.017967453970294443
1761309032993245700,6.04224560546875,-0.013982348123192786,-0.028152327772974967,-0.013027603539981645
1761309033003172600,6.052172607421875,-0.020205168160796164,-0.01518821678161621,-0.017934482140809994
1761309033013100500,6.0621005859375,-0.025633038428425788,-0.008859013760089874,-0.008492900986102177
1761309033023027700,6.07202783203125,-0.012353870138525963,-0.012856558963656424,-0.016839289048936914
1761309033032955600,6.08195556640625,-0.028587796580791473,-0.02101005480289459,-0.011467954149469732
1761309033042882600,6.091882568359375,-0.0346603944927454,-0.01748012711107731,-0.02051412451211363
1761309033052810800,6.101810791015625,-0.033200843334197996,-0.017145196068286895,-0.016919588885176928
1761309033062737700,6.111737548828125,-0.027878771528601645,-0.009745148944854736,-0.009755341545306146
1761309033072665600,6.12166552734375,-0.02184884371459484,-0.006644260320067406,-0.02181976375058293
1761309033082592800,6.1315927734375,-0.01443710615336895,-0.02154080067873001,-0.01758168778941035
1761309033092520700,6.141520751953125,-0.023875381106138228,-0.014801263290643692,-0.010756627542339265
1761309033102448600,6.15144873046875,-0.02124795521199703,-0.012193126618862151,-0.01236599896773696
1761309033112375800,6.161375732421875,-0.022246903121471404,-0.015232055923342704,-0.010787972528673707
1761309033122303700,6.1713037109375,-0.004813537761569023,-0.022486557096242903,-0.008963332651089876
1761309033132230400,6.18123046875,-0.011811433824896812,-0.020126257705688474,-0.015289393867459148
1761309033142158800,6.191158935546875,-0.013676643174886703,-0.010620178213715553,-0.002283453028369695
1761309033152085500,6.20108544921875,-0.011176643052697182,-0.018502455896139143,-0.007095163017389132
1761309033162013400,6.211013427734375,-0.01837152299284935,-0.017737316742539404,-0.007866294662002473
1761309033171940600,6.220940673828125,-0.032928456133604046,-0.008856675672531128,0.005007434632163494
1761309033181868500,6.23086865234375,-0.020851649370789527,-0.00850888514816761,0.004612828699342208
1761309033191795700,6.240795654296875,-0.02724631884396076,-0.011391162586212157,-0.009422328464966268
1761309033201723600,6.2507236328125,-0.031151509588956832,-0.015117489632964134,-0.0032404797585681077
1761309033211650600,6.260650634765625,-0.03224398100078106,-0.010885551151633262,0.0021496351898938884
1761309033221578500,6.27057861328125,-0.043047699087858195,-0.014898293924331665,-0.0009217362211085856
1761309033231505700,6.280505615234375,-0.02352934414744377,-0.013326514562964438,-0.007793246550456387
1761309033241433600,6.29043359375,-0.020243162083625792,-0.007790507745742798,-0.00845885372767225
1761309033251360800,6.30036083984375,-0.02389876198172569,-0.0069815294504165645,-0.016904994104243815
1761309033261288700,6.310288818359375,-0.016458967369794845,-0.007240472647547722,-0.02381599733540788
1761309033271215600,6.320215576171875,-0.013154080605506897,-0.014584405669569969,-0.020536646871175616
1761309033281143600,6.3301435546875,-0.02218377475738525,-0.013040098837018012,-0.020704934376478194
1761309033291070700,6.34007080078125,-0.01435293500125408,-0.008598316997289657,-0.019545060284249485
1761309033300998700,6.34999853515625,-0.01509936945438385,-0.011293547430634498,-0.01591318832160905
1761309033310925800,6.35992578125,-0.016046879437565803,-0.008102057912945746,-0.017121340268664062
1761309033320853800,6.369853759765625,-0.018223638954758644,-0.024327801048755645,-0.015043162879784357
1761309033330780700,6.37978076171875,-0.014829320341348647,-0.01964285810291767,-0.015536062104906885
1761309033340708600,6.38970849609375,-0.012880524361133575,-0.013505378261208534,-0.01847063598576933
1761309033350635500,6.399635498046875,-0.017121230670809746,-0.017495909202098845,-0.013468168648023856
1761309033360563500,6.4095634765625,-0.010604396122694015,-0.01727612897157669,-0.013398118494451045
1761309033370490600,6.41949072265625,-0.014750409886240958,-0.02539806062877178,-0.006081274408753961
1761309033380418600,6.42941845703125,-0.024722353324294087,-0.013179799568653106,-0.014808825542591511
1761309033390346500,6.439346435546875,-0.02359656416475773,-0.0041261400192975995,-0.005556208213389618
1761309033400273700,6.449273681640625,-0.020244915649294853,-0.0188484928548336,-0.007851680473115994
1761309033410201600,6.45920166015625,-0.02285655945241451,-0.021027590459585188,-0.001466418149106903
1761309033420128500,6.46912841796875,-0.015965046373009682,-0.016097732841968537,-0.0038372754662937946
1761309033430056400,6.479056396484375,-0.035358898150920866,-0.014515432086586951,-0.002822418743278831
1761309033439983600,6.488983642578125,-0.016051555612683295,-0.009880173501372337,-0.009346412542898907
1761309033449911600,6.49891162109375,-0.027404724276065825,-0.018279753056168555,-0.0008822809935547411
1761309033459838700,6.508838623046875,-0.02438333062827587,-0.013225392276048659,-0.002512675799027784
1761309033469766700,6.5187666015625,-0.015362404304742812,-0.016708558216691018,-0.010724150044843554
1761309033479693600,6.528693603515625,-0.020566402688622473,-0.021380641680955884,-0.021687917531840503
1761309033489621800,6.538621826171875,-0.016595160970091817,-0.00799041423201561,-0.016346664960094494
1761309033499548700,6.548548583984375,-0.01583820512294769,-0.012488894695043563,-0.013215035278815776
1761309033509476600,6.5584765625,-0.019741057780385016,-0.010382277804613113,-0.012646423344314098
1761309033519403800,6.56840380859375,-0.0071603931486606594,-0.014433014500141143,-0.0218397836253047
1761309033529331700,6.578331787109375,-0.013396072667837142,-0.01687397791147232,-0.01929506757855415
1761309033539258600,6.588258544921875,-0.01692892296910286,-0.016181903994083403,-0.013958090464770792
1761309033549186800,6.598186767578125,-0.03366495371460915,-0.01799976707100868,-0.018215272985212503
1761309033559113700,6.60811376953125,-0.023913375028967856,-0.006351999375224113,-0.008754512205999343
1761309033569041700,6.618041748046875,-0.011243278548121452,-0.013481412863731383,-0.008293306168727576
1761309033578968600,6.627968505859375,-0.022818565529584882,-0.01282499478161335,-0.01610513069713488
1761309033588896300,6.637896240234375,-0.02219137354195118,-0.007615151178836822,-0.004702259406819939
1761309033598823400,6.647823486328125,-0.02561024207472801,-0.01212473755776882,-0.008634665810660226
1761309033608751400,6.65775146484375,-0.013294950380921364,-0.010977321088314056,-0.008961157818668289
1761309033618678300,6.66767822265625,-0.021229835033416748,-0.01247545069158077,-0.010402389010880142
1761309033628606200,6.677606201171875,-0.024210896670818327,-0.01608311979472637,-0.003160199330281466
1761309033638533400,6.687533447265625,-0.01807400135099888,-0.01624035618305206,-0.005864983043260872
1761309033648461300,6.69746142578125,-0.0304383928835392,-0.011361351969838143,-0.004559398603718728
1761309033658388200,6.70738818359375,-0.018702362382411956,-0.012476035213470458,-0.00853542609522119
1761309033668316400,6.71731640625,-0.025275895553827286,-0.01637713430523872,-0.0069533080029301345
1761309033678243000,6.7272431640625,-0.022768296647071837,-0.02247720474600792,-0.0122283246547624
1761309033688171300,6.737171142578125,-0.021837153276801108,-0.020122166052460668,-0.008192311745975166
1761309033698098200,6.74709814453125,-0.022233459118008614,-0.009998246923089028,-0.011782920116465537
1761309033708026000,6.757026123046875,-0.01741758326888084,-0.012418752068281172,-0.0074259852822870015
1761309033717953300,6.766953369140625,-0.01933130793571472,-0.018584288960695267,-0.019402674405183642
1761309033727881200,6.776881103515625,-0.015527239477634429,-0.024780805513262748,-0.008835267558321357
1761309033737808100,6.78680810546875,-0.007756605476140975,-0.012500585132837295,-0.017190825308300555
1761309033747736300,6.796736328125,-0.01116495261490345,-0.011634908214211464,-0.017171681074769
1761309033757663200,6.806663330078125,-0.02782791812419891,-0.00230009363591671,-0.018249686711467802
1761309033767591200,6.816591064453125,-0.02494622520804405,-0.021192425632476804,-0.01589983564969152
1761309033777518300,6.826518310546875,-0.017878771039843557,-0.01538870778977871,-0.01747702183853835
1761309033787446300,6.8364462890625,-0.02135258463025093,-0.016847089904546735,-0.011611874398496001
1761309033797373200,6.846373291015625,-0.01079495025873184,-0.004655716851353645,-0.014788950656697851
1761309033807301400,6.85630126953125,-0.029939211189746854,-0.0015226795226335524,-0.013360873490292578
1761309033817229300,6.866229248046875,-0.02848024455308914,-0.007322305712103843,-0.007745536092855036
1761309033827156200,6.87615625,-0.03462240056991577,-0.01764554680585861,-0.004471080999448895
1761309033837084400,6.88608447265625,-0.04718845215439796,-0.020049100816249846,-0.00422355424547568
1761309033847011300,6.89601123046875,-0.02898176433444023,-0.022551439025998113,0.0032729572560638185
1761309033856939300,6.905939208984375,-0.023235329636931416,-0.01962766053378582,-0.004904668377432972
1761309033866866400,6.915866455078125,-0.029531214910745618,-0.011398761370778084,-0.00841282262885943
1761309033876794400,6.92579443359375,-0.01754968521595001,-0.01784954494535923,-0.007986797502823174
1761309033886721300,6.93572119140625,-0.014131985726952552,-0.024112112471461295,-0.0009110492886684368
1761309033896649500,6.9456494140625,0.004940379011631012,-0.0267173265337944,-0.006433193118963391
1761309033906576100,6.955576171875,0.00902560249865055,-0.029886019697785374,-0.014291615001764148
1761309033916504000,6.965504150390625,0.007293079617619514,-0.01856324617266655,-0.021158121504075825
1761309033926431200,6.97543115234375,-0.000751110628247261,-0.0034679683715105056,-0.018896807242278008
1761309033936359200,6.985359130859375,-0.012470774516463279,-0.007290741530060768,-0.017491781016252934
1761309033946286000,6.9952861328125,-0.01294131463766098,-0.014734043273329734,-0.024128680013772098
1761309033956214300,7.00521435546875,-0.026803835773468017,-0.02151332814991474,-0.02018611640045419
1761309033966141200,7.01514111328125,-0.043263972187042234,-0.00744096365571022,-0.017509098618879216
1761309033976069000,7.025069091796875,-0.04088555261790752,0.006935352221131325,-0.01819612989332527
1761309033985996300,7.034996337890625,-0.03630933074355125,0.0020469956576824187,-0.012184358790516853
1761309033995924200,7.04492431640625,-0.03466799327731132,0.001886252138018608,-0.016608641506172715
1761309034005851400,7.054851318359375,-0.03355915525257587,-0.013745616757869719,-0.011682656346075236
1761309034015779300,7.064779296875,-0.03205284234285354,-0.00763093326985836,-0.0034295177909545596
1761309034025706200,7.074706298828125,-0.01431201846897602,-0.0199988319337368,-0.0011874196862801908
1761309034035634200,7.08463427734375,-0.00942950712442398,-0.012469605472683906,-0.0019712635403499007
1761309034045561300,7.094561279296875,-0.003674889120459556,-0.018826281023025512,-0.0011742679437622427
1761309034055489300,7.1044892578125,-0.004482698372006416,-0.019212065470218656,-0.008445044398028402
1761309034065416400,7.11441650390625,-0.0030459435671567913,-0.025130349603295323,0.00017871756777167319
1761309034075344400,7.124344482421875,-0.016426234143972394,-0.017279051581025124,-0.005073522138316184
1761309034085271300,7.134271240234375,-0.012011340311169624,-0.009565700724720955,-0.0063224992861039934
1761309034095199200,7.14419921875,-0.025474048474431035,-0.009414894077181815,-0.0028481548310897776
1761309034105126100,7.154126220703125,-0.02286883441209793,-0.017107202145457266,-0.010762363163381814
1761309034115054300,7.164054443359375,-0.02983399724960327,-0.02256020685434341,-0.011607417419087142
1761309034124981200,7.173981201171875,-0.027365561309456825,-0.01590367157459259,-0.01726443739213864
1761309034134909200,7.1839091796875,-0.021160276928544042,-0.014032032483816147,-0.019368461608327923
1761309034144836000,7.193836181640625,-0.02748889542818069,-0.014294482812285422,-0.017535034494445427
1761309034154764300,7.203764404296875,-0.029220249265432357,-0.007634440401196479,-0.03437792428955436
1761309034164691200,7.213691162109375,-0.025740005934238433,-0.015158990687131882,-0.024136443195119497
1761309034174619100,7.223619140625,-0.010991349613666533,-0.025413842719793318,-0.011238931166566908
1761309034184546300,7.23354638671875,-0.008534604111313819,-0.019487375280261038,-0.022650077094882724
1761309034194474200,7.24347412109375,-0.00646715018749237,-0.017664836028218268,-0.027925715942867097
1761309034204401200,7.253401123046875,-0.014138999989628791,-0.019864391899108887,-0.016430726514355044
1761309034214329300,7.263329345703125,-0.011176643052697182,-0.006654781714081764,-0.017221493299555732
1761309034224256300,7.27325634765625,-0.008519991064071655,-0.012892799320816993,-0.0047922575115226206
1761309034234184200,7.28318408203125,-0.019621230792999267,-0.01584697295129299,-0.005749539970047772
1761309034244111400,7.293111328125,-0.03221358586251735,-0.019260580787062644,-0.0030332473407208454
1761309034254039300,7.303039306640625,-0.03202127816081047,-0.007629764226078987,-0.0024955614090897142
1761309034263966200,7.31296630859375,-0.03794014681577682,-0.010842296531796455,-0.0007911503776907921
1761309034273894400,7.322894287109375,-0.05054126971364021,-0.005730068084597587,0.004519504984747618
1761309034283821300,7.3328212890625,-0.03883037365376949,-0.017301263412833213,0.0025484971727244557
1761309034293749200,7.342749267578125,-0.031166707158088683,-0.027519875088334082,0.0013220971829257906
1761309034303676400,7.352676513671875,-0.0344599034845829,-0.018097382226586342,-0.0009747998489066957
1761309034313604400,7.362604248046875,-0.019789573097229004,-0.01691197183430195,-0.004323781483247876
1761309034323531300,7.37253125,-0.005511456897854805,-0.005008768072724342,-0.00825025247829035
1761309034333459200,7.382459228515625,-0.01338788936138153,-0.013889993664622307,-0.014338541149720548
1761309034343386000,7.39238623046875,-0.007360299634933471,-0.01123860237300396,-0.013330624482501297
1761309034353314000,7.40231396484375,-0.006986205625534057,-0.012357961791753767,-0.017061079715099185
1761309034363241200,7.4122412109375,-0.007941898915171624,-0.013643325427174568,-0.016325221454910933
1761309034373169200,7.422169189453125,-0.014047230052947998,-0.013666706302762031,-0.01348144939634949
1761309034383096300,7.432096435546875,-0.021444354566931723,-0.013598317241668701,-0.021107649408874565
1761309034393024300,7.442024169921875,-0.02088672068417072,-0.00592646743953228,-0.021664372259471563
1761309034402951200,7.451951171875,-0.02477496029436588,-0.002037058785557747,-0.016425411018420707
1761309034412879000,7.461879150390625,-0.025483400824666023,-0.004624152669310569,-0.01449263459124486
1761309034422806300,7.47180615234375,-0.0433960741341114,-0.014097498935461044,-0.013439528217073528
1761309034432734200,7.481734130859375,-0.01335047996044159,-0.00808627582192421,-0.010949501499626785
1761309034442662100,7.491662109375,-0.025339023917913435,-0.014808862075209617,-0.014958992869313806
1761309034452589300,7.50158935546875,-0.02687339387834072,-0.021510990062355993,-0.008667436710745095
1761309034462516200,7.51151611328125,-0.021174305453896522,-0.020630700096487996,0.0009166593288362491
1761309034472444400,7.5214443359375,-0.014650456643104553,-0.00874503199160099,-0.0040245976072736086
1761309034482372400,7.531372314453125,-0.01791267330944538,-0.011167875224351882,-0.00719502607062459
1761309034492299300,7.54129931640625,-0.01935001263618469,-0.012720949885249137,0.00329281273400411
1761309034502227200,7.551227294921875,-0.012960603860020637,-0.01371989779472351,0.0016383064005814957
1761309034512154400,7.561154296875,-0.020939327654242515,-0.01651098981797695,-0.00661793742707814
1761309034522082300,7.571082275390625,-0.02161737304627895,-0.023762568381428716,-0.002138106865592999
1761309034532009500,7.581009521484375,-0.009321955096721648,-0.018999884024262427,-0.010128503972943872
1761309034541937400,7.5909375,-0.01324760410785675,-0.018811667975783347,-0.00922859599115327
1761309034551864000,7.600864013671875,-0.018392565780878067,-0.008576105165481566,-0.01583926456887275
1761309034561792300,7.610792236328125,-0.021283026525378227,-0.004042553389072418,-0.015067365739279193
1761309034571719200,7.62071923828125,-0.022239888858795166,0.0030471126109361648,-0.024274938350357114
1761309034581647000,7.630647216796875,-0.02379120995402336,-0.0033341128587722774,-0.02646382669676095
1761309034591574300,7.64057421875,-0.019385083949565885,-0.009688450321555138,-0.028314788325689733
1761309034601502200,7.650502197265625,-0.031067338436841962,-0.01985854668021202,-0.022679102259967474
1761309034611429000,7.66042919921875,-0.02159925286769867,-0.008386135551333426,-0.023995043696742505
1761309034621357300,7.670357421875,-0.027125322812795637,-0.008999299013614653,-0.022464217400271443
1761309034631284200,7.6802841796875,-0.01741816779077053,-0.009434183299541472,-0.018260938757844267
1761309034641212200,7.690212158203125,-0.013066402322053909,-0.018577859219908715,-0.018298073022504104
1761309034651139300,7.700139404296875,-0.030031565648317337,-0.016727847439050675,-0.018812270763982085
1761309034661067300,7.7100673828125,-0.019701894813776016,-0.011793313646316528,-0.010738105504959822
1761309034670994200,7.719994140625,-0.03155599873661995,-0.018787702578306198,-0.0021480083467438817
1761309034680922400,7.72992236328125,-0.02231295409500599,-0.02802665556669235,0.002334670617309166
1761309034690849300,7.739849365234375,-0.020201076507568357,-0.018166355809569358,0.0006543174565769731
1761309034700777200,7.749777099609375,-0.02627425894141197,-0.021368951243162154,0.006047847063187509
1761309034710704400,7.759704345703125,-0.019933365482091903,-0.016640753677487373,0.00641814168030396
1761309034720632300,7.76963232421875,-0.034761516779661175,-0.010791443127393722,0.002229914476536214
1761309034730559200,7.779559326171875,-0.03210544931292534,-0.013598901763558387,-0.0017860614328645168
1761309034740487400,7.7894873046875,-0.03318038506805897,-0.018661445850133896,-0.0082835713676468
1761309034750414300,7.799414306640625,-0.03011106062531471,-0.02801438060700893,-0.013049962643906473
1761309034760342300,7.80934228515625,-0.021582301732897758,-0.01454641174674034,-0.011980085514736128
1761309034770269200,7.819269287109375,-0.022608137649297713,-0.0024427169770002365,-0.01002027609180659
1761309034780197000,7.829197021484375,-0.017553776869177817,-0.000765139153599739,-0.017938119419600114
1761309034790124300,7.839124267578125,-0.02304185289144516,-0.009640519526600838,-0.01773417493738234
1761309034800052200,7.84905224609375,-0.024509002834558487,-0.013558569753170012,-0.027001714699435977
1761309034809979100,7.858979248046875,-0.021091887867450712,-0.003509469425678253,-0.03449594291234389
1761309034819907000,7.868906982421875,-0.02978255932331085,-0.004693710774183273,-0.0274234655091539
1761309034829834200,7.878834228515625,-0.021757073777914047,-0.0047884033203125,-0.01818938962528482
1761309034839762200,7.88876220703125,-0.031284780579805375,-0.007988660666346549,-0.01723806198351085
1761309034849689300,7.898689453125,-0.03026712796986103,-0.014853285738825796,-0.015317231722455471
1761309034859617300,7.9086171875,-0.015058452922105788,-0.020941081219911575,-0.010772044307179748
1761309034869544200,7.918544189453125,-0.019984803408384322,-0.013923895934224127,-0.004057622523218742
1761309034879472000,7.92847216796875,-0.022912089031934736,-0.027310616251826285,-0.007004106608405709
1761309034889399300,7.9383994140625,-0.01146247425675392,-0.008086860343813895,0.0008736410293728112
1761309034899327200,7.9483271484375,-0.014848025041818617,-0.012629179948568343,0.002552808592483052
1761309034909254400,7.95825439453125,-0.0006511573851108551,-0.012605214551091194,-0.0015803462603129446
1761309034919182300,7.968182373046875,-0.012757774764299392,-0.022789339435100555,0.003075315792113542
1761309034929109200,7.978109130859375,-0.020757541346549988,-0.023465046739578246,-0.0009697035486809909
1761309034939037400,7.988037353515625,-0.03574643616378307,-0.01386018304824829,0.0014953165916725992
1761309034948964400,7.99796435546875,-0.02721533918380737,-0.006529694029688835,0.00034523324109613895
1761309034958892300,8.007892333984374,-0.032142274191975594,0.0030360066950321195,-0.011810593574680388
1761309034968819200,8.017819091796875,-0.020632453662157057,-0.004440028274059296,-0.009783142867684363
1761309034978747400,8.027747314453125,-0.027236381971836088,-0.01356090784072876,-0.014422383508272468
1761309034988674000,8.037674072265625,-0.037488895916938776,-0.018879472514986992,-0.01909974593585357
1761309034998602200,8.047602294921875,-0.02819792048037052,-0.021298808616399763,-0.01693715993284131
1761309035008529200,8.057529052734376,-0.0198725752055645,-0.020204583638906478,-0.021379125577304512
1761309035018457000,8.06745703125,-0.0036316345006227493,-0.012356792747974394,-0.025157018414512275
1761309035028384300,8.07738427734375,-0.0033761984348297117,-0.005874444991350173,-0.021886673240642994
1761309035038312200,8.087312255859375,-0.003673720076680183,-0.010502104791998862,-0.02711905746879056
1761309035048239000,8.097239013671874,-0.006500467935204505,-0.01529459976553917,-0.023241668046172708
1761309035058167300,8.107167236328126,-0.008621113350987433,-0.019142507365345954,-0.02209348439173773
1761309035068094200,8.11709423828125,-0.019789573097229004,-0.018733926564455033,-0.015779844265524298
1761309035078022100,8.127022216796876,-0.02300561253428459,-0.0012988076388835907,-0.010718012565001845
1761309035087949300,8.13694921875,-0.03671791154444218,0.0002899228572845459,-0.008250525902103982
1761309035097877200,8.146877197265624,-0.04932897131443023,-0.0002741407662630081,-0.012699121645931153
1761309035107804400,8.156804443359375,-0.053555064576864236,-0.013562076884508133,-0.011488010556809604
1761309035117732400,8.166732421875,-0.033979426491260525,-0.02342471472918987,-0.006708320265915244
1761309035127659300,8.1766591796875,-0.0408779538333416,-0.022522212931513786,-0.006439750723913311
1761309035137587200,8.186587158203125,-0.030340777727961538,-0.010175357055664061,-0.0016174634003080428
1761309035147514400,8.196514404296876,-0.01836450873017311,-0.011687515184283256,-0.00220781224258244
1761309035157442300,8.2064423828125,-0.014161211821436882,-0.006021159985661506,0.00024958970525185576
1761309035167369500,8.216369384765626,-0.01896831984221935,-0.019769699352979658,-0.00411640350575035
1761309035177297400,8.22629736328125,-0.01068739823102951,-0.0346340910077095,-0.0023434943862259386
1761309035187224000,8.23622412109375,-0.008636310920119286,-0.027254502150416374,-0.004159786560572683
1761309035197152300,8.24615234375,-0.004149520894885063,-0.01707739152908325,-0.01160433155450155
1761309035207079200,8.2560791015625,-0.01164250699877739,-0.00030161329507827757,-0.01461520266663283
1761309035217007000,8.266007080078126,-0.018194412860274314,-0.016338555860519407,-0.020202994470018894
1761309035226934300,8.275934326171875,-0.019186931028962136,-0.013099135547876357,-0.019477219212427736
1761309035236862200,8.2858623046875,-0.024503742137551306,-0.013770751199126243,-0.022707341973762958
1761309035246789000,8.2957890625,-0.03008943331539631,-0.004899462479352951,-0.016097860706131905
1761309035256717300,8.30571728515625,-0.038138884258270264,0.01286591131389141,-0.01889249639334157
1761309035266644200,8.315644287109375,-0.0265519068390131,0.004700725036859512,-0.016957637606933713
1761309035276572200,8.325572265625,-0.04290507574677467,-0.004845686465501785,-0.022432963745482263
1761309035286499300,8.335499267578125,-0.03638648763298988,-0.02498947982788086,-0.01789409647313878
1761309035296427300,8.34542724609375,-0.03443593808710575,-0.02650163795650005,-0.009323982657026499
1761309035306354200,8.355354248046876,-0.020179449197649954,-0.022063363248109816,-0.011004994546528904
1761309035316282400,8.365282470703125,-0.021276012262701986,-0.02830605702996254,-0.020318510608468204
1761309035326209300,8.375209228515626,-0.0033937340915203094,-0.02269756949841976,-0.006521857783105224
1761309035336137200,8.38513720703125,0.003960720324516296,-0.01942716952562332,-0.008586242967005818
1761309035346064400,8.395064453125,-0.007469020706415176,-0.019515432330965993,0.004144497659895569
1761309035355991300,8.4049912109375,-0.008362170153856277,-0.011278349861502647,-0.0038731151062995194
1761309035365919200,8.414919189453125,-0.0033060558080673214,-0.011835399222373961,-0.00493367470538651
1761309035375846100,8.42484619140625,-0.011868716970086096,0.0018248773396015165,-0.008879928113133064
1761309035385774000,8.434774169921875,-0.026042788273096085,0.00957154594361782,-0.007547657166887075
1761309035395701200,8.444701171875,-0.03509352521300316,-0.012200725403428076,-0.003372709569800645
1761309035405629200,8.454629150390625,-0.03826397194266319,-0.015316227075457572,-0.01396015455769375
1761309035415556000,8.46455615234375,-0.04922609546184539,-0.011550152540206908,-0.01297434012442827
1761309035425484300,8.474484375,-0.0415267731308937,-0.012829670956730842,-0.02511984647559002
1761309035435411200,8.4844111328125,-0.040787937462329865,-0.011042787539958953,-0.014422200845181941
1761309035445339100,8.494339111328125,-0.03022445787191391,-0.012796937730908392,-0.01252371028009802
1761309035455266300,8.504266357421875,-0.010953940212726592,-0.013525252005457877,-0.009438311485387384
1761309035465194200,8.5141943359375,-0.013186813831329344,-0.013093874850869177,-0.017084734585322437
1761309035475121200,8.52412109375,-0.0050339025139808655,-0.01316343295574188,-0.012347495196666568
1761309035485049300,8.53404931640625,0.0030921207964420315,-0.024423078116774556,-0.009969258290622382
1761309035494976300,8.543976318359375,-0.00895019917488098,-0.029724107134342193,-0.014754793800413607
1761309035504904200,8.553904296875,-0.016299977415800092,-0.014276362633705138,-0.010968005270697176
1761309035514831400,8.563831298828125,-0.007222936990857124,-0.0077758946985006325,-0.008172785061597824
1761309035524759300,8.57375927734375,-0.00815291131734848,0.006038695642352104,-0.0026430253220722077
1761309035534686200,8.583686279296876,-0.025737667846679687,0.001187163957953453,-0.00657077495874837
1761309035544614400,8.593614501953125,-0.0458446363300085,-0.0021960487395524977,-0.011992306817136705
1761309035554541300,8.603541259765626,-0.053990533384680746,-0.006322188758850098,-0.006458034728452912
1761309035564469200,8.61346923828125,-0.04125087879896164,-0.01907294926047325,-0.0011988361294381319
1761309035574396400,8.623396484375,-0.04350128807425499,-0.003965396499633789,-0.011282660710439086
1761309035584324400,8.633324462890625,-0.035432547909021374,-0.011603344032168388,-0.012983802072517573
1761309035594251500,8.64325146484375,-0.03237491390407085,-0.01931961749792099,-0.001234107801396749
1761309035604179700,8.6531796875,-0.036113515910506246,-0.020088848304748535,-0.005097761530429124
1761309035614106600,8.663106689453125,-0.022834932142496107,-0.019015081593394278,-0.009847714270185678
1761309035624034600,8.67303466796875,-0.00002104278802871704,-0.019835165804624556,-0.008722162572667003
1761309035633961700,8.682961669921875,0.007055763730406761,-0.02152326502203941,-0.013737342119868844
1761309035643889700,8.6928896484375,0.005459434449672698,-0.019919921478629112,-0.011224062390998005
1761309035653816600,8.702816650390625,0.00526420413851738,-0.015668693774938583,-0.015360961266327649
1761309035663744800,8.712744873046875,0.006579378390312194,-0.000058452188968658445,-0.0198850876272656
1761309035673671700,8.722671630859375,-0.0173234752446413,-0.0071107087880373,-0.01259736003819853
1761309035683599600,8.732599609375,-0.020487492233514783,-0.0202472537368536,-0.019257347650360315
1761309035693526800,8.74252685546875,-0.0463023169696331,-0.02195639574229717,-0.01674671653630212
1761309035703454700,8.752454833984375,-0.04730184940099716,-0.010186462971568108,-0.017158238212950528
1761309035713381600,8.762381591796874,-0.04120119443833828,-0.0022340426623821256,-0.018483641597814855
1761309035723309600,8.7723095703125,-0.05051905788183212,-0.020911855125427245,-0.013898944156058132
1761309035733236500,8.782236572265624,-0.04419511555731296,-0.023815759873390196,-0.008031147530380985
1761309035743164400,8.792164306640625,-0.025311551389098165,-0.0038157588958740232,-0.007297408162042847
1761309035753091600,8.802091552734375,-0.01595160236954689,-0.011095394510030747,-0.0035904074410907923
1761309035763019500,8.81201953125,-0.00514087001979351,-0.003361585387587547,-0.008947459799345234
1761309035772946700,8.82194677734375,0.007936053696274757,-0.0034229601860046384,-0.013489121246151625
1761309035782874600,8.83187451171875,0.002751344534754753,-0.014546996268630027,-0.01080264037484303
1761309035792801500,8.841801513671875,-0.0011889175236225128,-0.027656068688631057,-0.01472591476580128
1761309035802729700,8.851729736328124,-0.013525836527347564,-0.02563420747220516,-0.015189988613594323
1761309035812656600,8.86165673828125,-0.015110475370287894,-0.003841477859020233,-0.010633165559452026
1761309035822584600,8.87158447265625,-0.021963994526863095,-0.0038631051689386364,-0.013917356595583259
1761309035832511700,8.88151171875,-0.025729484540224074,-0.018204934254288672,-0.015178298175800591
1761309035842439700,8.891439697265625,-0.033272739526629444,-0.01439911223053932,-0.008473521573841571
1761309035852366600,8.90136669921875,-0.038459786775708195,-0.022533903369307516,-0.019856007663253693
1761309035862294800,8.911294677734375,-0.03598141396343708,-0.02546995682120323,-0.016734185848291963
1761309035872221700,8.9212216796875,-0.044801849278807634,-0.0036421558946371077,-0.013360544696729629
1761309035882149600,8.931149658203125,-0.021807342660427092,0.005073065480589866,-0.010936185360327363
1761309035892076800,8.941076904296875,-0.027093174108862875,-0.004912906482815742,-0.021232867240719495
1761309035902004700,8.951004638671876,-0.01792845540046692,-0.01692541583776474,-0.015499693883582948
1761309035911931400,8.960931396484375,-0.00046761751174926756,-0.025258944419026375,-0.016637136948294936
1761309035921859800,8.97085986328125,-0.00980944635272026,-0.020403321081399917,-0.01595425098435953
1761309035931786500,8.980786376953125,-0.00410042105615139,0.0017278467059135437,-0.009671079061646014
1761309035941714400,8.99071435546875,-0.009491466444730758,-0.0014057751446962356,-0.020972280075773595
1761309035951641600,9.0006416015625,-0.025139117431640625,-0.0020657003581523894,-0.006500449668895453
1761309035961569500,9.010569580078124,-0.013907529321312903,-0.02166413479745388,-0.018979900682158768
1761309035971496700,9.02049658203125,-0.016907880181074142,-0.030030396604537962,-0.020495839936751872
1761309035981424600,9.030424560546875,-0.04327566262483597,-0.031046880170702933,-0.011517309716530144
1761309035991351600,9.0403515625,-0.05493453623652458,-0.01385667591691017,-0.00771369791617617
1761309036001279500,9.050279541015625,-0.04452361685931682,-0.014400281274318694,-0.007500621421076357
1761309036011206700,9.06020654296875,-0.02500409287512302,-0.004300912064313888,-0.008139869172684848
1761309036021134600,9.070134521484375,-0.024217910933494565,-0.01946808605790138,-0.0073840093040838835
1761309036031061800,9.080061767578124,-0.017930208966135976,-0.017387772652506826,-0.014725677303783595
1761309036040989700,9.08998974609375,-0.011636077257990837,-0.007832008799910545,-0.001032210572848271
1761309036050916600,9.09991650390625,-0.002117138284444809,-0.007782324439287185,-0.007960128691606222
1761309036060844500,9.109844482421876,0.004108604362607002,-0.01580079572200775,-0.010078381220903246
1761309036070771700,9.119771728515625,0.004088730618357658,-0.022060440638661385,-0.010756189150922
1761309036080699600,9.12969970703125,-0.0049181671798229215,-0.022919103294610974,-0.01779319338193163
1761309036090626800,9.139626708984375,-0.02221709250509739,-0.01593114410340786,-0.01820977482618764
1761309036100554800,9.1495546875,-0.01982815154194832,-0.015907763227820396,-0.015569854776654391
1761309036110481700,9.159481689453125,-0.031246786656975743,-0.016593991926312446,-0.01580585548961535
1761309036120409600,9.16940966796875,-0.02687514744400978,-0.00943652138710022,-0.020532043761294333
1761309036130336500,9.17933642578125,-0.035600890213251114,0.012753683111071586,-0.012944109382946043
1761309036140264400,9.189264404296875,-0.049288054782152174,-0.0013993454039096832,-0.017581779120955616
1761309036150191600,9.199191650390626,-0.05161912807822227,-0.00971358476281166,-0.01726531531661749
1761309036160119600,9.20911962890625,-0.043963644888997074,-0.01140636015534401,-0.03203523362092674
1761309036170046500,9.21904638671875,-0.030466449934244154,-0.022233459118008614,-0.013888897686079144
1761309036179974700,9.228974609375,-0.01549099912047386,-0.01492985810637474,-0.012693769617378711
1761309036189901600,9.238901611328124,-0.004614215797185898,-0.013400748842954635,-0.022966961024329064
1761309036199828700,9.248828857421875,0.0046270752787590025,-0.032818566018342966,-0.016290880793891845
1761309036209756700,9.258756591796875,0.013936170893907546,-0.030597382837533948,-0.014268599452357738
1761309036219683600,9.26868359375,0.010190554624795914,-0.018759645527601242,-0.0201078635324724
1761309036229611500,9.278611572265625,0.00006838906109333039,-0.019385668471455574,-0.012224325474724173
1761309036239539700,9.288539794921874,0.00708674339056015,-0.01201543196439743,-0.007632431107200682
1761309036249466600,9.298466552734375,-0.004464578193426132,-0.0077735566109418865,-0.00842949976902455
1761309036259393800,9.308393798828124,-0.01222410627901554,0.005840542721748352,-0.014179551195725797
1761309036269321700,9.31832177734375,-0.03268880215883255,-0.002563128486275673,-0.0099332553954795
1761309036279248600,9.32824853515625,-0.04881400752961635,-0.020104045873880386,-0.012833324218541383
1761309036289176600,9.338176513671876,-0.06342237859666347,-0.00879120922088623,-0.01486519537232816
1761309036299103700,9.348103759765625,-0.06101122580170631,-0.007473112359642982,-0.008332323004864155
1761309036309031700,9.35803173828125,-0.046592239826917646,-0.0027536826223134993,-0.009721494074631482
1761309036318958600,9.36795849609375,-0.03189151430130005,0.0018260463833808898,-0.009233089503180235
1761309036328886800,9.37788671875,-0.026903204494714734,-0.010809563305974006,-0.019988200941868126
1761309036338813400,9.3878134765625,-0.018269231662154196,-0.008234744381904602,-0.0035612903736386213
1761309036348741600,9.39774169921875,0.004329553636908531,-0.014827566775679587,-0.011452774846646934
1761309036358668500,9.40766845703125,0.022409400206804275,-0.022279051825404166,-0.017111878320574758
1761309036368596500,9.417596435546875,0.017140519893169403,-0.019393851777911184,-0.017738759780954568
1761309036378523600,9.427523681640626,0.018265724530816076,-0.02723112127482891,-0.005070178832937381
1761309036388451600,9.43745166015625,0.0038379707276821134,-0.020114567267894744,-0.016408735019899905
1761309036398378500,9.44737841796875,-0.00547463201880455,-0.017663082462549207,-0.023346078268717974
1761309036408306700,9.457306640625,-0.021290040788054465,-0.012452654337882995,-0.018562972178030757
1761309036418233600,9.467233642578124,-0.03198854493498802,-0.010417349117994308,-0.020949976912420242
1761309036428161500,9.47716162109375,-0.03821779471337795,-0.005383446604013443,-0.016216500383429228
1761309036438088700,9.487088623046875,-0.052638534253835675,-0.0017447978407144546,-0.011125880979839712
1761309036448016600,9.4970166015625,-0.05880874732136726,-0.0038239422023296356,-0.01603754535363987
1761309036457943600,9.506943603515625,-0.03483049036264419,-0.0013379706054925918,-0.01281988021507859
1761309036467871700,9.516871826171876,-0.03485153315067291,-0.011067921981215477,-0.02414610607260838
1761309036477798700,9.526798583984375,-0.02966974659860134,-0.0060942252218723295,-0.015364395332429557
1761309036487726600,9.5367265625,-0.011679331877827643,-0.01661854184567928,-0.008620090437680483
1761309036497653800,9.54665380859375,-0.01254091714322567,-0.03162263423204422,-0.017686974794790148
1761309036507581700,9.556581787109375,0.013178630524873733,-0.022471359527111053,-0.01291762323481962
1761309036517508900,9.5665087890625,0.00672901599407196,-0.008523498195409774,-0.01937180434288457
1761309036527436800,9.576436767578125,0.009742810857295989,-0.021388824987411497,-0.012952676281891763
1761309036537363500,9.586363525390626,-0.005016951379179954,-0.034579145950078966,-0.008291004613786936
1761309036547291400,9.59629150390625,-0.0400064316958189,-0.046534372159838674,-0.005147044032253325
1761309036557218600,9.606218505859376,-0.030828853505849838,-0.05297638790607452,0.004974847536813467
1761309036567146500,9.616146484375,-0.02813596116006374,-0.036331542575359345,0.0068159636251628394
1761309036577073700,9.62607373046875,-0.029482115072011945,0.019504910936951635,-0.0025154168870300054
1761309036587001600,9.636001708984375,-0.018097966748476028,0.05226911641955375,-0.005731821650266647
1761309036596928000,9.645927978515624,-0.04015548477768898,0.02958206831514835,-0.0027622312549501656
1761309036606856200,9.655856201171876,-0.05730009632408618,-0.02300911966562271,-0.00816250112960115
1761309036616783000,9.665783203125,-0.06005260990262031,-0.06440379084944725,-0.0059851205579005175
1761309036626711000,9.6757109375,-0.04827683191299438,-0.03264320945143699,-0.0176647081640549
1761309036636638200,9.68563818359375,-0.015042670831084251,0.019554010775685308,-0.026291758065484463
1761309036646566100,9.695566162109374,-0.00947568435370922,0.018757891961932182,-0.016391126297973097
1761309036656493300,9.705493408203125,-0.00303425312936306,-0.015515549039840697,-0.028881738026067614
1761309036666421200,9.715421142578125,0.006962240228056907,-0.053340545043349265,-0.02374773613847792
1761309036676348200,9.72534814453125,-0.007931377521157265,-0.05653963334560394,-0.035649405530095095
1761309036686276000,9.735276123046875,0.009710077631473541,-0.017746084570884703,-0.028456169557757673
1761309036696203300,9.745203369140626,0.022737316986918447,0.010101707297563552,-0.027880926953069863
1761309036706131200,9.755131103515625,0.006500467935204505,-0.004616553884744644,-0.025675361466500908
1761309036716058400,9.765058349609374,-0.007662497451901435,-0.009881927067041397,-0.019312749365717172
1761309036725986300,9.774986328125,-0.012020108139514922,-0.01986731450855732,-0.021369225237797943
1761309036735913200,9.784913330078124,-0.03877718216180801,-0.02571311792731285,-0.015110457103978842
1761309036745841200,9.794841064453125,-0.03353869698643684,0.0006347907721996307,-0.022593707265146076
1761309036755768000,9.80476806640625,-0.04794657704532146,0.010102876341342925,-0.01312562169600278
1761309036765696300,9.8146962890625,-0.04684533780515194,0.010938158121705054,-0.012686554425302893
1761309036775623200,9.824623046875,-0.048262218865752216,-0.0045674540460109705,-0.015722780316043645
1761309036785551000,9.834551025390626,-0.044208559560775754,-0.02015957545340061,-0.011418945642281323
1761309036795478000,9.84447802734375,-0.03731295482814312,-0.022282558956742287,-0.01020774322161451
1761309036805406200,9.85440625,-0.028579028752446174,-0.01038636945784092,-0.017699176689237355
1761309036815333000,9.8643330078125,-0.018396657434105873,-0.02163315513730049,-0.010045136538427323
1761309036825261000,9.874260986328125,-0.0036877486020326614,-0.012266191855072975,-0.007574216380249708
1761309036835188200,9.884188232421875,0.006060322952270507,-0.015130349114537239,-0.0147760009852238
1761309036845116200,9.8941162109375,0.0026800328642129895,-0.031494623938202855,-0.007214533347048563
1761309036855043000,9.90404296875,-0.0030196400821208952,-0.02532967156767845,-0.01959156630709767
1761309036864971300,9.91397119140625,0.0056219315350055695,-0.019142507365345954,-0.020257811663486062
1761309036874898200,9.923898193359374,-0.004191021949052811,-0.013349895438551902,-0.014017912626918405
1761309036884826000,9.933826171875,-0.01182546235024929,-0.02080664118528366,-0.01607084369339864
1761309036894753300,9.943753173828124,-0.030033903735876083,-0.019499650239944457,-0.025605200573429465
1761309036904681200,9.95368115234375,-0.035064883640408516,-0.01237140579521656,-0.02642473679538816
1761309036914608000,9.963608154296875,-0.04276362144947052,-0.00018646248281002043,-0.033921540557872505
1761309036924536300,9.973536376953126,-0.04582125545442104,-0.0008773673564195632,-0.03268719472363591
1761309036934463200,9.983463134765625,-0.05011690682172775,-0.0003308393895626068,-0.021911369290482253
1761309036944391200,9.99339111328125,-0.038301381343603134,-0.012761866417527199,-0.01603632151093334
1761309036954318300,10.003318359375,-0.041515082693099975,-0.014057166925072669,-0.02001254993183538
1761309036964245000,10.013244873046874,-0.032358547291159626,-0.02069032132923603,-0.012285645474214107
1761309036974173200,10.023173095703125,-0.016125789892673492,-0.015395722052454947,-0.011520305391214788
1761309036984101000,10.03310107421875,0.003709375911951065,-0.012798691296577453,-0.007711907817889004
1761309036994028000,10.043028076171876,0.014088731107115745,-0.014053075271844863,-0.0141360225812532
1761309037003955200,10.052955078125,0.011053308933973311,-0.016246201401948927,-0.00785728937163949
1761309037013883100,10.062883056640626,0.009258242210745811,-0.025506197178363797,-0.006831343857385218
1761309037023810000,10.07281005859375,0.012528057661652565,-0.030849311771988866,-0.0026584968858398496
1761309037033738200,10.08273828125,-0.005183540117740631,-0.015205752438306807,-0.00561139130386
1761309037043665200,10.0926650390625,-0.02860357867181301,-0.009866729497909545,-0.007538669572010985
1761309037053593000,10.102593017578124,-0.03626841421127319,-0.003234744137525558,0.004947557671088725
1761309037063520300,10.112520263671875,-0.05045709856152534,0.001079027408361435,-0.01311818730821833
1761309037073448200,10.1224482421875,-0.05139174906313419,0.008141220879554748,-0.016830046296556246
1761309037083375000,10.132375,-0.06588613836169242,0.0078057053148746485,-0.018431655682250855
1761309037093303300,10.14230322265625,-0.07836451166272163,-0.003090367230772972,-0.016411968156602234
1761309037103230200,10.152230224609376,-0.05728899040818214,-0.016570026528835297,-0.017019213334750382
1761309037113158100,10.162158203125,-0.03479191191792488,-0.008573182556033133,-0.024320494525134562
1761309037123085300,10.172085205078124,-0.01958966661095619,-0.010931728380918502,-0.027621764560230074
1761309037133013200,10.18201318359375,-0.0007516951501369476,-0.024848610052466392,-0.02165839917641133
1761309037142940200,10.191940185546875,0.009816460615396498,-0.020610826352238654,-0.016023279366269707
1761309037152868400,10.201868408203126,0.016262568014860153,-0.02689502118825912,-0.017879940083622932
1761309037162795000,10.211794921875,0.028563831183314323,-0.02511047585904598,-0.019085461682174353
1761309037172723000,10.221722900390626,0.012054010409116744,-0.01680909598171711,-0.016383308317698537
1761309037182650000,10.231650146484375,-0.005222118562459945,-0.017463760498166083,-0.018162373754195868
1761309037192578000,10.241578125,-0.0025467618733644483,-0.006499883413314819,-0.018058529787231235
1761309037202505200,10.251505126953125,-0.02768997095823288,-0.004083469921350479,-0.007086396330688149
1761309037212433200,10.26143310546875,-0.04406126004457474,-0.02286883441209793,-0.009497713522426784
1761309037222360000,10.271360107421875,-0.05400280834436416,-0.020555296772718428,-0.010319039842672646
1761309037232288000,10.2812880859375,-0.0663011489033699,-0.013501871129870413,-0.016630579343345015
1761309037242215200,10.291215087890626,-0.0497878209978342,0.000796118813753128,-0.006682710329801193
1761309037252143000,10.30114306640625,-0.03557049507498741,-0.002515197691321373,-0.004012176517117768
1761309037262070300,10.3110703125,-0.038030747708678245,-0.008453940090537071,0.0011162912496511124
1761309037271998200,10.320998291015625,-0.03729132751822471,-0.018339958810806273,0.0026310060907155275
1761309037281925000,10.330925048828124,-0.007764788782596587,-0.02453939797282219,-0.002395626432262361
1761309037291853300,10.340853271484375,-0.015394553008675574,-0.005998363631963729,-0.004081880752462894
1761309037301780200,10.3507802734375,0.009358195453882216,-0.023860183537006377,-0.0033677959326654672
1761309037311708200,10.360708251953126,0.008550386202335357,-0.013910451930761337,-0.01222295550154522
1761309037321635300,10.37063525390625,0.014905308187007903,-0.008425883039832115,-0.012393380165006965
1761309037331563300,10.380563232421874,0.008365677285194396,-0.008153495839238167,-0.023622337926831095
1761309037341490200,10.390490234375,-0.011409867286682128,-0.01439911223053932,-0.028194048022851345
1761309037351418400,10.40041845703125,-0.03039864539504051,-0.010804887130856514,-0.03513681636545807
1761309037361345000,10.410344970703125,-0.036974516654014584,-0.01977963622510433,-0.03352236690614372
1761309037371273200,10.420273193359375,-0.040756373280286785,-0.02033259393274784,-0.030635632488690313
1761309037381200100,10.4302001953125,-0.04808277064561844,-0.01151040505170822,-0.02520228232834488
1761309037391128000,10.440128173828125,-0.0549380433678627,0.014638766205310821,-0.028451876975130286
1761309037401055000,10.450054931640626,-0.04031798186302185,0.008380874854326247,-0.03161309921871871
1761309037410983200,10.459983154296875,-0.049724108111858366,-0.022336919492483138,-0.021002346420474348
1761309037420910000,10.46991015625,-0.035309798312187196,-0.023903438156843183,-0.0197571686649695
1761309037430838000,10.479838134765625,-0.02366436870396137,-0.021649521750211714,-0.015547751401056301
1761309037440765200,10.48976513671875,-0.014063596665859221,-0.006719663643836975,-0.013660221763048321
1761309037450693000,10.499693115234376,0.004749240353703499,-0.018950199663639068,-0.008365531154721976
1761309037460620300,10.509620361328125,0.007193710896372794,-0.025128011515736577,-0.012223247762490064
1761309037470548200,10.51954833984375,0.01359481011033058,-0.023133038306236267,-0.015897862888313827
1761309037480475100,10.52947509765625,0.009242460119724273,-0.020559388425946235,-0.012696893156226723
1761309037490403000,10.539403076171874,-0.015813655203580856,-0.006263152047991752,-0.0019431882233358919
1761309037500330200,10.549330322265625,-0.022061609682440756,-0.007788754180073737,0.0009289885166246676
1761309037510257200,10.559257080078124,-0.03704582832455635,-0.018843232157826423,-0.006406780036073177
1761309037520185300,10.569185302734375,-0.05200374348163604,-0.01914835258424282,-0.013864548696111888
1761309037530112300,10.5791123046875,-0.05078910699486732,-0.02485737788081169,-0.006061163202486932
1761309037540040200,10.589040283203126,-0.040924715584516526,-0.022757190731167793,-0.007256839260458945
1761309037549967400,10.59896728515625,-0.03175122904777527,-0.007400047123432159,-0.005181859617307782
1761309037559895300,10.608895263671876,-0.023646248525381088,-0.004592003965377807,-0.019784367199148983
1761309037569822000,10.618822021484375,-0.01733399663865566,-0.001482347512245178,-0.018955221756984247
1761309037579750100,10.628750244140624,-0.005999532675743103,-0.007730886512994766,-0.0168749814168259
1761309037589677800,10.638677734375,-0.010976736566424368,-0.010835866791009903,-0.015296079336572437
1761309037599605800,10.648605712890625,-0.014575637841224669,-0.01157704054713249,-0.027422369530610738
1761309037609533000,10.658532958984376,-0.026900281885266303,-0.0070353054642677305,-0.022194752809125928
1761309037619460900,10.6684609375,-0.02019406224489212,-0.009402619117498397,-0.01351244732281193
1761309037629387800,10.6783876953125,-0.022652561312913894,-0.02444821255803108,-0.01771190830664709
1761309037639316000,10.68831591796875,-0.02368190436065197,-0.027601708152890203,-0.022910463330429048
1761309037649243000,10.698242919921874,-0.01730710863173008,-0.018260463833808898,-0.018268244139821036
1761309037659170800,10.7081708984375,-0.010517302361130713,-0.016219313395023346,-0.015635485625080763
1761309037669098000,10.718097900390624,-0.02301730297207832,-0.0019213234513998031,-0.022945936502609402
1761309037679026000,10.72802587890625,-0.025747604718804357,-0.003531681257486343,-0.017466720781876936
1761309037688952600,10.73795263671875,-0.028573768055438993,-0.011778116077184677,-0.008829166611097752
1761309037698881000,10.747881103515626,-0.03553425471782684,-0.028612931022047997,-0.010281283381860703
1761309037708807700,10.7578076171875,-0.024892449194192885,-0.008882979157567023,-0.012641747169196605
1761309037718735600,10.767735595703124,-0.02805237452983856,-0.015455927807092667,-0.014268508120812476
1761309037728662800,10.777662841796875,-0.03083703681230545,-0.020156652843952176,-0.012156119076721369
1761309037738590700,10.7875908203125,-0.02717792978286743,-0.02711129428744316,-0.009791764565557241
1761309037748517600,10.797517578125,-0.018975334104895592,-0.013318331256508827,-0.012426789244264363
1761309037758445800,10.80744580078125,-0.016921908706426618,-0.007891630032658576,-0.010793963878042996
1761309037768372700,10.817372802734376,-0.012571896803379059,-0.013288520640134811,-0.013934636523947119
1761309037778300700,10.82730078125,-0.026398177582025527,-0.00843698895573616,-0.01736793544087559
1761309037788227800,10.837227783203126,-0.023011457753181457,-0.013915128105878829,-0.016557952498551458
1761309037798155800,10.84715576171875,-0.023047113588452336,-0.01507189692556858,-0.01019512120205909
1761309037808083000,10.8570830078125,-0.03042436435818672,-0.007547346639633178,-0.016627327940333635
1761309037818011000,10.867010986328125,-0.025371757143735883,-0.00003156418204307556,-0.011003222714550792
1761309037827937800,10.876937744140625,-0.022886954590678212,-0.007457330268621444,-0.018252627587225286
1761309037837865700,10.88686572265625,-0.02899520833790302,-0.010474632263183592,-0.025768866702541707
1761309037847793000,10.89679296875,-0.030852818903326987,-0.009972527959942816,-0.02019042724939063
1761309037857720800,10.906720947265624,-0.02117839710712433,-0.01022679498195648,-0.01592900694524869
1761309037867648000,10.91664794921875,-0.017887538868188856,-0.018155834415555,-0.01623438309999183
1761309037877576000,10.926575927734374,-0.02347790622115135,-0.008677227452397346,-0.018291717488598078
1761309037887502800,10.9365029296875,-0.014976619857549667,-0.021818448576331136,-0.013796013504546135
1761309037897429800,10.9464296875,-0.01260579907298088,-0.008777765217423439,-0.014650328778941183
1761309037907357700,10.956357666015625,-0.022482465443015097,-0.014013327783346175,-0.007930408835955314
1761309037917284600,10.96628466796875,-0.013152327039837836,-0.022145196312665937,-0.010145546439290045
1761309037927212800,10.976212890625,-0.017116554495692254,-0.005607318487763404,-0.012527107813581824
1761309037937139700,10.9861396484375,-0.013640402817726134,-0.0004033201038837433,-0.013359923642221837
1761309037947067600,10.996067626953124,-0.026768179938197134,-0.008074585384130478,-0.008983389058429747
1761309037956994800,11.005994873046875,-0.022814473876357075,-0.015772154149413107,-0.015238540463056414
1761309037966922800,11.0159228515625,-0.02083236014842987,-0.01656242774426937,-0.01897781832292676
1761309037976850000,11.025849853515625,-0.03288520151376724,-0.014239537754654884,-0.016353260239306836
1761309037986777900,11.03577783203125,-0.02323825224637985,-0.01580956355035305,-0.015328264573123305
1761309037996704800,11.045704833984376,-0.022126491612195966,-0.013931494718790053,-0.018799155554082243
1761309038006632700,11.0556328125,-0.03289046221077442,-0.018135960671305656,-0.025919435888063162
1761309038016559900,11.065559814453126,-0.03798223239183426,-0.017833178332448005,-0.011627455560117959
1761309038026487800,11.07548779296875,-0.02928454667329788,-0.01560731897652149,-0.018368198524601757
1761309038036415000,11.0854150390625,-0.013962474378943442,-0.007881693160533904,-0.01545709685087204
1761309038046343000,11.095343017578125,-0.01840191813111305,-0.0029980127722024916,-0.016466803616378454
1761309038056269800,11.105269775390624,-0.023322423398494718,-0.014991232904791832,-0.021960341265052554
1761309038066197800,11.11519775390625,-0.01871171473264694,-0.007039397117495536,-0.014267466941196471
1761309038076125000,11.125125,-0.026372458618879317,-0.029013328516483305,-0.008388784166146069
1761309038086052900,11.135052978515626,-0.03099778033196926,-0.015415011274814604,-0.009686660223267972
1761309038095979800,11.144979736328125,-0.012365560576319694,-0.004721183302998542,-0.014519194946251809
1761309038105907700,11.15490771484375,-0.010878536888957024,-0.00336450799703598,-0.0182439328241162
1761309038115834600,11.164834716796875,-0.007383680510520935,-0.00042260932624340057,-0.013301891578361391
1761309038125762800,11.1747626953125,-0.01296703360080719,-0.016084288838505743,-0.014141447675041854
1761309038135689700,11.184689697265625,-0.020872692158818245,-0.027474866902828216,-0.012344682185072451
1761309038145617700,11.19461767578125,-0.024074703070521352,-0.017230536264181136,-0.012489425559650408
1761309038155544800,11.204544921875,-0.031164953592419622,-0.017319383591413495,-0.010094309442397207
1761309038165472800,11.21447265625,-0.0393137732565403,0.0017559037566184997,-0.009999361167941243
1761309038175399700,11.224399658203126,-0.036440848168730736,0.0014279869765043258,-0.006585844092894694
1761309038185326800,11.234326904296875,-0.024590251377224922,-0.014916998624801635,-0.007474409267585724
1761309038195254800,11.2442548828125,-0.03894084829092025,-0.017331658551096914,-0.013970822082180529
1761309038205182000,11.254181884765625,-0.04236673108637333,-0.023493688312172887,-0.026438381728250533
1761309038215110000,11.26410986328125,-0.030024551385641095,-0.01070610293149948,-0.017048201967217028
1761309038225036800,11.274036865234375,-0.037571898025274275,-0.00032967034578323365,-0.01602296883901581
1761309038234964700,11.28396484375,-0.036837154009938235,-0.015436638584733008,-0.024124113436508922
1761309038244892000,11.293891845703126,-0.0156722009062767,-0.02852349917292595,-0.0167831384149089
1761309038254819800,11.30381982421875,-0.021966332614421845,-0.017891045999526976,-0.016903167473338542
1761309038264747000,11.3137470703125,-0.00873626416325569,-0.023636311653256414,-0.01615616676462814
1761309038274675000,11.323675048828125,0.0028700024783611298,-0.00007364975810050964,-0.026989147478807717
1761309038284601600,11.3336015625,-0.015466449201107024,-0.009268179082870483,-0.014415972033794968
1761309038294529800,11.34352978515625,-0.023148820397257804,-0.01595335593521595,-0.014498663614876568
1761309038304456700,11.353456787109375,-0.020797873356938362,-0.025027473750710485,-0.02266279044598341
1761309038314384600,11.363384521484376,-0.020134441012144087,-0.011909048980474471,-0.0236962982121855
1761309038324311800,11.373311767578125,-0.0032411738783121105,-0.007100187394022941,-0.018659491355065255
1761309038334239700,11.38323974609375,-0.014609540110826491,-0.005157821154594421,-0.009511321922671049
1761309038344166700,11.393166748046875,-0.019112112227082253,0.0011398176848888397,-0.009878201881638961
1761309038354094800,11.4030947265625,-0.04133329638540745,-0.012703998750448225,-0.014150763492658733
1761309038364021800,11.413021728515625,-0.04445172066688537,-0.020663433322310448,-0.01738996460959315
1761309038373949700,11.42294970703125,-0.03664426178634166,-0.019946809485554693,-0.006900463570840657
1761309038383876900,11.432876953125,-0.027442133677005768,-0.018826281023025512,-0.010700312511529773
1761309038393804800,11.4428046875,-0.019961422532796858,-0.003717559218406677,-0.011561733380146324
1761309038403731700,11.452731689453126,-0.02588029118776321,0.005040916776657104,-0.005221698437351733
1761309038413660000,11.462659912109375,-0.018906945043802262,-0.011661211699247359,-0.01004288978241384
1761309038423586800,11.4725869140625,-0.014665069690346717,-0.013507131826877593,-0.019176172172930092
1761309038433514800,11.4825146484375,-0.010100538253784179,-0.020014029502868652,-0.017736805285885927
1761309038443442000,11.49244189453125,-0.01620294678211212,-0.009714753806591033,-0.0084352353900671
1761309038453368800,11.502368896484375,-0.011739537632465363,-0.002651391291618347,-0.015784228179696946
1761309038463296800,11.512296875,-0.004648118066787719,-0.0131757079154253,-0.0179938122542575
1761309038473223700,11.5222236328125,-0.02332593052983284,-0.017082067704200742,-0.021278752209059892
1761309038483152000,11.53215185546875,-0.024197452667355537,-0.0018377368211746215,-0.02573527496019378
1761309038493078800,11.542078857421876,-0.02683598447740078,-0.009521861582994461,-0.02768045421121642
1761309038503006700,11.5520068359375,-0.036513913404941555,0.0006003039807081222,-0.0242029508263804
1761309038512933600,11.56193359375,-0.03747837452292442,0.009188684105873108,-0.02547311689266935
1761309038522861800,11.57186181640625,-0.04814589900970459,-0.006498714369535446,-0.02190662005012855
1761309038532788700,11.581788818359374,-0.04236030134558678,-0.0004985971719026565,-0.026446692898869514
1761309038542716700,11.591716552734376,-0.0005938742399215698,0.09372223979234695,-0.059997829241771244
1761309038552643800,11.601643798828125,-0.04571896412372589,-0.019334230545163155,-0.07524650750635191
1761309038562571800,11.61157177734375,-0.009459317740797996,-0.16975275554955005,-0.02576510384287685
1761309038572498700,11.621498779296875,-0.03869651814103126,-0.09873977569341659,-0.03887408493133262
1761309038582427000,11.631427001953124,0.04820084406733512,0.013109656941890716,-0.015229918765183537
1761309038592353500,11.641353515625,0.04419043938219547,0.06936696621477603,-0.0000899798383936286
1761309038602281500,11.651281494140624,0.026357845571637152,0.03739771050214767,0.024029676618706433
1761309038612208600,11.661208740234375,-0.032684710505604744,-0.018750293177366255,0.030194665521848945
1761309038622136600,11.671136474609375,-0.05153437240421772,-0.0654120911091566,0.03650947469184175
1761309038632063700,11.681063720703126,-0.08344809853732585,-0.03916822730600834,0.02903345798905939
1761309038641991700,11.69099169921875,-0.09846972658038139,-0.010088847815990447,0.01928335887445137
1761309038651918600,11.700918701171876,-0.10698562599122524,-0.02657879484593868,0.02939586156066507
