time,seconds_elapsed,z,y,x
1761309027028035800,0.077035888671875,0.0418984480202198,-0.04458557814359665,0.038418229669332504
1761309027037963000,0.086962890625,0.047023966908454895,-0.04728016257286072,0.020716197788715363
1761309027047891000,0.096890869140625,0.05197664722800255,-0.05064879730343819,0.005717806983739138
1761309027057817900,0.10681787109375,0.05125147104263306,-0.0526493638753891,0.0038951393216848373
1761309027067746000,0.11674609375,0.05248504504561424,-0.05492423474788666,0.0056922403164207935
1761309027077674000,0.126674072265625,0.04755127429962158,-0.04970017820596695,0.001466869143769145
1761309027087601000,0.136600830078125,0.04321351647377014,-0.04710439592599869,-0.00956554152071476
1761309027097528800,0.14652880859375,0.03905285894870758,-0.03657585382461548,-0.022346850484609604
1761309027107456000,0.1564560546875,0.03303837776184082,-0.02744387462735176,-0.02179131470620632
1761309027117384000,0.166384033203125,0.02352902851998806,-0.021702898666262627,-0.018625082448124886
1761309027127311000,0.17631103515625,0.01509879156947136,-0.014358432963490486,-0.007131146267056465
1761309027137239000,0.186239013671875,0.006313822232186794,-0.004732969682663679,0.005872536450624466
1761309027147165700,0.196165771484375,-0.0035151063930243254,0.0031334753148257732,0.008832640014588833
1761309027157094000,0.206093994140625,-0.011568771675229073,0.01401595026254654,0.009917345829308033
1761309027167020800,0.216020751953125,-0.01979074813425541,0.021285047754645348,0.01104599330574274
1761309027176948700,0.22594873046875,-0.023630227893590927,0.028376247733831406,0.011690211482346058
1761309027186876700,0.235876708984375,-0.029142439365386963,0.033720679581165314,0.023000124841928482
1761309027196803800,0.245803955078125,-0.030357107520103455,0.03207964077591896,0.024285364896059036
1761309027206731800,0.255731689453125,-0.03411456197500229,0.04084010794758797,0.02774268202483654
1761309027216659000,0.265658935546875,-0.0305698923766613,0.0299065001308918,0.01848020777106285
1761309027226587000,0.2755869140625,-0.029410885646939278,0.028258536010980606,0.01768605224788189
1761309027236513800,0.285513671875,-0.025475265458226204,0.024709073826670647,0.014112623408436775
1761309027246441700,0.295441650390625,-0.019404323771595955,0.01782240718603134,0.018621355295181274
1761309027256369000,0.305368896484375,-0.0128145981580019,0.011401258409023285,0.012375176884233952
1761309027266296800,0.315296875,-0.002924150787293911,0.00222027744166553,0.012122709304094315
1761309027276224000,0.32522412109375,0.005247758701443672,-0.006316751707345247,0.004720719531178474
1761309027286152000,0.33515185546875,0.00621182331815362,-0.007159109693020582,-0.0027379959356039762
1761309027296078800,0.345078857421875,0.014007162302732468,-0.01775449514389038,-0.003373159794136882
1761309027306006800,0.3550068359375,0.019156916067004204,-0.01565379463136196,0.000278300343779847
1761309027315934000,0.364933837890625,0.02082991413772106,-0.02226748876273632,-0.002484462922438979
1761309027325862000,0.37486181640625,0.021950306370854378,-0.025318672880530357,-0.00005858954318682663
1761309027335789800,0.384789794921875,0.0224981177598238,-0.019291672855615616,-0.0003326288133393973
1761309027345717000,0.394717041015625,0.017850369215011597,-0.019887687638401985,0.001377653214149177
1761309027355645000,0.40464501953125,0.017483917996287346,-0.017117734998464584,0.003233077470213175
1761309027365572000,0.414572021484375,0.014567757025361061,-0.012081963010132313,0.00896926037967205
1761309027375500000,0.4245,0.007335943635553122,-0.011942945420742035,0.014657772146165371
1761309027385426700,0.4344267578125,0.0064834654331207275,-0.003939081449061632,0.015980564057826996
1761309027395355000,0.44435498046875,-0.001273523666895926,0.0023699470330029726,0.013543505221605301
1761309027405281800,0.45428173828125,-0.004012584686279297,0.006747385021299124,0.012703278101980686
1761309027415209700,0.464209716796875,-0.010039318352937698,0.011410580016672611,0.009304285980761051
1761309027425137000,0.474136962890625,-0.012259329669177532,0.01312059536576271,0.012170379981398582
1761309027435064800,0.48406494140625,-0.01458666566759348,0.014683338813483715,0.007450725883245468
1761309027444992800,0.49399267578125,-0.017121195793151855,0.017198961228132248,0.004860002547502518
1761309027454920000,0.503919921875,-0.01817713864147663,0.018434135243296623,0.0040855552069842815
1761309027464848000,0.513847900390625,-0.015969911590218544,0.01780056767165661,0.0022602248936891556
1761309027474774800,0.52377490234375,-0.016756076365709305,0.021090904250741005,0.005051217507570982
1761309027484702700,0.53370263671875,-0.01197117567062378,0.01582716591656208,0.004718322306871414
1761309027494630000,0.5436298828125,-0.011040933430194855,0.006293315906077623,0.003634682158008218
1761309027504557800,0.553557861328125,-0.006483998149633408,0.00526640098541975,0.008554605767130852
1761309027514485000,0.563485107421875,0.0007084008539095521,0.004816326778382063,0.010790063068270683
1761309027524413000,0.573412841796875,-0.0004886900424025953,-0.0031763522420078516,0.011004980653524399
1761309027534339800,0.58333984375,0.00780705688521266,-0.006102100946009159,0.013259080238640308
1761309027544267800,0.593267822265625,0.009781524538993835,-0.008056594990193844,0.014160826802253723
1761309027554196000,0.603196044921875,0.012205000966787338,-0.010351707227528095,0.014154701493680477
1761309027564123000,0.613122802734375,0.012983443215489388,-0.013085441663861275,0.009581787511706352
1761309027574050800,0.62305078125,0.01085664238780737,-0.01170272845774889,0.009368201717734337
1761309027583977000,0.63297705078125,0.01330009289085865,-0.012299276888370514,0.007673099637031555
1761309027593905000,0.64290478515625,0.010290720500051975,-0.012602876871824265,0.006764695513993502
1761309027603832000,0.65283203125,0.006338589824736118,-0.008873652666807175,0.005564675200730562
1761309027613760000,0.662760009765625,0.0008127967594191432,-0.004230697639286518,0.003988882526755333
1761309027623687000,0.67268701171875,0.0024831313639879227,-0.0019038938917219639,0.00532605592161417
1761309027633615000,0.682614990234375,-0.00028522455249913037,0.001987783471122384,0.005885852500796318
1761309027643542000,0.6925419921875,-0.0029172266367822886,0.0037063213530927896,0.009721869602799416
1761309027653470000,0.702469970703125,-0.00574843306094408,0.0057159424759447575,0.011461978778243065
1761309027663398100,0.712398193359375,-0.007214237004518509,0.007225155830383301,0.010818825103342533
1761309027673325000,0.722324951171875,-0.00768881244584918,0.008794556371867657,0.014149374328553677
1761309027683253000,0.7322529296875,-0.008066182024776936,0.010296313092112541,0.012056662701070309
1761309027693180200,0.74218017578125,-0.010368751361966133,0.009046225808560848,0.011271828785538673
1761309027703108000,0.752108154296875,-0.009295497089624405,0.007987353019416332,0.012051869183778763
1761309027713035000,0.762034912109375,-0.00812264159321785,0.004953745752573013,0.007255249656736851
1761309027722963200,0.771963134765625,-0.005545500200241804,0.0070160976611077785,0.004093278665095568
1761309027732889900,0.781889892578125,-0.0016407734947279096,0.00443922309204936,-0.0004215783847030252
1761309027742818000,0.791818115234375,0.0005075985100120306,0.0006468818173743784,-0.0008788431296125054
1761309027752745000,0.801744873046875,-0.0006207828409969807,-0.0000399474156438373,0.0003616572648752481
1761309027762673000,0.8116728515625,0.0007757788407616317,0.0006087986403144896,0.0011022823164239526
1761309027772600800,0.821600830078125,0.0037910097744315863,0.00024208133982028812,0.002329200739040971
1761309027782528000,0.831528076171875,0.004985171370208263,-0.0014146711910143495,0.008116516284644604
1761309027792456000,0.8414560546875,0.005390770733356476,-0.00615110294893384,0.008897887542843819
1761309027802382800,0.8513828125,0.0073407371528446674,-0.004723382648080587,0.014369618147611618
1761309027812311000,0.86131103515625,0.006330333650112152,-0.006981743033975363,0.015420234762132168
1761309027822238000,0.871238037109375,0.005395031534135342,-0.0014346449170261621,0.014872423373162746
1761309027832166000,0.881165771484375,0.0029377329628914595,-0.00011238539445912465,0.01781628094613552
1761309027842093000,0.891093017578125,0.0004897553008049726,-0.0032956618815660477,0.011534417048096657
1761309027852021000,0.90102099609375,0.002025067573413253,0.0001685781026026234,0.011028416454792023
1761309027861948000,0.910947998046875,-0.000222373942960985,-0.00009187905379803851,0.0070608388632535934
1761309027871876000,0.9208759765625,-0.0025987126864492893,0.0013006879016757011,0.0076422072015702724
1761309027881804000,0.930803955078125,-0.00703846849501133,0.0030426615849137306,0.00370126124471426
1761309027891731000,0.94073095703125,-0.006149505265057087,0.006339921150356531,0.000017843178284238093
1761309027901659100,0.9506591796875,-0.007725563831627369,0.0065439194440841675,-0.0011358382180333138
1761309027911586000,0.9605859375,-0.007527424953877926,0.009836118668317795,0.0018551580142229795
1761309027921514000,0.970513916015625,-0.005970008205622435,0.004144411068409681,0.005510346498340368
1761309027931441200,0.980441162109375,-0.004292216617614031,0.007143929600715637,0.01008166279643774
1761309027941369000,0.990369140625,-0.002929743379354477,0.003207511268556118,0.006088785361498594
1761309027951296000,1.0002958984375,-0.00315957423299551,0.007400125730782747,0.016317985951900482
1761309027961224200,1.01022412109375,0.0006617955514229834,0.0013427657540887594,0.017100689932703972
1761309027971152100,1.020152099609375,0.0013760552974417806,-0.002566754585132003,0.021037373691797256
1761309027981079000,1.0300791015625,0.002540122950449586,-0.001448759576305747,0.018965966999530792
1761309027991007000,1.040007080078125,0.0059937103651463985,-0.00433003343641758,0.0182903241366148
1761309028000934000,1.049933837890625,0.005750829819589853,-0.006464557256549597,0.01792360655963421
1761309028010862000,1.059862060546875,0.008409463800489902,-0.007910653948783875,0.014132063835859299
1761309028020789000,1.0697890625,0.008902148343622684,-0.006130064371973276,0.012851616367697716
1761309028030717000,1.079717041015625,0.00965928565710783,-0.009607086889445782,0.006672017276287079
1761309028040643800,1.089643798828125,0.00863157119601965,-0.004866394214332104,0.004808337427675724
1761309028050572000,1.099572021484375,0.007321029901504517,-0.007962585426867008,0.0014961638953536749
1761309028060500000,1.1095,0.008889365009963512,-0.007507983595132828,-0.002612560987472534
1761309028070427000,1.119427001953125,0.0031220237724483013,-0.0003680488734971732,0.00018375810759607702
1761309028080354800,1.129354736328125,0.0043769050389528275,-0.0009627327090129256,0.0020572920329868793
1761309028090282000,1.139281982421875,0.0011443602852523327,0.0035750274546444416,0.006768424063920975
1761309028100210000,1.1492099609375,-0.0009323726990260184,0.0022426480427384377,0.010703244246542454
1761309028110137000,1.15913720703125,-0.006373743526637554,0.006897054612636566,0.013052418828010559
1761309028120065000,1.16906494140625,-0.008197742514312267,0.004971056245267391,0.013616742566227913
1761309028129992000,1.178991943359375,-0.007954329252243042,0.006953513715416193,0.014337394386529922
1761309028139920000,1.188919921875,-0.008220645599067211,0.010377805680036545,0.01483753602951765
1761309028149848000,1.19884814453125,-0.007892011664807796,0.008053398691117764,0.014356834813952446
1761309028159775000,1.20877490234375,-0.012446549721062183,0.010559167712926865,0.009681922383606434
1761309028169703000,1.218702880859375,-0.007381217088550329,0.00971760880202055,0.007785485126078129
1761309028179630000,1.228630126953125,-0.008108792826533318,0.008192948997020721,0.0019126823171973228
1761309028189558000,1.23855810546875,-0.0054213968105614185,0.006090915761888027,-0.0000756337758502923
1761309028199485200,1.248485107421875,-0.005270928610116243,0.0065710837952792645,-0.00015819176041986793
1761309028209413000,1.2584130859375,-0.005912483669817448,0.004396879114210606,-0.003346261801198125
1761309028219340000,1.268340087890625,-0.0014801849611103535,0.004185956437140703,-0.0024828650057315826
1761309028229268000,1.27826806640625,-0.0011227887589484453,0.004353735595941544,0.00126739835832268
1761309028239196200,1.288196044921875,-0.0006258428329601884,-0.0008311725687235594,0.003221093211323023
1761309028249123000,1.298123046875,-0.0006106628570705652,-0.000014913702216290403,0.007506385911256075
1761309028259051000,1.308051025390625,0.0038807583041489124,-0.0037436054553836584,0.012262525036931038
1761309028268978200,1.317978271484375,0.0011315771844238043,-0.002412291243672371,0.013543771579861641
1761309028278906000,1.327906005859375,0.003962517250329256,-0.00364666641689837,0.018192851915955544
1761309028288833000,1.3378330078125,0.007324757985770702,-0.003126284806057811,0.015529691241681576
1761309028298761000,1.347760986328125,0.0067844027653336525,-0.004506068304181099,0.017832793295383453
1761309028308689200,1.357689208984375,0.006686398293823004,-0.004381965380162001,0.015561116859316826
1761309028318615800,1.36761572265625,0.006652310024946928,-0.005388640332967043,0.012435098178684711
1761309028328544000,1.3775439453125,0.004003529902547598,-0.0041547976434230804,0.010000170208513737
1761309028338471000,1.387470947265625,-0.0004673847579397261,-0.000945954816415906,0.007917577400803566
1761309028348398800,1.39739892578125,-0.0013462279457598925,0.00019813918333966285,0.005113269202411175
1761309028358326000,1.407325927734375,-0.0016229304019361734,-0.00038269624928943813,0.002371544949710369
1761309028368254000,1.41725390625,0.0006769755273126066,0.0031222901307046413,0.004707936197519302
1761309028378180900,1.427180908203125,-0.0008697884040884674,0.0020509003661572933,0.006430468522012234
1761309028388109000,1.437109130859375,-0.0006372944335453212,0.00236275652423501,0.004187288228422403
1761309028398037000,1.447037109375,-0.003020024625584483,0.003742806613445282,0.008103732950985432
1761309028407964000,1.4569638671875,-0.005314870737493038,0.004522846546024084,0.011218300089240074
1761309028417892000,1.46689208984375,-0.0027270768769085407,0.010177535936236382,0.013184511102735996
1761309028427819000,1.476819091796875,-0.004465055651962757,0.004347610287368298,0.012959208339452744
1761309028437747000,1.486746826171875,-0.006028597708791494,0.0017470336752012372,0.008046208880841732
1761309028447674000,1.496674072265625,-0.004286890383809805,0.0020607539918273687,0.013797038234770298
1761309028457602000,1.50660205078125,-0.0035119105596095324,0.001284975209273398,0.01209927350282669
1761309028467529000,1.516529052734375,-0.0008892294717952609,0.0037209687288850546,0.011869176290929317
1761309028477457200,1.52645703125,0.0021603561472147703,0.0005677859298884869,0.006995059084147215
1761309028487385000,1.536385009765625,-0.0006612628931179643,0.0014761901693418622,0.004504204262048006
1761309028497312000,1.54631201171875,-0.00039974047103896737,-0.00037230990710668266,0.005106611177325249
1761309028507240000,1.556239990234375,0.0036509274505078793,0.0004596615908667445,0.003635214874520898
1761309028517167000,1.5661669921875,0.0006388923502527177,-0.006197708658874035,0.004811533261090517
1761309028527095000,1.576094970703125,0.001961418194696307,-0.00011185276525793597,0.004535363521426916
1761309028537022200,1.586022216796875,0.005464540328830481,-0.004870655480772257,0.003846403444185853
1761309028546950100,1.5959501953125,0.00401631323620677,-0.0031015174463391304,0.013128318823873997
1761309028556876800,1.605876708984375,0.0020716730505228043,-0.005297559779137373,0.012507003732025623
1761309028566805000,1.615804931640625,0.001654355670325458,-0.0028221518732607365,0.011389540508389473
1761309028576733400,1.6257333984375,0.0010663296561688185,-0.0030357372015714645,0.013146694749593735
1761309028586660000,1.63566015625,0.0004964132094755769,-0.0019273296929895878,0.01164600346237421
1761309028596588000,1.645588134765625,-0.0019835224375128746,0.00031185615807771683,0.011336278170347214
1761309028606515200,1.65551513671875,-0.0028786107432097197,0.0021465078461915255,0.004909005016088486
1761309028616443100,1.665443115234375,-0.0008311725687235594,0.005391303449869156,0.009954895824193954
1761309028626370300,1.675370361328125,-0.0008737831376492977,0.004482632502913475,0.008293616585433483
1761309028636298200,1.68529833984375,-0.004633633885532618,0.004897020757198334,0.006384395994246006
1761309028646226200,1.69522607421875,-0.008066182024776936,0.0074017234146595,0.006155364215373993
1761309028656153000,1.705153076171875,-0.0049556102603673935,0.006080795545130968,0.004897287115454674
1761309028666081300,1.715081298828125,-0.0002564624010119587,0.004829908721148968,0.006609965581446886
1761309028676008200,1.72500830078125,-0.002772350562736392,0.004096474498510361,0.007832889445126057
1761309028685936000,1.73493603515625,-0.0023246733471751213,0.0006615291931666434,0.007139668334275484
1761309028695863300,1.74486328125,-0.0021587584633380175,0.0011385013349354267,0.012858807109296322
1761309028705791200,1.754791259765625,0.0007890945998951793,0.003564108395949006,0.009244364686310291
1761309028715718100,1.76471826171875,0.0011036139912903309,-0.000365918327588588,0.009373527951538563
1761309028725646300,1.774646240234375,0.0008532768115401268,0.0011595403775572777,0.006462160497903824
1761309028735574300,1.78457421875,0.0041369544342160225,-0.007065366487950087,0.008957808837294579
1761309028745501200,1.794501220703125,0.0008199872681871057,-0.003084473079070449,0.009334113448858261
1761309028755429400,1.804429443359375,0.001802693703211844,-0.0003933488915208727,0.008079231716692448
1761309028765356300,1.814356201171875,0.00446958327665925,-0.0021670141723006964,0.00965369213372469
1761309028775284200,1.8242841796875,0.000010652644050423987,-0.0008426241693086922,0.010449444875121117
1761309028785211400,1.83421142578125,-0.0005882922559976578,-0.00034461304312571883,0.009090966545045376
1761309028795139300,1.844139404296875,0.002251968951895833,-0.002787264296784997,0.009522132575511932
1761309028805067300,1.8540673828125,0.0030418625101447105,0.00016325176693499088,0.009282980114221573
1761309028814994400,1.863994384765625,0.00045353634050115943,0.0005589975044131279,0.009357282891869545
1761309028824922400,1.87392236328125,-0.0008221178431995213,-0.000945954816415906,0.010131996124982834
1761309028834849300,1.883849365234375,-0.001350222621113062,0.0029949909076094627,0.011803396046161652
1761309028844777500,1.893777587890625,-0.002645584288984537,0.005633917171508074,0.007220095954835415
1761309028854704000,1.9037041015625,-0.005160140804946423,0.0037268276792019606,0.006018477492034435
1761309028864632300,1.91363232421875,-0.002364886924624443,0.0028642297256737947,0.009733853861689568
1761309028874559200,1.923559326171875,-0.0021797972731292248,0.0024027039762586355,0.005843241699039936
1761309028884487200,1.933487060546875,-0.003552124137058854,0.003984355367720127,0.00570023013278842
1761309028894415000,1.9434150390625,-0.002269545802846551,0.004596882499754429,0.0038370825350284576
1761309028904342300,1.95334228515625,-0.006417419295758009,0.0030445256270468235,0.004986236337572336
1761309028914270200,1.963270263671875,-0.0022426480427384377,0.005078648217022419,0.00953837763518095
1761309028924197000,1.973197021484375,-0.004750014282763004,0.0020128171890974045,0.008958874270319939
1761309028934125300,1.983125244140625,0.0011004181578755379,0.002516687149181962,0.006475476082414389
1761309028944052200,1.99305224609375,-0.0006045375484973192,-0.0015656723408028483,0.011077950708568096
1761309028953980200,2.002980224609375,-0.0027622305788099766,-0.0009424926829524338,0.010656639002263546
1761309028963907300,2.0129072265625,0.0010580739472061396,0.0010729875648394227,0.01022920198738575
1761309028973835300,2.022835205078125,0.0013462279457598925,-0.0010317085543647408,0.009473396465182304
1761309028983763200,2.03276318359375,0.0033806166611611843,0.0008937568636611104,0.009998572058975697
1761309028993690400,2.0426904296875,0.00199310970492661,-0.002350772265344858,0.0073561836034059525
1761309029003618300,2.052618408203125,0.0016234630020335317,-0.0005938849062658846,0.00544323492795229
1761309029013545200,2.062545166015625,0.0006641923682764173,0.0008064051507972181,0.00743101816624403
1761309029023473200,2.07247314453125,0.001389637473039329,-0.0018602180061861873,0.005633650813251734
1761309029033400300,2.082400390625,-0.0016114787431433797,0.00006684534309897572,0.006201703101396561
1761309029043328300,2.092328369140625,0.0022682142443954945,-0.00011211907985853031,0.0067758806981146336
1761309029053256200,2.102256103515625,0.001427987008355558,0.0007880293414928019,0.005878395400941372
1761309029063183400,2.112183349609375,-0.00070520507870242,0.0025398568250238895,0.00863316934555769
1761309029073111300,2.122111328125,-0.003434146288782358,0.004689826630055904,0.010587130673229694
1761309029083038200,2.1320380859375,-0.001202150946483016,0.004018177278339863,0.008349009789526463
1761309029092966400,2.14196630859375,-0.002469549188390374,0.006849650293588638,0.010539726354181767
1761309029102893300,2.151893310546875,-0.0017158746486529708,0.002377403900027275,0.012089951895177364
1761309029112821200,2.1618212890625,-0.0011606055777519941,0.0010135991033166647,0.01218449417501688
1761309029122748200,2.171748046875,-0.0010511496802791953,-0.0002836266648955643,0.011565309949219227
1761309029132676400,2.18167626953125,-0.0011520835105329752,-0.00185089698061347,0.006995324976742268
1761309029142604300,2.191604248046875,-0.0015672702575102448,0.0037926076911389828,0.009127452038228512
1761309029152531200,2.20153125,-0.003658917034044862,0.004298608284443617,0.007050985470414162
1761309029162459100,2.211459228515625,-0.00011291803093627095,0.0024434502702206373,0.005156146362423897
1761309029172386000,2.221385986328125,0.0009598032338544726,0.001657018787227571,0.005130313336849213
1761309029182314200,2.231314208984375,-0.0005755090969614685,0.0037678403314203024,0.0034791536163538694
1761309029192241200,2.2412412109375,-0.0035513252951204777,0.0032836776226758957,0.005757221486419439
1761309029202169000,2.251169189453125,-0.0016410398529842496,0.001740642124786973,0.004516721237450838
1761309029212096300,2.26109619140625,-0.0019004317000508308,0.0008719189208932221,0.008915730752050877
1761309029222024200,2.271024169921875,0.0019539613276720047,0.0008780442294664681,0.01182044018059969
1761309029231952100,2.2809521484375,0.002495914464816451,-0.0021763353142887354,0.010548514313995838
1761309029241879300,2.29087939453125,0.0015704660909250379,0.001038366463035345,0.013366405852138996
1761309029251807200,2.30080712890625,0.0023616913240402937,-0.0011952266795560718,0.012938435189425945
1761309029261734100,2.310734130859375,0.002231462625786662,0.0014567491598427296,0.014477210119366646
1761309029271662300,2.320662353515625,0.0010330402292311192,-0.004218180663883686,0.014688665047287941
1761309029281589200,2.33058935546875,-0.0003475425182841718,-0.003291134489700198,0.013347497209906578
1761309029291517200,2.34051708984375,0.0028671592008322477,0.0005073322099633515,0.009822004474699497
1761309029301444400,2.3504443359375,0.00035899411886930466,-0.0007520766812376678,0.007333014160394669
1761309029311372300,2.360372314453125,0.0019518306944519281,-0.0015464976895600557,0.007413441315293312
1761309029321300200,2.37030029296875,0.002487925114110112,-0.00035712990211322904,0.001856223214417696
1761309029331227400,2.380227294921875,-0.00011984224693151191,-0.0016245282022282481,0.0015038870042189956
1761309029341155300,2.3901552734375,-0.002511094557121396,0.0034530546981841326,0.002989664673805237
1761309029351082200,2.400082275390625,-0.0004324973560869694,0.0006612628931179643,0.003412840887904167
1761309029361010400,2.410010498046875,-0.0016524913953617215,0.004462658893316984,0.006100236903876066
1761309029370937300,2.419937255859375,-0.0012631373247131705,0.0018788601737469435,0.007428088691085577
1761309029380865300,2.429865234375,-0.0017979000695049763,0.0019973707385361195,0.009907757863402367
1761309029390793200,2.439793212890625,-0.0033720945939421654,0.0016682040877640247,0.011018030345439911
1761309029400720400,2.449720458984375,-0.007011304143816233,0.003681021276861429,0.00990243162959814
1761309029410648300,2.4596484375,-0.00501100393012166,0.002228799508884549,0.014751248992979527
1761309029420575200,2.4695751953125,-0.003623496973887086,0.0007696535321883857,0.009739446453750134
1761309029430503400,2.47950341796875,0.0012977584265172482,0.0023529028985649347,0.013815946877002716
1761309029440430000,2.48943017578125,-0.0030983216129243374,-0.0011430287268012762,0.011088071390986443
1761309029450358300,2.499358154296875,-0.0025015072897076607,0.0027899276465177536,0.009068862535059452
1761309029460285200,2.50928515625,-0.0013600763631984591,-0.0030655646696686745,0.006298109423369169
1761309029470213000,2.519213134765625,-0.0002516687090974301,0.0010713896481320262,0.0051782503724098206
1761309029480141000,2.52914111328125,-0.0005137237603776157,-0.0033422671258449554,0.0041524008847773075
1761309029490068200,2.539068115234375,0.002939863596111536,-0.0012002866715192795,0.004853877238929272
1761309029499996200,2.54899609375,-0.000006924218723725062,-0.0022983080707490444,0.004573446698486805
1761309029509923300,2.55892333984375,-0.0000900148443179205,-0.0022533005103468895,0.007053914945572615
1761309029519851300,2.568851318359375,-0.0015576828736811876,-0.001216531964018941,0.007364705670624971
1761309029529778200,2.578778076171875,0.0005819007055833936,-0.002231462625786662,0.00881186779588461
1761309029539706000,2.5887060546875,0.0022985744290053844,0.00040986048406921327,0.010719222947955132
1761309029549633300,2.59863330078125,0.0018184063956141472,-0.0012471582740545273,0.01113361120223999
1761309029559561200,2.608561279296875,0.0001840244367485866,-0.0026351979468017817,0.015007445588707924
1761309029569488400,2.61848828125,-0.0004918858758173883,0.004323641769587994,0.011661183089017868
1761309029579416000,2.628416015625,-0.00020053602929692715,-0.00027803401462733746,0.010579939931631088
1761309029589344000,2.638343994140625,-0.0019659455865621567,-0.0009089368977583945,0.011477691121399403
1761309029599271200,2.648271240234375,-0.0023257385473698378,0.0046354979276657104,0.009757556021213531
1761309029609199000,2.65819921875,0.0000500674286740832,0.003276220755651593,0.00869388971477747
1761309029619126000,2.6681259765625,-0.0014026869321241975,0.001725462032482028,0.007697600871324539
1761309029629054000,2.678053955078125,-0.0009941579774022102,0.001612011343240738,0.007819307036697865
1761309029638981000,2.687981201171875,-0.002264485927298665,0.0006213154993019998,0.00654578348621726
1761309029648909000,2.697908935546875,-0.00009161273919744417,0.0034115093294531107,0.004086354281753302
1761309029658837000,2.7078369140625,-0.0018767296569421887,-0.0011315771844238043,0.006142048165202141
1761309029668764200,2.71776416015625,0.0022594258189201355,0.0021528995130211115,0.006217149551957846
1761309029678692000,2.727692138671875,0.0015448997728526592,0.0037923413328826427,0.006964965257793665
1761309029688619000,2.737618896484375,-0.0012551478575915098,0.002122006844729185,0.010838532820343971
1761309029698547000,2.747546875,-0.0011371697764843702,0.0024732777383178473,0.010066482238471508
1761309029708473900,2.757473876953125,0.0013044163351878524,0.001365402713418007,0.014058294706046581
1761309029718401800,2.76740185546875,-0.0006317017832770944,0.00046339002437889576,0.013829795643687248
1761309029728329000,2.777328857421875,-0.0013638047967106104,-0.00461579067632556,0.010656905360519886
1761309029738257000,2.7872568359375,-0.0030181603506207466,0.0014743260107934475,0.012953349389135838
1761309029748184000,2.79718408203125,0.002938798163086176,0.0015417039394378662,0.006153766065835953
1761309029758112000,2.807112060546875,0.001936917076818645,-0.00025246766745112836,0.006882140878587961
1761309029768040000,2.8170400390625,-0.002490854589268565,-0.004760933108627796,0.006614226847887039
1761309029777967000,2.826967041015625,0.0008993495139293373,-0.00018722022650763392,0.003736681304872036
1761309029787895000,2.83689501953125,0.0004005394293926656,0.003768905531615019,0.0022186795249581337
1761309029797822000,2.846822021484375,-0.0018884475575760007,0.002002430846914649,0.0034490597900003195
1761309029807750000,2.85675,-0.00040480049210600555,0.0014554174849763513,0.005858155433088541
1761309029817677000,2.866677001953125,-0.0009869674686342478,0.0016812535468488932,0.00863157119601965
1761309029827605000,2.87660498046875,-0.001427720650099218,-0.0009574064170010388,0.00875088106840849
1761309029837532200,2.8865322265625,-0.0037199032958596945,-0.0011528824688866735,0.009613478556275368
1761309029847460000,2.896460205078125,-0.00032330775866284966,0.004454935900866985,0.011717909015715122
1761309029857388000,2.906387939453125,-0.0014495585346594453,0.001020523370243609,0.013657222501933575
1761309029867315000,2.91631494140625,0.000672181835398078,-0.0009635316673666239,0.014623683877289295
1761309029877243100,2.9262431640625,-0.0005840312223881483,0.002216815249994397,0.015051653608679771
1761309029887170000,2.936170166015625,-0.0014085458824411035,0.00424321461468935,0.014591192826628685
1761309029897098000,2.946097900390625,-0.002549976808950305,0.004592621233314276,0.012377307750284672
1761309029907025200,2.956025146484375,-0.0015600797487422824,-0.00034461304312571883,0.010690194554626942
1761309029916953000,2.965953125,0.0007036071619950235,0.00138031633105129,0.007879228331148624
1761309029926880000,2.9758798828125,-0.0011004181578755379,-0.00020453077740967274,0.007543137297034264
1761309029936808200,2.98580810546875,0.0009408948244526982,0.0003347593592479825,0.005327919963747263
1761309029946736000,2.995736083984375,0.0010785802733153105,-0.0013227921444922686,0.001802960061468184
1761309029956662800,3.005662841796875,-0.0002926813904196024,-0.0029795446898788214,0.002835467690601945
1761309029966591200,3.01559130859375,-0.0007374293054454029,-0.00015819176041986793,0.002886333968490362
1761309029976518000,3.025517822265625,-0.0016508935950696468,-0.0008900284301489592,0.005478388629853725
1761309029986445800,3.03544580078125,0.0035270904190838337,-0.0016069513512775302,0.009014533832669258
1761309029996373000,3.045373046875,0.00307621737010777,-0.0018128136871382594,0.007508516311645508
1761309030006301000,3.055301025390625,0.0008218514849431813,0.002082858234643936,0.00905474741011858
1761309030016227800,3.065227783203125,0.00016671388584654778,0.002511627273634076,0.010337059386074543
1761309030026156000,3.075156005859375,-0.0013944311067461967,0.003026149934157729,0.007953530177474022
1761309030036083000,3.0850830078125,-0.0006468818173743784,0.001121457084082067,0.01344816479831934
1761309030046011000,3.095010986328125,-0.003866909770295024,0.0009057410643436015,0.00875114742666483
1761309030055939000,3.10493896484375,-0.001645300886593759,0.003567037871107459,0.01016901433467865
1761309030065866000,3.114865966796875,-0.0020186761394143105,0.004532966297119856,0.011695537716150284
1761309030075794000,3.1247939453125,-0.00344479875639081,0.0034197650384157896,0.00812104344367981
1761309030085721000,3.13472119140625,-0.0009424926829524338,0.00247594085521996,0.01005050353705883
1761309030095649000,3.14464892578125,-0.001615473534911871,0.0020120181143283844,0.006533532869070768
1761309030105576000,3.154575927734375,-0.0013025520602241158,0.005075718741863966,0.007771902717649937
1761309030115504000,3.164504150390625,-0.0012522183824330568,0.0023097596131265163,0.0027087011840194464
1761309030125431000,3.17443115234375,-0.0010660634143278003,0.0025537051260471344,0.0062371231615543365
1761309030135359000,3.18435888671875,0.001312139444053173,0.0013763216556981206,0.004480502102524042
1761309030145286100,3.1942861328125,-0.0007957525085657835,-0.0016040218761190772,0.003808053908869624
1761309030155214000,3.204214111328125,0.0006407565670087934,0.0005968143814243376,0.009544769302010536
1761309030165142000,3.21414208984375,-0.0007946872501634061,-0.00026604978484101593,0.009432916529476643
1761309030175069200,3.224069091796875,-0.0005009406013414264,0.00023675501870457083,0.010057960636913776
1761309030184997000,3.2339970703125,0.0023584954906255007,-0.0013206616276875138,0.013686250895261765
1761309030194924000,3.243924072265625,0.002010420197620988,-0.0007701861904934049,0.012105931527912617
1761309030204852200,3.253852294921875,-0.00152332813013345,0.002174204681068659,0.012454538606107235
1761309030214779000,3.26377880859375,0.000499875342939049,0.002317216480150819,0.009620136581361294
1761309030224706800,3.273706787109375,-0.0008862999966368079,-0.0008921589469537139,0.01034664735198021
1761309030234634000,3.283634033203125,-0.0013222594279795885,0.001116130850277841,0.008128500543534756
1761309030244562000,3.29356201171875,-0.0022650184109807014,0.0008364989189431071,0.00455666845664382
1761309030254489900,3.30348974609375,-0.000028762138754245825,0.0016562198288738728,0.006533266510814428
1761309030264417000,3.3134169921875,0.0002412823960185051,0.0052200620993971825,0.007637413218617439
1761309030274345000,3.323344970703125,-0.002609365154057741,-0.0002687129599507898,0.004926049150526524
1761309030284271900,3.33327197265625,-0.0016157397767528892,0.0031313446816056967,0.005619003437459469
1761309030294200000,3.343199951171875,-0.0007462177309207618,0.00005326322207110934,0.006207562051713467
1761309030304127000,3.353126953125,-0.0011912320042029023,0.006369215901941061,0.007766576483845711
1761309030314055000,3.363054931640625,-0.0023883229587227106,0.003440005239099264,0.008933840319514275
1761309030323982000,3.372982177734375,-0.001615473534911871,0.0007757788407616317,0.00968378596007824
1761309030333910000,3.382909912109375,-0.0021853898651897907,-0.001514273346401751,0.011999937705695629
1761309030343837000,3.3928369140625,0.0006005428149364889,-0.0003281014505773783,0.010135458782315254
1761309030353765000,3.40276513671875,-0.0012551478575915098,-0.0007792409160174429,0.013109410181641579
1761309030363693000,3.412693115234375,0.0009358347742818296,0.00037950044497847557,0.010861968621611595
1761309030373620000,3.422619873046875,0.002945456188172102,0.00133903743699193,0.011287275701761246
1761309030383548000,3.4325478515625,-0.0010314423125237226,-0.0004386226355563849,0.011983426287770271
1761309030393475000,3.44247509765625,0.0002402171230642125,0.0031166973058134317,0.005949501879513264
1761309030403403000,3.452403076171875,0.0008202536264434457,-0.0032730249222368,0.009648365899920464
1761309030413330200,3.462330078125,0.0015355786308646202,0.0012636699248105288,0.00893836747854948
1761309030423258000,3.472258056640625,0.0015547533985227346,0.0013068130938336253,0.006156961899250746
1761309030433185000,3.48218505859375,0.0014516890514642,0.0010367685463279486,0.004093811381608248
1761309030443113200,3.49211328125,0.00025752768851816654,-0.001056476030498743,0.006160424090921879
1761309030453040000,3.5020400390625,-0.0022719427943229675,0.001960885478183627,0.008236890658736229
1761309030462968000,3.511968017578125,-0.002364886924624443,-0.0015504923649132252,0.006185724399983883
1761309030472896000,3.52189599609375,-0.0017393104499205947,0.00045619948650710285,0.008990565314888954
1761309030482823000,3.531822998046875,0.0010580739472061396,0.002627208363264799,0.007874168455600739
1761309030492751000,3.541751220703125,-0.0016519587952643633,0.000678307143971324,0.008866728283464909
1761309030502678000,3.551677978515625,-0.0002772350562736392,0.00032570460462011397,0.012042813934385777
1761309030512606000,3.56160595703125,-0.00199310970492661,0.0007584682898595929,0.010251305997371674
1761309030522532900,3.571532958984375,-0.002703374717384577,0.0037265613209456205,0.009551960043609142
1761309030532460800,3.581460693359375,-0.0014178669080138206,0.001746501075103879,0.008347145281732082
1761309030542388000,3.591387939453125,-0.0012855078093707561,0.0011827098205685616,0.00768721429631114
1761309030552316000,3.60131591796875,0.000898550555575639,-0.00014034859486855567,0.013100355863571167
1761309030562243000,3.6112431640625,-0.0002181128947995603,0.00020479709201026708,0.00627094553783536
1761309030572171000,3.6211708984375,-0.0019888486713171005,0.003385144053027034,0.006856041960418224
1761309030582098400,3.631098388671875,0.0013731258222833276,0.000021837920940015465,0.01197809912264347
1761309030592025300,3.641025390625,0.0012679309584200382,0.00301656243391335,0.006895989179611206
1761309030601953300,3.650953369140625,0.0010612696642056108,-0.0011355718597769737,0.00887844618409872
1761309030611880200,3.660880126953125,0.0011771172285079956,0.003284476464614272,0.005951365921646357
1761309030621808400,3.670808349609375,0.0002085255109705031,0.0002924150903709233,0.00815166998654604
1761309030631735300,3.6807353515625,-0.00023915186466183513,0.0034991272259503603,0.008283229544758797
1761309030641663200,3.690663330078125,-0.00031558459158986807,0.0016743293963372707,0.008508533239364624
1761309030651590400,3.70059033203125,0.000746750389225781,-0.0001960086519829929,0.010734137147665024
1761309030661518300,3.710518310546875,-0.0017161410069093108,0.0003438140847720206,0.00932266190648079
1761309030671445200,3.7204453125,0.001356347929686308,-0.0013528858544304967,0.010781275108456612
1761309030681373400,3.73037353515625,0.0006157228490337729,0.0003909520455636084,0.010613761842250824
1761309030691300400,3.74030029296875,0.00034354778472334146,0.0002665824140422046,0.010912834666669369
1761309030701228300,3.750228271484375,-0.0020442423410713673,0.003907922655344009,0.012457734905183315
1761309030711156500,3.760156494140625,-0.0017305220244452357,0.0035340148024260998,0.01070857048034668
1761309030721083400,3.77008349609375,0.003224821761250496,0.000015712650565546937,0.009395099245011806
1761309030731011300,3.78001123046875,-0.001591771375387907,-0.0011744539951905608,0.008579906076192856
1761309030740938500,3.7899384765625,-0.0011771172285079956,0.0013371731620281935,0.006862965878099203
1761309030750866400,3.799866455078125,-0.0007414240390062332,0.0024732777383178473,0.009887518361210823
1761309030760793300,3.80979345703125,-0.002261023735627532,0.00115421402733773,0.008588162250816822
1761309030770721500,3.819721435546875,-0.003916977439075708,0.0016756609547883272,0.005792641546577215
1761309030780648400,3.8296484375,-0.0025784724857658148,0.001886050682514906,0.006543120369315147
1761309030790576400,3.839576416015625,-0.0007965514669194818,0.001746501075103879,0.0061521683819592
1761309030800503600,3.849503662109375,-0.0002258360618725419,-0.0030921963043510914,0.008495749905705452
1761309030810431500,3.859431396484375,-0.0006362291751429439,0.00003062635369133204,0.008847021497786045
1761309030820359400,3.869359375,0.000015712650565546937,0.0021614215802401304,0.008327971212565899
1761309030830286300,3.879286376953125,-0.00205223192460835,0.002460228279232979,0.01127955224364996
1761309030840214500,3.889214599609375,-0.0021433120127767324,0.0036719664931297302,0.009019327349960804
1761309030850141200,3.89914111328125,0.0008633967954665422,0.0033388049341738224,0.011061972007155418
1761309030860069400,3.9090693359375,0.001886317040771246,-0.000592020689509809,0.009348760358989239
1761309030869996300,3.918996337890625,0.0019257317762821913,-0.0013946974650025368,0.010794857516884804
1761309030879924200,3.92892431640625,-0.0014897723449394107,0.0000774979853304103,0.01025902945548296
1761309030889851400,3.938851318359375,0.0001728391507640481,-0.0012309130979701877,0.00851332675665617
1761309030899779300,3.948779296875,0.0028016455471515656,0.0001174454009742476,0.009899236261844635
1761309030909706200,3.958706298828125,0.001580319833010435,0.0024493092205375433,0.00694951880723238
1761309030919634400,3.968634521484375,-0.0003483414766378701,0.00011132013605674729,0.01076902449131012
1761309030929561300,3.978561279296875,0.0034591800067573786,0.0013712616637349129,0.00740119069814682
1761309030939489300,3.9884892578125,0.001395496423356235,0.00035686357296071947,0.00869069341570139
1761309030949417500,3.99841748046875,0.0014295848086476326,0.0013214604696258903,0.008301072753965855
1761309030959344400,4.008344482421875,-0.003200586885213852,-0.0014924354618415236,0.003689010627567768
1761309030969272300,4.018272216796875,-0.001648496720008552,0.0009808422764763236,0.008839830756187439
1761309030979199500,4.028199462890625,-0.002454369328916073,0.00020373181905597448,0.007711449172347784
1761309030989127400,4.03812744140625,-0.002368349116295576,0.0016911072889342904,0.0117312241345644
1761309030999054300,4.048054443359375,-0.0017587515758350492,0.0024836640805006027,0.010750914923846722
1761309031008982500,4.057982421875,-0.0005017395596951246,0.0006918892613612115,0.007485879585146904
1761309031018909400,4.067909423828125,-0.002552906284108758,0.0019302591681480408,0.00845580268651247
1761309031028837400,4.07783740234375,-0.0029819414485245943,0.0025537051260471344,0.006809703074395657
1761309031038764500,4.0877646484375,-0.001139566651545465,0.0034229608718305826,0.009505621157586575
1761309031048692500,4.0976923828125,-0.0030061763245612383,0.0032149681355804205,0.009303486905992031
1761309031058620400,4.107620361328125,-0.0009986853692680597,0.0022714100778102875,0.006355633959174156
1761309031068547600,4.117547607421875,-0.00005459480235003866,-0.000059921123465755954,0.009434514679014683
1761309031078475500,4.1274755859375,-0.00192226970102638,0.0002777676854748279,0.008761267177760601
1761309031088402200,4.137402099609375,-0.0006186523241922259,-0.00020240024605300277,0.0065258098766207695
1761309031098330600,4.14733056640625,0.0018570221727713943,0.0035806200467050076,0.008526110090315342
1761309031108257300,4.15725732421875,0.0016077503096312284,-0.0031246868893504143,0.010615359991788864
1761309031118185200,4.167185302734375,0.0014713965356349945,-0.0030069751664996147,0.009852364659309387
1761309031128112400,4.1771123046875,0.0028503811918199062,0.000618918624240905,0.009440373629331589
1761309031138040300,4.187040283203125,0.0015819176333025098,-0.0005046690348535776,0.009709352627396584
1761309031147967200,4.19696728515625,-0.0017933726776391268,-0.0004117247008252889,0.01206838060170412
1761309031157895400,4.2068955078125,-0.00043356261448934674,-0.00039494677912443876,0.009194031357765198
1761309031167822300,4.216822265625,-0.0019118833588436246,0.00024474450037814677,0.009031045250594616
1761309031177750300,4.226750244140625,0.0017057546647265553,-0.00047058056225068867,0.00863396842032671
1761309031187677400,4.236677490234375,-0.0008048072922974825,0.003999269101768732,0.006727145053446293
1761309031197605400,4.24660546875,-0.002766757970675826,0.003964914008975029,0.005877329967916012
1761309031207533300,4.256533203125,-0.0010910971323028207,-0.002549444092437625,0.0073535204865038395
1761309031217460500,4.26646044921875,-0.002983273006975651,0.002590723102912307,0.00884861871600151
1761309031227388400,4.276388427734375,-0.001654355670325458,0.0059662796556949615,0.00484215933829546
1761309031237315300,4.2863154296875,-0.002788329729810357,0.005079447291791439,0.009765811264514923
1761309031247243500,4.296243408203125,-0.0032029838766902685,0.004055994097143412,0.008960205130279064
1761309031257170400,4.30617041015625,-0.00192200334277004,0.003195527009665966,0.009434781037271023
1761309031267098400,4.316098388671875,-0.0035175031516700983,0.002650910522788763,0.012745356187224388
1761309031277025500,4.326025634765625,-0.0011329087428748608,0.000037550569686573,0.009135175496339798
1761309031286953500,4.335953369140625,-0.0029848709236830473,-0.0013041499769315124,0.011031079106032848
1761309031296880400,4.34588037109375,-0.0003328951424919069,-0.0010788465151563287,0.009893377311527729
1761309031306808600,4.35580859375,-0.0011238539591431618,-0.0036048549227416515,0.007937551476061344
1761309031316735200,4.3657353515625,0.001121723442338407,0.0014857775531709194,0.005936185829341412
1761309031326663400,4.375663330078125,-0.0004743089957628399,0.0006791060441173613,0.006249640136957169
1761309031336591400,4.38559130859375,0.00041012681322172284,0.002481267089024186,0.004280765075236559
1761309031346518300,4.395518310546875,-0.00017257283616345376,0.00048602689639665186,0.004807538352906704
1761309031356446200,4.4054462890625,0.0018884475575760007,-0.0015068164793774486,0.006977482233196497
1761309031366373400,4.415373291015625,0.0015659386990591884,-0.0023845944087952375,0.010725614614784718
1761309031376301300,4.42530126953125,0.000669518718495965,-0.0001270327775273472,0.008066714741289616
1761309031386228200,4.435228271484375,0.0003091930120717734,0.0005667206714861095,0.008887767791748047
1761309031396156400,4.445156494140625,-0.0015430354978889227,0.0026559706311672926,0.011018296703696251
1761309031406083300,4.455083251953125,-0.0014351775171235204,-0.002082591876387596,0.009857957251369953
1761309031416011300,4.46501123046875,0.0002335592289455235,0.00021678130724467337,0.012740029953420162
1761309031425938400,4.4749384765625,-0.0004543352697510272,0.0012242551892995834,0.007473628968000412
1761309031435866400,4.484866455078125,-0.002843457041308284,0.00042876892257481813,0.008644887246191502
1761309031445793300,4.494793212890625,-0.002281263703480363,0.0020698087755590677,0.006846720818430185
1761309031455721500,4.504721435546875,-0.0020690099336206913,0.002865028567612171,0.006536462344229221
1761309031465648400,4.5146484375,-0.0033625070936977863,0.003442668356001377,0.009363408200442791
1761309031475576300,4.524576416015625,-0.001820536912418902,0.0014982944121584296,0.005131112411618233
1761309031485504500,4.53450439453125,-0.00023861923546064645,0.0035140409599989653,0.004861067980527878
1761309031495431400,4.544431396484375,0.0007387608638964593,0.0026080335956066847,0.008974320255219936
1761309031505359400,4.554359375,-0.000672448193654418,0.001582716591656208,0.004759867675602436
1761309031515286500,4.56428662109375,-0.0032053806353360415,0.004630970768630505,0.0079748360440135
1761309031525214500,4.57421435546875,0.0007432882557623088,0.0002633866388350725,0.008100003935396671
1761309031535141400,4.584141357421875,-0.0005898901727050543,0.0014194648247212172,0.012045743875205517
1761309031545069600,4.594069580078125,0.0009869674686342478,-0.00013315805699676275,0.012573582120239735
1761309031554996500,4.60399658203125,0.000031425301131093875,-0.0004090615548193455,0.011577027849853039
1761309031564924400,4.61392431640625,-0.0006948187365196645,0.00017550231132190675,0.01607350818812847
1761309031574851300,4.623851318359375,-0.00009454221435589716,0.004775580484420061,0.010086722671985626
1761309031584780800,4.63378076171875,-0.0010703244479373097,-0.001356614287942648,0.010070477612316608
1761309031594707700,4.643707763671875,-0.0009257147903554142,-0.0011582087026908994,0.005750563926994801
1761309031604635600,4.6536357421875,0.00030120351584628224,0.00007936220208648592,0.004366785287857056
1761309031614563600,4.6635634765625,-0.00045380264054983854,-0.00011105381418019533,0.0039116512052714825
1761309031624490800,4.67349072265625,0.0006242449744604528,-0.0010104032699018717,0.0035388083197176456
1761309031634418700,4.683418701171875,0.0010135991033166647,0.0028546424582600594,0.002779274946078658
1761309031644345900,4.693345947265625,-0.0035156388767063618,0.0006868292111903429,0.007672566920518875
1761309031654273800,4.703273681640625,-0.0014391721924766898,0.0013166668359190226,0.004883438348770142
1761309031664200700,4.71320068359375,-0.001341966912150383,0.0007099987124092877,0.008165784180164337
1761309031674129000,4.72312890625,-0.00015286543930415064,0.0009291769238188863,0.010672617703676224
1761309031684055800,4.733055908203125,-0.0015161376213654876,-0.00004474110755836591,0.010865164920687675
1761309031693983700,4.742983642578125,-0.0014367754338309169,-0.00096086849225685,0.012164521031081676
1761309031703911000,4.752910888671875,-0.0007470166892744601,0.0010540791554376483,0.010119212791323662
1761309031713838800,4.7628388671875,-0.0016072177095338702,-0.00008868326403899118,0.013717143796384335
1761309031723765800,4.772765869140625,-0.00020746025256812572,-0.0005291700945235789,0.011746937409043312
1761309031733694000,4.78269384765625,-0.0005185174522921443,-0.001984853995963931,0.009582053869962692
1761309031743620900,4.792620849609375,0.0013409015955403447,0.003001648932695389,0.00911253783851862
1761309031753548800,4.802548828125,0.00006418218254111707,0.0008679241873323917,0.00726563623175025
1761309031763475700,4.812475830078125,-0.0003177151083946228,-0.0004189152386970818,0.008445682935416698
1761309031773403600,4.822403564453125,-0.0017603494925424457,-0.00035499935620464385,0.0036043222062289715
1761309031783331800,4.832331787109375,0.002371544949710369,0.002216815249994397,0.009832390584051609
1761309031793258800,4.8422587890625,0.0012916331179440022,-0.0026959178503602743,0.0046426886692643166
1761309031803186700,4.852186767578125,-0.0004921521758660674,0.0004982774262316525,0.004585164599120617
1761309031813113600,4.862113525390625,-0.0004223773430567235,0.0025963156949728727,0.006393983494490385
1761309031823041800,4.872041748046875,0.000011717908819264267,0.0021318604703992605,0.007468835450708866
1761309031832968700,4.88196875,-0.00044314999831840396,-0.0004897553008049726,0.00951174646615982
1761309031842896600,4.891896728515625,-0.0035095135681331158,0.0006253102328628302,0.008653142489492893
1761309031852823800,4.90182373046875,-0.0019291938515380025,0.004381166305392981,0.00720678037032485
1761309031862751700,4.911751708984375,-0.004093012306839228,0.0009973538108170033,0.009560481645166874
1761309031872678700,4.9216787109375,-0.0013342436868697405,0.0035563854034990072,0.007383613847196102
1761309031882606800,4.93160693359375,-0.0022892532870173454,0.000672181835398078,0.0070581757463514805
1761309031892533800,4.94153369140625,-0.00028389296494424343,0.004234958905726671,0.012746421620249748
1761309031902461700,4.951461669921875,-0.0038626487366855145,0.0014231932582333684,0.011020692996680737
1761309031912388900,4.961388916015625,-0.0005320995696820319,0.0019632822368294,0.009326389990746975
1761309031922316800,4.97131689453125,0.002388855442404747,0.0026051041204482317,0.0059716058894991875
1761309031932243700,4.98124365234375,0.0007068029372021556,0.00026525085559114814,0.008593754842877388
1761309031942172000,4.991171875,0.003299922915175557,0.0033185649663209915,0.009613744914531708
1761309031952099800,5.001099853515625,-0.0002937466779258102,0.00020905814017169178,0.011577294208109379
1761309031962026800,5.01102685546875,-0.0014322480419650674,0.0007590008899569511,0.011857458390295506
1761309031971955000,5.020954833984375,0.0006556702428497374,-0.0027358653023838997,0.010852115228772163
1761309031981881900,5.0308818359375,0.0033308155834674835,-0.0011089402250945568,0.011539210565388203
1761309031991809800,5.040809814453125,0.0029878003988415003,-0.0002585929469205439,0.008107727393507957
1761309032001736700,5.05073681640625,0.00013875069271307439,-0.00007057376933516935,0.0076209018006920815
1761309032011665000,5.060664794921875,-0.0032474587205797434,0.0018961706664413214,0.005358546506613493
1761309032021591600,5.070591552734375,-0.0014650048688054085,0.004249872639775276,0.005520466715097427
1761309032031519700,5.080519775390625,-0.0022181468084454536,0.0016823188634589314,0.005545500200241804
1761309032041446700,5.09044677734375,0.000254331884207204,0.005334844347089529,0.005356415640562773
1761309032051374600,5.10037451171875,-0.0006093312404118478,0.003596865339204669,0.003961984533816576
1761309032061301800,5.1103017578125,0.00001997370782191865,0.00022530343267135322,0.007421963382512331
1761309032071229700,5.120229736328125,-0.0016016251174733043,0.002414954360574484,0.010815896093845367
1761309032081156600,5.130156494140625,-0.003498594742268324,0.0023614249657839537,0.009358348324894905
1761309032091084800,5.140084716796875,-0.005511678289622068,0.0029023129027336836,0.011335479095578194
1761309032101011700,5.15001171875,-0.0009986853692680597,0.0012918994762003422,0.011325092054903507
1761309032110939600,5.159939697265625,-0.003082609036937356,0.00020586235041264445,0.014826083555817604
1761309032120867800,5.169867919921875,-0.002519882982596755,0.001071123406291008,0.012337359599769115
1761309032130794800,5.179794677734375,-0.0014410364674404263,0.003376621985808015,0.012654808349907398
1761309032140722700,5.18972265625,0.00038003307417966425,0.0030304109677672386,0.008860602974891663
1761309032150649900,5.19964990234375,-0.0021877868566662073,-0.001198688754811883,0.007195328362286091
1761309032160577800,5.209577880859375,-0.0012681973166763783,0.001365668955259025,0.005795038305222988
1761309032170504700,5.219504638671875,0.0014807175612077117,0.0013638047967106104,0.004603806417435408
1761309032180433000,5.229432861328125,0.0012841762509196997,-0.000248472933890298,0.007597998715937138
1761309032190359800,5.23935986328125,0.00170761882327497,-0.0011728560784831643,0.005483182147145271
1761309032200287700,5.249287841796875,0.0012229235144332051,0.0005073322099633515,0.00538491178303957
1761309032210215000,5.25921484375,-0.0014210627414286137,0.0010716560063883662,0.008640626445412636
1761309032220142800,5.269142822265625,-0.001353418454527855,0.0017603494925424457,0.007985488511621952
1761309032230069800,5.27906982421875,0.0009648632840253413,0.0006378270918503404,0.009095760062336922
1761309032239998000,5.288998046875,-0.0005632585380226374,0.003490072675049305,0.010121610015630722
1761309032249924600,5.298924560546875,0.0005824333056807518,0.0018271948210895061,0.010846788994967937
1761309032259852500,5.3088525390625,-0.003209375310689211,0.0024381240364164114,0.011143198236823082
1761309032269779700,5.31877978515625,-0.0010820423485711217,0.0030562435276806355,0.010654241777956486
1761309032279707600,5.328707763671875,-0.0027427896857261658,0.002541188383474946,0.009615609422326088
1761309032289634800,5.338634765625,-0.0010729875648394227,0.0014562164433300495,0.009192433208227158
1761309032299562800,5.348562744140625,-0.0009922938188537955,0.00018349179299548268,0.007120227441191673
1761309032309490700,5.35849072265625,-0.003266633255407214,0.0017515610670670867,0.008793491870164871
1761309032319417600,5.36841748046875,-0.003436276689171791,0.003421629313379526,0.005781190004199743
1761309032329345800,5.378345703125,-0.0029830066487193108,0.0012966931099072099,0.006881608162075281
1761309032339272700,5.388272705078125,-0.002978213131427765,-0.0014274542918428779,0.007983624003827572
1761309032349200600,5.39820068359375,-0.00036432043998502195,0.0009771138429641724,0.0075796227902174
1761309032359127800,5.4081279296875,-0.0005166532355360687,0.0036637107841670513,0.009340771473944187
1761309032369055700,5.4180556640625,-0.0005888249143026769,-0.0005784385721199214,0.007314904592931271
1761309032378982700,5.427982666015625,-0.0005091963685117662,-0.00041252365917898715,0.009719206020236015
1761309032388910800,5.437910888671875,0.0001954760227818042,-0.000990695902146399,0.010349310003221035
1761309032398837800,5.447837646484375,-0.0007531419396400452,0.00267727579921484,0.01119433157145977
1761309032408765700,5.457765625,0.0025100293569266796,-0.0010764497565105557,0.012777580879628658
1761309032418692900,5.46769287109375,0.0031702269334346056,0.0004394215648062527,0.010261692106723785
1761309032428620800,5.477620849609375,0.002548911375924945,0.0008372978190891445,0.013718741945922375
1761309032438548000,5.4875478515625,0.0011502192355692387,-0.00011398329661460593,0.00839721318334341
1761309032448476000,5.497475830078125,0.00006631271389778703,0.0002657834847923368,0.009846772067248821
1761309032458402800,5.50740283203125,-0.0018975022248923779,-0.00014753911818843335,0.006711432244628668
1761309032468330800,5.517330810546875,-0.000264718197286129,0.0029875340405851603,0.006053098943084478
1761309032478257700,5.527257568359375,-0.00008548746700398624,0.0011563445441424847,0.005358812864869833
1761309032488185600,5.537185546875,-0.0014436995843425393,0.0009108011145144701,0.006145776715129614
1761309032498113800,5.54711376953125,-0.002781671704724431,0.0036453348584473133,0.0071157002821564674
1761309032508040700,5.557040771484375,-0.0036719664931297302,0.003564374754205346,0.007952732034027576
1761309032517968600,5.56696875,-0.002831206424161792,0.004432831425219774,0.007357514929026365
1761309032527895800,5.576895751953125,0.0013763216556981206,0.006868026219308376,0.008549812249839306
1761309032537823700,5.58682373046875,-0.0016642092959955335,0.005905826110392809,0.011858257465064526
1761309032547750700,5.596750732421875,-0.0007872303831391037,0.0010775149567052722,0.011264905333518982
1761309032557678600,5.6066787109375,-0.0017592841759324074,0.0046301716938614845,0.011359181255102158
1761309032567605800,5.616605712890625,-0.0014828480780124664,0.0019291938515380025,0.008468852378427982
1761309032577533700,5.62653369140625,-0.0022056300658732653,0.004347078036516905,0.01257864199578762
1761309032587460600,5.636460693359375,-0.0009683253592811525,0.0020743361674249172,0.008408664725720882
1761309032597388800,5.646388916015625,0.0014394385507330298,-0.0020732709672302008,0.007965248078107834
1761309032607315500,5.6563154296875,0.0010130665032193065,-0.001118793967179954,0.00720651401206851
1761309032617243600,5.66624365234375,-0.0000697748182574287,-0.002621882129460573,0.0049164616502821445
1761309032627170600,5.676170654296875,0.0009518137667328119,-0.002124403603374958,0.006888532545417547
1761309032637098500,5.686098388671875,0.0013869742397218943,-0.0032557144295424223,0.004644286818802357
1761309032647025700,5.696025634765625,0.0020090886391699314,0.0003105245705228299,0.007732488214969635
1761309032656953600,5.70595361328125,0.002590723102912307,-0.00039228363311849535,0.006039782892912626
1761309032666880500,5.715880615234375,0.0001704423048067838,-0.000018109494703821838,0.006589991971850395
1761309032676808700,5.72580859375,0.0015536881983280182,0.00011904330312972888,0.010422547347843647
1761309032686735600,5.735735595703125,-0.00006897587445564568,0.001186970854178071,0.009279784746468067
1761309032696663600,5.74566357421875,-0.0009733853512443602,0.0004593952908180654,0.00926140882074833
1761309032706590700,5.7555908203125,-0.0014679343439638615,-0.0016189356101676822,0.011928831227123737
1761309032716518700,5.7655185546875,-0.0007456850726157427,0.002113218419253826,0.010065416805446148
1761309032726446600,5.775446533203125,-0.0025925873778760433,-0.00003222424857085571,0.012408732436597347
1761309032736373800,5.785373779296875,0.0006087986403144896,-0.00042051312630064785,0.008452607318758965
1761309032746301700,5.7953017578125,-0.0027774106711149216,0.0028365328907966614,0.008501608856022358
1761309032756228600,5.805228515625,-0.0031827439088374376,0.0006056028068996966,0.010915764607489109
1761309032766156800,5.81515673828125,-0.004065048880875111,0.00487145408987999,0.00788455456495285
1761309032776083700,5.825083740234375,-0.003868241561576724,0.001886050682514906,0.008199074305593967
1761309032786011600,5.83501171875,0.0011978897964581847,-0.0005944175645709038,0.006375341210514307
1761309032795938800,5.844938720703125,0.002923884429037571,-0.000985103310085833,0.008204666897654533
1761309032805866800,5.85486669921875,0.002370745874941349,-0.003566771512851119,0.007438741624355316
1761309032815793400,5.86479345703125,0.0019856528379023075,-0.004552141297608614,0.008018511347472668
1761309032825721900,5.874721923828125,-0.002764893928542733,0.000005060006060375599,0.008050469681620598
1761309032835648500,5.8846484375,-0.0033337450586259365,0.0006841660942882299,0.006903978530317545
1761309032845576400,5.894576416015625,0.0005379585199989378,0.0018996327416971326,0.004928978625684977
1761309032855503600,5.904503662109375,-0.000711064029019326,0.0037023264449089766,0.005585980135947466
1761309032865431600,5.914431640625,-0.002516420790925622,0.003777693957090378,0.00634924229234457
1761309032875358500,5.9243583984375,-0.0009198558400385082,0.0024639565963298082,0.009678193368017673
1761309032885286700,5.93428662109375,-0.003433879930526018,0.001401355373673141,0.007433681283146143
1761309032895213600,5.944213623046875,-0.0014101437991485,0.002372077666223049,0.011638013646006584
1761309032905141500,5.9541416015625,-0.005931658670306206,0.0011211908422410488,0.013849236071109772
1761309032915068700,5.964068603515625,-0.0018884475575760007,0.005765743553638458,0.012181032449007034
1761309032924996600,5.97399658203125,-0.0014258564915508032,0.0021603561472147703,0.014166685752570629
1761309032934923800,5.983923828125,-0.000004261057711119065,0.0008476841612718999,0.010587397031486034
1761309032944851700,5.993851806640625,-0.0006838997360318899,0.001020257011987269,0.010217750445008278
1761309032954779600,6.003779541015625,-0.0011438276851549745,0.001981125446036458,0.010518953204154968
1761309032964706600,6.01370654296875,0.00006391586794052273,-0.001499359728768468,0.008584965951740742
1761309032974634800,6.023634765625,-0.001014664419926703,0.0011944277212023735,0.008317318744957447
1761309032984561700,6.033561767578125,0.0032770195975899696,0.00028575718170031905,0.007140733767300844
1761309032994489600,6.043489501953125,-0.00033342777169309556,0.0014956312952563167,0.00842570886015892
1761309033004416800,6.053416748046875,0.000841825210954994,-0.0011739213950932026,0.0062363240867853165
1761309033014344700,6.0633447265625,0.0011837751371785998,0.0015779229579493403,0.007348726503551006
1761309033024271600,6.073271728515625,-0.0018985675415024161,-0.0019411781104281545,0.009341835975646973
1761309033034199800,6.08319970703125,0.0032173648942261934,0.003632285399362445,0.007837949320673943
1761309033044126500,6.09312646484375,-0.0005573995877057314,0.0007203850545920432,0.009375925175845623
1761309033054054700,6.1030546875,-0.0027510453946888447,0.0023009711876511574,0.00634950865060091
1761309033063981600,6.112981689453125,-0.0015483618481084704,0.0019148128340020776,0.00686056911945343
1761309033073909500,6.122909423828125,-0.0028221518732607365,0.0027979169972240925,0.009995109401643276
1761309033083836700,6.132836669921875,-0.0023209447972476482,0.003471430391073227,0.0099623529240489
1761309033093764600,6.1427646484375,-0.003697799053043127,0.005539641249924898,0.01119140163064003
1761309033103691500,6.15269140625,-0.004631503485143185,0.0041521345265209675,0.005833387840539217
1761309033113619500,6.162619384765625,-0.0034439999144524336,0.0028096348978579044,0.011455587111413479
1761309033123546600,6.172546630859375,-0.003344131400808692,0.0007084008539095521,0.009691243059933186
1761309033133474600,6.182474609375,-0.000006924218723725062,-0.0005344964447431266,0.007229949813336134
1761309033143401700,6.192401611328125,-0.0015579492319375277,0.004480768460780382,0.0070821442641317844
1761309033153329700,6.20232958984375,-0.0013166668359190226,0.0032828785479068756,0.008505604229867458
1761309033163256600,6.212256591796875,0.0002716424351092428,0.0012855078093707561,0.006440855097025633
1761309033173184500,6.2221845703125,0.0006295712664723396,0.0010839065071195364,0.00501206936314702
1761309033183111700,6.232111572265625,-0.00020532972121145576,0.0021787320729345083,0.010367685928940773
1761309033193039600,6.24203955078125,-0.00006844323797849938,-0.0029206888284534216,0.009112006053328514
1761309033202966800,6.251966796875,-0.0004338289436418563,-0.0026114957872778177,0.009153550490736961
1761309033212894700,6.261894775390625,-0.0016852483386173844,-0.002088717184960842,0.007647533435374498
1761309033222821600,6.271821533203125,0.0014559502014890313,0.000011984225238848012,0.011158645153045654
1761309033232749800,6.281749755859375,0.0019896477460861206,0.00023089606838766485,0.013968279585242271
1761309033242677800,6.291677734375,0.003916977439075708,0.002380866091698408,0.00977619830518961
1761309033252604700,6.301604736328125,0.0012093414552509785,-0.004493285436183214,0.011043063364923
1761309033262532600,6.31153271484375,-0.00037923414492979646,0.0025150892324745655,0.010814564302563667
1761309033272459800,6.321459716796875,-0.0002388855500612408,0.001537975505925715,0.00794554129242897
1761309033282387700,6.3313876953125,-0.0012221246724948287,0.002028529765084386,0.007172957994043827
1761309033292314600,6.341314697265625,-0.0012540825409814715,0.0006223807577043772,0.011550395749509335
1761309033302242600,6.35124267578125,-0.0023222763556987047,0.003811249742284417,0.007957259193062782
1761309033312169500,6.36116943359375,-0.0041404166258871555,0.005812082905322313,0.009064601734280586
1761309033322097700,6.37109765625,-0.003462641965597868,0.0018226674292236567,0.007570834364742041
1761309033332024600,6.381024658203125,-0.0032200280111283064,0.00264851376414299,0.009374060668051243
1761309033341952500,6.390952392578125,-0.004343083128333092,0.0008016114588826895,0.008137554861605167
1761309033351879700,6.400879638671875,-0.004428304266184568,0.004939364735037088,0.011685684323310852
1761309033361807600,6.4108076171875,-0.0012319782981649041,0.0027513117529451847,0.006898385938256979
1761309033371734500,6.420734619140625,-0.0020604876335710287,0.0002442118711769581,0.010599381290376186
1761309033381662700,6.430662841796875,-0.0037031255196779966,0.004321245010942221,0.005814479663968086
1761309033391589600,6.440589599609375,-0.0018002968281507492,0.0012873720843344927,0.00905714463442564
1761309033401517600,6.450517578125,-0.0004596615908667445,-0.001261805766262114,0.00660570478066802
1761309033411444700,6.46044482421875,0.0027121631428599358,0.0003067961661145091,0.009833189658820629
1761309033421372700,6.47037255859375,0.0022828616201877594,-0.00017949705943465233,0.008014783263206482
1761309033431299600,6.480299560546875,0.002195776207372546,-0.0004492752777878195,0.00842411071062088
1761309033441227800,6.490227783203125,-0.0006926882197149098,-0.002235191175714135,0.010747984983026981
1761309033451154700,6.50015478515625,-0.0010868359822779894,-0.001939846551977098,0.009532252326607704
1761309033461082600,6.51008251953125,-0.0014117417158558965,0.000441818410763517,0.011457717977464199
1761309033471009800,6.520009765625,-0.0005419532535597682,-0.00046152580762282014,0.007085073739290237
1761309033480937700,6.529937744140625,0.002641589380800724,0.0009321063989773393,0.01107635349035263
1761309033490864600,6.53986474609375,0.004003263544291258,-0.0008889631717465818,0.007763114292174578
1761309033500792800,6.549792724609375,0.0004295678809285164,-0.0014761901693418622,0.008235293440520763
1761309033510719500,6.559719482421875,-0.0017955031944438815,-0.000755805114749819,0.009953298605978489
1761309033520647400,6.5696474609375,-0.0037936728913336992,0.0009116000146605074,0.008682171814143658
1761309033530574600,6.57957470703125,-0.0008689894457347691,0.0016713999211788177,0.006854177452623844
1761309033540502500,6.58950244140625,0.0005350290448404849,0.001499359728768468,0.009505621157586575
1761309033550429700,6.5994296875,0.000010918960470007733,0.003905525663867593,0.0062823970802128315
1761309033560357600,6.609357666015625,-0.0026581010315567255,0.004156395327299833,0.008134892210364342
1761309033570284500,6.619284423828125,-0.002557699801400304,0.00169563468080014,0.010003898292779922
1761309033580212500,6.62921240234375,-0.004637895151972771,0.001731587341055274,0.008964733220636845
1761309033590140400,6.639140380859375,-0.004442418925464153,0.0033691651187837124,0.010085657238960266
1761309033600067000,6.649067138671875,-0.00007057376933516935,0.0015443670563399792,0.010026002302765846
1761309033609995300,6.658995361328125,0.00025060345069505274,0.0040456079877913,0.009505621157586575
1761309033619922200,6.668922119140625,-0.0031670311000198126,0.0014879080699756742,0.010839065536856651
1761309033629850000,6.67885009765625,-0.001228782464750111,0.000749679864384234,0.010004697367548943
1761309033639777300,6.68877734375,-0.0008367652189917862,-0.0017584852175787091,0.01193948369473219
1761309033649705200,6.698705322265625,0.0005693838465958834,0.000824248360004276,0.009793508797883987
1761309033659632000,6.708632080078125,0.001508414396084845,0.00199337606318295,0.0094507597386837
1761309033669560300,6.718560302734375,0.0019526296528056264,0.0015385081060230732,0.008493087254464626
1761309033679487200,6.7284873046875,0.002919357270002365,-0.0010990865994244814,0.00914183259010315
1761309033689415200,6.738415283203125,0.0024437166284769773,-0.0013073458103463054,0.009432650171220303
1761309033699342300,6.74834228515625,0.0024261397775262594,-0.001440237509086728,0.006717557553201914
1761309033709270300,6.758270263671875,0.001710814656689763,-0.0009187905816361308,0.009476592764258385
1761309033719197200,6.768197265625,0.0009161274065263569,-0.0007057376787997782,0.0070248860865831375
1761309033729125400,6.77812548828125,0.0016205335268750787,-0.0025832662358880043,0.007380152121186256
1761309033739052300,6.78805224609375,0.00245090713724494,0.003328684950247407,0.007655789144337177
1761309033748980200,6.797980224609375,-0.001612277701497078,0.0002031991898547858,0.007743407040834427
1761309033758907400,6.807907470703125,-0.0030064424499869347,0.0010604707058519125,0.009312807582318783
1761309033768835300,6.81783544921875,-0.003507383167743683,0.0034205641131848097,0.007729825098067522
1761309033778762200,6.82776220703125,-0.0016676714876666665,0.007089334540069103,0.0070800138637423515
1761309033788690400,6.8376904296875,-0.0014556838432326913,0.002928145695477724,0.008694687858223915
1761309033798617300,6.847617431640625,-0.003096990054473281,0.0038687740452587605,0.00860600546002388
1761309033808545300,6.857545166015625,-0.0039020637050271034,0.00296329939737916,0.010215353220701218
1761309033818472200,6.86747216796875,-0.0033246902748942375,0.002037051832303405,0.011237740516662598
1761309033828400000,6.877400146484375,0.0004093278548680246,0.0009614011505618691,0.012077435851097107
1761309033838327300,6.887327392578125,-0.000024234765078290366,-0.0006016080733388662,0.014968829229474068
1761309033848255200,6.897255126953125,0.0013582120882347226,-0.0005888249143026769,0.010991131886839867
1761309033858182100,6.90718212890625,0.0010894992155954242,-0.0028067054226994514,0.0123056685552001
1761309033868110000,6.917110107421875,0.0024165522772818804,-0.00029055087361484766,0.012165852822363377
1761309033878037200,6.927037353515625,0.0016016251174733043,-0.0009009473724290729,0.010322678834199905
1761309033887965200,6.936965087890625,0.0018311894964426756,-0.0006950850365683436,0.0073657711036503315
1761309033897892400,6.946892333984375,0.0025872609112411737,-0.0037617150228470564,0.0035153725184500217
1761309033907820300,6.9568203125,0.0009054747642949224,-0.00043356261448934674,0.002888997085392475
1761309033917747200,6.966747314453125,-0.00008921589324017987,-0.0024839304387569427,0.0037055222783237696
1761309033927675100,6.976675048828125,0.00027031084755435586,0.0019046928500756621,0.0023523701820522547
1761309033937602300,6.986602294921875,-0.001050617080181837,0.0030242856591939926,0.004348942078649998
1761309033947530200,6.9965302734375,-0.003153715282678604,0.004098072182387114,0.00361737166531384
1761309033957457400,7.00645751953125,-0.0038418760523200035,0.005693039391189814,0.007498662453144789
1761309033967385300,7.01638525390625,-0.006302637048065662,0.0044440170750021935,0.009242500178515911
1761309033977312300,7.026312255859375,-0.0025246767327189445,0.00538464542478323,0.013997574336826801
1761309033987240200,7.036240234375,-0.0026264095213264227,0.005527124274522066,0.014332866296172142
1761309033997167400,7.04616748046875,-0.0025566346012055874,0.00586534570902586,0.014207165688276291
1761309034007095300,7.05609521484375,-0.00583631731569767,0.001189900329336524,0.014666028320789337
1761309034017022500,7.0660224609375,-0.0004655205411836505,0.0014343785587698221,0.011489675380289555
1761309034026950400,7.075950439453125,-0.000010120012120751198,0.001434112200513482,0.014194115996360779
1761309034036877000,7.085876953125,0.004047472029924393,-0.0008056062506511807,0.010302438400685787
1761309034046805200,7.09580517578125,0.0018708707066252828,-0.0016399745363742113,0.007366836071014404
1761309034056732200,7.105732177734375,0.0007084008539095521,-0.0000015978966985130683,0.0075964005663990974
1761309034066660000,7.11566015625,0.0024764735717326403,-0.0008594020619057119,0.005520466715097427
1761309034076588000,7.125588134765625,0.0034916705917567015,-0.005318066570907831,0.006432599388062954
1761309034086515200,7.13551513671875,0.001698564155958593,-0.002831739140674472,0.007597732357680798
1761309034096443100,7.145443115234375,0.0026903252582997084,-0.00006897587445564568,0.005404086317867041
1761309034106370300,7.155370361328125,0.005672000348567963,-0.005673332139849663,0.007782022934406996
1761309034116298200,7.16529833984375,0.002031725598499179,-0.004199805203825235,0.0062613580375909805
1761309034126225200,7.17522509765625,-0.0005813680472783744,-0.001228782464750111,0.009168997406959534
1761309034136153300,7.1851533203125,0.003454652614891529,0.00038402783684432507,0.010407633148133755
1761309034146080300,7.195080322265625,-0.000824248360004276,-0.0006303702248260379,0.010333597660064697
1761309034156008200,7.20500830078125,-0.0010282464791089296,0.003579022129997611,0.012443619780242443
1761309034165935400,7.214935302734375,-0.003225354477763176,0.0006564692012034357,0.009396697394549847
1761309034175863300,7.22486328125,-0.0036213663406670094,0.0032019184436649084,0.009130913764238358
1761309034185790200,7.234790283203125,-0.002526008291170001,0.005855225957930088,0.007081611547619104
1761309034195718400,7.244718505859375,-0.0033625070936977863,0.004509530495852232,0.006988401059061289
1761309034205645300,7.254645263671875,-0.006433930713683367,0.003284742822870612,0.006650712341070175
1761309034215573200,7.2645732421875,-0.004078098572790623,0.004806472919881344,0.004282096866518259
1761309034225500400,7.27450048828125,-0.0005997438565827906,0.004405667539685965,0.00672155199572444
1761309034235428400,7.284428466796875,-0.0010064085945487022,0.0013257216196507215,0.005428853910416365
1761309034245355300,7.294355224609375,-0.0023401195649057627,-0.0002103897277265787,0.003933755215257406
1761309034255283500,7.304283447265625,-0.001987517112866044,-0.000609863898716867,0.00836818479001522
1761309034265210000,7.314210205078125,-0.0008133294177241623,0.003967843484133482,0.00983452145010233
1761309034275138000,7.324137939453125,-0.000029827404432580806,0.002380866091698408,0.012467055581510067
1761309034285065200,7.334065185546875,0.002624278888106346,0.0032519858796149492,0.009556753560900688
1761309034294993200,7.3439931640625,0.003984621725976467,0.0006229133578017354,0.00990109983831644
1761309034304920300,7.35392041015625,0.005155880004167557,-0.0033894050866365433,0.012163189239799976
1761309034314848300,7.36384814453125,0.0018972359830513597,-0.005587311927229166,0.009861418977379799
1761309034324775200,7.373775146484375,0.001680454588495195,-0.004020840395241976,0.009341835975646973
1761309034334703000,7.383703125,-0.0005970807396806777,-0.004287689458578825,0.008127168752253056
1761309034344630300,7.39363037109375,0.002549177734181285,-0.0009901633020490408,0.007324757985770702
1761309034354558200,7.40355810546875,0.000365918327588588,-0.0008676578872837126,0.009229983203113079
1761309034364485400,7.4134853515625,-0.00006231796578504145,-0.0019116170005872846,0.007587079424411058
1761309034374413300,7.423413330078125,0.0001531317684566602,-0.00019254654762335122,0.008898153901100159
1761309034384340200,7.43334033203125,-0.0028791434597223997,0.003920173272490501,0.00875221285969019
1761309034394268200,7.44326806640625,-0.0009853695519268513,0.005648564547300339,0.00971601065248251
1761309034404195300,7.4531953125,-0.0029467877466231585,0.004893558565527201,0.0080898841843009
1761309034414123300,7.463123291015625,-0.005513808690011501,0.008167915046215057,0.010277139022946358
1761309034424050400,7.473050537109375,-0.003498328384011984,0.004012851044535637,0.013821539469063282
1761309034433978400,7.482978271484375,-0.005900765769183636,0.0022498385515064,0.010516823269426823
1761309034443905300,7.4929052734375,-0.0037830201908946037,0.0013829795643687248,0.010371680371463299
1761309034453833200,7.502833251953125,-0.00370099488645792,0.0007669904152862728,0.009798302315175533
1761309034463760100,7.512760009765625,-0.004083957523107529,0.0022623552940785885,0.008311991579830647
1761309034473688300,7.522688232421875,-0.0008149272762238979,0.001728391507640481,0.010897655040025711
1761309034483615200,7.532615234375,0.0013608753215521574,-0.0003866909828502685,0.006847786251455545
1761309034493543200,7.542543212890625,0.0009893643436953425,-0.0013076120521873236,0.00884781964123249
1761309034503470000,7.552469970703125,0.001275920425541699,-0.002651176881045103,0.008110657334327698
1761309034513398300,7.562398193359375,0.0010863033821806312,0.00011424961121520028,0.00866086594760418
1761309034523325200,7.5723251953125,0.0052237906493246555,-0.0023614249657839537,0.010696852579712868
1761309034533253000,7.582253173828125,0.0010295780375599861,-0.002010686555877328,0.005389971658587456
1761309034543180300,7.59218017578125,0.0014319816837087274,-0.001823732745833695,0.007378287613391876
1761309034553108200,7.602108154296875,0.0023667511995881796,-0.002995789982378483,0.006952448282390833
1761309034563035100,7.61203515625,0.00196354859508574,-0.002406698651611805,0.009889381937682629
1761309034572963300,7.62196337890625,-0.0024684839881956577,-0.0009661948424763978,0.00950721837580204
1761309034582890200,7.63189013671875,-0.0025015072897076607,0.004644286818802357,0.005904227960854769
1761309034592818200,7.641818115234375,-0.0015579492319375277,0.004303668159991503,0.010134926065802574
1761309034602745300,7.651745361328125,-0.004362790379673243,0.006543386727571487,0.009928264655172825
1761309034612673300,7.66167333984375,-0.004220577888190746,0.006418218370527029,0.009319465607404709
1761309034622600200,7.67160009765625,-0.005961219780147076,0.004087419714778662,0.012088621035218239
1761309034632528400,7.6815283203125,-0.005172924138605595,0.0043984767980873585,0.008976451121270657
1761309034642455300,7.691455322265625,-0.008786301128566265,0.007376423571258783,0.009318133816123009
1761309034652383200,7.70138330078125,-0.005131911486387253,0.0076392777264118195,0.008011055178940296
1761309034662310400,7.711310302734375,-0.003516171593219042,0.002005093963816762,0.008346347138285637
1761309034672238300,7.72123828125,-0.004233893472701311,0.006636330857872963,0.009728261269629002
1761309034682165200,7.731165283203125,-0.000523577444255352,0.0026636936236172915,0.007155913859605789
1761309034692093400,7.741093505859375,0.00006657902849838138,0.001272990950383246,0.008538627065718174
1761309034702020000,7.75102001953125,0.0010865697404369712,0.004746818449348211,0.005330316722393036
1761309034711948000,7.760947998046875,0.0020807278342545033,-0.000594950164668262,0.008639028295874596
1761309034721875200,7.770875244140625,0.0028533106669783592,-0.003471430391073227,0.009005479514598846
1761309034731803100,7.78080322265625,0.0062456452287733555,-0.003034405643120408,0.009014001116156578
1761309034741730300,7.790730224609375,0.0051534827798604965,-0.003992611076682806,0.007976965978741646
1761309034751658200,7.800658203125,0.0019244002178311348,-0.0036882117856293917,0.010045976378023624
1761309034761585200,7.810585205078125,0.0012024171883240342,-0.0006617955514229834,0.008202003315091133
1761309034771513300,7.820513427734375,0.0002407497668173164,-0.0029819414485245943,0.010885937139391899
1761309034781440300,7.830440185546875,0.005362540949136019,-0.0009041432058438659,0.008073372766375542
1761309034791368200,7.8403681640625,0.000707868195604533,-0.0007683219737373292,0.007137537933886051
1761309034801295400,7.85029541015625,-0.001115864492021501,0.004027232062071562,0.00993119366466999
1761309034811223300,7.860223388671875,-0.0034613104071468115,0.00310524576343596,0.007257646415382624
1761309034821150200,7.870150146484375,-0.00848456472158432,0.007638745009899139,0.01041455753147602
1761309034831078400,7.880078369140625,-0.00439075380563736,0.007242999039590359,0.010992197319865227
1761309034841005300,7.89000537109375,-0.008607069961726665,0.0067511131055653095,0.011993546038866043
1761309034850933200,7.899933349609375,-0.00561181316152215,0.0065527078695595264,0.012358665466308594
1761309034860860400,7.9098603515625,-0.005370797123759985,0.005178783088922501,0.01230540219694376
1761309034870788400,7.919788330078125,-0.0030956584960222244,0.005733785685151815,0.010890197940170765
1761309034880715300,7.92971533203125,-0.004177967086434364,0.005362807307392359,0.010012952610850334
1761309034890643500,7.9396435546875,-0.002996056107804179,0.0035353463608771563,0.008793491870164871
1761309034900570000,7.949570068359375,-0.00037497308221645653,0.0015547533985227346,0.004972121678292751
1761309034910498000,7.959498046875,0.000957939017098397,0.0021403825376182795,0.007562578655779362
1761309034920425200,7.96942529296875,0.0005214469274505973,-0.00036991306114941835,0.009052084758877754
1761309034930353200,7.979353271484375,0.0019795275293290615,-0.0024112260434776545,0.004064782522618771
1761309034940280300,7.9892802734375,0.0009432916413061321,-0.00030120351584628224,0.008194812573492527
1761309034950208300,7.999208251953125,0.002365685999393463,-0.001925199176184833,0.007422229740768671
1761309034960135200,8.00913525390625,-0.00014141385327093303,-0.0057164751924574375,0.012111257761716843
1761309034970063000,8.01906298828125,0.0033457293175160885,-0.003093527862802148,0.013981329277157784
1761309034979990300,8.028990234375,0.002627208363264799,-0.003457315731793642,0.012048939242959023
1761309034989918200,8.038918212890625,0.002127333078533411,0.0015422365395352244,0.010275274515151978
1761309034999845400,8.048845458984376,0.0002545981842558831,-0.00018722022650763392,0.00866006687283516
1761309035009773300,8.058773193359375,-0.00028815402765758336,-0.0012253203894942999,0.010234528221189976
1761309035019700200,8.0687001953125,0.0012871057260781527,0.00011771172285079956,0.006432599388062954
1761309035029628200,8.078628173828125,-0.0007547398563474417,0.003032008884474635,0.0060232714749872684
1761309035039555300,8.088555419921875,-0.004649613052606583,0.0017414409667253494,0.004150802735239267
1761309035049483300,8.098483154296876,-0.0037441381718963385,0.004717257339507341,0.0020658141002058983
1761309035059410400,8.108410400390625,-0.004709533881396055,0.008143147453665733,0.0044075315818190575
1761309035069338400,8.11833837890625,-0.0037641117814928293,0.005210208240896463,0.0067937239073216915
1761309035079265300,8.128265380859375,-0.004069576505571604,0.004354268312454224,0.007511445786803961
1761309035089193500,8.138193359375,-0.00259418529458344,0.005532983224838972,0.013885721564292908
1761309035099120000,8.1481201171875,-0.002176867797970772,0.0017590179340913892,0.012957876548171043
1761309035109048300,8.15804833984375,-0.0036695697344839573,0.0043737092055380344,0.014148043468594551
1761309035118975200,8.167975341796875,-0.0023339942563325167,0.0003808320325333625,0.011926700361073017
1761309035128903200,8.177903076171875,0.00008442220860160887,0.0012112056137993932,0.0111045828089118
1761309035138830000,8.187830078125,0.004609931726008654,0.0014306501252576709,0.012777314521372318
1761309035148758300,8.19775830078125,0.0020013656467199326,0.0009379653492942452,0.014241786673665047
1761309035158685200,8.207685302734374,0.003266633255407214,-0.0029670277144759893,0.011924836784601212
1761309035168613000,8.217613037109375,0.003995806910097599,-0.003995007835328579,0.008892561309039593
1761309035178540300,8.227540283203124,0.003938548732548952,-0.001725462032482028,0.00752023421227932
1761309035188468200,8.23746826171875,0.0010847054654732347,-0.002898584585636854,0.010260626673698425
1761309035198395100,8.24739501953125,0.0012799152173101902,-0.002663427498191595,0.006742591038346291
1761309035208323300,8.2573232421875,-0.0003158508916385472,-0.0034256239887326956,0.0054637412540614605
1761309035218250200,8.267250244140625,0.003266367129981518,0.0009526127250865102,0.0037228327710181475
1761309035228178200,8.27717822265625,-0.0027915253303945065,0.002913231961429119,0.007935155183076859
1761309035238105300,8.287105224609375,-0.0016828514635562897,0.006994260009378195,0.010631072334945202
1761309035248033300,8.297033203125,-0.0046482812613248825,0.005037369206547737,0.01119486428797245
1761309035257960200,8.306960205078125,-0.0032176312524825335,0.004839229863137007,0.014386662282049656
1761309035267888400,8.316888427734375,-0.0012599414912983775,0.004357996862381697,0.01528840884566307
1761309035277815300,8.326815185546875,-0.0031278827227652073,0.0028447885997593403,0.014674017205834389
1761309035287743200,8.3367431640625,-0.004543885588645935,0.005396363325417042,0.013249758630990982
1761309035297670400,8.34667041015625,-0.006869890261441469,0.0024825986474752426,0.014026336371898651
1761309035307598300,8.356598388671875,-0.005107410252094269,0.002621615771204233,0.011244398541748524
1761309035317525200,8.366525146484374,-0.002853044541552663,0.00037976677413098514,0.009639844298362732
1761309035327453200,8.376453125,-0.002356364857405424,0.003725496120750904,0.008299209177494049
1761309035337380000,8.386380126953124,-0.0007571366732008755,0.0011808456620201468,0.004938565660268068
1761309035347308000,8.39630810546875,0.00008735168376006186,0.004285824950784445,0.006955111399292946
1761309035357235200,8.406235107421875,0.002585130510851741,0.0026466494891792536,0.0046269758604466915
1761309035367163100,8.4161630859375,0.0026991136837750673,0.0008024104172363877,0.006355101242661476
1761309035377090300,8.42609033203125,0.0026402578223496675,-0.0010066748363897204,0.006195311434566975
1761309035387018200,8.436018310546874,0.0005395564367063344,-0.0011667308863252401,0.006578007712960243
1761309035396945200,8.445945068359375,0.004254133440554142,0.001671932521276176,0.008232629857957363
1761309035406873300,8.455873291015624,0.0003842941368930042,0.0015190670965239406,0.011983691714704037
1761309035416800300,8.46580029296875,-0.0017441042000427842,-0.0011803129455074668,0.012253737077116966
1761309035426728200,8.475728271484375,-0.0013233247445896268,-0.0019797938875854015,0.015329687856137753
1761309035436655400,8.4856552734375,0.00011345066013745964,0.0011140003334730864,0.01492062583565712
1761309035446583300,8.495583251953125,0.0028035095892846584,-0.0022338596172630787,0.016057530418038368
1761309035456510200,8.50551025390625,-0.0022357236593961716,-0.0004426173691172153,0.009851032868027687
1761309035466438400,8.5154384765625,-0.0005486111622303724,0.0028535770252346992,0.009447031654417515
1761309035476365300,8.525365234375,-0.002987001556903124,0.0029316076543182135,0.007411044556647539
1761309035486293200,8.535293212890625,-0.0036967338528484106,0.003335076617076993,0.003590740030631423
1761309035496220400,8.545220458984375,-0.0037731665652245283,0.001915878034196794,0.003055444685742259
1761309035506148400,8.5551484375,-0.0026674221735447645,0.0007968177669681609,0.004552407655864954
1761309035516075300,8.5650751953125,-0.000589091214351356,0.002002697205170989,0.0018306568963453174
1761309035526003500,8.57500341796875,-0.0001573928166180849,0.0012394351651892066,0.003943342715501785
1761309035535930000,8.58493017578125,-0.0015875103417783976,-0.00028815402765758336,0.006110623013228178
1761309035545858000,8.594858154296874,-0.0011707255616784096,-0.0009813748765736818,0.009986321441829205
1761309035555785200,8.60478515625,0.000642620783764869,0.0008724515791982412,0.010514426045119762
1761309035565713200,8.614713134765625,-0.0016234630020335317,0.0012974920682609081,0.016113722696900368
1761309035575640300,8.624640380859375,-0.00038509309524670243,0.004338821861892939,0.016469787806272507
1761309035585568800,8.63456884765625,-0.0005986785981804132,-0.0010852381819859147,0.013488644734025002
1761309035595495700,8.64449560546875,0.0016058861510828137,0.000037017940485384315,0.017240505665540695
1761309035605423600,8.654423583984375,0.00133850472047925,-0.0009038768475875258,0.01158847939223051
1761309035615350800,8.664350830078124,-0.0007099987124092877,-0.0021315941121429205,0.012534433975815773
1761309035625278700,8.67427880859375,0.0012357067316770554,0.0015630092239007354,0.008627843111753464
1761309035635205600,8.68420556640625,-0.0013728595804423094,-0.0013430321123450994,0.00595429539680481
1761309035645133800,8.6941337890625,0.002323341788724065,0.0005763080553151667,0.0035113778430968523
1761309035655060500,8.704060546875,-0.0005089300684630871,-0.0003760383406188339,0.0020956413354724646
1761309035664988400,8.713988525390626,-0.0010301107540726662,0.003721767570823431,0.0051966262981295586
1761309035674915600,8.72391552734375,-0.002195776207372546,0.0017235978739336133,0.003897003596648574
1761309035684843500,8.733843505859374,-0.002082858234643936,0.0044352286495268345,0.004333229269832373
1761309035694770700,8.743770751953125,-0.00509968725964427,0.002968359272927046,0.008309595286846161
1761309035704698600,8.75369873046875,-0.0007126618875190616,0.003602191573008895,0.011777297593653202
1761309035714625500,8.76362548828125,-0.0014476943761110306,0.004418184049427509,0.014062821865081787
1761309035724553500,8.773553466796875,-0.0015009575290605426,-0.0014058827655389905,0.013352290727198124
1761309035734480600,8.783480712890626,-0.0022687469609081745,0.00017417073831893504,0.013187707401812077
1761309035744408600,8.79340869140625,-0.0008559399866499007,0.000368847802747041,0.01360316015779972
1761309035754335700,8.803335693359376,-0.0013555489713326097,0.00070520507870242,0.013825533911585808
1761309035764263700,8.813263671875,-0.0019331886433064938,0.003567570587620139,0.011031345464289188
1761309035774190600,8.823190673828124,0.0003507383225951344,0.0027563716284930706,0.009695503860712051
1761309035784117800,8.83311767578125,-0.002211222657933831,0.0008096009842120111,0.005856557283550501
1761309035794045700,8.843045654296875,-0.000526506919413805,0.0002644518972374499,0.006220079027116299
1761309035803972600,8.85297265625,0.00016671388584654778,-0.0008857673965394497,0.003051982494071126
1761309035813900800,8.86290087890625,-0.0010719223646447062,-0.0002436792419757694,0.0073473951779305935
1761309035823827700,8.87282763671875,-0.0019861855544149876,-0.001692705205641687,0.007992679253220558
1761309035833755600,8.882755615234375,0.001561677665449679,0.002758235903456807,0.007110373582690954
1761309035843682600,8.8926826171875,0.0009502158500254154,-0.0005147890187799931,0.010575412772595882
1761309035853610500,8.902610595703125,-0.001264468883164227,-0.00011717908637365326,0.011599664576351643
1761309035863537700,8.91253759765625,-0.00018668759730644524,0.000005060006060375599,0.012140818871557713
1761309035873465600,8.922465576171875,0.002375007141381502,0.0005526058957912028,0.012297412380576134
1761309035883392500,8.932392578125,-0.0005840312223881483,0.001002413802780211,0.014726215042173862
1761309035893320400,8.942320556640626,-0.0006074670236557722,-0.0001930791768245399,0.010295247659087181
1761309035903247600,8.95224755859375,0.0006743124104104936,-0.00037044569035060704,0.009260609745979309
1761309035913175600,8.962175537109376,-0.0010002832859754562,0.0025393241085112095,0.010014550760388374
1761309035923102700,8.972102783203125,-0.003552390495315194,0.003549993736669421,0.005260808393359184
1761309035933030700,8.98203076171875,-0.0027515781112015247,-0.00006338323146337643,0.00749014038592577
1761309035942957600,8.99195751953125,-0.0031494542490690947,0.0007022755453363061,0.0070640346966683865
1761309035952885500,9.001885498046875,-0.0008697884040884674,0.0036842171102762222,0.0029318740125745535
1761309035962812700,9.011812744140625,-0.002266349969431758,0.0018490327056497335,0.006183859892189503
1761309035972740600,9.02174072265625,-0.0036448021419346333,0.004983306862413883,0.006321811582893133
1761309035982667800,9.031667724609376,-0.0033161682076752186,0.002127066720277071,0.010627077892422676
1761309035992595700,9.041595703125,-0.0036677054595202208,0.003054911969229579,0.012771721929311752
1761309036002522600,9.051522705078124,-0.0008311725687235594,0.0014642059104517102,0.012709936127066612
1761309036012450800,9.061450927734375,0.0014740596525371075,0.00256435782648623,0.013028716668486595
1761309036022377700,9.071377685546874,-0.003704190719872713,-0.0016000272007659078,0.012402607128024101
1761309036032305700,9.0813056640625,-0.0009571401169523597,-0.0006181196658872068,0.013105415739119053
1761309036042232600,9.091232666015625,-0.0014029532903805375,0.00005379585491027683,0.010043312795460224
1761309036052160800,9.101160888671876,0.0005896238726563752,-0.00033582461765035987,0.01067794393748045
1761309036062087400,9.11108740234375,0.0004884237423539162,0.0007989483419805765,0.004976116586476564
1761309036072015600,9.121015625,0.0014367754338309169,0.003662378992885351,0.005650162696838379
1761309036081942500,9.130942626953125,0.0017499631503596902,0.003440005239099264,0.007979895919561386
1761309036091870500,9.140870361328124,-0.0015550197567790747,0.0030455910600721836,0.0019212043844163418
1761309036101797600,9.150797607421875,-0.0008034756756387651,0.000395745737478137,0.003114300547167659
1761309036111725600,9.1607255859375,-0.0011432950850576162,0.0009454221581108868,0.005494900047779083
1761309036121652500,9.170652587890626,0.003593669505789876,-0.000648479734081775,0.006134857889264822
1761309036131580700,9.18058056640625,0.00021997711155563593,0.0011142665753141046,0.010293384082615376
1761309036141507600,9.190507568359376,0.0002585929469205439,0.0004673847579397261,0.015104384161531925
1761309036151435500,9.200435546875,-0.0029166939202696085,-0.002323075430467725,0.01611771620810032
1761309036161362700,9.21036279296875,-0.00036724991514347494,0.001192829804494977,0.01925145834684372
1761309036171290600,9.22029052734375,-0.002341717481613159,0.0013259878614917397,0.01727539300918579
1761309036181217800,9.2302177734375,-0.0036075180396437645,0.0006319681415334344,0.014827948063611984
1761309036191145700,9.240145751953126,-0.002046106616035104,0.005049087107181549,0.009335710667073727
1761309036201072600,9.25007275390625,-0.0013483584625646472,0.004734834190458059,0.007497597485780716
1761309036211000600,9.26000048828125,-0.002121207769960165,0.004342550411820412,0.004895688965916634
1761309036220927700,9.269927734375,-0.0032032502349466085,0.0021574266720563173,0.0007640608819201589
1761309036230855700,9.279855712890624,-0.003477289341390133,0.001743571599945426,-0.0003115898580290377
1761309036240782800,9.289782958984375,-0.0019086875254288316,0.0005044027348048985,0.00028389296494424343
1761309036250710800,9.299710693359375,-0.0007752461824566126,-0.002243180526420474,0.000809068325906992
1761309036260637400,9.309637451171875,-0.00012650014832615852,0.002912166528403759,0.0049643986858427525
1761309036270565600,9.319565673828125,-0.00040293627534992993,-0.0008980178972706199,0.004897287115454674
1761309036280492500,9.329492431640626,-0.0005070658517070115,0.0021611552219837904,0.008430502377450466
1761309036290420500,9.33942041015625,0.0011472897604107857,0.002183525823056698,0.013189571909606457
1761309036300347600,9.34934765625,0.0005201153689995408,-0.0004751079250127077,0.013500362634658813
1761309036310275600,9.359275634765625,0.0007864314829930663,-0.0007254450465552509,0.013560283929109573
1761309036320202500,9.369202392578124,0.0031486554071307182,-0.0010575412306934595,0.015004249289631844
1761309036330130700,9.379130615234375,0.0008596684201620519,-0.0030503845773637295,0.017284980043768883
1761309036340057600,9.3890576171875,-0.0013696637470275164,-0.0007038734620437026,0.013005280867218971
1761309036349985500,9.398985595703126,-0.0014503574930131435,-0.0003307645965833217,0.010543720796704292
1761309036359912700,9.40891259765625,-0.0008881642133928835,0.0005824333056807518,0.005115932319313288
1761309036369840600,9.418840576171876,-0.003040530951693654,0.0019805929623544216,0.0036506610922515392
1761309036379767600,9.428767578125,0.00047830372932367027,0.001764077926054597,0.0014535533264279366
1761309036389695700,9.43869580078125,-0.0006002765148878098,0.004560663364827633,0.001970472978428006
1761309036399622700,9.44862255859375,0.0001656486128922552,0.005643771030008793,0.0005291700945235789
1761309036409550600,9.458550537109375,-0.002406698651611805,0.006641657557338476,0.003319896524772048
1761309036419477800,9.468477783203125,-0.0029907298739999533,0.003254382871091366,0.0037436054553836584
1761309036429405700,9.47840576171875,-0.0012727247085422277,0.002371012233197689,0.009619603864848614
1761309036439332600,9.48833251953125,-0.0009515474666841328,0.0011121360585093498,0.012613263912498951
1761309036449260800,9.4982607421875,-0.0014807175612077117,0.0010109359864145517,0.015500130131840706
1761309036459187700,9.508187744140624,-0.0001257012045243755,0.004252003040164709,0.01618908904492855
1761309036469115600,9.51811572265625,-0.0034011229872703552,0.0023406522814184427,0.017169665545225143
1761309036479042600,9.52804248046875,-0.001979261403903365,0.0007368966471403837,0.017182182520627975
1761309036488970500,9.537970458984375,-0.0035601137205958366,0.0010985539993271232,0.013944577425718307
1761309036498897700,9.547897705078125,-0.0024985778145492077,0.0027486486360430717,0.009920274838805199
1761309036508825600,9.55782568359375,-0.0012855078093707561,0.00350392097607255,0.0033965955954045057
1761309036518752500,9.56775244140625,-0.002112952060997486,-0.0015840481501072645,-0.0004854942671954632
1761309036528680400,9.577680419921874,-0.0001840244367485866,0.0009025452891364694,0.0004652542411349714
1761309036538607600,9.587607666015625,-0.000008788431841821875,0.0009645969257690012,-0.007670436520129442
1761309036548535600,9.59753564453125,0.0012069445801898837,0.0000250337143370416,-0.0059756007976830006
1761309036558462700,9.607462646484375,0.004364388529211283,-0.002171008847653866,-0.003900465788319707
1761309036568390700,9.617390625,0.008373511023819447,-0.0019150790758430958,-0.0010863033821806312
1761309036578317600,9.627317626953126,0.005922071170061827,-0.0060176788829267025,0.004473311826586723
1761309036588245200,9.637245361328125,0.007251254748553038,-0.009165534749627113,0.008774050511419773
1761309036598172200,9.647172119140626,0.00663366774097085,-0.008558334782719612,0.008479238487780094
1761309036608099300,9.657099365234375,0.005645102355629206,-0.00595429539680481,0.009578591212630272
1761309036618027300,9.66702734375,0.0070517840795218945,-0.003947869874536991,0.01125345379114151
1761309036627954200,9.6769541015625,0.003099919529631734,-0.0035507925786077976,0.012227371335029602
1761309036637882000,9.686882080078124,0.0005885586142539978,-0.00780679052695632,0.015266571193933487
1761309036647809300,9.696809326171875,0.0011851066956296563,-0.004547880031168461,0.013219664804637432
1761309036657737200,9.7067373046875,0.0006964165950194001,-0.004240551497787237,0.01025902945548296
1761309036667664400,9.716664306640626,0.00159470085054636,0.000029827404432580806,0.003967577591538429
1761309036677592300,9.72659228515625,-0.00023995080846361816,-0.00014034859486855567,0.0007744472241029143
1761309036687519000,9.73651904296875,-0.004375307355076075,0.004195543937385082,0.0025531724095344543
1761309036697447200,9.746447265625,-0.0017422399250790477,0.000592020689509809,0.0016263924771919847
1761309036707374000,9.7563740234375,-0.0026612968649715185,0.0032581111881881952,0.0010239854454994202
1761309036717302000,9.766302001953125,0.0014849785948172212,0.004328968469053507,0.0020905814599245787
1761309036727229200,9.776229248046874,-0.002026399364694953,0.001669269404374063,0.0012405004817992449
1761309036737157000,9.7861572265625,-0.0017486315919086337,0.005965214688330889,0.003634682158008218
1761309036747084000,9.796083984375,-0.004176635295152664,0.00433029979467392,0.008611864410340786
1761309036757012200,9.80601220703125,-0.003308977698907256,0.005921006202697754,0.009213738143444061
1761309036766939100,9.815939208984375,-0.0032692966051399708,0.0022213426418602467,0.013787983916699886
1761309036776867000,9.8258671875,-0.0012748552253469825,0.00464668357744813,0.011862251907587051
1761309036786794200,9.835794189453125,-0.001341966912150383,0.0021438447292894125,0.01426682062447071
1761309036796722200,9.84572216796875,-0.0019038938917219639,0.002980876248329878,0.01218449417501688
1761309036806649000,9.855649169921875,-0.0028367992490530014,-0.0004854942671954632,0.016887636855244637
1761309036816577300,9.865577392578125,-0.0041033984161913395,0.000731836655177176,0.016107862815260887
1761309036826504200,9.875504150390626,-0.0018010957865044475,-0.002025333931669593,0.010459830984473228
1761309036836432100,9.88543212890625,0.00017869810108095407,-0.00202320353128016,0.008614527061581612
1761309036846359300,9.895359375,0.0022985744290053844,-0.002697515767067671,0.0027238810434937477
1761309036856287200,9.905287353515625,0.001231711939908564,-0.002290052128955722,0.0043769050389528275
1761309036866214400,9.91521435546875,0.0015694007743149996,-0.00016218650853261352,0.0016740630380809307
1761309036876142300,9.925142333984375,-0.00011345066013745964,0.0032647692132741213,0.0006346312584355474
1761309036886069000,9.935069091796874,-0.0010812433902174234,-0.00016351809608750045,0.004288754425942898
1761309036895997200,9.9449970703125,-0.0011997540714219213,-0.0003009371866937727,0.003709783311933279
1761309036905924000,9.954924072265625,-0.0010423612548038363,0.003689010627567768,0.008492021821439266
1761309036915852000,9.96485205078125,-0.002573412610217929,0.002295911079272628,0.009329586289823055
1761309036925779200,9.974779296875,-0.006091448478400707,-0.0003427488263696432,0.012601279653608799
1761309036935707100,9.98470703125,-0.005012335255742073,0.002694586291909218,0.01606179028749466
1761309036945634000,9.994634033203125,-0.0037936728913336992,0.0012727247085422277,0.014875352382659912
1761309036955562200,10.004562255859375,-0.001988049829378724,0.0031337416730821133,0.01768871583044529
1761309036965489200,10.0144892578125,-0.001820536912418902,0.002913231961429119,0.014740862883627415
1761309036975417000,10.0244169921875,-0.003853327827528119,0.004282363224774599,0.0157731045037508
1761309036985344300,10.03434423828125,-0.001219461439177394,0.0024583640042692423,0.011292601935565472
1761309036995272200,10.044272216796875,0.001255414099432528,0.002755839144811034,0.010068879462778568
1761309037005199000,10.05419921875,-0.0016317188274115324,0.0008852347382344306,0.0037499971222132444
1761309037015127300,10.064127197265625,-0.00023089606838766485,0.0014383733505383134,-0.00001917476038215682
1761309037025054200,10.07405419921875,-0.0012391688069328666,-0.00041518680518493056,0.00026498452643863857
1761309037034982100,10.083982177734375,-0.0009566074586473405,-0.0005291700945235789,0.0011470235185697675
1761309037044909300,10.093909423828125,0.0006900250446051359,-0.0014455638593062758,0.002351038623601198
1761309037054837200,10.103837158203126,-0.0006114617572166026,-0.003967843484133482,0.006629406940191984
1761309037064764200,10.11376416015625,-0.002299639629200101,-0.0006157228490337729,0.011355718597769737
1761309037074692400,10.1236923828125,0.002183792181313038,-0.0025015072897076607,0.014327007345855236
1761309037084619300,10.133619384765625,0.0011518171522766352,-0.002034655073657632,0.019058912992477417
1761309037094547200,10.143547119140624,0.002243713242933154,0.0023731428664177656,0.019998475909233093
1761309037104474000,10.15347412109375,-0.0007486145477741957,0.0030863373540341854,0.022461632266640663
1761309037114402000,10.163402099609375,-0.001264735241420567,0.001071123406291008,0.018263425678014755
1761309037124329200,10.1733291015625,-0.0017068199813365936,0.004722583573311567,0.01913454569876194
1761309037134257200,10.183257080078125,-0.004761998075991869,0.004671717062592506,0.01221591979265213
1761309037144184000,10.19318408203125,0.00016538229829166085,0.0034850125666707754,0.00866086594760418
1761309037154112000,10.203112060546875,-0.0022064289078116417,0.004282096866518259,0.0012937636347487569
1761309037164039200,10.2130390625,-0.003900465788319707,0.0012181298807263374,0.0024311996530741453
1761309037173967000,10.222967041015625,-0.001577123999595642,0.0020477045327425003,0.002671683207154274
1761309037183894300,10.232894287109374,-0.0022591594606637955,0.0014439659425988793,0.00009108010999625549
1761309037193822200,10.242822265625,-0.002954510971903801,0.002406432293355465,0.001845038030296564
1761309037203749000,10.2527490234375,-0.0014202637830749154,0.002002697205170989,0.0051801144145429134
1761309037213677000,10.262677001953126,-0.0022114890161901712,0.000222373942960985,0.004956675227731466
1761309037223604200,10.272604248046875,-0.0011004181578755379,0.005539108533412218,0.008297877386212349
1761309037233532200,10.2825322265625,-0.0022863238118588924,0.0019955066964030266,0.011116300709545612
1761309037243459300,10.292459228515625,-0.0022303974255919456,-0.0009795106016099453,0.014793859794735909
1761309037253387300,10.30238720703125,0.002682868391275406,-0.00008921589324017987,0.016713466495275497
1761309037263314200,10.312314208984375,0.004593153949826956,-0.004268514458090067,0.014125938527286053
1761309037273242000,10.3222421875,0.004711398389190435,-0.00418329332023859,0.016695888713002205
1761309037283169300,10.332169189453126,0.004032292403280735,-0.003984355367720127,0.014116884209215641
1761309037293096200,10.34209619140625,0.0065412563271820545,-0.0035459990613162518,0.00945262424647808
1761309037303024000,10.352024169921876,0.002639458980411291,-0.0046450854279100895,0.005951365921646357
1761309037312951000,10.361950927734375,0.001692705205641687,-0.004208060912787914,0.003206445835530758
1761309037322879000,10.37187890625,0.00649651512503624,-0.004290086217224598,0.0028879318851977587
1761309037332806100,10.38180615234375,0.005799565929919481,-0.0007640608819201589,0.0034591800067573786
1761309037342734000,10.391734130859374,0.00449861166998744,0.0000804274677648209,-0.00048629322554916143
1761309037352661200,10.4016611328125,0.00038509309524670243,0.0011030812747776508,0.005508748814463615
1761309037362589200,10.411589111328125,-0.001829591696150601,0.0038922098465263844,0.0054299188777804375
1761309037372516000,10.42151611328125,-0.0038003309164196253,0.0007209177128970623,0.0070339408703148365
1761309037382444000,10.431444091796875,-0.00307648372836411,0.0013957626651972532,0.011965050362050533
1761309037392371200,10.44137109375,-0.002591521944850683,0.005544168874621391,0.013887319713830948
1761309037402299100,10.451299072265625,-0.002172074280679226,0.004224039614200592,0.01595366559922695
1761309037412226300,10.461226318359374,-0.0008969526388682425,0.005293565336614847,0.015022625215351582
1761309037422154200,10.471154296875,-0.0023094932548701763,0.00427117757499218,0.01601598411798477
1761309037432081200,10.4810810546875,-0.005047755315899849,0.0020359866321086884,0.016992831602692604
1761309037442009000,10.491009033203126,-0.004348942078649998,0.0024945829063653946,0.012739763595163822
1761309037451936300,10.500936279296875,-0.0021763353142887354,0.0027153589762747288,0.006743656471371651
1761309037461864200,10.5108642578125,-0.002180329989641905,0.0035025894176214933,0.0031108383554965258
1761309037471791400,10.520791259765625,-0.0009901633020490408,0.004319114610552788,0.0037587855476886034
1761309037481719300,10.53071923828125,-0.00115394766908139,-0.00013315805699676275,0.0016367788193747401
1761309037491646000,10.54064599609375,0.0015195996966212988,0.0031649006996303797,0.0026378610637038946
1761309037501574400,10.550574462890625,-0.00048416267964057624,0.002198972040787339,0.008529571816325188
1761309037511501000,10.5605009765625,0.0015936355339363217,-0.0012892362428829074,0.009475793689489365
1761309037521429000,10.570428955078125,-0.0006785734440200031,-0.002879942301660776,0.00996288564056158
1761309037531356200,10.580356201171876,0.0018815232906490564,-0.002091646660119295,0.011550395749509335
1761309037541284000,10.5902841796875,-0.0021486382465809584,0.0009443568997085094,0.011858257465064526
1761309037551211000,10.6002109375,-0.0005877596559002995,0.00036751621519215405,0.013063337653875351
1761309037561139200,10.61013916015625,-0.0003632551815826446,0.00001704423084447626,0.009255549870431423
1761309037571066000,10.620066162109374,0.0008476841612718999,-0.0014942996203899384,0.010129333473742008
1761309037580994000,10.629994140625,0.00002663161103555467,0.0007864314829930663,0.007476824801415205
1761309037590922000,10.639921875,-0.0017419736832380295,0.0011406318517401814,0.009133577346801758
1761309037600850000,10.649849853515626,-0.0007981493836268783,-0.000012250540748937055,0.00794580765068531
1761309037610776800,10.65977685546875,-0.002755306428298354,0.004523112904280424,0.008779110386967659
1761309037620704800,10.669704833984374,-0.004426706116646528,0.0028812738601118326,0.010153833776712418
1761309037630631700,10.679631591796875,-0.0016434367280453444,0.003572630463168025,0.006332464516162872
1761309037640559900,10.689559814453125,-0.003680754918605089,0.0031425300985574722,0.008698150515556335
1761309037650486800,10.69948681640625,-0.0009733853512443602,0.002520415699109435,0.0075601814314723015
1761309037660414700,10.709414794921875,-0.003695135936141014,0.0022801985032856464,0.007318899035453796
1761309037670341600,10.719341552734376,-0.0011179950088262558,-0.0002764361270237714,0.009999371133744717
1761309037680269800,10.729269775390625,-0.0032583775464445353,0.0021646174136549234,0.009357282891869545
1761309037690196700,10.73919677734375,-0.0032895365729928017,-0.00152359448838979,0.009296562522649765
1761309037700124000,10.7491240234375,-0.0009065400226972997,0.0013635384384542704,0.008128234185278416
1761309037710051800,10.7590517578125,0.002373675350099802,0.0008788431296125054,0.010866495780646801
1761309037719978800,10.768978759765625,0.0017102820565924048,0.00040799626731313765,0.011090467683970928
1761309037729906700,10.77890673828125,-0.0016018913593143225,0.0016556872287765145,0.010421215556561947
1761309037739833900,10.788833740234375,-0.0006026733317412436,-0.0016873788554221392,0.008371912874281406
1761309037749761800,10.79876171875,-0.00044341632747091353,-0.001728391507640481,0.011611382476985455
1761309037759689000,10.80868896484375,0.0010482202051207423,0.0005102616851218045,0.0090542146936059
1761309037769617000,10.818616943359375,0.0014295848086476326,0.0016636766958981752,0.00842837244272232
1761309037779543800,10.828543701171874,-0.00002210423735959921,0.0023302659392356873,0.005672000348567963
1761309037789471700,10.8384716796875,-0.0006583334179595113,0.000699079770129174,0.010358098894357681
1761309037799399000,10.84839892578125,-0.003067695302888751,0.0016772588714957237,0.006202502176165581
1761309037809326800,10.858326904296876,-0.0016429040115326643,0.002510561840608716,0.00854475237429142
1761309037819253800,10.868253662109375,-0.0006998787284828722,0.0007142598042264581,0.008184426464140415
1761309037829182000,10.878181884765626,-0.0004122573300264776,0.000696150294970721,0.00891013815999031
1761309037839108600,10.888108642578125,-0.0015574166318401694,0.00015046859334688634,0.01133680995553732
1761309037849036800,10.898036865234374,-0.0017030915478244424,0.0014825817197561264,0.010312292724847794
1761309037858963700,10.907963623046875,-0.0011403656098991632,0.0033806166611611843,0.009619337506592274
1761309037868891600,10.9178916015625,-0.0012487561907619238,0.004139084834605455,0.009527458809316158
1761309037878818800,10.92781884765625,-0.0004468784318305552,-0.0033398703671991825,0.009180715307593346
1761309037888746800,10.937746826171875,0.0005510080372914672,0.0020013656467199326,0.010706174187362194
1761309037898673700,10.947673583984376,0.0005078648100607097,0.0008839031797833741,0.010001767426729202
1761309037908601900,10.957601806640625,-0.0009411611245013773,0.0054453653283417225,0.006179066374897957
1761309037918528800,10.96752880859375,-0.002831206424161792,0.0009187905816361308,0.009766876697540283
1761309037928456700,10.977456787109375,-0.0012322446564212441,-0.0003408846096135676,0.008437693119049072
1761309037938384000,10.9873837890625,-0.002603239845484495,0.0017694041598588228,0.008941829204559326
1761309037948311800,10.997311767578125,0.0005118595436215401,-0.0004543352697510272,0.010853180661797523
1761309037958238700,11.00723876953125,-0.00046099317842163146,-0.0008080030675046146,0.009149289689958096
1761309037968167000,11.0171669921875,0.0008218514849431813,0.001449025934562087,0.010822820477187634
1761309037978093800,11.02709375,-0.00015765913121867925,0.000035952674807049334,0.007910121232271194
1761309037988021800,11.037021728515626,0.0008173241512849927,0.0023875238839536905,0.011012171395123005
1761309037997949000,11.046948974609375,-0.0009648632840253413,0.004283694550395012,0.008429703302681446
1761309038007876900,11.056876953125,-0.0036362800747156143,0.0022418489679694176,0.00971760880202055
1761309038017804000,11.066803955078125,0.0008862999966368079,0.0024437166284769773,0.00920548290014267
1761309038027732000,11.07673193359375,-0.0005435511702671647,0.002379800658673048,0.007364705670624971
1761309038037658600,11.08665869140625,-0.00038269624928943813,0.0006442186422646046,0.01134053897112608
1761309038047585800,11.096585693359375,-0.002916161436587572,0.0009616674506105483,0.011635617353022099
1761309038057513700,11.106513671875,0.0023758059833198786,0.0008969526388682425,0.010411095805466175
1761309038067440600,11.116440673828125,-0.0032077773939818144,0.0016114787431433797,0.011572766117751598
1761309038077368800,11.126368896484376,-0.00037284253630787134,-0.000526506919413805,0.010297112166881561
1761309038087295700,11.136295654296875,-0.002205097349360585,0.0029137644451111555,0.010323211550712585
1761309038097223700,11.1462236328125,-0.0010282464791089296,0.0034549187403172255,0.005943642929196358
1761309038107150800,11.15615087890625,-0.002698581200093031,0.003932956140488386,0.009560481645166874
1761309038117078800,11.166078857421875,-0.002376871183514595,0.000818123109638691,0.00694978516548872
1761309038127005700,11.176005615234375,-0.0022120214998722076,0.0011936287628486753,0.0065468489192426205
1761309038136934000,11.185933837890625,0.0008484831196255982,-0.001166198286227882,0.008892561309039593
1761309038146860800,11.19586083984375,0.0010394317796453834,0.003721767570823431,0.006736465729773045
1761309038156788700,11.205788818359375,-0.002659166231751442,0.00006364954606397077,0.00996341835707426
1761309038166716000,11.2157158203125,0.0014407701091840863,-0.00020932445477228612,0.009015066549181938
1761309038176643800,11.225643798828125,-0.00014168016787152737,-0.0014325142838060856,0.010536530055105686
1761309038186571000,11.235571044921874,0.0011494202772155404,-0.0012634035665541887,0.01230220589786768
1761309038196499000,11.2454990234375,0.004191282670944929,0.0018333201296627522,0.01260820310562849
1761309038206425900,11.25542578125,0.0026823359075933695,-0.002201635157689452,0.013701431453227997
1761309038216353800,11.265353759765626,0.0019358517602086067,0.00039468047907575965,0.01193948369473219
1761309038226280700,11.27528076171875,-0.00026604978484101593,0.0011677960865199566,0.01326680276542902
1761309038236208600,11.285208740234374,-0.0005451490869745612,0.003349457634612918,0.009061139076948166
1761309038246135800,11.2951357421875,-0.0035803536884486675,0.0012181298807263374,0.00791251752525568
1761309038256063700,11.305063720703124,0.003165433183312416,0.0007608651067130268,0.009846239350736141
1761309038265990700,11.31499072265625,-0.00003728425508597866,0.0003989415417890996,0.007574030198156834
1761309038275918800,11.3249189453125,-0.00035206988104619086,0.003213103860616684,0.00990136619657278
1761309038285845800,11.334845703125,-0.00216488353908062,-0.002627208363264799,0.00902625173330307
1761309038295773700,11.344773681640625,-0.002520149340853095,0.002338521648198366,0.0057249972596764565
1761309038305700900,11.354700927734376,-0.003665574826300144,0.0032730249222368,0.005314604379236698
1761309038315628800,11.36462890625,-0.0006476807757280767,-0.0007094661123119295,0.006381200160831213
1761309038325555700,11.3745556640625,-0.0019651465117931366,0.005400091875344515,0.00999271310865879
1761309038335483000,11.38448291015625,-0.0030506509356200695,0.00221947836689651,0.007911453023552895
1761309038345410800,11.394410888671874,-0.0046813045628368855,0.004040814470499754,0.007692806888371706
1761309038355338000,11.404337890625,-0.002127865795046091,0.006372678093612194,0.009265136905014515
1761309038365266000,11.414265869140625,0.0004982774262316525,0.0019196064677089453,0.008413458243012428
1761309038375192800,11.42419287109375,-0.001326786819845438,-0.0013752563390880823,0.010916297324001789
1761309038385120800,11.434120849609375,0.00035446672700345516,0.0032317459117621183,0.011377557180821896
1761309038395048000,11.4440478515625,0.0024285365361720324,0.0011315771844238043,0.00908430851995945
1761309038404975900,11.453975830078125,0.0006809702608734369,-0.0010522148804739118,0.011867578141391277
1761309038414902800,11.46390283203125,0.0011728560784831643,-0.0023307986557483673,0.010119212791323662
1761309038424831000,11.4738310546875,0.00004340952364145778,0.0006628608098253608,0.009229451417922974
1761309038434757600,11.483757568359374,0.0019025622168555856,0.0032168321777135134,0.006284261122345924
1761309038444685800,11.493685791015626,0.001076982356607914,0.00014168016787152737,0.005113002844154835
1761309038454612700,11.50361279296875,-0.000592287047766149,0.0002348908019484952,0.005064267199486494
1761309038464540700,11.513540771484376,-0.0007962851668708026,0.00023542344570159912,0.0026937874499708414
1761309038474467800,11.5234677734375,-0.0017571536591276526,-0.0000798948312876746,0.0051862397231161594
1761309038484395800,11.533395751953124,-0.002585130510851741,0.0007084008539095521,0.009695770218968391
1761309038494322700,11.54332275390625,0.0016221314435824752,0.0024857944808900356,0.009668339975178242
1761309038504251000,11.5532509765625,-0.003919640555977821,0.0020477045327425003,0.013963486067950726
1761309038514177800,11.563177734375,-0.0019587550777941942,0.0028788771014660597,0.011373295448720455
1761309038524105700,11.573105712890625,-0.0036125779151916504,0.014168282970786095,0.019837087020277977
1761309038534033000,11.583032958984376,-0.010114419274032116,0.00443869037553668,0.021855764091014862
1761309038543960800,11.5929609375,-0.010056096129119396,0.011778628453612328,0.01913641020655632
1761309038553887700,11.6028876953125,-0.0114984642714262,0.015123559162020683,0.008946890011429787
1761309038563816000,11.61281591796875,-0.01344763208180666,0.013601562939584255,-0.00037763622822239995
1761309038573742800,11.622742919921874,-0.01182390283793211,0.01871722936630249,-0.003581951605156064
1761309038583670000,11.632669921875,-0.011119762435555458,0.011972506530582905,-0.001547030289657414
1761309038593597700,11.64259765625,-0.005184642039239407,0.007233412005007267,-0.00019574233738239855
1761309038603524400,11.6525244140625,-0.002799514913931489,0.003605920122936368,-0.0007334345718845725
1761309038613452500,11.66245263671875,0.0010636665392667055,-0.00043995422311127186,-0.004113784991204739
1761309038623379500,11.67237939453125,0.0028716865926980972,-0.005173723213374615,0.00011851066665258259
1761309038633307400,11.682307373046875,0.005705556366592646,-0.00836685299873352,0.009812416508793831
1761309038643234600,11.692234619140624,0.009504822082817554,-0.013420467264950275,0.011259579099714756
