time,seconds_elapsed,z,y,x
1761838610226130400,0.08213037109375,0.2857975363731384,-0.7533911466598511,0.2325887531042099
1761838610236200400,0.092200439453125,0.12169329822063446,-0.7864183187484741,0.2424861192703247
1761838610246269400,0.10226953125,-0.008105776272714138,-0.8334307074546814,0.18331244587898254
1761838610256339500,0.11233935546875,-0.09518688172101974,-0.7976375818252563,0.11900348216295242
1761838610266409500,0.122409423828125,-0.1701889932155609,-0.6964111328125,0.03986852616071701
1761838610276479500,0.1324794921875,-0.2342854142189026,-0.5518187880516052,-0.06730426847934723
1761838610286548500,0.142548583984375,-0.26121941208839417,-0.36438947916030884,-0.1866297572851181
1761838610296618500,0.152618408203125,-0.26164257526397705,-0.199479877948761,-0.31522583961486816
1761838610306688500,0.1626884765625,-0.25236234068870544,-0.12219483405351639,-0.4407011866569519
1761838610316757500,0.172757568359375,-0.24532254040241241,-0.11206310242414474,-0.5251694321632385
1761838610326827500,0.18282763671875,-0.2534930408000946,-0.1342843770980835,-0.555011510848999
1761838610336897300,0.192897216796875,-0.27648916840553284,-0.14459720253944397,-0.5256091952323914
1761838610346967600,0.202967529296875,-0.3140456974506378,-0.14899341762065887,-0.45506203174591064
1761838610357036500,0.21303662109375,-0.34673652052879333,-0.1628762036561966,-0.37326064705848694
1761838610367106600,0.2231064453125,-0.39017346501350403,-0.18073774874210358,-0.2876990735530853
1761838610377176600,0.233176513671875,-0.42598527669906616,-0.2385682910680771,-0.21613860130310059
1761838610387246600,0.24324658203125,-0.4481540620326996,-0.32887864112854004,-0.15146659314632416
1761838610397315600,0.253315673828125,-0.4587539732456207,-0.4013270139694214,-0.09012120962142944
1761838610407385600,0.263385498046875,-0.46248137950897217,-0.3983103334903717,-0.03568311035633087
1761838610417455400,0.273455322265625,-0.46753740310668945,-0.35066479444503784,0.00004612794145941734
1761838610427525600,0.283525634765625,-0.47262945771217346,-0.2980042099952698,-0.0004689376801252365
1761838610437594400,0.293594482421875,-0.48154494166374207,-0.25656887888908386,-0.02395002916455269
1761838610447664400,0.303664306640625,-0.4862437844276428,-0.2194230705499649,-0.06963103264570236
1761838610457734700,0.313734619140625,-0.4909527897834778,-0.16332997381687164,-0.11776607483625412
1761838610467804400,0.323804443359375,-0.4930015504360199,-0.08872389793395996,-0.16066423058509827
1761838610477873700,0.333873779296875,-0.48491060733795166,-0.034999411553144455,-0.19131775200366974
1761838610487943400,0.343943359375,-0.4780023992061615,-0.02477026730775833,-0.21725450456142426
1761838610498013400,0.354013427734375,-0.4798048138618469,-0.03214962035417557,-0.22111262381076813
1761838610508082400,0.36408251953125,-0.4931619167327881,-0.016073983162641525,-0.21329252421855927
1761838610518152400,0.37415234375,-0.5087486505508423,0.009703551419079304,-0.19744059443473816
1761838610528222500,0.384222412109375,-0.5262283086776733,0.024980153888463974,-0.16929711401462555
1761838610538292500,0.39429248046875,-0.5437447428703308,0.017064440995454788,-0.14090222120285034
1761838610548361500,0.404361572265625,-0.5471547245979309,-0.0019156178459525108,-0.10772937536239624
1761838610558431500,0.414431396484375,-0.5374019742012024,-0.02848384529352188,-0.07292638719081879
1761838610568501500,0.42450146484375,-0.5139515995979309,-0.04804438352584839,-0.03521670773625374
1761838610578571500,0.434571533203125,-0.48095983266830444,-0.060652054846286774,-0.0013386353384703398
1761838610588640500,0.444640625,-0.4529266059398651,-0.07881832867860794,0.021088019013404846
1761838610598710500,0.45471044921875,-0.4262031018733978,-0.10103707760572433,0.03678309544920921
1761838610608780300,0.4647802734375,-0.39790967106819153,-0.1120840534567833,0.04656356945633888
1761838610618850600,0.4748505859375,-0.3675192594528198,-0.10363703966140747,0.05389019101858139
1761838610628919600,0.48491943359375,-0.3259032964706421,-0.1083994209766388,0.05087868124246597
1761838610638989600,0.494989501953125,-0.28868749737739563,-0.11835458874702454,0.04988958686590195
1761838610649059600,0.5050595703125,-0.2523486316204071,-0.1280255764722824,0.05012117326259613
1761838610659128300,0.51512841796875,-0.21971428394317627,-0.1367679238319397,0.04867773875594139
1761838610669198600,0.525198486328125,-0.19593679904937744,-0.1653445065021515,0.04110841453075409
1761838610679268600,0.5352685546875,-0.17461898922920227,-0.19214601814746857,0.03182676434516907
1761838610689338400,0.54533837890625,-0.1544727236032486,-0.19426670670509338,0.02301192283630371
1761838610699407600,0.55540771484375,-0.14570559561252594,-0.18007339537143707,0.015154000371694565
1761838610709477400,0.565477294921875,-0.1370442509651184,-0.15202033519744873,0.012023348361253738
1761838610719547400,0.57554736328125,-0.13195228576660156,-0.11385857313871384,0.013278761878609657
1761838610729617700,0.58561767578125,-0.13559088110923767,-0.07721942663192749,0.022084807977080345
1761838610739686400,0.595686279296875,-0.14728349447250366,-0.04484524205327034,0.02982262335717678
1761838610749756700,0.605756591796875,-0.15033942461013794,-0.03327399492263794,0.03705962747335434
1761838610759826400,0.615826416015625,-0.148521289229393,-0.037040770053863525,0.04656950756907463
1761838610769896400,0.625896484375,-0.151433065533638,-0.07439401745796204,0.043777886778116226
1761838610779965400,0.63596533203125,-0.14756909012794495,-0.14983603358268738,0.03645392879843712
1761838610790035500,0.646035400390625,-0.13595297932624817,-0.2353539913892746,0.0305219404399395
1761838610800105500,0.65610546875,-0.12284329533576965,-0.31017789244651794,0.01710866205394268
1761838610810174500,0.666174560546875,-0.11689845472574234,-0.3290517330169678,-0.004068741109222174
1761838610820244500,0.676244384765625,-0.10661812126636505,-0.2882872521877289,-0.026052337139844894
1761838610830314500,0.686314453125,-0.09524582326412201,-0.20875953137874603,-0.05917796120047569
1761838610840384500,0.696384521484375,-0.08779510110616684,-0.12089332938194275,-0.1130710244178772
1761838610850453500,0.70645361328125,-0.09229130297899246,-0.03708628565073013,-0.17412526905536652
1761838610860523500,0.7165234375,-0.09998650848865509,0.037767983973026276,-0.23413294553756714
1761838610870593500,0.726593505859375,-0.1207447275519371,0.11391053348779678,-0.28465360403060913
1761838610880663300,0.736663330078125,-0.15131887793540955,0.17455551028251648,-0.32754939794540405
1761838610890732500,0.746732666015625,-0.18510355055332184,0.23967252671718597,-0.35375747084617615
1761838610900802300,0.75680224609375,-0.21221905946731567,0.30754053592681885,-0.35526642203330994
1761838610910872600,0.76687255859375,-0.24269476532936096,0.33563461899757385,-0.34057360887527466
1761838610920942600,0.776942626953125,-0.2713352143764496,0.31268298625946045,-0.31722593307495117
1761838610931011300,0.78701123046875,-0.2963183522224426,0.2684200406074524,-0.2773972451686859
1761838610941081600,0.79708154296875,-0.3225589990615845,0.22593329846858978,-0.23144547641277313
1761838610951151600,0.807151611328125,-0.34937477111816406,0.1959637552499771,-0.18942832946777344
1761838610961221400,0.817221435546875,-0.3817065954208374,0.20816528797149658,-0.15903393924236298
1761838610971289900,0.827289794921875,-0.4206034541130066,0.22472606599330902,-0.14796479046344757
1761838610981359900,0.83735986328125,-0.46054181456565857,0.17939427495002747,-0.16090109944343567
1761838610991430000,0.847429931640625,-0.49029865860939026,0.059144824743270874,-0.19023609161376953
1761838611001499000,0.857498779296875,-0.5163900852203369,-0.11412535607814789,-0.21931131184101105
1761838611011569000,0.86756884765625,-0.5267852544784546,-0.2683727443218231,-0.23717370629310608
1761838611021639000,0.877638916015625,-0.5221350789070129,-0.37307944893836975,-0.23847997188568115
1761838611031709000,0.887708984375,-0.5056260824203491,-0.44616764783859253,-0.239979088306427
1761838611041778000,0.89777783203125,-0.49380242824554443,-0.47230201959609985,-0.23664774000644684
1761838611051848000,0.907847900390625,-0.4945586621761322,-0.47300273180007935,-0.2295202910900116
1761838611061917700,0.917917724609375,-0.5174407958984375,-0.46915310621261597,-0.2042444944381714
1761838611071988000,0.927988037109375,-0.5678936243057251,-0.4507192373275757,-0.1592053920030594
1761838611082056700,0.938056640625,-0.6414186954498291,-0.41885507106781006,-0.09502959996461868
1761838611092126700,0.948126708984375,-0.7228132486343384,-0.37960612773895264,-0.024318877607584
1761838611102197000,0.958197021484375,-0.803160548210144,-0.38428688049316406,0.03692983463406563
1761838611112266800,0.968266845703125,-0.8556013107299805,-0.42327815294265747,0.08694374561309814
1761838611122336000,0.9783359375,-0.8827021718025208,-0.43758624792099,0.11912618577480316
1761838611132405800,0.98840576171875,-0.8779126405715942,-0.37580788135528564,0.12702973186969757
1761838611142475800,0.998475830078125,-0.8356298804283142,-0.22990477085113525,0.10728798806667328
1761838611152545000,1.008544921875,-0.7493305802345276,-0.020566929131746292,0.07440197467803955
1761838611162614800,1.01861474609375,-0.6460201740264893,0.1602896749973297,0.03224280849099159
1761838611172684800,1.028684814453125,-0.5615701079368591,0.27764081954956055,0.006856098305433989
1761838611182754800,1.0387548828125,-0.5114238262176514,0.3412368595600128,0.006397502031177282
1761838611192823800,1.04882373046875,-0.5089555978775024,0.3144223988056183,0.014065071940422058
1761838611202894000,1.05889404296875,-0.5284299254417419,0.22370421886444092,0.03139346092939377
1761838611212963800,1.0689638671875,-0.5543380975723267,0.10266345739364624,0.06473733484745026
1761838611223033900,1.079033935546875,-0.581731915473938,-0.025071071460843086,0.11719308793544769
1761838611233102800,1.089102783203125,-0.6087062358856201,-0.13519008457660675,0.17908887565135956
1761838611243172900,1.0991728515625,-0.6189586520195007,-0.21178391575813293,0.24680480360984802
1761838611253243000,1.109242919921875,-0.6240584850311279,-0.24394166469573975,0.3159659504890442
1761838611263313000,1.11931298828125,-0.6165449023246765,-0.22177991271018982,0.3759954571723938
1761838611273382000,1.1293818359375,-0.5935328006744385,-0.12802523374557495,0.4188227355480194
1761838611283452000,1.139451904296875,-0.5617098808288574,0.016518356278538704,0.4452002942562103
1761838611293522000,1.14952197265625,-0.5174317955970764,0.16200228035449982,0.445181667804718
1761838611303592000,1.159592041015625,-0.47508811950683594,0.2677854299545288,0.4139358699321747
1761838611313661000,1.169660888671875,-0.4304421842098236,0.32527804374694824,0.3582744002342224
1761838611323731000,1.17973095703125,-0.38464808464050293,0.290817528963089,0.27601656317710876
1761838611333800700,1.18980078125,-0.3231699466705322,0.18352946639060974,0.19165240228176117
1761838611343871000,1.19987109375,-0.23863959312438965,0.07997776567935944,0.11626842617988586
1761838611353939700,1.209939697265625,-0.13841260969638824,0.014488743618130684,0.07059836387634277
1761838611364010000,1.220010009765625,-0.04614099860191345,0.006494466681033373,0.06636446714401245
1761838611374080000,1.230080078125,0.031441252678632736,0.07537681609392166,0.10781349241733551
1761838611384149800,1.240149658203125,0.08602353930473328,0.22225387394428253,0.20153678953647614
1761838611394219000,1.250218994140625,0.13359014689922333,0.41032180190086365,0.3294311761856079
1761838611404288800,1.260288818359375,0.16783946752548218,0.5959568619728088,0.46693846583366394
1761838611414358800,1.27035888671875,0.1894260048866272,0.7159364223480225,0.5829102993011475
1761838611424429000,1.280428955078125,0.21294064819812775,0.7568550705909729,0.6713600158691406
1761838611434497800,1.290497802734375,0.23270660638809204,0.6658998131752014,0.7261919379234314
1761838611444567800,1.30056787109375,0.24935802817344666,0.4271194636821747,0.7526898384094238
1761838611454637800,1.310637939453125,0.28924065828323364,0.12386729568243027,0.7867624759674072
1761838611464706800,1.320706787109375,0.339761883020401,-0.08712297677993774,0.8278870582580566
1761838611474777000,1.330777099609375,0.38181206583976746,-0.17419330775737762,0.8398368954658508
1761838611484846800,1.340846923828125,0.41220271587371826,-0.2022092342376709,0.7976294755935669
1761838611494916900,1.350916748046875,0.44234174489974976,-0.18320539593696594,0.7210875749588013
1761838611504985900,1.36098583984375,0.45571720600128174,-0.14941494166851044,0.6357771754264832
1761838611515055900,1.371055908203125,0.4375680983066559,-0.11273029446601868,0.5505712032318115
1761838611525126000,1.3811259765625,0.3773662745952606,-0.0960216224193573,0.46155768632888794
1761838611535196000,1.39119580078125,0.29152849316596985,-0.07145337015390396,0.3746238946914673
1761838611545265000,1.401264892578125,0.21557380259037018,-0.0007421849295496941,0.299856960773468
1761838611555335000,1.4113349609375,0.1514153629541397,0.11783482879400253,0.23591627180576324
1761838611565405000,1.421405029296875,0.09717501699924469,0.2361428290605545,0.1920745074748993
1761838611575475000,1.431474853515625,0.06390027701854706,0.31185275316238403,0.16202117502689362
1761838611585544000,1.4415439453125,0.05559174343943596,0.303405225276947,0.13445186614990234
1761838611595614000,1.451614013671875,0.0630163699388504,0.2431037873029709,0.09907816350460052
1761838611605683700,1.46168359375,0.08284919708967209,0.1813834309577942,0.04436405003070831
1761838611615754000,1.47175390625,0.11894366145133972,0.11309967190027237,-0.030973460525274277
1761838611625822700,1.48182275390625,0.17660030722618103,0.02393331006169319,-0.1224900558590889
1761838611635893000,1.49189306640625,0.2536945343017578,-0.06930798292160034,-0.20270691812038422
1761838611645963000,1.501962890625,0.31797605752944946,-0.17211079597473145,-0.2565179467201233
1761838611656032800,1.51203271484375,0.37646883726119995,-0.23014333844184875,-0.2793359160423279
1761838611666102000,1.52210205078125,0.4323347806930542,-0.23639458417892456,-0.25375038385391235
1761838611676171800,1.532171875,0.4762517511844635,-0.18024557828903198,-0.20037779211997986
1761838611686241800,1.54224169921875,0.4932997226715088,-0.0705433189868927,-0.12316743284463882
1761838611696312000,1.55231201171875,0.47010406851768494,0.09367481619119644,-0.03880426287651062
1761838611706380800,1.562380859375,0.4005574882030487,0.2719723880290985,0.04152759537100792
1761838611716450800,1.572450927734375,0.28558260202407837,0.43569236993789673,0.10099638998508453
1761838611726520800,1.582520751953125,0.14305713772773743,0.5686411261558533,0.1396588236093521
1761838611736590800,1.5925908203125,-0.01230299286544323,0.6698402762413025,0.1453637182712555
1761838611746659800,1.602659912109375,-0.15114235877990723,0.7175531983375549,0.13132061064243317
1761838611756729900,1.612729736328125,-0.27640724182128906,0.7192274332046509,0.1144590973854065
1761838611766800000,1.6227998046875,-0.40659427642822266,0.6887601017951965,0.0953165665268898
1761838611776870000,1.632869873046875,-0.5501666069030762,0.6593908071517944,0.10028728097677231
1761838611786939000,1.64293896484375,-0.7266393899917603,0.7005733847618103,0.12672129273414612
1761838611797008600,1.653008544921875,-0.9752750396728516,0.8902356624603271,0.16614174842834473
1761838611807079000,1.663078857421875,-1.2746518850326538,1.186431884765625,0.1623571217060089
1761838611817149000,1.67314892578125,-1.583341360092163,1.5038789510726929,0.11229249835014343
1761838611827218000,1.683218017578125,-1.87259840965271,1.7398018836975098,0.022572465240955353
1761838611837288000,1.693287841796875,-2.133910894393921,1.7408076524734497,-0.10104893147945404
1761838611847357700,1.703357666015625,-2.3239362239837646,1.5465039014816284,-0.2423490732908249
1761838611857427000,1.713427001953125,-2.377019166946411,1.2784104347229004,-0.3658500015735626
1761838611867497000,1.7234970703125,-2.2680160999298096,1.0039714574813843,-0.44112345576286316
1761838611877566700,1.733566650390625,-2.0263657569885254,0.7636405229568481,-0.46018606424331665
1761838611887637000,1.743636962890625,-1.7415261268615723,0.5453177690505981,-0.42676472663879395
1761838611897705700,1.753705810546875,-1.5426881313323975,0.2629639506340027,-0.37994903326034546
1761838611907776000,1.76377587890625,-1.4079705476760864,-0.37665385007858276,-0.32284820079803467
1761838611917846000,1.773845947265625,-1.401908040046692,-1.184930682182312,-0.24631716310977936
1761838611927915800,1.783915771484375,-1.5362581014633179,-1.8178777694702148,-0.12825950980186462
1761838611937985000,1.793985107421875,-1.7336106300354004,-2.2434241771698,0.03628355637192726
1761838611948054800,1.8040546875,-1.8844544887542725,-2.3879425525665283,0.22070321440696716
1761838611958124800,1.814124755859375,-1.87102472782135,-2.2265114784240723,0.39095255732536316
1761838611968195000,1.824195068359375,-1.6580355167388916,-1.8937408924102783,0.4889869689941406
1761838611978267600,1.834267578125,-1.2915327548980713,-1.6514509916305542,0.44407424330711365
1761838611988337700,1.844337646484375,-0.8358425498008728,-1.659841537475586,0.2449086606502533
1761838611998407700,1.85440771484375,-0.3928571045398712,-1.9516088962554932,-0.038097530603408813
1761838612008477700,1.864477783203125,-0.06123041734099388,-2.4041061401367188,-0.3411383628845215
1761838612018546700,1.874546630859375,0.10011213272809982,-2.890744686126709,-0.6085911393165588
1761838612028616700,1.88461669921875,0.11209369450807571,-3.2653157711029053,-0.8135519623756409
1761838612038686700,1.894686767578125,0.0343671478331089,-3.378922939300537,-0.9189881086349487
1761838612048756500,1.904756591796875,-0.11033517867326736,-3.195317506790161,-0.9633627533912659
1761838612058825700,1.91482568359375,-0.2894253730773926,-2.6861913204193115,-0.9678008556365967
1761838612068895500,1.9248955078125,-0.48660793900489807,-1.9227149486541748,-0.9606257677078247
1761838612078965800,1.9349658203125,-0.6795030236244202,-1.153191089630127,-0.961027979850769
1761838612089035800,1.945035888671875,-0.8051259517669678,-0.5723586082458496,-0.928521990776062
1761838612099104800,1.955104736328125,-0.8731821775436401,-0.16284151375293732,-0.8234601616859436
1761838612109174800,1.9651748046875,-0.8719558119773865,0.15032759308815002,-0.6286211609840393
1761838612119244500,1.97524462890625,-0.8181605935096741,0.4212733507156372,-0.35082772374153137
1761838612129314600,1.985314453125,-0.7140272855758667,0.5633463859558105,-0.05415346100926399
1761838612139383600,1.995383544921875,-0.5663588643074036,0.5459641218185425,0.22943444550037384
1761838612149453600,2.00545361328125,-0.4042341411113739,0.404142826795578,0.4703855514526367
1761838612159523800,2.01552392578125,-0.25790834426879883,0.20213806629180908,0.6542899012565613
1761838612169593600,2.025593505859375,-0.1649235337972641,0.023237034678459167,0.7689318060874939
1761838612179662600,2.03566259765625,-0.118805430829525,-0.1463780552148819,0.8082181215286255
1761838612189732600,2.045732666015625,-0.07522200047969818,-0.27927857637405396,0.7821273803710938
1761838612199802600,2.055802734375,-0.010436935350298882,-0.38238272070884705,0.7182149291038513
1761838612209872600,2.06587255859375,0.09569749236106873,-0.4583264887332916,0.6286687850952148
1761838612219941600,2.075941650390625,0.24464520812034607,-0.5210698843002319,0.5418382883071899
1761838612230011600,2.08601171875,0.42488929629325867,-0.4903959035873413,0.4972518980503082
1761838612240081700,2.09608154296875,0.5762978792190552,-0.3113323152065277,0.5120711922645569
1761838612250151700,2.106151611328125,0.6802248358726501,-0.05755169689655304,0.5700306296348572
1761838612260220700,2.116220703125,0.7663227319717407,0.21306176483631134,0.6567968130111694
1761838612270290700,2.126290771484375,0.8272593021392822,0.5159071087837219,0.7727007865905762
1761838612280360700,2.136360595703125,0.8885010480880737,0.7081519961357117,0.891830325126648
1761838612290430500,2.146430419921875,0.9951412081718445,0.7498757839202881,1.0507895946502686
1761838612300499700,2.156499755859375,1.0645751953125,1.0751529932022095,1.2207152843475342
1761838612310569700,2.16656982421875,1.1370142698287964,1.3208409547805786,1.36830735206604
1761838612320639500,2.176639404296875,1.2551342248916626,1.4308706521987915,1.518471121788025
1761838612330709800,2.186709716796875,1.457289218902588,1.5598304271697998,1.6437880992889404
1761838612340778500,2.196778564453125,1.665970802307129,1.7130160331726074,1.6368812322616577
1761838612350848800,2.206848876953125,1.8709443807601929,1.6214587688446045,1.469541311264038
1761838612360918800,2.216918701171875,2.076871395111084,1.5098153352737427,1.2259773015975952
1761838612370988500,2.226988525390625,2.239650011062622,1.3634567260742188,0.9245346784591675
1761838612381057800,2.237057861328125,2.35746693611145,1.1051273345947266,0.6601052284240723
1761838612391127600,2.24712744140625,2.4094886779785156,0.8465613126754761,0.49990764260292053
1761838612401197600,2.257197509765625,2.3789565563201904,0.6552157998085022,0.43681269884109497
1761838612411267800,2.267267822265625,2.2913217544555664,0.5975021719932556,0.45887404680252075
1761838612421336600,2.277336669921875,2.1329102516174316,0.6622653603553772,0.5306445360183716
1761838612431406800,2.28740673828125,1.908530831336975,0.8037753701210022,0.6114363074302673
1761838612441476600,2.2974765625,1.618878722190857,1.0344330072402954,0.6686100959777832
1761838612451546600,2.307546630859375,1.3182259798049927,1.2566988468170166,0.6601990461349487
1761838612461615600,2.31761572265625,1.0648369789123535,1.4265146255493164,0.5804794430732727
1761838612471685600,2.327685546875,0.8962159752845764,1.5718278884887695,0.44813767075538635
1761838612481755600,2.337755615234375,0.8106445670127869,1.6716322898864746,0.26324477791786194
1761838612491825700,2.34782568359375,0.7836787700653076,1.7193909883499146,0.03447392210364342
1761838612501894700,2.357894775390625,0.7771205902099609,1.7185182571411133,-0.22383739054203033
1761838612511964700,2.367964599609375,0.754478931427002,1.6866950988769531,-0.4861007034778595
1761838612522034700,2.37803466796875,0.6751087307929993,1.6501997709274292,-0.7187420129776001
1761838612532104700,2.388104736328125,0.5304633975028992,1.6283482313156128,-0.9102267622947693
1761838612542173700,2.398173583984375,0.31487971544265747,1.6168631315231323,-1.0447659492492676
1761838612552243700,2.40824365234375,0.0707126036286354,1.6070832014083862,-1.1188138723373413
1761838612562313500,2.4183134765625,-0.187547504901886,1.575053095817566,-1.144225835800171
1761838612572383700,2.4283837890625,-0.43811342120170593,1.5289885997772217,-1.129346251487732
1761838612582452700,2.43845263671875,-0.6249751448631287,1.496519923210144,-1.0531108379364014
1761838612592522500,2.4485224609375,-0.7383296489715576,1.4602136611938477,-0.9388431906700134
1761838612602592800,2.4585927734375,-0.7881158590316772,1.4085261821746826,-0.8097545504570007
1761838612612662500,2.46866259765625,-0.8173823952674866,1.2942523956298828,-0.6612675786018372
1761838612622731800,2.478731689453125,-0.8387162089347839,1.119040846824646,-0.5247645378112793
1761838612632801800,2.4888017578125,-0.8763399720191956,0.9004848003387451,-0.38782212138175964
1761838612642871600,2.49887158203125,-0.9308818578720093,0.645595133304596,-0.260071337223053
1761838612652941800,2.50894189453125,-0.9779910445213318,0.3878594636917114,-0.1690109521150589
1761838612663010600,2.519010498046875,-0.9943608641624451,0.12106014043092728,-0.11289750039577484
1761838612673080600,2.52908056640625,-0.9585618376731873,-0.17169824242591858,-0.06982166320085526
1761838612683150800,2.53915087890625,-0.8770729899406433,-0.5285983085632324,-0.04023474454879761
1761838612693220600,2.549220703125,-0.7867931723594666,-0.927474319934845,0.003763869870454073
1761838612703289900,2.559289794921875,-0.7140525579452515,-1.30245840549469,0.08360852301120758
1761838612713359600,2.569359619140625,-0.7054862380027771,-1.550755500793457,0.22131125628948212
1761838612723429600,2.5794296875,-0.8120326399803162,-1.6884002685546875,0.413600891828537
1761838612733499600,2.589499755859375,-1.074831247329712,-1.8932019472122192,0.6432564854621887
1761838612743568600,2.599568603515625,-1.4192397594451904,-2.2012388706207275,0.8487846255302429
1761838612753638700,2.609638671875,-1.7442431449890137,-2.5067145824432373,0.9477330446243286
1761838612763708700,2.619708740234375,-1.9929567575454712,-2.706718683242798,0.8956981897354126
1761838612773778700,2.62977880859375,-2.1223435401916504,-2.6956980228424072,0.7186866402626038
1761838612783847700,2.63984765625,-2.128861665725708,-2.390512704849243,0.4660516679286957
1761838612793917700,2.649917724609375,-2.013340473175049,-1.9638404846191406,0.13828393816947937
1761838612803987700,2.65998779296875,-1.7533899545669556,-1.691307544708252,-0.24687683582305908
1761838612814057500,2.670057373046875,-1.3709824085235596,-1.7171123027801514,-0.6697918772697449
1761838612824126700,2.680126708984375,-0.9820660948753357,-2.121849536895752,-1.1021788120269775
1761838612834196500,2.690196533203125,-0.6964676380157471,-2.8043596744537354,-1.4827021360397339
1761838612844266800,2.700266845703125,-0.5560553073883057,-3.4228100776672363,-1.7227303981781006
1761838612854336800,2.710336669921875,-0.5431932806968689,-3.7133631706237793,-1.7595078945159912
1761838612864405800,2.72040576171875,-0.6156294345855713,-3.6131412982940674,-1.5817153453826904
1761838612874475800,2.730475830078125,-0.7398533821105957,-3.2464370727539062,-1.2698336839675903
1761838612884545500,2.740545654296875,-0.8039554357528687,-2.618586301803589,-0.8727452158927917
1761838612894615600,2.750615478515625,-0.8397445678710938,-1.831865668296814,-0.464328408241272
1761838612904684500,2.7606845703125,-0.8586758375167847,-1.1256802082061768,-0.11329788714647293
1761838612914754600,2.770754638671875,-0.860448956489563,-0.6278762817382812,0.15134096145629883
1761838612924824800,2.780824951171875,-0.8368569016456604,-0.39239901304244995,0.3254646956920624
1761838612934894600,2.79089453125,-0.789799153804779,-0.40787169337272644,0.40641334652900696
1761838612944963600,2.800963623046875,-0.7182168960571289,-0.5734707117080688,0.4216947853565216
1761838612955033600,2.81103369140625,-0.6182388663291931,-0.7926270365715027,0.4056846797466278
1761838612965103600,2.821103515625,-0.49281343817710876,-1.0117976665496826,0.38903963565826416
1761838612975169800,2.831169677734375,-0.37626340985298157,-1.163430094718933,0.3702547550201416
1761838612985238800,2.84123876953125,-0.30230456590652466,-1.1701784133911133,0.363200843334198
1761838612995308800,2.851308837890625,-0.26954635977745056,-0.9923311471939087,0.37073013186454773
1761838613005379000,2.861379150390625,-0.25499096512794495,-0.7106483578681946,0.37990933656692505
1761838613015448800,2.87144873046875,-0.22831834852695465,-0.3665999174118042,0.41003182530403137
1761838613025517800,2.881517822265625,-0.16824749112129211,-0.010964724235236645,0.4570273458957672
1761838613035588000,2.891588134765625,-0.06271521002054214,0.33016863465309143,0.5346028804779053
1761838613045657900,2.901657958984375,0.09169220179319382,0.6374742388725281,0.6399134993553162
1761838613055727900,2.911727783203125,0.2869325280189514,0.9008041620254517,0.7646650075912476
1761838613065796900,2.921796875,0.49721333384513855,1.0869367122650146,0.8863420486450195
1761838613075867000,2.931866943359375,0.6763287782669067,1.1735363006591797,0.9558238983154297
1761838613085937000,2.94193701171875,0.8183368444442749,1.2826908826828003,0.9909643530845642
1761838613096007000,2.9520068359375,0.9584732055664062,1.4928250312805176,1.0127737522125244
1761838613106076000,2.962075927734375,1.149625301361084,1.8128325939178467,1.0208663940429688
1761838613116146000,2.97214599609375,1.4106566905975342,2.1066503524780273,1.0041999816894531
1761838613126216000,2.9822158203125,1.7073633670806885,2.19028639793396,0.9082812666893005
1761838613136286000,2.992285888671875,1.972325325012207,2.0337414741516113,0.7084075212478638
1761838613146355000,3.00235498046875,2.1699423789978027,1.7244645357131958,0.4616656005382538
1761838613156425000,3.012425048828125,2.3138070106506348,1.368280053138733,0.261513352394104
1761838613166494700,3.02249462890625,2.417635679244995,0.9719725847244263,0.16757996380329132
1761838613176565000,3.03256494140625,2.4430222511291504,0.5226248502731323,0.18317915499210358
1761838613186633700,3.0426337890625,2.3741540908813477,0.05761487036943436,0.2994398772716522
1761838613196704000,3.0527041015625,2.261035442352295,-0.33041247725486755,0.5028068423271179
1761838613206774000,3.06277392578125,2.067417621612549,-0.6528276205062866,0.727502167224884
1761838613216843800,3.07284375,1.7806329727172852,-0.9135838150978088,0.9281370043754578
1761838613226913000,3.0829130859375,1.4137173891067505,-0.9405907988548279,1.0892466306686401
1761838613236982800,3.092982666015625,1.028969168663025,-0.5743995308876038,1.22068452835083
1761838613247052800,3.103052734375,0.697072446346283,0.14101457595825195,1.3062808513641357
1761838613257123000,3.113123046875,0.4864118993282318,0.9829952716827393,1.3192864656448364
1761838613267191800,3.12319189453125,0.4107227921485901,1.774023175239563,1.2106592655181885
1761838613277262000,3.133261962890625,0.42750680446624756,2.421037197113037,0.9863265156745911
1761838613287331800,3.143331787109375,0.5039038062095642,2.9017605781555176,0.6723324060440063
1761838613297401900,3.15340185546875,0.5949365496635437,3.2215232849121094,0.31279850006103516
1761838613307470800,3.163470947265625,0.6827327013015747,3.3786253929138184,-0.02656005322933197
1761838613317540900,3.173540771484375,0.7468876838684082,3.4015250205993652,-0.313306599855423
1761838613327611000,3.18361083984375,0.7861039638519287,3.2947866916656494,-0.5286484360694885
1761838613337681000,3.193680908203125,0.8215367794036865,3.1100592613220215,-0.6520747542381287
1761838613347750000,3.20375,0.8408030271530151,2.8848514556884766,-0.6944977641105652
1761838613357820000,3.21381982421875,0.8341683149337769,2.662797212600708,-0.6545146703720093
1761838613367890000,3.223889892578125,0.7929397821426392,2.498365640640259,-0.551547110080719
1761838613377960000,3.2339599609375,0.7179710268974304,2.3752918243408203,-0.4199894070625305
1761838613388029000,3.24402880859375,0.6136589646339417,2.264070510864258,-0.28720465302467346
1761838613398099000,3.254098876953125,0.4911217987537384,2.172044277191162,-0.16753870248794556
1761838613408168700,3.264168701171875,0.35055679082870483,2.083606719970703,-0.08380702137947083
1761838613418239000,3.274239013671875,0.23158115148544312,1.99648916721344,-0.030485745519399643
1761838613428309000,3.28430908203125,0.15229640901088715,1.9340709447860718,0.004716265480965376
1761838613438378000,3.2943779296875,0.10669270902872086,1.8882720470428467,0.016773726791143417
1761838613448448000,3.304447998046875,0.10123409330844879,1.8242114782333374,0.02440459094941616
1761838613458517800,3.314517822265625,0.1367816925048828,1.7201881408691406,0.013902414590120316
1761838613468587000,3.3245869140625,0.19398188591003418,1.4738084077835083,-0.01189424842596054
1761838613478657000,3.334656982421875,0.27877241373062134,1.0692949295043945,-0.05231330916285515
1761838613488726800,3.344726806640625,0.39456668496131897,0.6294642090797424,-0.07709942758083344
1761838613498797000,3.354797119140625,0.5372593402862549,0.21147200465202332,-0.06502412259578705
1761838613508867000,3.3648671875,0.733198344707489,-0.15641051530838013,-0.008377373218536377
1761838613518935800,3.374935791015625,1.0149283409118652,-0.3782922923564911,0.05958809703588486
1761838613529006000,3.385006103515625,1.2691255807876587,-0.6184722185134888,0.03185458481311798
1761838613539075800,3.395075927734375,1.3393694162368774,-1.1577613353729248,-0.16950729489326477
1761838613549145900,3.405145751953125,1.130265712738037,-2.026360034942627,-0.49801450967788696
1761838613559214800,3.41521484375,0.6025254726409912,-2.982405424118042,-0.8957770466804504
1761838613569284900,3.425284912109375,-0.12160796672105789,-3.4264867305755615,-1.265417218208313
1761838613579355000,3.43535498046875,-0.7705305814743042,-2.981168270111084,-1.5244293212890625
1761838613589425000,3.4454248046875,-1.0958104133605957,-1.8266675472259521,-1.6320431232452393
1761838613599494000,3.455493896484375,-1.102899193763733,-0.5182379484176636,-1.6628758907318115
1761838613609564000,3.46556396484375,-0.8934500813484192,0.4011799097061157,-1.7314876317977905
1761838613619634000,3.475634033203125,-0.5965555906295776,0.8399525284767151,-1.8398714065551758
1761838613629704000,3.485703857421875,-0.32387256622314453,0.9611491560935974,-1.9242591857910156
1761838613639773000,3.49577294921875,-0.09126674383878708,0.9353825449943542,-1.9145327806472778
1761838613649843000,3.505843017578125,0.1465291529893875,0.7947380542755127,-1.7758091688156128
1761838613659912700,3.51591259765625,0.43053504824638367,0.5580970048904419,-1.5131014585494995
1761838613669983000,3.52598291015625,0.7345154285430908,0.19833379983901978,-1.1365283727645874
1761838613680051700,3.5360517578125,0.9317624568939209,-0.2205452173948288,-0.7137345671653748
1761838613690122000,3.5461220703125,0.9578925967216492,-0.5746914148330688,-0.322164386510849
1761838613700192000,3.55619189453125,0.8869262933731079,-0.7959678769111633,0.021243058145046234
1761838613710261800,3.56626171875,0.8268109560012817,-0.9390371441841125,0.30934417247772217
1761838613720331000,3.5763310546875,0.8186124563217163,-1.0665864944458008,0.49483734369277954
1761838613730400800,3.58640087890625,0.8521187901496887,-1.1680748462677002,0.5711668133735657
1761838613740470800,3.596470703125,0.9077588319778442,-1.2467920780181885,0.5752776861190796
1761838613750541000,3.606541015625,0.9915779829025269,-1.3283331394195557,0.5227449536323547
1761838613760609800,3.61660986328125,1.1150760650634766,-1.473645567893982,0.44643741846084595
1761838613770680000,3.62668017578125,1.269440770149231,-1.6802465915679932,0.37456461787223816
1761838613780749800,3.636749755859375,1.4470070600509644,-1.8963953256607056,0.35032588243484497
1761838613790819800,3.64681982421875,1.6213512420654297,-2.0505282878875732,0.3871232867240906
1761838613800889000,3.65688916015625,1.7733708620071411,-2.135293483734131,0.4819456934928894
1761838613810958800,3.666958740234375,1.908278226852417,-2.1425631046295166,0.6336149573326111
1761838613821028900,3.67702880859375,2.053762912750244,-2.1064279079437256,0.8087801337242126
1761838613831099000,3.687098876953125,2.220215082168579,-2.0067520141601562,1.0076403617858887
1761838613841168000,3.69716796875,2.4161312580108643,-1.8213704824447632,1.216076135635376
1761838613851238000,3.70723779296875,2.611673593521118,-1.5679703950881958,1.4162092208862305
1761838613861308000,3.717307861328125,2.77483868598938,-1.235893726348877,1.577238917350769
1761838613871378000,3.7273779296875,2.877659559249878,-0.7921328544616699,1.670987606048584
1761838613881447000,3.737447021484375,2.9001400470733643,-0.31615298986434937,1.6640827655792236
1761838613891517000,3.747516845703125,2.842318058013916,0.1459471732378006,1.5406460762023926
1761838613901587000,3.7575869140625,2.778114080429077,0.6866775751113892,1.3553457260131836
1761838613911657000,3.767656982421875,2.7862930297851562,1.285763144493103,1.150803804397583
1761838613921727000,3.77772705078125,2.9327406883239746,1.8790584802627563,0.9664555191993713
1761838613931795700,3.787795654296875,3.2350378036499023,2.436250925064087,0.7662521004676819
1761838613941866000,3.797865966796875,3.729053497314453,2.8578648567199707,0.5626891255378723
1761838613951936000,3.80793603515625,4.282214164733887,3.1407506465911865,0.42782413959503174
1761838613962005800,3.818005859375,4.712399482727051,2.865795612335205,0.24375362694263458
1761838613972075000,3.828074951171875,4.87470006942749,2.0172383785247803,0.0862722396850586
1761838613982144800,3.838144775390625,4.729787349700928,1.013549566268921,0.12980426847934723
1761838613992215000,3.848215087890625,4.3253703117370605,0.24780388176441193,0.47523394227027893
1761838614002284800,3.858284912109375,3.816838026046753,-0.23331613838672638,1.083819031715393
1761838614012353800,3.868353759765625,3.364461660385132,-0.4633394777774811,1.8467645645141602
1761838614022424000,3.878424072265625,3.052030324935913,-0.49368223547935486,2.599299192428589
1761838614032493800,3.888493896484375,2.8618786334991455,-0.2903175354003906,3.2362968921661377
1761838614042563800,3.898563720703125,2.7566311359405518,0.03212974965572357,3.6757383346557617
1761838614052632800,3.9086328125,2.756903886795044,0.45378753542900085,3.9518063068389893
1761838614062702800,3.918702880859375,2.812077045440674,1.0358251333236694,4.061821460723877
1761838614072772900,3.92877294921875,2.8458263874053955,1.6645491123199463,3.9406328201293945
1761838614082843000,3.9388427734375,2.938441276550293,2.175348997116089,3.608558177947998
1761838614092911900,3.948911865234375,3.0785529613494873,2.5884361267089844,3.147766351699829
1761838614102982000,3.95898193359375,3.1923251152038574,2.962437152862549,2.637817621231079
1761838614113052000,3.969052001953125,3.261589765548706,3.242492437362671,2.1222825050354004
1761838614123122000,3.979121826171875,3.2745513916015625,3.4363648891448975,1.6469534635543823
1761838614133191000,3.98919091796875,3.236358404159546,3.5986690521240234,1.244563102722168
1761838614143261000,3.999260986328125,3.209143877029419,3.750136613845825,0.9001929759979248
1761838614153330700,4.00933056640625,3.207491159439087,3.8831450939178467,0.6145799160003662
1761838614163400000,4.01939990234375,3.2000491619110107,3.963909864425659,0.38546472787857056
1761838614173469700,4.0294697265625,3.152031421661377,3.9601480960845947,0.19754768908023834
1761838614183539000,4.0395390625,3.071077823638916,3.8824691772460938,0.0482250452041626
1761838614193608700,4.049608642578125,2.9593780040740967,3.768089532852173,-0.057577989995479584
1761838614203678700,4.0596787109375,2.821928024291992,3.6418344974517822,-0.128630593419075
1761838614213749000,4.0697490234375,2.65303111076355,3.553692102432251,-0.18263019621372223
1761838614223817700,4.079817626953125,2.4783380031585693,3.51167631149292,-0.23073700070381165
1761838614233888000,4.089887939453125,2.3257484436035156,3.4655120372772217,-0.2743937373161316
1761838614243957800,4.099957763671875,2.226722478866577,3.375528573989868,-0.3094196319580078
1761838614254027800,4.11002783203125,2.1918301582336426,3.264037847518921,-0.3213129937648773
1761838614264097000,4.120096923828125,2.191770315170288,3.1532905101776123,-0.31585484743118286
1761838614274166800,4.130166748046875,2.18918514251709,3.053497076034546,-0.301137775182724
1761838614284236800,4.14023681640625,2.157970666885376,2.9314703941345215,-0.2959752380847931
1761838614294306800,4.150306884765625,2.0903565883636475,2.7705140113830566,-0.30325642228126526
1761838614304376800,4.160376953125,1.9865071773529053,2.5550429821014404,-0.31693920493125916
1761838614314446000,4.170446044921875,1.8685977458953857,2.2984886169433594,-0.3281921148300171
1761838614324515800,4.180515869140625,1.753193974494934,2.06074595451355,-0.3449905216693878
1761838614334585900,4.1905859375,1.6274107694625854,1.9094070196151733,-0.3770579695701599
1761838614344656000,4.20065576171875,1.5013401508331299,1.824110507965088,-0.44716912508010864
1761838614354724900,4.210724853515625,1.4078317880630493,1.705941915512085,-0.581717312335968
1761838614364795000,4.220794921875,1.3707122802734375,1.5360939502716064,-0.7852821946144104
1761838614374865000,4.230864990234375,1.3830987215042114,1.280779242515564,-1.0645906925201416
1761838614384935000,4.240934814453125,1.4186655282974243,0.9105798602104187,-1.3927843570709229
1761838614395004000,4.25100390625,1.429495096206665,0.4690282642841339,-1.7452040910720825
1761838614405074000,4.261073974609375,1.381005883216858,-0.007369698025286198,-2.0927646160125732
1761838614415144000,4.27114404296875,1.227158784866333,-0.5489954948425293,-2.4073987007141113
1761838614425213700,4.281213623046875,0.9393100142478943,-1.033003330230713,-2.6595253944396973
1761838614435283000,4.291282958984375,0.5774707198143005,-1.2322742938995361,-2.860224962234497
1761838614445352700,4.301352783203125,0.24864007532596588,-1.1448043584823608,-2.995060920715332
1761838614455423000,4.311423095703125,0.07333710789680481,-0.8704622387886047,-3.0470821857452393
1761838614465493000,4.321492919921875,0.1545954793691635,-0.4784640967845917,-2.968071937561035
1761838614475562000,4.33156201171875,0.4791998267173767,-0.1726839393377304,-2.769368886947632
1761838614485632000,4.341632080078125,0.9599297046661377,-0.08711337298154831,-2.44663405418396
1761838614495701800,4.35170166015625,1.47149658203125,-0.2487753927707672,-1.9644848108291626
1761838614505771800,4.361771728515625,1.8853542804718018,-0.6858605742454529,-1.3438383340835571
1761838614515840800,4.3718408203125,2.140143871307373,-1.2181828022003174,-0.5865258574485779
1761838614525910800,4.381910888671875,2.199951410293579,-1.6001315116882324,0.22556786239147186
1761838614535981000,4.39198095703125,2.0896270275115967,-1.7426073551177979,0.9812649488449097
1761838614546050800,4.40205078125,1.8550575971603394,-1.6163452863693237,1.5507891178131104
1761838614556119800,4.412119873046875,1.5840189456939697,-1.4005733728408813,1.8284379243850708
1761838614566189800,4.42218994140625,1.3615086078643799,-1.1742267608642578,1.822737216949463
1761838614576259800,4.432259765625,1.2104145288467407,-0.9691144227981567,1.596132516860962
1761838614586329900,4.442329833984375,1.1027642488479614,-0.8112789988517761,1.225537657737732
1761838614596399900,4.45239990234375,1.0234057903289795,-0.6658870577812195,0.8093964457511902
1761838614606468900,4.46246875,0.9879748225212097,-0.5580517053604126,0.44376230239868164
1761838614616539000,4.472538818359375,0.9543337225914001,-0.47761663794517517,0.13193829357624054
1761838614626609000,4.48260888671875,0.8712393641471863,-0.3940013647079468,-0.08731841295957565
1761838614636679000,4.492678955078125,0.7709808945655823,-0.3569798767566681,-0.21262572705745697
1761838614646748000,4.502747802734375,0.7089052200317383,-0.338351845741272,-0.27129143476486206
1761838614656818000,4.51281787109375,0.6732428073883057,-0.309967964887619,-0.2560797333717346
1761838614666887700,4.5228876953125,0.6476922035217285,-0.28244179487228394,-0.18198899924755096
1761838614676958000,4.5329580078125,0.6243546605110168,-0.24655374884605408,-0.06137686222791672
1761838614687027000,4.54302685546875,0.622629702091217,-0.15125413239002228,0.060549572110176086
1761838614697096700,4.5530966796875,0.6324921250343323,-0.023765314370393753,0.14872749149799347
1761838614707167000,4.5631669921875,0.6454569101333618,0.16133609414100647,0.20372895896434784
1761838614717236700,4.57323681640625,0.6701309680938721,0.39677202701568604,0.22147230803966522
1761838614727306000,4.583305908203125,0.7141069173812866,0.6165536642074585,0.20491915941238403
1761838614737376000,4.5933759765625,0.7596740126609802,0.7966324687004089,0.15814054012298584
1761838614747445800,4.60344580078125,0.786677896976471,0.9406272172927856,0.10270976275205612
1761838614757516000,4.61351611328125,0.8091151714324951,1.0457264184951782,0.0646902471780777
1761838614767584800,4.623584716796875,0.8467956781387329,1.1679439544677734,0.08116722106933594
1761838614777654800,4.63365478515625,0.8903806209564209,1.3172563314437866,0.12277407944202423
1761838614787725000,4.64372509765625,0.9760385155677795,1.456560730934143,0.1790810227394104
1761838614797794800,4.653794921875,1.1032835245132446,1.566086769104004,0.2276959866285324
1761838614807864000,4.663864013671875,1.25778067111969,1.6078853607177734,0.2631447911262512
1761838614817933800,4.673933837890625,1.459354043006897,1.6417932510375977,0.291189968585968
1761838614828003800,4.68400390625,1.6887708902359009,1.6532001495361328,0.3331563174724579
1761838614838073900,4.694073974609375,1.8794424533843994,1.7003438472747803,0.4037896990776062
1761838614848142800,4.704142822265625,1.988739013671875,1.8269420862197876,0.4754907786846161
1761838614858212900,4.714212890625,2.0508012771606445,1.873856782913208,0.5075365304946899
1761838614868283000,4.724282958984375,2.113412618637085,1.7737752199172974,0.4946329593658447
1761838614878353000,4.734352783203125,2.1707727909088135,1.5603216886520386,0.45913147926330566
1761838614888423000,4.7444228515625,2.1552743911743164,1.2907296419143677,0.4155419170856476
1761838614898492000,4.754491943359375,2.0111942291259766,1.0208624601364136,0.3595494329929352
1761838614908562000,4.76456201171875,1.7463120222091675,0.7730217576026917,0.2986397445201874
1761838614918631700,4.774631591796875,1.415232539176941,0.6687119007110596,0.2296414077281952
1761838614928702000,4.784701904296875,1.112472414970398,0.7515692114830017,0.15656933188438416
1761838614938770700,4.794770751953125,0.8901734948158264,1.072452187538147,0.05362151935696602
1761838614948841000,4.804841064453125,0.7779236435890198,1.5612999200820923,-0.0629623532295227
1761838614958911000,4.814910888671875,0.7537815570831299,2.0380115509033203,-0.2270662486553192
1761838614968980700,4.824980712890625,0.7779510617256165,2.3887500762939453,-0.42289915680885315
1761838614979050500,4.835050537109375,0.8155387043952942,2.6059834957122803,-0.6146441698074341
1761838614989120500,4.84512060546875,0.826686680316925,2.6398487091064453,-0.7729267477989197
1761838614999190300,4.855190185546875,0.8073888421058655,2.5223145484924316,-0.8715511560440063
1761838615009260500,4.865260498046875,0.7365567088127136,2.3420677185058594,-0.8869266510009766
1761838615019329300,4.875329345703125,0.6338935494422913,2.1759839057922363,-0.8232816457748413
1761838615029399300,4.8853994140625,0.5198410153388977,2.039353847503662,-0.7058929800987244
1761838615039469600,4.895469482421875,0.4090050160884857,1.9027634859085083,-0.5590645670890808
1761838615049539300,4.905539306640625,0.3327597677707672,1.7577344179153442,-0.407764732837677
1761838615059609300,4.915609375,0.2921551465988159,1.6113126277923584,-0.26404276490211487
1761838615069678300,4.92567822265625,0.2692498564720154,1.4662731885910034,-0.13395962119102478
1761838615079748400,4.935748291015625,0.24186588823795319,1.3094282150268555,-0.03520433232188225
1761838615089818400,4.945818359375,0.22192467749118805,1.1435202360153198,0.02731364220380783
1761838615099888400,4.955888427734375,0.19826041162014008,0.9821332693099976,0.08828730881214142
1761838615109957400,4.965957275390625,0.14736740291118622,0.8194077610969543,0.14307226240634918
1761838615120027400,4.97602734375,0.057871632277965546,0.6552937030792236,0.19451424479484558
1761838615130097400,4.986097412109375,-0.06370433419942856,0.5019035935401917,0.24749784171581268
1761838615140167400,4.99616748046875,-0.19693535566329956,0.39350923895835876,0.3013681173324585
1761838615150236400,5.006236328125,-0.32615646719932556,0.30875787138938904,0.35429179668426514
1761838615160306400,5.016306396484375,-0.4151417315006256,0.2253933995962143,0.39834848046302795
1761838615170376200,5.026376220703125,-0.46402859687805176,0.1038171648979187,0.41991931200027466
1761838615180446500,5.036446533203125,-0.4843004047870636,-0.07625744491815567,0.42390602827072144
1761838615190515500,5.046515380859375,-0.49492347240448,-0.313077449798584,0.4096258878707886
1761838615200585500,5.05658544921875,-0.503284752368927,-0.5743312239646912,0.36251118779182434
1761838615210655500,5.066655517578125,-0.5300066471099854,-0.8423290848731995,0.27076953649520874
1761838615220725200,5.076725341796875,-0.5838168263435364,-1.137474775314331,0.13308055698871613
1761838615230795300,5.086795166015625,-0.6850417256355286,-1.4932781457901,-0.07208030670881271
1761838615240864500,5.096864501953125,-0.85042804479599,-1.9032889604568481,-0.33255913853645325
1761838615250934300,5.106934326171875,-1.097088098526001,-2.354419231414795,-0.6128214597702026
1761838615261004500,5.117004638671875,-1.4085479974746704,-2.687349319458008,-0.8831546902656555
1761838615271074300,5.12707421875,-1.7637324333190918,-2.760469675064087,-1.0969079732894897
1761838615281143600,5.1371435546875,-2.1092329025268555,-2.545480489730835,-1.2556307315826416
1761838615291213600,5.147213623046875,-2.3597278594970703,-2.193739891052246,-1.3703246116638184
1761838615301283300,5.157283447265625,-2.4297657012939453,-1.8406797647476196,-1.4410386085510254
1761838615311353300,5.167353271484375,-2.281611204147339,-1.5382364988327026,-1.457277774810791
1761838615321422300,5.17742236328125,-1.9784067869186401,-1.3708102703094482,-1.433027982711792
1761838615331492400,5.187492431640625,-1.640188217163086,-1.3917964696884155,-1.3818970918655396
1761838615341562600,5.197562744140625,-1.3885140419006348,-1.5687566995620728,-1.292480707168579
1761838615351632400,5.20763232421875,-1.2448384761810303,-1.787907361984253,-1.1438119411468506
1761838615361701400,5.217701416015625,-1.1962807178497314,-1.9477503299713135,-0.9259408712387085
1761838615371771400,5.227771484375,-1.2374718189239502,-1.9567524194717407,-0.6533573269844055
1761838615381841400,5.23784130859375,-1.3333134651184082,-1.7963390350341797,-0.3668612837791443
1761838615391911400,5.247911376953125,-1.4322853088378906,-1.472202181816101,-0.1312018632888794
1761838615401980400,5.25798046875,-1.4901132583618164,-1.0244462490081787,0.023277277126908302
1761838615412050400,5.268050537109375,-1.4749271869659424,-0.5160266757011414,0.09936139732599258
1761838615422120400,5.278120361328125,-1.401612401008606,-0.0273703932762146,0.11553233861923218
1761838615432190500,5.2881904296875,-1.2955312728881836,0.37769854068756104,0.1107943132519722
1761838615442260500,5.298260498046875,-1.1724072694778442,0.6542506217956543,0.10986790060997009
1761838615452329500,5.30832958984375,-1.047133445739746,0.7678461670875549,0.12270567566156387
1761838615462399500,5.3183994140625,-0.9313690662384033,0.7792146801948547,0.15123404562473297
1761838615472469200,5.32846923828125,-0.8482621908187866,0.7385008335113525,0.19374607503414154
1761838615482539500,5.33853955078125,-0.7917045950889587,0.6984626054763794,0.24769027531147003
1761838615492608300,5.348608154296875,-0.7623528838157654,0.6691862344741821,0.31862303614616394
1761838615502678300,5.35867822265625,-0.7557042837142944,0.6370851993560791,0.38216379284858704
1761838615512748500,5.36874853515625,-0.746701717376709,0.5638599991798401,0.43057551980018616
1761838615522818300,5.378818359375,-0.7032644748687744,0.43704622983932495,0.4647505283355713
1761838615532887600,5.388887451171875,-0.6111422777175903,0.27409645915031433,0.4879339039325714
1761838615542957300,5.398957275390625,-0.48233193159103394,0.10857018083333969,0.5068216919898987
1761838615553027300,5.40902734375,-0.32152387499809265,-0.0232312623411417,0.5288934707641602
1761838615563097600,5.41909765625,-0.13148003816604614,-0.07564067840576172,0.5558884739875793
1761838615573166300,5.429166259765625,0.08547118306159973,-0.03983660787343979,0.5935897827148438
1761838615583236400,5.439236328125,0.3187486231327057,0.08825899660587311,0.6419559717178345
1761838615593306400,5.449306396484375,0.5690303444862366,0.3084137439727783,0.7182360887527466
1761838615603376400,5.45937646484375,0.8166264891624451,0.5346479415893555,0.8139961957931519
1761838615613446400,5.4694462890625,1.0307430028915405,0.7211587429046631,0.9022752046585083
1761838615623515400,5.479515380859375,1.2166272401809692,0.8651933073997498,0.9793055653572083
1761838615633585400,5.48958544921875,1.3634262084960938,0.9579285979270935,1.0357706546783447
1761838615643655400,5.499655517578125,1.4652128219604492,0.8970710635185242,1.045305848121643
1761838615653725400,5.509725341796875,1.513363242149353,0.5944880247116089,0.9864405989646912
1761838615663794400,5.51979443359375,1.5103960037231445,0.17937800288200378,0.8557257652282715
1761838615673864400,5.529864501953125,1.4421114921569824,-0.07596027851104736,0.6775802969932556
1761838615683934500,5.5399345703125,1.3672658205032349,-0.09492278099060059,0.4762706160545349
1761838615694004200,5.550004150390625,1.3189687728881836,0.11671996116638184,0.29714158177375793
1761838615704073500,5.560073486328125,1.2742352485656738,0.5003747344017029,0.15422289073467255
1761838615714143500,5.5701435546875,1.2211182117462158,0.9587159156799316,0.0685948058962822
1761838615724213200,5.580213134765625,1.165669322013855,1.4033887386322021,0.05115313082933426
1761838615734283500,5.590283447265625,1.092448353767395,1.75054931640625,0.07946492731571198
1761838615744352300,5.600352294921875,1.0025566816329956,1.9478094577789307,0.12996633350849152
1761838615754422500,5.610422607421875,0.8978171944618225,2.011167287826538,0.18111926317214966
1761838615764492500,5.620492431640625,0.7887118458747864,1.9822261333465576,0.21851252019405365
1761838615774562300,5.630562255859375,0.6848980784416199,1.8782601356506348,0.22744210064411163
1761838615784632300,5.64063232421875,0.589219868183136,1.7298630475997925,0.20127594470977783
1761838615794701300,5.650701416015625,0.5063404440879822,1.5574842691421509,0.1383473128080368
1761838615804771300,5.660771240234375,0.44248297810554504,1.3804714679718018,0.0358450748026371
1761838615814841600,5.670841552734375,0.3695235550403595,1.2653065919876099,-0.0920092910528183
1761838615824911400,5.680911376953125,0.280701220035553,1.225806713104248,-0.21552631258964539
1761838615834980600,5.690980712890625,0.1736738532781601,1.2353559732437134,-0.3190726935863495
1761838615845050400,5.70105029296875,0.044809941202402115,1.288426160812378,-0.3918561041355133
1761838615855120400,5.711120361328125,-0.09758608043193817,1.3757715225219727,-0.4311251938343048
1761838615865190400,5.7211904296875,-0.24718110263347626,1.4917839765548706,-0.44781073927879333
1761838615875259400,5.73125927734375,-0.36262139678001404,1.6008931398391724,-0.43447229266166687
1761838615885329400,5.741329345703125,-0.443846195936203,1.666488766670227,-0.4052499532699585
1761838615895399400,5.7513994140625,-0.4835651218891144,1.656202793121338,-0.3516583740711212
1761838615905469400,5.761469482421875,-0.48517364263534546,1.570324182510376,-0.2674587368965149
1761838615915539500,5.77153955078125,-0.46012553572654724,1.4169780015945435,-0.15677642822265625
1761838615925608400,5.7816083984375,-0.41583484411239624,1.1919221878051758,-0.027238046750426292
1761838615935678500,5.791678466796875,-0.36534425616264343,0.8843880295753479,0.11333052068948746
1761838615945748200,5.801748291015625,-0.3199833333492279,0.4759586751461029,0.2572041451931
1761838615955818500,5.811818603515625,-0.29917392134666443,-0.00563298724591732,0.4011631906032562
1761838615965887200,5.82188720703125,-0.3122926652431488,-0.487150639295578,0.5316023826599121
1761838615975956500,5.83195654296875,-0.3559000492095947,-0.9263032674789429,0.6483390927314758
1761838615986026500,5.842026611328125,-0.3910615146160126,-1.2786662578582764,0.7545294761657715
1761838615996096300,5.85209619140625,-0.3802647888660431,-1.5247876644134521,0.8713884353637695
1761838616006165500,5.86216552734375,-0.3266860246658325,-1.6771425008773804,0.9940472841262817
1761838616016235500,5.872235595703125,-0.27103766798973083,-1.806575894355774,1.103233814239502
1761838616026305500,5.882305419921875,-0.2695276737213135,-1.9893794059753418,1.1854932308197021
1761838616036375600,5.89237548828125,-0.3626227378845215,-2.257829427719116,1.226106882095337
1761838616046444500,5.902444580078125,-0.619994044303894,-2.6292481422424316,1.1830155849456787
1761838616056514600,5.9125146484375,-1.0754646062850952,-3.0921003818511963,0.9729543328285217
1761838616066584600,5.92258447265625,-1.6486709117889404,-3.4240059852600098,0.5796658396720886
1761838616076654300,5.932654296875,-2.1507515907287598,-3.3828201293945312,0.07085241377353668
1761838616086724600,5.942724609375,-2.4269347190856934,-2.860046148300171,-0.4347274899482727
1761838616096793300,5.95279345703125,-2.457007646560669,-1.9019262790679932,-0.8468971848487854
1761838616106863600,5.962863525390625,-2.2669339179992676,-0.8175987005233765,-1.1559783220291138
1761838616116933600,5.97293359375,-1.9261053800582886,-0.050963547080755234,-1.3903388977050781
1761838616127003400,5.98300341796875,-1.5562384128570557,0.13342760503292084,-1.5553640127182007
1761838616137072600,5.99307275390625,-1.205051302909851,-0.2756973206996918,-1.6149266958236694
1761838616147142400,6.003142333984375,-0.9697587490081787,-1.039734125137329,-1.537235975265503
1761838616157212400,6.01321240234375,-0.9097766280174255,-1.8191932439804077,-1.3236936330795288
1761838616167282700,6.02328271484375,-1.0160720348358154,-2.378788709640503,-1.014981746673584
1761838616177351400,6.033351318359375,-1.2085978984832764,-2.6912190914154053,-0.6557993292808533
1761838616187421400,6.04342138671875,-1.4404659271240234,-2.812962055206299,-0.2911706268787384
1761838616197491500,6.053491455078125,-1.6578032970428467,-2.7355282306671143,0.049800533801317215
1761838616207561500,6.0635615234375,-1.8310545682907104,-2.4315648078918457,0.3431858718395233
1761838616217631500,6.073631591796875,-1.9272617101669312,-1.9744675159454346,0.5819718837738037
1761838616227700500,6.083700439453125,-1.9164531230926514,-1.458113193511963,0.75052410364151
1761838616237770500,6.0937705078125,-1.8080717325210571,-0.9787284731864929,0.8498757481575012
1761838616247840500,6.103840576171875,-1.642628788948059,-0.5787867903709412,0.8900890350341797
1761838616257910500,6.11391064453125,-1.4693301916122437,-0.30176636576652527,0.8856492638587952
1761838616267979300,6.123979248046875,-1.3160451650619507,-0.20087338984012604,0.8421725630760193
1761838616278049500,6.134049560546875,-1.188934087753296,-0.26436659693717957,0.7728257179260254
1761838616288119600,6.14411962890625,-1.0823776721954346,-0.4378392994403839,0.7035332322120667
1761838616298189300,6.154189208984375,-0.9964510202407837,-0.6763520240783691,0.6378711462020874
1761838616308258600,6.164258544921875,-0.9263206124305725,-0.8800323605537415,0.6084701418876648
1761838616318328300,6.174328369140625,-0.853441059589386,-0.9451602101325989,0.6362035274505615
1761838616328398600,6.184398681640625,-0.7841734886169434,-0.8970659971237183,0.7132625579833984
1761838616338468600,6.194468505859375,-0.7298029065132141,-0.8136456608772278,0.8083347678184509
1761838616348538400,6.204538330078125,-0.6895679235458374,-0.7018097639083862,0.905586302280426
1761838616358607600,6.214607666015625,-0.6371140480041504,-0.527222752571106,1.0069701671600342
1761838616368677400,6.224677490234375,-0.5661877989768982,-0.3151872456073761,1.1050589084625244
1761838616378747400,6.234747314453125,-0.47409120202064514,-0.08765473961830139,1.1979944705963135
1761838616388817700,6.244817626953125,-0.33501240611076355,0.1520099937915802,1.2706410884857178
1761838616398886400,6.254886474609375,-0.15137122571468353,0.4272279739379883,1.334790825843811
1761838616408956400,6.264956298828125,0.05683243274688721,0.7931015491485596,1.38711416721344
1761838616419026400,6.2750263671875,0.3126615583896637,1.1974372863769531,1.4226635694503784
1761838616429096400,6.285096435546875,0.6278414130210876,1.5234780311584473,1.4096240997314453
1761838616439165700,6.295165771484375,0.964332103729248,1.6906664371490479,1.3420493602752686
1761838616449235500,6.3052353515625,1.292040467262268,1.6808637380599976,1.2534483671188354
1761838616459305500,6.315305419921875,1.559476375579834,1.5581450462341309,1.1590068340301514
1761838616469375500,6.32537548828125,1.7628751993179321,1.3572050333023071,1.0771421194076538
1761838616479445500,6.335445556640625,1.8972722291946411,1.0336467027664185,0.9669638872146606
1761838616489514500,6.345514404296875,1.9466502666473389,0.5367542505264282,0.7907154560089111
1761838616499584500,6.35558447265625,1.884385585784912,0.004487662110477686,0.5747730731964111
1761838616509654500,6.365654541015625,1.7137116193771362,-0.37662795186042786,0.36976340413093567
1761838616519724500,6.375724609375,1.4862816333770752,-0.5781431794166565,0.2044077068567276
1761838616529793500,6.38579345703125,1.2134132385253906,-0.5355997681617737,0.09405191987752914
1761838616539863600,6.395863525390625,0.9039933681488037,-0.20985066890716553,0.04864848777651787
1761838616549933300,6.405933349609375,0.5816724896430969,0.3353267312049866,0.05786384642124176
1761838616560003600,6.416003662109375,0.2804117202758789,0.927061915397644,0.056570082902908325
1761838616570072300,6.426072265625,0.030938398092985153,1.445849895477295,-0.03168174624443054
1761838616580142600,6.436142578125,-0.1200236901640892,1.8644238710403442,-0.21943913400173187
1761838616590212600,6.446212646484375,-0.15861691534519196,2.175377368927002,-0.5070983171463013
1761838616600282400,6.456282470703125,-0.11636986583471298,2.3580639362335205,-0.8604156374931335
1761838616610352600,6.4663525390625,-0.036711353808641434,2.4097979068756104,-1.2291206121444702
1761838616620421400,6.47642138671875,0.03892960771918297,2.355184316635132,-1.57252037525177
1761838616630491400,6.486491455078125,0.09721016883850098,2.2203283309936523,-1.8403204679489136
1761838616640561700,6.496561767578125,0.13976962864398956,2.0542585849761963,-2.017418384552002
1761838616650631400,6.50663134765625,0.14315463602542877,1.8952776193618774,-2.0914547443389893
1761838616660700700,6.51670068359375,0.09922979027032852,1.777186632156372,-2.0657806396484375
1761838616670770400,6.5267705078125,-0.0005395107436925173,1.6799911260604858,-1.973371982574463
1761838616680840400,6.53684033203125,-0.1516597867012024,1.576276183128357,-1.8289331197738647
1761838616690910500,6.546910400390625,-0.33538132905960083,1.4750725030899048,-1.6475672721862793
1761838616700979500,6.5569794921875,-0.5089512467384338,1.3738868236541748,-1.4316198825836182
1761838616711049500,6.567049560546875,-0.652438759803772,1.2483766078948975,-1.1964232921600342
1761838616721119500,6.577119384765625,-0.7588096857070923,1.071852207183838,-0.9462624192237854
1761838616731189500,6.587189453125,-0.819389820098877,0.8377615213394165,-0.6836912631988525
1761838616741259500,6.597259521484375,-0.860325813293457,0.5929024815559387,-0.4119609296321869
1761838616751328500,6.60732861328125,-0.8832830786705017,0.3783653974533081,-0.13373585045337677
1761838616761398500,6.6173984375,-0.9166415929794312,0.19409461319446564,0.13815505802631378
1761838616771468300,6.62746826171875,-0.9580333828926086,0.0460754819214344,0.389551043510437
1761838616781538600,6.63753857421875,-0.9682037234306335,-0.05762561038136482,0.6525728106498718
1761838616791607300,6.647607177734375,-0.9214243292808533,-0.2132779061794281,0.9104859828948975
1761838616801677600,6.657677490234375,-0.8679637908935547,-0.558893084526062,1.1221466064453125
1761838616811747600,6.66774755859375,-0.8654213547706604,-1.1334748268127441,1.2427407503128052
1761838616821817300,6.6778173828125,-0.907356858253479,-1.7528676986694336,1.3279597759246826
1761838616831886600,6.687886474609375,-1.0406996011734009,-2.2513437271118164,1.4113160371780396
1761838616841956400,6.697956298828125,-1.349561333656311,-2.6087474822998047,1.4098968505859375
1761838616852026400,6.7080263671875,-1.8367918729782104,-2.949573278427124,1.2729514837265015
1761838616862096600,6.7180966796875,-2.433448314666748,-3.417851686477661,0.9478490352630615
1761838616872166400,6.72816650390625,-3.0047478675842285,-3.8879342079162598,0.42800846695899963
1761838616882235600,6.738235595703125,-3.3668346405029297,-3.99790358543396,-0.18100160360336304
1761838616892305400,6.748305419921875,-3.3561980724334717,-3.7442543506622314,-0.7516825795173645
1761838616902375400,6.75837548828125,-2.9201221466064453,-3.237452983856201,-1.1746807098388672
1761838616912445400,6.768445556640625,-2.1776037216186523,-2.70544695854187,-1.4106218814849854
1761838616922514400,6.778514404296875,-1.3944514989852905,-2.327604293823242,-1.4265153408050537
1761838616932584400,6.78858447265625,-0.8733682036399841,-2.270989418029785,-1.2634525299072266
1761838616942654700,6.79865478515625,-0.6814712285995483,-2.562176465988159,-0.9580414295196533
1761838616952724500,6.808724365234375,-0.7363167405128479,-2.987840175628662,-0.5472947359085083
1761838616962794500,6.81879443359375,-0.930881679058075,-3.284367322921753,-0.04756879433989525
1761838616972863500,6.828863525390625,-1.1774224042892456,-3.3524012565612793,0.4576346278190613
1761838616982934000,6.83893408203125,-1.4253288507461548,-3.2435388565063477,0.8819534182548523
1761838616993004000,6.849004150390625,-1.661334753036499,-2.929367780685425,1.1757574081420898
1761838617003074000,6.859073974609375,-1.8680775165557861,-2.3711016178131104,1.3304013013839722
1761838617013143000,6.86914306640625,-2.0037145614624023,-1.6647859811782837,1.3470618724822998
1761838617023213000,6.879213134765625,-2.0434844493865967,-0.9558773040771484,1.2397956848144531
1761838617033283300,6.889283447265625,-1.9655144214630127,-0.3344651758670807,1.0484436750411987
1761838617043353000,6.89935302734375,-1.83726167678833,0.17377060651779175,0.8089093565940857
1761838617053423000,6.909423095703125,-1.7295866012573242,0.49440327286720276,0.5420017242431641
1761838617063492000,6.9194921875,-1.6241427659988403,0.7041242718696594,0.30066978931427
1761838617073562000,6.92956201171875,-1.529246211051941,0.8165366649627686,0.11452900618314743
1761838617083632000,6.939632080078125,-1.4586154222488403,0.772036075592041,-0.03692043572664261
1761838617093702100,6.9497021484375,-1.407979130744934,0.5348750948905945,-0.15749762952327728
1761838617103771100,6.959771240234375,-1.3648580312728882,0.1776629090309143,-0.22855104506015778
1761838617113841200,6.969841064453125,-1.3222397565841675,-0.17288607358932495,-0.23941710591316223
1761838617123911200,6.9799111328125,-1.2673773765563965,-0.43359488248825073,-0.166604682803154
1761838617133981200,6.989981201171875,-1.2255584001541138,-0.6061559319496155,-0.02192847803235054
1761838617144050200,7.00005029296875,-1.2455371618270874,-0.6542356014251709,0.18059639632701874
1761838617154120200,7.0101201171875,-1.3261494636535645,-0.579827606678009,0.4126225709915161
1761838617164190000,7.02018994140625,-1.4369308948516846,-0.4080981910228729,0.6458994746208191
1761838617174260200,7.03026025390625,-1.543251395225525,-0.11722194403409958,0.8561590909957886
1761838617184330200,7.040330322265625,-1.6354825496673584,0.254555881023407,1.0044801235198975
1761838617194399200,7.050399169921875,-1.6814210414886475,0.6018118858337402,1.0760228633880615
1761838617204469200,7.06046923828125,-1.6559910774230957,0.8724575042724609,1.0887876749038696
1761838617214539000,7.0705390625,-1.5784279108047485,1.0944854021072388,1.0548303127288818
1761838617224609000,7.080609130859375,-1.4777995347976685,1.241593599319458,0.9696658849716187
1761838617234678000,7.090677978515625,-1.345932126045227,1.3106706142425537,0.8513377904891968
1761838617244748000,7.100748046875,-1.1601289510726929,1.2366273403167725,0.7028055787086487
1761838617254818300,7.110818359375,-0.9352744221687317,0.9779020547866821,0.5335758328437805
1761838617264888000,7.12088818359375,-0.7084705829620361,0.6248118877410889,0.3575422167778015
1761838617274957000,7.13095703125,-0.5414719581604004,0.2502833306789398,0.1902129352092743
1761838617285027000,7.141027099609375,-0.451270192861557,-0.13072209060192108,0.031470414251089096
1761838617295097000,7.15109716796875,-0.45484742522239685,-0.5505595207214355,-0.08938998728990555
1761838617305167000,7.1611669921875,-0.6341977715492249,-0.975903332233429,-0.1643444001674652
1761838617315237000,7.171237060546875,-1.0048820972442627,-1.3539340496063232,-0.1951788067817688
1761838617325306000,7.18130615234375,-1.4647562503814697,-1.4992454051971436,-0.2321663796901703
1761838617335376100,7.191376220703125,-1.8508548736572266,-1.2880668640136719,-0.3182486891746521
1761838617345446100,7.201446044921875,-2.0345234870910645,-0.7887241244316101,-0.4528443217277527
1761838617355516200,7.21151611328125,-2.093075752258301,-0.2530500292778015,-0.5550271272659302
1761838617365585200,7.221585205078125,-1.8640152215957642,0.06556284427642822,-0.7828741669654846
1761838617375655200,7.2316552734375,-1.4377834796905518,0.2607337236404419,-1.026845932006836
1761838617385725000,7.241724853515625,-0.9696071147918701,0.35499444603919983,-1.2240653038024902
1761838617395795200,7.251795166015625,-0.6620609164237976,0.41699743270874023,-1.3145192861557007
1761838617405865200,7.261865234375,-0.5890921354293823,0.4242721199989319,-1.2914973497390747
1761838617415934200,7.271934326171875,-0.696640133857727,0.4192260205745697,-1.1566812992095947
1761838617426004200,7.282004150390625,-0.928567111492157,0.47782301902770996,-0.949690580368042
1761838617436074000,7.292073974609375,-1.2344645261764526,0.6109319925308228,-0.7115746736526489
1761838617446144000,7.30214404296875,-1.5613036155700684,0.7701700925827026,-0.481183260679245
1761838617456213000,7.312212890625,-1.8572417497634888,0.8809022903442383,-0.27406105399131775
1761838617466283000,7.322282958984375,-2.120466947555542,0.9187940359115601,-0.11652601510286331
1761838617476353300,7.332353271484375,-2.348346710205078,0.8959683775901794,0.0013182051479816437
1761838617486423000,7.342423095703125,-2.5707192420959473,0.8479230999946594,0.09558744728565216
1761838617496493000,7.3524931640625,-2.797809362411499,0.7497810125350952,0.17792530357837677
1761838617506562300,7.362562255859375,-3.0337209701538086,0.5929109454154968,0.26680564880371094
1761838617516632000,7.372632080078125,-3.263784170150757,0.40422600507736206,0.371891587972641
1761838617526702000,7.3827021484375,-3.4912807941436768,0.22751088440418243,0.4847787320613861
1761838617536772000,7.392772216796875,-3.6988039016723633,0.05849028006196022,0.5710793137550354
1761838617546841000,7.402841064453125,-3.7998263835906982,-0.1204507127404213,0.6363352537155151
1761838617556911000,7.4129111328125,-3.7743546962738037,-0.33733972907066345,0.6697647571563721
1761838617566981000,7.422981201171875,-3.6362967491149902,-0.6151348352432251,0.7123974561691284
1761838617577051100,7.433051025390625,-3.3878846168518066,-1.0419981479644775,0.7711433172225952
1761838617587120000,7.4431201171875,-3.14985728263855,-1.6324827671051025,0.8075479865074158
1761838617597190100,7.453190185546875,-3.0581884384155273,-2.215724229812622,0.7771110534667969
1761838617607260200,7.46326025390625,-3.1160378456115723,-2.829735040664673,0.6420674920082092
1761838617617330200,7.473330078125,-3.3240654468536377,-3.6624040603637695,0.32621145248413086
1761838617627400200,7.483400146484375,-3.6525168418884277,-4.565087795257568,-0.22891570627689362
1761838617637469000,7.493468994140625,-3.873149871826172,-5.053802967071533,-0.843382716178894
1761838617647539200,7.503539306640625,-3.7582125663757324,-4.829368591308594,-1.2623674869537354
1761838617657609200,7.513609130859375,-3.3864879608154297,-4.145223140716553,-1.4381568431854248
1761838617667679000,7.523678955078125,-2.9741909503936768,-3.3090033531188965,-1.3241130113601685
1761838617677748200,7.533748291015625,-2.766052007675171,-2.7800393104553223,-1.041291356086731
1761838617687818000,7.54381787109375,-2.8585023880004883,-2.6984148025512695,-0.7910136580467224
1761838617697888300,7.55388818359375,-3.198080539703369,-2.9400405883789062,-0.6871737241744995
1761838617707958300,7.563958251953125,-3.619072914123535,-3.104308843612671,-0.6818103790283203
1761838617718028000,7.574028076171875,-3.8880677223205566,-3.0683066844940186,-0.6957680583000183
1761838617728097300,7.58409716796875,-3.862947940826416,-2.8266310691833496,-0.6484423875808716
1761838617738167000,7.5941669921875,-3.5978150367736816,-2.4379091262817383,-0.5111175179481506
1761838617748237000,7.604237060546875,-3.206393003463745,-1.9854533672332764,-0.2953058183193207
1761838617758307300,7.614307373046875,-2.81406307220459,-1.5469467639923096,-0.05059713497757912
1761838617768376000,7.6243759765625,-2.5105347633361816,-1.1719294786453247,0.17447033524513245
1761838617778446000,7.634446044921875,-2.3155288696289062,-0.8812231421470642,0.3674289882183075
1761838617788516000,7.64451611328125,-2.199596881866455,-0.6714733839035034,0.5247483253479004
1761838617798586000,7.654586181640625,-2.116302013397217,-0.5584856271743774,0.6357905268669128
1761838617808656100,7.66465625,-2.0690176486968994,-0.5895348787307739,0.7027500867843628
1761838617818725000,7.67472509765625,-2.042448043823242,-0.7984957695007324,0.7063537836074829
1761838617828795100,7.684795166015625,-2.026308298110962,-1.1405683755874634,0.6470928192138672
1761838617838865200,7.694865234375,-2.0060675144195557,-1.4931174516677856,0.5512251257896423
1761838617848935200,7.70493505859375,-1.9741878509521484,-1.7344027757644653,0.4290211796760559
1761838617859004000,7.71500390625,-1.9565666913986206,-1.7993824481964111,0.303451806306839
1761838617869074200,7.72507421875,-1.9662084579467773,-1.693507194519043,0.18307480216026306
1761838617879144200,7.735144287109375,-1.9842802286148071,-1.432694435119629,0.06497561931610107
1761838617889214000,7.7452138671875,-2.009331226348877,-1.032742977142334,-0.028175365179777145
1761838617899283200,7.755283203125,-2.0472259521484375,-0.535083532333374,-0.09573294967412949
1761838617909353000,7.76535302734375,-2.0937328338623047,0.015729544684290886,-0.13329444825649261
1761838617919423000,7.775423095703125,-2.135392665863037,0.5336174368858337,-0.1576193869113922
1761838617929493200,7.7854931640625,-2.158754825592041,0.9598428010940552,-0.16954556107521057
1761838617939563000,7.79556298828125,-2.151681661605835,1.262632131576538,-0.17992956936359406
1761838617949632300,7.80563232421875,-2.1350083351135254,1.4850572347640991,-0.17589648067951202
1761838617959702000,7.815701904296875,-2.1066787242889404,1.6653872728347778,-0.15489383041858673
1761838617969772000,7.82577197265625,-2.0493357181549072,1.751702904701233,-0.11597146093845367
1761838617979842300,7.83584228515625,-1.9551949501037598,1.6338002681732178,-0.07624445855617523
1761838617989911300,7.845911376953125,-1.8542598485946655,1.2227221727371216,-0.09788583964109421
1761838617999981000,7.85598095703125,-1.7944154739379883,0.6686345934867859,-0.24564708769321442
1761838618010051300,7.86605126953125,-1.7508347034454346,0.20899221301078796,-0.4356817305088043
1761838618020121300,7.876121337890625,-1.7159743309020996,-0.13959310948848724,-0.5774343013763428
1761838618030191000,7.886191162109375,-1.7218148708343506,-0.3899310231208801,-0.6382893919944763
1761838618040260400,7.89626025390625,-1.7709851264953613,-0.504669189453125,-0.6063404083251953
1761838618050330400,7.906330322265625,-1.787015438079834,-0.47863006591796875,-0.4647137522697449
1761838618060400000,7.916400146484375,-1.7329293489456177,-0.3543771803379059,-0.21493853628635406
1761838618070470400,7.926470458984375,-1.6554909944534302,-0.19040101766586304,0.09460493177175522
1761838618080539100,7.9365390625,-1.6240251064300537,0.0025820001028478146,0.37452232837677
1761838618090609400,7.946609375,-1.6256393194198608,0.11387230455875397,0.5449888706207275
1761838618100679400,7.956679443359375,-1.5980842113494873,0.1637720763683319,0.6170388460159302
1761838618110749200,7.966749267578125,-1.5009175539016724,0.2966422438621521,0.6505568623542786
1761838618120819500,7.9768193359375,-1.3482295274734497,0.5235588550567627,0.673927903175354
1761838618130888200,7.98688818359375,-1.1976600885391235,0.7803456783294678,0.6939117312431335
1761838618140958200,7.996958251953125,-1.1024760007858276,0.9883111119270325,0.6973094344139099
1761838618151028500,8.007028564453124,-1.0588324069976807,1.0816330909729004,0.67592853307724
1761838618161098200,8.01709814453125,-1.0492818355560303,1.0450352430343628,0.6161404252052307
1761838618171167500,8.02716748046875,-1.0327515602111816,0.9217113852500916,0.5277829170227051
1761838618181237200,8.0372373046875,-0.9968754053115845,0.8059111833572388,0.3994840383529663
1761838618191307300,8.047307373046875,-0.9126108884811401,0.7320899367332458,0.2557026445865631
1761838618201377300,8.057377197265625,-0.7652281522750854,0.7016420364379883,0.09250236302614212
1761838618211446300,8.0674462890625,-0.5835438370704651,0.7083034515380859,-0.07884728163480759
1761838618221516300,8.077516357421874,-0.3941425085067749,0.7195987701416016,-0.24278876185417175
1761838618231586300,8.08758642578125,-0.23922055959701538,0.711799681186676,-0.3851136863231659
1761838618241656300,8.09765625,-0.15534484386444092,0.6546480059623718,-0.5115171670913696
1761838618251726300,8.107726318359376,-0.1324123591184616,0.5336909294128418,-0.5971095561981201
1761838618261795300,8.11779541015625,-0.15477648377418518,0.32812240719795227,-0.6554338335990906
1761838618271865300,8.127865234375,-0.19687333703041077,0.0065086884424090385,-0.6858556866645813
1761838618281935000,8.13793505859375,-0.21916109323501587,-0.318331778049469,-0.6718934178352356
1761838618292005400,8.14800537109375,-0.21812379360198975,-0.5567190647125244,-0.6040336489677429
1761838618302075400,8.158075439453125,-0.2017822116613388,-0.7240994572639465,-0.48591694235801697
1761838618312144400,8.168144287109374,-0.17127463221549988,-0.8749774098396301,-0.38652297854423523
1761838618322214400,8.17821435546875,-0.1372544914484024,-1.0027602910995483,-0.30680933594703674
1761838618332284200,8.1882841796875,-0.11179147660732269,-1.0318796634674072,-0.23883932828903198
1761838618342354200,8.198354248046876,-0.10157335549592972,-0.8893865346908569,-0.1389247179031372
1761838618352423200,8.208423095703125,-0.1128731518983841,-0.6319717764854431,0.008087631314992905
1761838618362493200,8.2184931640625,-0.13477380573749542,-0.3124433159828186,0.19767539203166962
1761838618372563500,8.2285634765625,-0.16493117809295654,-0.03663649410009384,0.39641696214675903
1761838618382633200,8.23863330078125,-0.21986261010169983,-0.09305877983570099,0.5133837461471558
1761838618392703200,8.248703125,-0.34895187616348267,-0.5957653522491455,0.5143014788627625
1761838618402772200,8.258772216796874,-0.6317141056060791,-1.3509304523468018,0.4176972806453705
1761838618412842200,8.26884228515625,-1.0925333499908447,-2.181121349334717,0.2069813311100006
1761838618422912300,8.278912353515626,-1.6817973852157593,-3.1155190467834473,-0.14429810643196106
1761838618432982300,8.288982177734376,-2.1897201538085938,-3.7701683044433594,-0.5477632880210876
1761838618443051300,8.29905126953125,-2.47487211227417,-3.6225900650024414,-0.8046170473098755
1761838618453121300,8.309121337890625,-2.478529453277588,-2.762376308441162,-0.849268913269043
1761838618463191300,8.31919140625,-2.285834789276123,-1.5980165004730225,-0.7472957372665405
1761838618473261300,8.32926123046875,-2.0381546020507812,-0.4044782817363739,-0.5733324289321899
1761838618483330300,8.339330322265624,-1.8280329704284668,0.46798375248908997,-0.41463226079940796
1761838618493400300,8.349400390625,-1.704905390739441,0.8969138264656067,-0.3379611670970917
1761838618503470000,8.359469970703126,-1.6179383993148804,1.042446494102478,-0.3139355182647705
1761838618513540400,8.369540283203126,-1.5192354917526245,1.0400079488754272,-0.305755078792572
1761838618523610400,8.3796103515625,-1.4212393760681152,0.9856508374214172,-0.2886821925640106
1761838618533679400,8.389679443359375,-1.3433583974838257,0.9026086926460266,-0.2851257920265198
1761838618543749400,8.399749267578125,-1.30133056640625,0.8793933987617493,-0.2741502523422241
1761838618553819100,8.409819091796875,-1.3174868822097778,0.9195456504821777,-0.22887012362480164
1761838618563889200,8.41988916015625,-1.2710175514221191,0.8584483861923218,-0.14987502992153168
1761838618573959400,8.42995947265625,-1.1236348152160645,0.6059253215789795,-0.07491849362850189
1761838618584028200,8.440028076171876,-0.9368239045143127,0.36833709478378296,-0.02438768371939659
1761838618594098400,8.450098388671876,-0.7940630316734314,0.23888377845287323,0.004459144081920385
1761838618604168200,8.460168212890625,-0.6758230328559875,0.16345998644828796,0.014502793550491333
1761838618614238200,8.47023828125,-0.5400854349136353,0.0821605995297432,-0.0011864216066896915
1761838618624307500,8.480307373046875,-0.38629287481307983,-0.00503462553024292,-0.03572244569659233
1761838618634377200,8.490377197265625,-0.23625221848487854,-0.07300728559494019,-0.08884399384260178
1761838618644447200,8.500447265625,-0.11564112454652786,-0.07894320785999298,-0.14899414777755737
1761838618654517200,8.510517333984374,-0.015166446566581726,0.015112720429897308,-0.1931608021259308
1761838618664586200,8.520586181640626,0.09920699894428253,0.2369750738143921,-0.2015012949705124
1761838618674656500,8.530656494140626,0.21836347877979279,0.5201897025108337,-0.17738103866577148
1761838618684726300,8.540726318359376,0.3378162384033203,0.8537852168083191,-0.11971224844455719
1761838618694796300,8.55079638671875,0.4473704397678375,1.1467620134353638,-0.020488722249865532
1761838618704866000,8.560865966796875,0.5461686849594116,1.3691409826278687,0.09758417308330536
1761838618714935300,8.570935302734375,0.6355339288711548,1.5064375400543213,0.2346663922071457
1761838618725005300,8.58100537109375,0.718835175037384,1.5902096033096313,0.38548582792282104
1761838618735075300,8.591075439453125,0.8257549405097961,1.6958292722702026,0.5561808347702026
1761838618745145300,8.601145263671874,0.9654831290245056,1.7957175970077515,0.7279741168022156
1761838618755214300,8.61121435546875,1.1226450204849243,1.812699556350708,0.8665410280227661
1761838618765284400,8.621284423828126,1.265309453010559,1.5213829278945923,0.9236487150192261
1761838618775354400,8.631354248046875,1.3576979637145996,0.8557540774345398,0.8984131813049316
1761838618785424100,8.641424072265625,1.4086151123046875,0.08284781873226166,0.8410836458206177
1761838618795494400,8.651494384765625,1.446905493736267,-0.48893898725509644,0.824095606803894
1761838618805563100,8.661563232421875,1.4605939388275146,-0.8958098292350769,0.833233118057251
1761838618815633400,8.67163330078125,1.3813807964324951,-1.1389912366867065,0.8287094831466675
1761838618825703400,8.681703369140624,1.2029870748519897,-1.188967227935791,0.7894890904426575
1761838618835773200,8.691773193359374,0.9758031964302063,-1.024512767791748,0.7105790972709656
1761838618845842400,8.701842529296876,0.765891432762146,-0.7244178056716919,0.5925988554954529
1761838618855912200,8.711912109375,0.624007523059845,-0.4193095564842224,0.44448524713516235
1761838618865982200,8.721982177734375,0.549541175365448,-0.2284328192472458,0.2632405459880829
1761838618876052500,8.732052490234375,0.5557953119277954,-0.04488829895853996,0.10364849120378494
1761838618886122200,8.742122314453125,0.586435079574585,0.10649257898330688,-0.07554026693105698
1761838618896191200,8.752191162109375,0.6052423119544983,0.26536720991134644,-0.2698807120323181
1761838618906261200,8.76226123046875,0.6004448533058167,0.33348196744918823,-0.4824689030647278
1761838618916331300,8.772331298828124,0.5603107810020447,0.35834044218063354,-0.6985921263694763
1761838618926401300,8.7824013671875,0.49770307540893555,0.3370576798915863,-0.9021862149238586
1761838618936470300,8.79247021484375,0.4211832582950592,0.27087652683258057,-1.097091555595398
1761838618946540300,8.802540283203125,0.35392531752586365,0.2023920863866806,-1.2592835426330566
1761838618956610300,8.8126103515625,0.3070898950099945,0.15249137580394745,-1.3884172439575195
1761838618966680300,8.822680419921875,0.27963677048683167,0.14875401556491852,-1.4659092426300049
1761838618976750300,8.832750244140625,0.2690187394618988,0.17823973298072815,-1.4913514852523804
1761838618986819000,8.842819091796875,0.2652760446071625,0.25939416885375977,-1.4684875011444092
1761838618996888800,8.852888916015624,0.2565602958202362,0.3785272240638733,-1.4194974899291992
1761838619006958800,8.862958740234374,0.23923520743846893,0.5435110330581665,-1.339832067489624
1761838619017029000,8.873029052734376,0.21276365220546722,0.7103157043457031,-1.2289665937423706
1761838619027097900,8.883097900390625,0.14623762667179108,0.8353620171546936,-1.1188790798187256
1761838619037168000,8.893168212890625,0.04066459462046623,0.9319740533828735,-1.0158573389053345
1761838619047238000,8.90323779296875,-0.08385283499956131,0.9496558904647827,-0.9244856238365173
1761838619057308000,8.913307861328125,-0.22439636290073395,0.8692068457603455,-0.8484851121902466
1761838619067378000,8.9233779296875,-0.3372397720813751,0.7612274289131165,-0.7599460482597351
1761838619077447000,8.933447021484374,-0.3993540108203888,0.7105802297592163,-0.6469747424125671
1761838619087517000,8.943516845703124,-0.389095664024353,0.6484614610671997,-0.5272989273071289
1761838619097587200,8.953587158203124,-0.31077635288238525,0.5481857657432556,-0.39018580317497253
1761838619107657000,8.963656982421876,-0.17972099781036377,0.48333242535591125,-0.23229366540908813
1761838619117726200,8.973726318359375,-0.03906615078449249,0.4866861402988434,-0.06389773637056351
1761838619127796000,8.9837958984375,0.0901246964931488,0.5529823303222656,0.1349075734615326
1761838619137866000,8.993865966796875,0.18268738687038422,0.7265333533287048,0.37294384837150574
1761838619147936000,9.00393603515625,0.23477327823638916,0.9798405170440674,0.6408661603927612
1761838619158006000,9.014006103515625,0.23856109380722046,1.2223972082138062,0.9090379476547241
1761838619168075000,9.024074951171874,0.19120383262634277,1.2258012294769287,1.1077392101287842
1761838619178145000,9.03414501953125,0.060369912534952164,0.8646971583366394,1.1967114210128784
1761838619188215000,9.044215087890626,-0.1706218272447586,0.3542654514312744,1.2073957920074463
1761838619198285000,9.05428515625,-0.4407214820384979,-0.1306205540895462,1.173336148262024
1761838619208354000,9.06435400390625,-0.7056401371955872,-0.6312429308891296,1.0640021562576294
1761838619218424000,9.074424072265625,-0.9466151595115662,-1.1191494464874268,0.8665785789489746
1761838619228493800,9.084493896484375,-1.0915275812149048,-1.5037733316421509,0.6179358959197998
1761838619238564000,9.094564208984375,-1.0408130884170532,-1.7495639324188232,0.3940622806549072
1761838619248634000,9.104634033203125,-0.7859219312667847,-1.7395007610321045,0.27693814039230347
1761838619258703000,9.114703125,-0.5422728061676025,-1.4474539756774902,0.18036073446273804
1761838619268773000,9.124773193359376,-0.3945997953414917,-1.1826753616333008,-0.027631014585494995
1761838619278843000,9.1348427734375,-0.30082324147224426,-1.1532095670700073,-0.30616676807403564
1761838619288913000,9.144912841796875,-0.22666597366333008,-1.2484402656555176,-0.5707376599311829
1761838619298982000,9.15498193359375,-0.13274641335010529,-1.4590141773223877,-0.7861759066581726
1761838619309052000,9.165052001953125,-0.026594504714012146,-1.7233574390411377,-0.9325724840164185
1761838619319122200,9.1751220703125,0.013596059754490852,-1.9308501482009888,-1.0056214332580566
1761838619329192000,9.18519189453125,-0.0054279412142932415,-1.932519555091858,-0.9806994199752808
1761838619339264000,9.195263916015625,-0.018459055572748184,-1.7248231172561646,-0.8682812452316284
1761838619349334000,9.205333984375,0.01071552187204361,-1.356896996498108,-0.6884215474128723
1761838619359403000,9.215403076171874,0.04285534843802452,-0.9096129536628723,-0.4602333605289459
1761838619369473000,9.22547314453125,0.049915630370378494,-0.4885362982749939,-0.22657065093517303
1761838619379543000,9.23554296875,0.029150163754820824,-0.1405642032623291,0.0019245808944106102
1761838619389612800,9.24561279296875,-0.006536714732646942,0.12400461733341217,0.2311388999223709
1761838619399682000,9.25568212890625,-0.05139899253845215,0.2533618211746216,0.42769724130630493
1761838619409751800,9.265751708984375,-0.08969644457101822,0.2792922556400299,0.5693346858024597
1761838619419822000,9.275822021484375,-0.12465789169073105,0.207613006234169,0.6185139417648315
1761838619429892000,9.28589208984375,-0.14669540524482727,0.08223751932382584,0.5894472002983093
1761838619439961900,9.2959619140625,-0.13832135498523712,-0.005639871582388878,0.4884004592895508
1761838619450031000,9.306031005859374,-0.10551083832979202,-0.0035061929374933243,0.36311402916908264
1761838619460100900,9.316100830078126,-0.029137499630451202,0.0897073745727539,0.2377779334783554
1761838619470171000,9.3261708984375,0.07485800981521606,0.25990015268325806,0.13703903555870056
1761838619480241200,9.3362412109375,0.18610356748104095,0.4487241208553314,0.07141795754432678
1761838619490310000,9.346309814453125,0.2847587466239929,0.5942354202270508,0.06282498687505722
1761838619500380200,9.356380126953125,0.38320329785346985,0.691950261592865,0.12453442066907883
1761838619510450000,9.366449951171875,0.47795382142066956,0.770964503288269,0.26348876953125
1761838619520520000,9.37652001953125,0.5493651628494263,0.8307557106018066,0.44969940185546875
1761838619530590000,9.38658984375,0.5762944221496582,0.8662987351417542,0.6340024471282959
1761838619540659000,9.396658935546874,0.5477714538574219,0.8992345333099365,0.784701943397522
1761838619550729000,9.40672900390625,0.48341742157936096,0.8590618371963501,0.8768923282623291
1761838619560799000,9.416799072265626,0.4237397015094757,0.7712720632553101,0.9485436081886292
1761838619570869000,9.426868896484375,0.408853679895401,0.7049840688705444,0.9928821921348572
1761838619580938000,9.43693798828125,0.4558182656764984,0.6229664087295532,0.9798968434333801
1761838619591008000,9.447008056640625,0.5668948292732239,0.4353446364402771,0.904177188873291
1761838619601078000,9.457078125,0.7296110391616821,0.14253968000411987,0.7572529315948486
1761838619611147800,9.467147705078125,0.9010033011436462,-0.1128191128373146,0.5870237946510315
1761838619621218000,9.477218017578124,1.0349928140640259,-0.23075026273727417,0.42402157187461853
1761838619631287000,9.487287109375,1.1145621538162231,-0.251162588596344,0.2560480237007141
1761838619641357000,9.497357177734376,1.1436883211135864,-0.1970556676387787,0.10955260694026947
1761838619651427000,9.507427001953126,1.113546371459961,-0.09542464464902878,0.002834456507116556
1761838619661496800,9.517496826171875,1.007426381111145,-0.014194770716130733,-0.09001079201698303
1761838619671566000,9.527566162109375,0.8582529425621033,0.0005034180358052254,-0.166060209274292
1761838619681636000,9.537635986328125,0.7171735763549805,-0.012229155749082565,-0.20671336352825165
1761838619691705900,9.547705810546875,0.6014046669006348,-0.051173802465200424,-0.23214201629161835
1761838619701776100,9.557776123046875,0.5094571709632874,-0.10846185684204102,-0.26172998547554016
1761838619711846000,9.567845947265624,0.4553443491458893,-0.04532104358077049,-0.27801039814949036
1761838619721915000,9.577914794921876,0.4510550796985626,0.1755727231502533,-0.26384398341178894
1761838619731985200,9.587985107421876,0.47423914074897766,0.4312599301338196,-0.2375570684671402
1761838619742055000,9.598054931640625,0.5143346190452576,0.6861311197280884,-0.217061385512352
1761838619752125000,9.608125,0.5579239130020142,0.9179737567901611,-0.20147432386875153
1761838619762194000,9.61819384765625,0.5953387022018433,1.1063580513000488,-0.19383159279823303
1761838619772264000,9.628263916015625,0.6290121078491211,1.2682746648788452,-0.18833720684051514
1761838619782334200,9.638334228515625,0.6497911810874939,1.3880479335784912,-0.1793373078107834
1761838619792404000,9.648404052734374,0.6744588613510132,1.4807677268981934,-0.1536952704191208
1761838619802474000,9.658473876953124,0.6803526878356934,1.5303688049316406,-0.11596494913101196
1761838619812543000,9.66854296875,0.6727244257926941,1.5236445665359497,-0.0688120499253273
1761838619822613000,9.678613037109375,0.6650497317314148,1.4670039415359497,-0.016066810116171837
1761838619832683000,9.68868310546875,0.6576154232025146,1.3898428678512573,0.03985465317964554
1761838619842753000,9.6987529296875,0.656997799873352,1.2832823991775513,0.07791761308908463
1761838619852822000,9.708822021484375,0.6573862433433533,1.1512168645858765,0.09953643381595612
1761838619862892000,9.71889208984375,0.6477373838424683,1.0125980377197266,0.12374989688396454
1761838619872962000,9.728962158203124,0.6222140192985535,0.9215711951255798,0.16246502101421356
1761838619883032000,9.739031982421874,0.599012017250061,0.8722766041755676,0.22561895847320557
1761838619893101800,9.749101806640626,0.6135917901992798,0.8827334046363831,0.30543142557144165
1761838619903171000,9.759171142578126,0.6502848267555237,0.9929541945457458,0.4562736749649048
1761838619913240800,9.76924072265625,0.6371034979820251,0.9279444217681885,0.6575872898101807
1761838619923311000,9.77931103515625,0.6242532134056091,0.7349153161048889,0.8866601586341858
1761838619933381000,9.789381103515625,0.6568484902381897,0.497065931558609,1.132571816444397
1761838619943449900,9.799449951171875,0.7129740715026855,0.0960463285446167,1.313527226448059
1761838619953520000,9.80952001953125,0.7658591270446777,-0.4919135570526123,1.3704582452774048
1761838619963590000,9.81958984375,0.7631608247756958,-1.2318065166473389,1.1921534538269043
1761838619973660000,9.829659912109374,0.7225529551506042,-1.8960508108139038,0.7680581212043762
1761838619983734000,9.839734130859375,0.581950843334198,-2.3705945014953613,0.2540706992149353
1761838619993803000,9.849802978515624,0.43420150876045227,-2.5501997470855713,-0.1943226009607315
