time,seconds_elapsed,z,y,x
1761817930198237700,0.07923779296875,-0.0004918858758173883,-0.03838227689266205,0.051655203104019165
1761817930208167000,0.0891669921875,0.002656503114849329,0.05391010269522667,-0.008216917514801025
1761817930218094800,0.0990947265625,0.0054941014386713505,0.12700136005878448,-0.05691707879304886
1761817930228022800,0.109022705078125,0.0041281660087406635,0.14070890843868256,-0.09534196555614471
1761817930237950700,0.11895068359375,-0.0012871057260781527,0.0667278990149498,-0.10166697204113007
1761817930247879000,0.12887890625,-0.003884752979502082,-0.04236023873090744,-0.08047380298376083
1761817930257806800,0.138806884765625,-0.0018168084789067507,-0.1419651210308075,-0.03832315281033516
1761817930267735800,0.14873583984375,-0.008130630478262901,-0.21843300759792328,0.006702377460896969
1761817930277663700,0.158663818359375,-0.015233547426760197,-0.2474055290222168,0.051895156502723694
1761817930287591700,0.168591796875,-0.014941132627427578,-0.2282097339630127,0.08413005620241165
1761817930297519600,0.17851953125,-0.014451377093791962,-0.14243437349796295,0.10081475973129272
1761817930307447600,0.188447509765625,-0.0018317222129553556,-0.005138303153216839,0.09887118637561798
1761817930317376800,0.198376708984375,0.006725813262164593,0.14192678034305573,0.07947192341089249
1761817930327305000,0.208304931640625,0.01338824350386858,0.25545600056648254,0.038784679025411606
1761817930337233000,0.21823291015625,0.02269039861857891,0.3305845856666565,-0.0065404572524130344
1761817930347160800,0.228160888671875,0.028141623362898827,0.36966460943222046,-0.04626789689064026
1761817930357088800,0.2380888671875,0.0267205610871315,0.3695247769355774,-0.071280837059021
1761817930367016700,0.2480166015625,0.024987641721963882,0.33863264322280884,-0.07873795181512833
1761817930376945000,0.25794482421875,0.02532879263162613,0.2809496521949768,-0.07286036014556885
1761817930386873600,0.26787353515625,0.016409067437052727,0.1976507604122162,-0.04808257520198822
1761817930396801800,0.2778017578125,0.007790012285113335,0.09794014692306519,-0.012691826559603214
1761817930406729700,0.287729736328125,-0.00013555490295402706,-0.005130313336849213,0.022958844900131226
1761817930416657700,0.29765771484375,-0.010297644883394241,-0.10543827712535858,0.046246856451034546
1761817930426585600,0.307585693359375,-0.01666819304227829,-0.19137156009674072,0.06312810629606247
1761817930436513500,0.317513427734375,-0.017528660595417023,-0.2475815713405609,0.0643472969532013
1761817930446442800,0.32744287109375,-0.02069409377872944,-0.27132898569107056,0.05891551449894905
1761817930456371000,0.337370849609375,-0.018552912399172783,-0.2615181505680084,0.043407659977674484
1761817930466299000,0.347298828125,-0.019569439813494682,-0.2286994904279709,0.027714718133211136
1761817930476226800,0.357226806640625,-0.010666492395102978,-0.1675751507282257,0.013629259541630745
1761817930486154800,0.36715478515625,-0.00637906976044178,-0.08689574897289276,0.006174006499350071
1761817930496082700,0.377082763671875,0.0010221211705356836,-0.005136438645422459,-0.002529470482841134
1761817930506011600,0.38701171875,0.006339921150356531,0.07600554823875427,-0.0019172097090631723
1761817930515939800,0.39693994140625,0.010260093957185745,0.14690981805324554,-0.0026770094409585
1761817930525867800,0.40686767578125,0.011443602852523327,0.19430848956108093,-0.0062549663707613945
1761817930535795700,0.416795654296875,0.014787468127906322,0.2157416194677353,-0.008013451471924782
1761817930545723600,0.4267236328125,0.015231683850288391,0.20751138031482697,-0.009720271453261375
1761817930555651600,0.436651611328125,0.013012205250561237,0.17689621448516846,-0.01088806800544262
1761817930565580800,0.446580810546875,0.008234228007495403,0.12525193393230438,-0.012676380574703217
1761817930575508700,0.4565087890625,0.0025329324416816235,0.06568793207406998,-0.004189418628811836
1761817930585437000,0.46643701171875,-0.0005632585380226374,-0.0032921996898949146,0.0043982104398310184
1761817930595364900,0.47636474609375,-0.004726844374090433,-0.05798846855759621,0.01164760161191225
1761817930605292800,0.486292724609375,-0.007787349168211222,-0.105228953063488,0.020303141325712204
1761817930615220700,0.496220703125,-0.007216101046651602,-0.1363770216703415,0.02509177103638649
1761817930625148700,0.506148681640625,-0.009850500151515007,-0.1433531641960144,0.02935655787587166
1761817930635077600,0.51607763671875,-0.005014998838305473,-0.1401405930519104,0.026758110150694847
1761817930645005800,0.526005859375,-0.007101585157215595,-0.11525575071573257,0.02569870464503765
1761817930654933800,0.535933837890625,-0.002502039773389697,-0.08587629348039627,0.020061857998371124
1761817930664861700,0.54586181640625,0.00020373181905597448,-0.044609811156988144,0.014875086024403572
1761817930674789600,0.55578955078125,0.004450674634426832,-0.0012650014832615852,0.006931941956281662
1761817930684717600,0.565717529296875,0.007262174040079117,0.047095075249671936,0.0023244069889187813
1761817930694646800,0.575646728515625,0.007866711355745792,0.07919628173112869,-0.0016527577536180615
1761817930704574700,0.58557470703125,0.010816695168614388,0.10251092910766602,-0.004503671545535326
1761817930714503000,0.5955029296875,0.013047891668975353,0.11411432176828384,0.0033065807074308395
1761817930724430800,0.605430908203125,0.007559915538877249,0.10041235387325287,0.009778328239917755
1761817930734358800,0.61535888671875,0.0008913599886000156,0.08276119083166122,0.010351440869271755
1761817930744286700,0.62528662109375,-0.004591822158545256,0.05078035593032837,0.013740845955908298
1761817930754215700,0.635215576171875,-0.008221178315579891,0.015177355147898197,0.015336612239480019
1761817930764143600,0.6451435546875,-0.007898136973381042,-0.021228322759270668,0.018577944487333298
1761817930774071800,0.65507177734375,-0.008021974004805088,-0.05317587032914162,0.017541177570819855
1761817930783999700,0.664999755859375,-0.00748987402766943,-0.07465746253728867,0.018020546063780785
1761817930793927700,0.674927734375,-0.004505269695073366,-0.08634021133184433,0.0115586519241333
1761817930803855600,0.684855712890625,-0.0021281319204717875,-0.09061378985643387,0.010484864935278893
1761817930813784800,0.694784912109375,-0.004566788673400879,-0.08431461453437805,0.0049734534695744514
1761817930823712800,0.704712646484375,0.00236328924074769,-0.06750234216451645,0.0027923244051635265
1761817930833640700,0.714640625,-0.002353968098759651,-0.04272695630788803,0.006737797521054745
1761817930843569000,0.72456884765625,-0.003465305082499981,-0.006067213602364063,0.003448793664574623
1761817930853497300,0.734497314453125,-0.00039734362508170307,0.026520291343331337,0.008594286628067493
1761817930863425300,0.74442529296875,0.00395825644955039,0.057789262384176254,0.007219296880066395
1761817930873353200,0.754353271484375,0.0022474415600299835,0.07836697995662689,0.0036791570018976927
1761817930883282200,0.7642822265625,0.004509796854108572,0.09657181054353714,0.005312739871442318
1761817930893210000,0.774210205078125,0.004126301966607571,0.10493546724319458,0.0004564658156596124
1761817930903138000,0.784137939453125,0.0031609057914465666,0.1074897050857544,0.00461685610935092
1761817930913066200,0.794066162109375,0.004832572303712368,0.098020039498806,0.00780519237741828
1761817930922994200,0.803994140625,0.003195793367922306,0.07440552115440369,0.009491772390902042
1761817930932922400,0.81392236328125,0.0006570018595084548,0.04278235137462616,0.008009723387658596
1761817930942851300,0.823851318359375,-0.0025534387677907944,0.0028756812680512667,0.007230748422443867
1761817930952779300,0.833779296875,-0.005494633689522743,-0.03464319929480553,0.007880826480686665
1761817930962707200,0.843707275390625,-0.005987851414829493,-0.06546156108379364,0.009104282595217228
1761817930972635400,0.853635498046875,-0.0051652006804943085,-0.08768777549266815,0.01121883187443018
1761817930982563300,0.863563232421875,-0.008046208880841732,-0.0945691168308258,0.019510317593812943
1761817930992491300,0.8734912109375,0.0002335592289455235,-0.08960019052028656,0.023127157241106033
1761817931002420200,0.883420166015625,-0.000009321063771494664,-0.07326249778270721,0.022472817450761795
1761817931012348200,0.89334814453125,0.000017310547264060006,-0.04472352936863899,0.02261609584093094
1761817931022276000,0.903276123046875,0.0021110877860337496,-0.017780328169465065,0.019573435187339783
1761817931032204000,0.9132041015625,-0.0010229201288893819,0.011867578141391277,0.01233283244073391
1761817931042132200,0.92313232421875,0.0021582257468253374,0.0385039821267128,0.005942311137914658
1761817931052060200,0.93306005859375,-0.0017512947088107467,0.06172940880060196,0.0034751589410007
1761817931061989400,0.9429892578125,0.0006029396899975836,0.07685136795043945,-0.0011430287268012762
1761817931071917300,0.952917236328125,0.0010836402652785182,0.07628491520881653,-0.0008458199445158243
1761817931081845200,0.96284521484375,0.0004290352517273277,0.07310084253549576,0.000330231967382133
1761817931091773200,0.972773193359375,0.00046924897469580173,0.05993417277932167,0.004667722620069981
1761817931101701400,0.982701416015625,-0.0029385320376604795,0.038722626864910126,0.007750331424176693
1761817931111629300,0.99262939453125,-0.0038599856197834015,0.018330803140997887,0.015400261618196964
1761817931121558300,1.002558349609375,-0.004043211229145527,-0.00765898497775197,0.016227439045906067
1761817931131486200,1.012486328125,-0.0025478461757302284,-0.02719486877322197,0.019052520394325256
1761817931141414100,1.0224140625,-0.003555586328729987,-0.041603103280067444,0.016995761543512344
1761817931151342000,1.032342041015625,-0.002020274056121707,-0.051480501890182495,0.013420733623206615
1761817931161270000,1.04227001953125,-0.0017385114915668964,-0.05860206112265587,0.014101970940828323
1761817931171198200,1.0521982421875,-0.004132693167775869,-0.054603856056928635,0.012046276591718197
1761817931181127400,1.06212744140625,-0.004811000544577837,-0.04524417594075203,0.005899168085306883
1761817931191055400,1.072055419921875,0.0018458369886502624,-0.029921947047114372,0.007651527877897024
1761817931200983300,1.0819833984375,-0.0014969628537073731,-0.015985891222953796,0.0062155514024198055
1761817931210911200,1.0919111328125,-0.0010274475207552314,0.004444282967597246,0.005845904815942049
1761817931220839200,1.101839111328125,0.0002796319022309035,0.018556106835603714,0.009004147723317146
1761817931230767400,1.111767333984375,-0.0028367992490530014,0.026911241933703423,0.01173095777630806
1761817931240696000,1.121696044921875,0.0031619712244719267,0.0343015156686306,0.012561864219605923
1761817931250624300,1.131624267578125,0.00019760655413847417,0.03129933401942253,0.012373312376439571
1761817931260552200,1.14155224609375,0.0029965888243168592,0.02562839724123478,0.008045676164329052
1761817931270480100,1.151480224609375,0.00044075315236113966,0.014491324312984943,0.009520800784230232
1761817931280408000,1.161407958984375,-0.0004972121678292751,0.007650462910532951,0.004348675720393658
1761817931290336300,1.171336181640625,-0.000913197931367904,-0.0012785836588591337,0.003765976056456566
1761817931300265200,1.18126513671875,-0.003736947663128376,-0.006107959896326065,0.004206729121506214
1761817931310193400,1.191193359375,-0.0009137305896729231,-0.004819522611796856,0.0070832096971571445
1761817931320121300,1.201121337890625,0.00017683389887679368,-0.003907922655344009,0.008324774913489819
1761817931330049300,1.21104931640625,-0.002231995342299342,-0.0026969832833856344,0.010113353841006756
1761817931339977200,1.220977294921875,-0.0028993834275752306,0.004194478504359722,0.013644971884787083
1761817931349905200,1.2309052734375,-0.0028767467010766268,0.009828396141529083,0.019047195091843605
1761817931359834000,1.240834228515625,-0.0038485340774059296,0.016335297375917435,0.019057581201195717
1761817931369762300,1.25076220703125,0.0004902879591099918,0.022111959755420685,0.016819726675748825
1761817931379690200,1.260690185546875,-0.00008468852320220321,0.02190183661878109,0.012501942925155163
1761817931389618200,1.2706181640625,0.006049636751413345,0.014995461329817772,0.00749040674418211
1761817931399546000,1.280546142578125,0.0015137407463043928,0.009503756649792194,0.0016524913953617215
1761817931409474000,1.29047412109375,0.0014804512029513717,0.003709516953676939,0.0010764497565105557
1761817931419403300,1.3004033203125,-0.0008250473183579743,-0.003915645647794008,0.0012484899489209056
1761817931429331200,1.310331298828125,-0.0009691243176348507,-0.013839116320014,0.004780640359967947
1761817931439259400,1.32025927734375,0.00021758026559837162,-0.01600240170955658,0.010171943344175816
1761817931449187300,1.330187255859375,0.0011893677292391658,-0.022366823628544807,0.016983244568109512
1761817931459115300,1.340115234375,-0.0035510589368641376,-0.022273346781730652,0.018134795129299164
1761817931469043200,1.350043212890625,-0.0023694143164902925,-0.025967951864004135,0.02437165193259716
1761817931478972200,1.35997216796875,-0.0017068199813365936,-0.026445455849170685,0.021800370886921883
1761817931488900000,1.369900146484375,-0.004066913388669491,-0.026563700288534164,0.019518041983246803
1761817931498828300,1.379828369140625,-0.0016964336391538382,-0.0202203169465065,0.012747487053275108
1761817931508756200,1.389756103515625,-0.00009267800487577915,-0.012115252204239368,0.01110405009239912
1761817931518684200,1.39968408203125,0.00014620754518546164,-0.0007478156476281583,0.00398621940985322
1761817931528612000,1.409612060546875,0.00006844323797849938,0.004522846546024084,0.002974218223243952
1761817931538541300,1.419541259765625,0.0007701861904934049,0.01696380414068699,0.002400306984782219
1761817931548469200,1.42946923828125,0.002447711303830147,0.024653414264321327,0.0052442969754338264
1761817931558397200,1.439397216796875,-0.00039654469583183527,0.029269738122820854,0.009629989974200726
1761817931568325400,1.449325439453125,0.0013741911388933659,0.030360035598278046,0.00890933908522129
1761817931578253300,1.45925341796875,0.00012650014832615852,0.029262814670801163,0.008275240659713745
1761817931588181200,1.46918115234375,0.0026493126060813665,0.025842249393463135,0.009528524242341518
1761817931598110200,1.479110107421875,0.0011209244839847088,0.016456471756100655,0.0054123420268297195
1761817931608038100,1.4890380859375,0.0009038768475875258,0.007501591928303242,0.005464540328830481
1761817931617966000,1.498966064453125,-0.0019885823130607605,0.0015792545164003968,0.005368666257709265
1761817931627894300,1.508894287109375,-0.0013712616637349129,-0.004606735892593861,0.004507133737206459
1761817931637822200,1.518822265625,-0.004048803821206093,-0.006800648290663958,0.0062578958459198475
1761817931647750100,1.528750244140625,-0.0021574266720563173,-0.012162390165030956,0.011061972007155418
1761817931657679400,1.538679443359375,-0.00016484966909047216,-0.014023407362401485,0.008831041865050793
1761817931667607300,1.548607177734375,-0.002168878447264433,-0.013885721564292908,0.0091745899990201
1761817931677535200,1.55853515625,0.0014929680619388819,-0.013088904321193695,0.0070190271362662315
1761817931687463200,1.568463134765625,-0.0007134608458727598,-0.01357333268970251,0.008331432938575745
1761817931697391400,1.578391357421875,0.0014176006661728024,-0.008598015643656254,0.009526926092803478
1761817931707320300,1.5883203125,-0.000005858954409632133,-0.000009853695701167453,0.011952799744904041
1761817931717248300,1.598248291015625,0.000003462109361862531,0.004500209353864193,0.010783937759697437
1761817931727176200,1.60817626953125,0.0011209244839847088,0.007255516014993191,0.009521866217255592
1761817931737104100,1.618104248046875,0.002100168727338314,0.01278849970549345,0.007385478354990482
1761817931747032000,1.628031982421875,0.0008793757879175246,0.007689877413213253,0.0040765004232525826
1761817931756960300,1.637960205078125,-0.00021278657368384302,0.0014058827655389905,-0.0007350324303843081
1761817931766889200,1.64788916015625,-0.0011760519118979573,0.0023933828342705965,-0.001945705502294004
1761817931776817400,1.6578173828125,0.0025539714843034744,-0.00072597770486027,-0.001142496126703918
1761817931786745300,1.667745361328125,0.000024234765078290366,0.0024373249616473913,0.005090632475912571
1761817931796673300,1.67767333984375,-0.0009182579233311117,0.0037028591614216566,0.010276872664690018
1761817931806601200,1.687601318359375,-0.00006684534309897572,0.004544151946902275,0.011640144512057304
1761817931816529200,1.697529052734375,-0.00159443449229002,0.004163319710642099,0.00857617799192667
1761817931826458000,1.7074580078125,-0.0011946940794587135,0.0024860608391463757,0.005007808096706867
1761817931836386300,1.71738623046875,-0.002814695006236434,0.002642388455569744,0.004799282643944025
1761817931846314200,1.727314208984375,0.00039654469583183527,-0.0003608583356253803,0.006816094275563955
1761817931856241400,1.737241455078125,0.00021172130072955042,0.002100435085594654,0.00624111806973815
1761817931866169300,1.74716943359375,-0.001044491771608591,-0.0015563513152301311,0.01318291388452053
1761817931876097500,1.75709765625,-0.0014029532903805375,-0.0021875204984098673,0.011316037736833096
1761817931886026500,1.767026611328125,0.0006570018595084548,-0.009092564694583416,0.014553376473486423
1761817931895954400,1.776954345703125,0.0010258496040478349,-0.010192716494202614,0.012674516066908836
1761817931905882400,1.78688232421875,-0.00020825919636990875,-0.011128284968435764,0.013157879933714867
1761817931915810300,1.796810302734375,0.0010271812789142132,-0.00926114246249199,0.013311810791492462
1761817931925738200,1.80673828125,-0.0002772350562736392,-0.003622697899118066,0.01184920221567154
1761817931935666400,1.81666650390625,-0.0016636766958981752,-0.000800279900431633,0.011944010853767395
1761817931945595400,1.826595458984375,-0.00364746549166739,0.007988683879375458,0.01158688124269247
1761817931955523300,1.8365234375,-0.0013912353897467256,0.012283031828701496,0.009760485030710697
1761817931965451500,1.846451416015625,-0.0014658038271591067,0.015508119948208332,0.010469685308635235
1761817931975379500,1.85637939453125,-0.0008058725506998599,0.01750016398727894,0.011780759319663048
1761817931985307400,1.866307373046875,-0.0013736584223806858,0.019815515726804733,0.011899536475539207
1761817931995235300,1.8762353515625,-0.0036876790691167116,0.017045563086867332,0.008232896216213703
1761817932005164300,1.886164306640625,-0.004295146092772484,0.013020726852118969,0.011409248225390911
1761817932015092500,1.896092529296875,0.00013022858183830976,0.007516239304095507,0.013174391351640224
1761817932025020400,1.9060205078125,-0.002665025182068348,0.0019137475173920393,0.007759386207908392
1761817932034948400,1.9159482421875,0.0021499700378626585,-0.009217733517289162,0.008780442178249359
1761817932044876300,1.925876220703125,0.0033095101825892925,-0.011078749783337116,0.00634844321757555
1761817932054804200,1.93580419921875,-0.00020719393796753138,-0.01613635942339897,0.008204933255910873
1761817932064733200,1.945733154296875,-0.0024463797453790903,-0.018643725663423538,0.011938950978219509
1761817932074661400,1.955661376953125,-0.0008378304773941636,-0.013822338543832302,0.013798636384308338
1761817932084589600,1.965589599609375,-0.0043891556560993195,-0.01438399963080883,0.016020778566598892
1761817932094517500,1.975517578125,0.0009651295840740204,-0.011005779728293419,0.016043148934841156
1761817932104445400,1.985445556640625,0.0003049319493584335,-0.004378503188490868,0.014011955820024014
1761817932114373400,1.995373291015625,0.0013880395563319325,0.004608866758644581,0.010011888109147549
1761817932124302300,2.00530224609375,-0.00013875069271307439,0.009259544312953949,0.004835235420614481
1761817932134230300,2.015230224609375,-0.0014599448768422008,0.013001020066440105,0.005254416726529598
1761817932144158500,2.025158447265625,-0.00010093380114994943,0.014174141921103,0.0015672702575102448
1761817932154086400,2.03508642578125,-0.0014207963831722736,0.019721506163477898,0.005291168577969074
1761817932164014300,2.045014404296875,-0.0020698087755590677,0.0223817378282547,0.007625695317983627
1761817932173942300,2.0549423828125,-0.002864762442186475,0.018615229055285454,0.008444351144134998
1761817932183871200,2.064871337890625,-0.0008261125767603517,0.01571051962673664,0.012887302786111832
1761817932193799200,2.074799072265625,-0.0010615360224619508,0.011059841141104698,0.012648417614400387
1761817932203727400,2.084727294921875,-0.0027864654548466206,-0.001371527905575931,0.012587164528667927
1761817932213655600,2.094655517578125,0.0011001517996191978,-0.007474960293620825,0.009578324854373932
1761817932223583500,2.10458349609375,-0.0009781790431588888,-0.012349876575171947,0.007188937161117792
1761817932233511400,2.114511474609375,-0.0000977380113909021,-0.014267352409660816,0.006414223462343216
1761817932243440400,2.1244404296875,-0.0004993426846340299,-0.01756301522254944,0.004851480480283499
1761817932253368300,2.134368408203125,-0.003665574826300144,-0.019062640145421028,0.005844040773808956
1761817932263296300,2.144296142578125,-0.002275404753163457,-0.011785286478698254,0.003780623432248831
1761817932273224400,2.154224365234375,0.000319845654303208,-0.007958324626088142,0.008158859796822071
1761817932283152400,2.16415234375,-0.0029995182994753122,-0.0031909996178001165,0.01630653440952301
1761817932293080300,2.174080322265625,0.0035063179675489664,-0.0001430117554264143,0.012456403113901615
1761817932303009300,2.18400927734375,0.0004996090428903699,-0.0006791060441173613,0.016985641792416573
1761817932312937200,2.193937255859375,-0.001966478070244193,0.004329234827309847,0.012834305875003338
1761817932322865400,2.203865478515625,-0.0011379687348380685,0.0016706009628251195,0.012336826883256435
1761817932332793600,2.213793701171875,0.0013851100811734796,-0.0008681904873810709,0.006758303847163916
1761817932342721500,2.223721435546875,-0.0007339671719819307,-0.003944940399378538,0.007270962465554476
1761817932352649500,2.2336494140625,-0.0009478190331719816,-0.0057132793590426445,0.008566590026021004
1761817932362578400,2.243578369140625,-0.003805390791967511,-0.0006386260502040386,0.009439840912818909
1761817932372506400,2.25350634765625,-0.003522563260048628,-0.0027798074297606945,0.012259063310921192
1761817932382434300,2.263434326171875,-0.002495914464816451,-0.0023031015880405903,0.010397779755294323
1761817932392362200,2.2733623046875,-0.00101173494476825,0.004079164005815983,0.011884355917572975
1761817932402290400,2.28329052734375,-0.003941744565963745,0.003952663857489824,0.011744273826479912
1761817932412218400,2.29321826171875,-0.002094842493534088,0.006149771623313427,0.013066533021628857
1761817932422147300,2.303147216796875,-0.002916161436587572,0.008625978603959084,0.014874286949634552
1761817932432075300,2.3130751953125,-0.003965446725487709,0.01076982356607914,0.015668708831071854
1761817932442003500,2.32300341796875,-0.00119629199616611,0.008823319338262081,0.013650830835103989
1761817932451931400,2.332931396484375,-0.002435727044939995,0.005877064075320959,0.010885404422879219
1761817932461859600,2.342859619140625,0.0020088222809135914,0.0003328951424919069,0.004820853937417269
1761817932471787500,2.35278759765625,0.0017994979862123728,-0.011241469532251358,0.007258179131895304
1761817932481716500,2.362716552734375,0.0034815503749996424,-0.020566260442137718,0.002590723102912307
1761817932491644400,2.37264453125,0.0005126585019752383,-0.023807594552636147,0.004129231441766024
1761817932501572400,2.382572265625,-0.002995789982378483,-0.028426848351955414,0.002746518002822995
1761817932511500300,2.392500244140625,-0.0032258869614452124,-0.027714451774954796,0.002802710747346282
1761817932521428200,2.40242822265625,-0.006442186422646046,-0.017467673867940903,0.009629989974200726
1761817932531356400,2.4123564453125,0.0010575412306934595,-0.004339354578405619,0.00800279900431633
1761817932541285400,2.422285400390625,0.0021552962716668844,0.0010002832859754562,0.012011122889816761
1761817932551213300,2.43221337890625,0.0030594393610954285,0.011980229988694191,0.009159675799310207
1761817932561141200,2.442141357421875,0.002286856295540929,0.01823705993592739,0.005819539539515972
1761817932571069400,2.4520693359375,-0.00029640982393175364,0.021914353594183922,0.005816610064357519
1761817932580997400,2.461997314453125,0.003394465195015073,0.026751453056931496,0.0008450209861621261
1761817932590925600,2.471925537109375,-0.0008064051507972181,0.028442293405532837,0.001970472978428006
1761817932600854300,2.481854248046875,0.00449727987870574,0.02985084056854248,0.004534564446657896
1761817932610782500,2.491782470703125,0.002942260354757309,0.02383262850344181,0.0029816750902682543
1761817932620710400,2.50171044921875,0.0020591560751199722,0.013243899680674076,0.0032780850306153297
1761817932630638300,2.511638427734375,0.0033545177429914474,0.0031550468411296606,0.0008964200387708843
1761817932640566300,2.521566162109375,-0.0011616708943620324,-0.0028418591246008873,-0.0018218684708699584
1761817932650494500,2.531494384765625,-0.0014394385507330298,-0.007868043147027493,0.0031486554071307182
1761817932660423200,2.541423095703125,-0.0037947380915284157,-0.005614476278424263,0.00577746145427227
1761817932670351400,2.551351318359375,-0.0030216225422918797,-0.006719954311847687,0.013643906451761723
1761817932680279300,2.561279296875,0.000818123109638691,-0.0020298613235354424,0.017251158133149147
1761817932690207500,2.57120751953125,0.00036378781078383327,-0.0035539884120225906,0.018489528447389603
1761817932700135400,2.581135498046875,0.000871652620844543,-0.003937217406928539,0.015929697081446648
1761817932710063400,2.5910634765625,-0.0027387947775423527,-0.0037526602391153574,0.012864133343100548
1761817932719992300,2.600992431640625,-0.0037950044497847557,-0.003656520042568445,0.009223858825862408
1761817932729920500,2.61092041015625,-0.0015451660146936774,-0.0022413162514567375,0.01140046026557684
1761817932739848400,2.620848388671875,-0.001996838254854083,-0.0018985675415024161,0.008268316276371479
1761817932749776400,2.6307763671875,-0.000931041082367301,0.0019438412273302674,0.00857431348413229
1761817932759704300,2.640704345703125,-0.0000125168571685208,0.003914314322173595,0.011772236786782742
1761817932769632300,2.65063232421875,-0.0005001416429877281,0.0008644621120765805,0.01062201801687479
1761817932779561200,2.660561279296875,-0.001187237212434411,0.001767273643054068,0.010913633741438389
1761817932789489200,2.6704892578125,-0.0002993392990902066,0.004887433256953955,0.01170645747333765
1761817932799417300,2.680417236328125,0.001002413802780211,0.0037417414132505655,0.0073053170926868916
1761817932809345500,2.690345458984375,-0.00047857005847617984,0.0034855452831834555,0.009460879489779472
1761817932819273500,2.7002734375,0.00003328951424919069,0.00666429428383708,0.011756790801882744
1761817932829201400,2.710201416015625,-0.0013464941876009107,0.007441671099513769,0.011839615181088448
1761817932839130400,2.72013037109375,0.0007329019135795534,0.010342119261622429,0.009334113448858261
1761817932849058300,2.730058349609375,-0.0015970977256074548,0.00899908784776926,0.014396250247955322
1761817932858986000,2.739986083984375,0.0013369068037718534,0.005474393721669912,0.008102401159703732
1761817932868914000,2.749913818359375,-0.001306014135479927,0.006189186125993729,0.012624715454876423
1761817932878841900,2.759841796875,0.0008378304773941636,0.002153431996703148,0.009199890308082104
1761817932888769800,2.769769775390625,-0.0005837649223394692,0.0006458165589720011,0.010348777286708355
1761817932898697700,2.77969775390625,-0.0020567593164741993,0.003058906877413392,0.010126137174665928
1761817932908626700,2.789626708984375,-0.002770752878859639,-0.001418665866367519,0.009460879489779472
1761817932918555000,2.799554931640625,-0.000018109494703821838,-0.0013129384024068713,0.012960273772478104
1761817932928482800,2.80948291015625,-0.00038775624125264585,-0.003224821761250496,0.011444135569036007
1761817932938410800,2.81941064453125,0.0017425062833353877,-0.004101268015801907,0.008385495282709599
1761817932948339000,2.8293388671875,0.0006452839006669819,-0.007567638531327248,0.004467719234526157
1761817932958267000,2.839266845703125,-0.0013829795643687248,-0.006871222052723169,0.004051200579851866
1761817932968195800,2.84919580078125,-0.0010021475609391928,-0.009375925175845623,0.006676811259239912
1761817932978123800,2.859123779296875,-0.0026581010315567255,-0.006674680393189192,0.00887817982584238
1761817932988052000,2.869052001953125,-0.0003203782835043967,-0.0015273229219019413,0.008774316869676113
1761817932997980000,2.87897998046875,-0.000544350128620863,0.0011888351291418076,0.011630024760961533
1761817933007907800,2.888907958984375,-0.00032730249222368,0.006345780100673437,0.01128035131841898
1761817933017835800,2.898835693359375,-0.00029348034877330065,0.006833671126514673,0.015563513152301311
1761817933027764700,2.9087646484375,0.000675111310556531,0.011239338666200638,0.010932542383670807
1761817933037692700,2.918692626953125,-0.004545216914266348,0.014540859498083591,0.009131446480751038
1761817933047620900,2.928620849609375,-0.0010684601729735732,0.008362858556210995,0.005834186915308237
1761817933057548800,2.938548828125,-0.0001968075957847759,0.010282997973263264,0.006156163290143013
1761817933067477000,2.94847705078125,0.00020985709852539003,0.008326373063027859,0.004034422803670168
1761817933077405000,2.958405029296875,-0.0009717874927446246,0.005262140184640884,0.004459729418158531
1761817933087334000,2.968333984375,-0.0015928366919979453,-0.00281948852352798,0.008505604229867458
1761817933097261800,2.97826171875,0.00021172130072955042,-0.0035201662685722113,0.011923238635063171
1761817933107190000,2.98818994140625,0.0002620550512801856,-0.006154298782348633,0.011535216122865677
1761817933117118000,2.998117919921875,-0.0011523497523739934,-0.010640660300850868,0.013130716048181057
1761817933127046000,3.0080458984375,-0.003090864745900035,-0.012457202188670635,0.010461695492267609
1761817933136973800,3.017973876953125,-0.0022413162514567375,-0.007604656275361776,0.012103800661861897
1761817933146901800,3.02790185546875,-0.0008021441171877086,-0.008290420286357403,0.009459281340241432
1761817933156830700,3.037830810546875,-0.004257329273968935,-0.003969707991927862,0.012556005269289017
1761817933166758700,3.047758544921875,0.0003635214816313237,-0.001175252953544259,0.007269630674272776
1761817933176686800,3.057686767578125,0.0008237157016992569,0.0002924150903709233,0.009425193071365356
1761817933186615000,3.067614990234375,0.002400573343038559,0.00532499048858881,0.009981527924537659
1761817933196543000,3.07754296875,-0.00039175100391730666,0.010543188080191612,0.006587861571460962
1761817933206471000,3.087470947265625,0.002332130214199424,0.010657171718776226,0.009273925796151161
1761817933216400000,3.09739990234375,-0.0009736517095007002,0.012395682744681835,0.010697651654481888
1761817933226327800,3.107327880859375,-0.0025563682429492474,0.012283829972147942,0.011036671698093414
1761817933236256000,3.117256103515625,-0.0007360977469943464,0.012135758996009827,0.010718158446252346
1761817933246184000,3.127183837890625,-0.0013014868600293994,0.009069395251572132,0.007876831106841564
1761817933256111900,3.13711181640625,-0.0025925873778760433,0.004068511072546244,0.010424145497381687
1761817933266039800,3.147039794921875,-0.00009187905379803851,-0.0026399914640933275,0.007899468764662743
1761817933275967700,3.1569677734375,-0.0009986853692680597,-0.005248025059700012,0.009157545864582062
1761817933285896700,3.166896728515625,-0.000865793670527637,-0.009101885370910168,0.007756190374493599
1761817933295824600,3.17682470703125,-0.002499643014743924,-0.011713913641870022,0.007224889472126961
1761817933305752800,3.1867529296875,-0.001442900625988841,-0.007533550262451172,0.00959909800440073
1761817933315681000,3.196680908203125,-0.0005025385180488229,-0.01002014335244894,0.009249957278370857
1761817933325609000,3.20660888671875,-0.00035233621019870043,-0.0029531794134527445,0.007669104728847742
1761817933335537000,3.216536865234375,0.0009294432238675654,-0.003611246356740594,0.006135923322290182
1761817933345465900,3.2264658203125,-0.0005387574783526361,0.00170815153978765,0.007275489624589682
1761817933355393800,3.236393798828125,-0.0013411679537966847,0.003681021276861429,0.008684568107128143
1761817933365322000,3.246322021484375,0.0009542105835862458,0.006165218073874712,0.006651244591921568
1761817933375250000,3.25625,0.0015425028977915645,0.012297945097088814,0.009914682246744633
1761817933385177900,3.266177734375,-0.000020506340661086142,0.012979447841644287,0.011469968594610691
1761817933395105800,3.276105712890625,0.0002759034978225827,0.012229235842823982,0.010413758456707
1761817933405034800,3.28603466796875,0.0013606089632958174,0.01423619408160448,0.006158027332276106
1761817933414962700,3.295962646484375,0.0008902947301976383,0.005262938793748617,0.0052024852484464645
1761817933424891000,3.305890869140625,-0.0007603325066156685,0.0020623519085347652,-0.0006982808117754757
1761817933434819000,3.315819091796875,-0.00025486451340839267,-0.004782238509505987,-0.0036637107841670513
1761817933444747000,3.3257470703125,-0.0005102616851218045,-0.007094128523021936,-0.0010277138790115714
1761817933454675000,3.335675048828125,0.00039254993316717446,-0.00777536490932107,0.004728975240141153
1761817933464603000,3.345602783203125,-0.00010279801790602505,-0.007666707970201969,0.007319165393710136
1761817933474531800,3.35553173828125,0.001392300589941442,-0.00669252360239625,0.010343717411160469
1761817933484459800,3.365459716796875,0.0013646037550643086,-0.006219812668859959,0.00675297761335969
1761817933494388000,3.375387939453125,0.002415487077087164,0.0014045510906726122,0.008496548980474472
1761817933504316000,3.38531591796875,-0.0013608753215521574,0.0026106967125087976,0.007871238514780998
1761817933514243800,3.395243896484375,-0.0011920308461412787,0.007072823122143745,0.008143147453665733
1761817933524171800,3.405171875,-0.002487392397597432,0.013255617581307888,0.00697801448404789
1761817933534100700,3.415100830078125,0.0007874967413954437,0.012981312349438667,0.012260394170880318
1761817933544028700,3.425028564453125,0.0004495415778364986,0.008710134774446487,0.010896323248744011
1761817933553956900,3.434956787109375,0.0010029464028775692,0.009632120840251446,0.009922139346599579
1761817933563885000,3.444885009765625,0.0003009371866937727,0.0033337450586259365,0.0068027786910533905
1761817933573813000,3.45481298828125,0.0008735168376006186,-0.0037646444980055094,0.006402771919965744
1761817933583741000,3.464740966796875,0.0009353021741844714,-0.009977000765502453,0.01079618837684393
1761817933593668900,3.4746689453125,-0.00019813918333966285,-0.013097692281007767,0.009248625487089157
1761817933603597800,3.484597900390625,-0.003724963404238224,-0.008138087578117847,0.011502192355692387
1761817933613525800,3.49452587890625,-0.004941495135426521,-0.005587045568972826,0.013596502132713795
1761817933623454000,3.504453857421875,0.00014141385327093303,-0.0020325244404375553,0.011599930934607983
1761817933633382000,3.5143818359375,-0.00008628641808172688,0.00003062635369133204,0.015139537863433361
1761817933643309800,3.524309814453125,0.001136637176387012,0.008066448383033276,0.011489409022033215
1761817933653237800,3.53423779296875,0.00040080572944134474,0.011385812424123287,0.014435132034122944
1761817933663166700,3.544166748046875,0.0002609897928778082,0.013881727121770382,0.012234828434884548
1761817933673095000,3.554094970703125,-0.002282062778249383,0.012953349389135838,0.010163421742618084
1761817933683022800,3.56402294921875,0.0012961605098098516,0.016589628532528877,0.006762298755347729
1761817933692951000,3.573950927734375,-0.0005243764026090503,0.01185080036520958,0.006395048461854458
1761817933702879000,3.58387890625,-0.0020626182667911053,0.008409730158746243,0.006780674215406179
1761817933712807000,3.593806884765625,-0.001511343871243298,0.0033718282356858253,0.006922620814293623
1761817933722734800,3.60373486328125,-0.0005310343112796545,-0.0007699198904447258,0.007642739452421665
1761817933732663800,3.613663818359375,0.0009592706337571144,-0.00421258807182312,0.010840130969882011
1761817933742591700,3.623591796875,-0.0008096009842120111,-0.007851531729102135,0.009375392459332943
1761817933752520000,3.63352001953125,-0.0007331682136282325,-0.009533584117889404,0.014824219979345798
1761817933762448000,3.64344775390625,-0.0007773766992613673,-0.010327472351491451,0.0153150400146842
1761817933772375800,3.653375732421875,0.0007004113867878914,-0.010584733448922634,0.014796788804233074
1761817933782303700,3.6633037109375,-0.0016415724530816078,-0.008707737550139427,0.012803945690393448
1761817933792231700,3.673231689453125,0.001035436987876892,-0.00800226628780365,0.00820946041494608
1761817933802161000,3.683160888671875,-0.0016434367280453444,-0.0035020567011088133,0.007230216171592474
1761817933812089000,3.693089111328125,-0.0013137373607605696,-0.0017600831342861056,0.0014849785948172212
1761817933822017000,3.70301708984375,-0.0009837717516347766,0.0015694007743149996,0.0032376048620790243
1761817933831945000,3.712945068359375,0.0007131945458240807,0.006219279952347279,0.005398760084062815
1761817933841873000,3.722872802734375,0.001722798915579915,0.010461961850523949,0.005467736162245274
1761817933851800800,3.73280078125,-0.000857005245052278,0.015212242491543293,0.00977460015565157
1761817933861730600,3.74273046875,0.0005289037944748998,0.01684342883527279,0.007991613820195198
1761817933871658500,3.752658447265625,-0.0036242958158254623,0.017347831279039383,0.012344017624855042
1761817933881586400,3.76258642578125,0.0017606157343834639,0.01581544801592827,0.011086739599704742
1761817933891514600,3.7725146484375,0.0012231898726895452,0.008757805451750755,0.011347196996212006
1761817933901442600,3.782442626953125,0.0034344124142080545,0.0035582494456321,0.008255266584455967
1761817933911370500,3.79237060546875,-0.0006194512825459242,0.0003028014034498483,0.0038368161767721176
1761817933921298400,3.80229833984375,-0.0016192019684240222,-0.008597482927143574,0.005889047868549824
1761817933931227400,3.812227294921875,-0.0011448930017650127,-0.010283263400197029,0.004459995776414871
1761817933941155300,3.8221552734375,-0.0018676748732104897,-0.011457451619207859,0.006060289219021797
1761817933951083500,3.83208349609375,0.0003222425002604723,-0.008530903607606888,0.008333830162882805
1761817933961011700,3.84201171875,0.00016698020044714212,-0.006772951222956181,0.010703776963055134
1761817933970939600,3.851939697265625,0.0006852313526906073,-0.004317250568419695,0.012562130577862263
1761817933980867600,3.86186767578125,-0.0015646071406081319,0.00035233621019870043,0.013497699052095413
1761817933990795500,3.87179541015625,-0.001056476030498743,-0.0010833739070221782,0.011468104086816311
1761817934000724500,3.881724365234375,0.0013875069562345743,-0.0021065603941679,0.011809787712991238
1761817934010652400,3.89165234375,-0.0007858988246880472,0,0.004905542824417353
1761817934020580600,3.90158056640625,0.0007504787645302713,-0.0004492752777878195,0.00752103328704834
1761817934030508500,3.911508544921875,0.0018586200894787908,0.0009068063227459788,0.006449110805988312
1761817934040436500,3.9214365234375,0.0008681904873810709,0.008097341284155846,0.008704009465873241
1761817934050364400,3.931364501953125,-0.0006559365428984165,0.008820655755698681,0.009972739033401012
1761817934060293400,3.94129345703125,-0.0026913906913250685,0.013093964196741581,0.01435124222189188
1761817934070221300,3.95122119140625,-0.0008844357798807323,0.016510000452399254,0.014824219979345798
1761817934080149800,3.961149658203125,0.0014026869321241975,0.019038937985897064,0.014965900219976902
1761817934090077700,3.97107763671875,0.0008615325787104666,0.013321131467819214,0.015988286584615707
1761817934100005600,3.981005615234375,0.0002801645314320922,0.012245480902493,0.01272777933627367
1761817934109933600,3.99093359375,-0.0011230550007894635,0.008324774913489819,0.006887467112392187
1761817934119861500,4.000861572265625,-0.00011078749957960099,0.001505484920926392,0.0032948628067970276
1761817934129790500,4.01079052734375,0.0001054611784638837,-0.004086087923496962,0.0004918858758173883
1761817934139718700,4.02071875,0.0013869742397218943,-0.007531685754656792,0.0008913599886000156
1761817934149646600,4.030646484375,-0.0036972665693610907,-0.010920291766524315,0.00484162662178278
1761817934159574500,4.040574462890625,-0.0010434264549985528,-0.009816411882638931,0.00794181227684021
1761817934169502500,4.05050244140625,-0.001303351018577814,-0.006077866069972515,0.014297978952527046
1761817934179430400,4.060430419921875,0.00010599380766507238,-0.004447478801012039,0.019474098458886147
1761817934189358600,4.070358642578125,-0.0007233145297504961,-0.0021728731226176023,0.02027091756463051
1761817934199287600,4.08028759765625,-0.0012966931099072099,-0.001978995045647025,0.01558295451104641
1761817934209215700,4.0902158203125,0.003912716172635555,-0.0010551444720476866,0.010381801053881645
1761817934219143700,4.100143798828125,0.0019291938515380025,-0.0024857944808900356,0.0057042245753109455
1761817934229071600,4.110071533203125,0.0008889631717465818,-0.00007430219557136297,0.0018407768802717328
1761817934238999600,4.11999951171875,0.0007680556736886501,0.0041404166258871555,0.0008524778531864285
1761817934248927500,4.129927490234375,-0.0023401195649057627,0.00902465358376503,-0.004211523104459047
1761817934258856400,4.1398564453125,-0.0013707289472222328,0.008372179232537746,0.0008655273704789579
1761817934268784600,4.14978466796875,-0.0036490634083747864,0.016882576048374176,0.006580670829862356
1761817934278712600,4.159712646484375,-0.0015046859625726938,0.014067349024116993,0.008364190347492695
1761817934288640500,4.169640625,-0.00555215822532773,0.015238607302308083,0.01341673918068409
1761817934298568400,4.179568359375,-0.004349474795162678,0.010665427893400192,0.015421033836901188
1761817934308496400,4.189496337890625,-0.0032285500783473253,0.008590025827288628,0.013903564773499966
1761817934318424600,4.199424560546875,-0.0037353497464209795,0.0062421830371022224,0.01369424071162939
1761817934328353500,4.209353515625,-0.005307413637638092,0.002650644164532423,0.008766327053308487
1761817934338281700,4.21928173828125,-0.004092479590326548,-0.0016082830261439085,0.002891926560550928
1761817934348209700,4.229209716796875,-0.000050866376113845035,-0.007981760427355766,-0.0005091963685117662
1761817934358137600,4.2391376953125,-0.0009331716573797166,-0.01531956810504198,-0.004435494542121887
1761817934368065500,4.2490654296875,-0.003962250892072916,-0.011432684026658535,0.0005289037944748998
1761817934377993500,4.258993408203125,-0.005633384454995394,-0.013251623138785362,0.003704457078129053
1761817934387921700,4.268921630859375,-0.002674612682312727,-0.007635815534740686,0.009162605740129948
1761817934397850600,4.2788505859375,-0.00017656758427619934,-0.0014367754338309169,0.014462828636169434
1761817934407778600,4.288778564453125,0.002150236163288355,0.0032261533197015524,0.013155749067664146
1761817934417706500,4.29870654296875,0.0033894050866365433,0.0028565065003931522,0.012033493258059025
1761817934427634400,4.308634521484375,0.0023489079903811216,-0.00009427589975530282,0.005456816870719194
1761817934437562400,4.318562255859375,-0.0018524948973208666,-0.003233876544982195,-0.0011768508702516556
1761817934447490600,4.328490478515625,-0.002386725042015314,-0.008278968743979931,-0.001222657272592187
1761817934457418500,4.33841845703125,-0.002541188383474946,-0.005979329347610474,0.0002069276088150218
1761817934467347700,4.34834765625,-0.0027180220931768417,-0.0036104475148022175,0.007198524195700884
1761817934477275600,4.358275634765625,0.00019201391842216253,-0.002522812457755208,0.008066182024776936
1761817934487203600,4.36820361328125,-0.0011345066595822573,-0.002805906580761075,0.009355684742331505
1761817934497131500,4.378131591796875,-0.002657302189618349,0.002651443239301443,0.01299569383263588
1761817934507059500,4.3880595703125,-0.0030162963084876537,-0.0004617921367753297,0.010400709696114063
1761817934516987600,4.397987548828125,-0.0033244239166378975,0.00785366166383028,0.013572001829743385
1761817934526915600,4.40791552734375,-0.00490234699100256,0.01581651344895363,0.013880928047001362
1761817934536844500,4.417844482421875,0.0008466189028695226,0.01534912921488285,0.009697634726762772
1761817934546772500,4.4277724609375,0.000483363721286878,0.021098893135786057,0.011511513963341713
1761817934556700400,4.437700439453125,-0.0011797803454101086,0.021351894363760948,0.008384163491427898
1761817934566628400,4.44762841796875,-0.00035180358099751174,0.014314756728708744,0.004878911189734936
1761817934576556500,4.457556640625,-0.0037145770620554686,0.011860387399792671,0.007665643002837896
1761817934586484500,4.467484375,-0.0007648598402738571,0.0022972426377236843,0.00965502392500639
1761817934596413700,4.47741357421875,0.001386441639624536,-0.001395496423356235,0.012576245702803135
1761817934606341600,4.487341552734375,0.0002695118892006576,-0.008196943439543247,0.012487029656767845
1761817934616269600,4.49726953125,-0.0020927118603140116,-0.017314275726675987,0.013687316328287125
1761817934626197500,4.507197509765625,-0.0033457293175160885,-0.019880497828125954,0.012426575645804405
1761817934636125400,4.51712548828125,-0.0015576828736811876,-0.022220883518457413,0.011560515500605106
1761817934646053600,4.5270537109375,-0.004581702407449484,-0.0215351190418005,0.011536546982824802
1761817934655981600,4.536981689453125,-0.0005020058597438037,-0.01763571798801422,0.010992197319865227
1761817934665910500,4.54691064453125,-0.0024533038958907127,-0.009239304810762405,0.01133680995553732
1761817934675838500,4.55683837890625,0.0002495381922926754,-0.0056994310580194,0.007141266483813524
1761817934685766400,4.566766357421875,-0.002701244316995144,0.005093561951071024,0.014120345935225487
1761817934695694300,4.5766943359375,-0.0014836470363661647,0.013305419124662876,0.010186324827373028
1761817934705622500,4.58662255859375,-0.0007850998663343489,0.020445354282855988,0.009861685335636139
1761817934715550500,4.596550537109375,0.0024405207950621843,0.026339994743466377,0.009213205426931381
1761817934725478700,4.606478759765625,-0.0004601942200679332,0.0255128163844347,0.008143413811922073
1761817934735407600,4.61640771484375,-0.0017265273490920663,0.015844477340579033,0.007931692525744438
1761817934745335600,4.62633544921875,-0.0004756405542138964,0.009378055110573769,0.0062616243958473206
1761817934755263500,4.636263427734375,-0.0013752563390880823,0.006561229936778545,0.0054427022114396095
1761817934765191700,4.646191650390625,-0.0033393376506865025,-0.0009462211164645851,0.008383630774915218
1761817934775119600,4.65611962890625,0.0012546151410788298,-0.008182561956346035,0.008783637546002865
1761817934785047600,4.666047607421875,-0.0031731564085930586,-0.015868179500102997,0.008244880475103855
1761817934794975500,4.6759755859375,-0.000532632227987051,-0.01068273838609457,0.008676046505570412
1761817934804904400,4.685904541015625,-0.0009147958480753005,-0.01173628494143486,0.010819890536367893
1761817934814832400,4.695832275390625,0.0002822950773406774,-0.010692059062421322,0.010496849194169044
1761817934824760300,4.70576025390625,-0.004221110139042139,-0.009210276417434216,0.00896792858839035
1761817934834688500,4.7156884765625,0.00439075380563736,-0.00042583944741636515,0.004177967086434364
1761817934844616700,4.72561669921875,-0.000035420041967881843,0.00708747049793601,0.004829110112041235
1761817934854544600,4.735544677734375,0.0007741809240542352,0.004541488364338875,0.006845921743661165
1761817934864473000,4.74547314453125,-0.0005560680292546749,0.010328271426260471,0.005963882897049189
1761817934874402000,4.755402099609375,0.0010154632618650794,0.00962892547249794,0.006688262801617384
1761817934884330000,4.765330078125,0.00010759170982055366,0.010762632824480534,0.009242766536772251
1761817934894258000,4.7752578125,-0.000368847802747041,0.00726297264918685,0.008024903014302254
1761817934904186000,4.78518603515625,0.00009667274571256712,0.0054448326118290424,0.012072641402482986
1761817934914114300,4.7951142578125,-0.004079164005815983,0.004348675720393658,0.011769041419029236
1761817934924042200,4.805042236328125,-0.0017036241479218006,0.0003552656853571534,0.006683202926069498
1761817934933970200,4.81497021484375,0.0008050735923461616,-0.0011949603212997317,0.008874984458088875
1761817934943899100,4.824899169921875,-0.0018421085551381111,-0.0037004624027758837,0.005309810396283865
1761817934953827000,4.8348271484375,-0.001383778522722423,-0.0024503744207322598,0.0078544607385993
1761817934963755000,4.844755126953125,-0.0017587515758350492,-0.0014064153656363487,0.009321862831711769
1761817934973683200,4.85468310546875,0.0004993426846340299,-0.00022929816623218358,0.006452839355915785
1761817934983611100,4.864611083984375,-0.0010237190872430801,0.0018303906545042992,0.008057926781475544
1761817934993539000,4.8745390625,-0.0028330706991255283,0.004789695143699646,0.009694704785943031
1761817935003467000,4.884467041015625,-0.00130947632715106,0.00885074958205223,0.015411979518830776
1761817935013396000,4.89439599609375,-0.002460228279232979,0.007780158892273903,0.014183463528752327
1761817935023324000,4.904323974609375,0.00011930961773032323,0.004985703621059656,0.011417238041758537
1761817935033252400,4.91425244140625,-0.002397377509623766,0.007531419396400452,0.010471017099916935
1761817935043180300,4.92418017578125,0.0002564624010119587,0.0020743361674249172,0.006157494615763426
1761817935053108200,4.934108154296875,-0.0017630126094445586,0.0002663161139935255,0.0051710596308112144
1761817935063036200,4.9440361328125,-0.0011856392957270145,-0.00044821001938544214,0.005407548509538174
1761817935072964000,4.953964111328125,-0.0011648666113615036,-0.001930791768245399,0.002880475018173456
1761817935082893000,4.96389306640625,0.0012122709304094315,-0.001832521171309054,0.007269364316016436
1761817935092821200,4.9738212890625,0.0006807039608247578,-0.0006460828590206802,0.0078544607385993
1761817935102749200,4.983749267578125,0.0020548950415104628,0.0041529336012899876,0.012480637989938259
1761817935112677000,4.993677001953125,-0.0013526194961741567,0.006171875633299351,0.012359464541077614
1761817935122605000,5.00360498046875,-0.0025070998817682266,0.008799883536994457,0.015022092498838902
1761817935132533000,5.013532958984375,-0.0002788329729810357,0.009077384136617184,0.015283615328371525
1761817935142461200,5.023461181640625,-0.002642654813826084,0.007682953495532274,0.011811918579041958
1761817935152390000,5.033389892578125,-0.0027537085115909576,0.008388690650463104,0.009081912226974964
1761817935162318300,5.043318359375,0.0010391654213890433,0.0036509274505078793,0.0031292142812162638
1761817935172246300,5.053246337890625,-0.0017744642682373524,-0.002374740783125162,0.0014282532501965761
1761817935182174200,5.06317431640625,-0.00009640643111197278,0.003288205014541745,0.0014737932942807674
1761817935192102100,5.07310205078125,-0.0018695390317589045,0.0010290454374626279,0.002763828495517373
1761817935202030000,5.083030029296875,-0.0020991035271435976,0.0012977584265172482,0.0011675298446789384
1761817935211958300,5.092958251953125,-0.0005158542771823704,0.004834969062358141,0.0057739997282624245
1761817935221887200,5.10288720703125,0.0009648632840253413,0.0034288198221474886,0.005898102652281523
1761817935231815200,5.112815185546875,0.002341451123356819,0.004042412154376507,0.010009757243096828
1761817935241743000,5.1227431640625,0.001127582392655313,0.0011515507940202951,0.010326939634978771
1761817935251671000,5.132671142578125,0.0017739315517246723,0.0023073628544807434,0.01170485932379961
1761817935261599000,5.142598876953125,-0.0035475967451930046,0.0005904228310100734,0.014537131413817406
1761817935271527200,5.152527099609375,0.0032775523141026497,-0.00407463638111949,0.009970609098672867
1761817935281455000,5.162455078125,0.0006157228490337729,-0.00341603672131896,0.010358098894357681
1761817935291384300,5.17238427734375,-0.0016101471846923232,-0.00030599720776081085,0.005109008401632309
1761817935301312300,5.182312255859375,0.0015954998089000583,-0.0025632926262915134,0.0018413095967844129
1761817935311240200,5.192240234375,0.00033342777169309556,-0.002377403900027275,-0.002123604528605938
1761817935321168100,5.202168212890625,-0.0018269284628331661,-0.0007504787645302713,-0.0025933862198144197
1761817935331096000,5.212095947265625,-0.001678057829849422,-0.00014860439114272594,0.0003430151555221528
1761817935341024300,5.222024169921875,-0.0033449302427470684,0.001597363967448473,0.0026703516487032175
1761817935350952200,5.2319521484375,-0.0013840447645634413,0.0033577135764062405,0.0062879896722733974
1761817935360880000,5.241880126953125,-0.0005062668933533132,0.0050687943585217,0.013049488887190819
1761817935370809000,5.25180908203125,0.0022301310673356056,0.005360410548746586,0.015568839386105537
1761817935380737000,5.261737060546875,0.0016215987270697951,0.0058067562058568,0.011995144188404083
1761817935390665000,5.2716650390625,0.0011259844759479165,0.003748931922018528,0.010334396734833717
1761817935400593200,5.28159326171875,-0.0008146609761752188,-0.0018844527658075094,0.003863980295136571
1761817935410521000,5.29152099609375,-0.00027856664382852614,-0.00555056007578969,0.002895122393965721
1761817935420449000,5.301448974609375,-0.0018692727899178863,-0.006099171470850706,0.0023318638559430838
1761817935430378200,5.311378173828125,0.0009161274065263569,-0.006845921743661165,0.0034117756877094507
1761817935440306200,5.32130615234375,-0.0014567491598427296,-0.00899855513125658,0.005939115304499865
1761817935450234000,5.331234130859375,0.00004926848123432137,-0.0011859056539833546,0.006917827297002077
1761817935460162000,5.341162109375,-0.0012144014472141862,0.0037089844699949026,0.011154383420944214
1761817935470090200,5.35109033203125,0.00048416267964057624,0.010071542114019394,0.013669739477336407
1761817935480018200,5.36101806640625,0.0034000577870756388,0.010614294558763504,0.009008408524096012
1761817935489946000,5.370946044921875,0.0009747169679030776,0.010215353220701218,0.005622731987386942
1761817935499874000,5.3808740234375,0.0014863101532682776,0.008901881985366344,0.0057159424759447575
1761817935509803000,5.390802978515625,-0.0009941579774022102,0.010059557855129242,0.00598572101444006
1761817935519731000,5.40073095703125,-0.0005065332516096532,0.007872570306062698,0.006829143967479467
1761817935529659100,5.4106591796875,-0.0014514228096231818,0.004024302586913109,0.009342901408672333
1761817935539587000,5.420587158203125,-0.0006122607155703008,-0.002695119008421898,0.009289638139307499
1761817935549515000,5.430514892578125,-0.001454618526622653,-0.007749532349407673,0.010604174807667732
1761817935559443200,5.440443115234375,-0.0002031991898547858,-0.007538610137999058,0.011178085580468178
1761817935569371100,5.45037109375,-0.0024823325220495462,-0.006295446306467056,0.012552010826766491
1761817935579300000,5.460300048828125,-0.004688761197030544,-0.006097307428717613,0.014153902418911457
1761817935589228000,5.47022802734375,-0.002871420234441757,-0.001546763931401074,0.013426326215267181
1761817935599156200,5.48015625,-0.0013677994720637798,0.0028450549580156803,0.011054781265556812
1761817935609084200,5.490084228515625,0.000008255799002654385,0.002665025182068348,0.008298410102725029
1761817935619012000,5.50001220703125,-0.001058872789144516,0.004775580484420061,0.005850698333233595
1761817935628940000,5.50993994140625,-0.0005230448441579938,0.004553472623229027,0.007256847806274891
1761817935638868000,5.519867919921875,0.00035739620216190815,0.0034786208998411894,0.00888084340840578
1761817935648797000,5.529796875,-0.0016218650853261352,0.00681263254955411,0.008481635712087154
1761817935658725000,5.53972509765625,-0.0030069751664996147,0.006324741058051586,0.011983159929513931
1761817935668653000,5.549653076171875,-0.00004474110755836591,0.007427023723721504,0.013685451820492744
1761817935678581200,5.559581298828125,-0.001439971150830388,0.0028935244772583246,0.013855361379683018
1761817935688509200,5.56950927734375,-0.002953445538878441,0.003861050819978118,0.01576484739780426
1761817935698437000,5.57943701171875,-0.0020714066922664642,-0.002034655073657632,0.01378398947417736
1761817935708365300,5.589365234375,-0.0016421051695942879,-0.00018642126815393567,0.014240454882383347
1761817935718294000,5.5992939453125,-0.0020967067684978247,-0.0007970841252245009,0.01040656864643097
1761817935728222200,5.60922216796875,-0.002496979897841811,-0.0007424892974086106,0.010439325124025345
1761817935738150100,5.619150146484375,-0.00004660531703848392,-0.0015302523970603943,0.007698932196944952
1761817935748078000,5.629078125,0.0033984598703682423,-0.003221093211323023,0.007072556763887405
1761817935758006000,5.639006103515625,0.0010343717876821756,-0.003763046581298113,0.008419050835072994
1761817935767934200,5.648934326171875,-0.0019241338595747948,-0.005347893573343754,0.005471464246511459
1761817935777862100,5.658862060546875,-0.0003808320325333625,-0.005381449591368437,0.006083725020289421
1761817935787791000,5.668791015625,-0.00123783724848181,-0.0011555455857887864,0.008741559460759163
1761817935797719300,5.67871923828125,-0.0010279801208525896,0.0003683151735458523,0.011517372913658619
1761817935807647200,5.688647216796875,-0.0007451524725183845,0.002807770622894168,0.011926966719329357
1761817935817575200,5.6985751953125,0.0009749832679517567,0.004415787290781736,0.010134926065802574
1761817935827503000,5.708503173828125,-0.0029736857395619154,0.004718588665127754,0.010223343037068844
1761817935837431300,5.718431396484375,-0.0011914982460439205,-0.0015102786710485816,0.010999654419720173
1761817935847359200,5.728359130859375,-0.003275954397395253,-0.008469385094940662,0.008539692498743534
1761817935857286700,5.73828662109375,0.00001704423084447626,-0.014132330194115639,0.004188087303191423
1761817935867216000,5.7482158203125,0.0024580976460129023,-0.026039855554699898,0.0011683288030326366
1761817935877143800,5.758143798828125,0.0020453077740967274,-0.028139226138591766,-0.00039254993316717446
1761817935887071700,5.76807177734375,-0.002432531211525202,-0.037345774471759796,-0.0009046758059412241
1761817935897000000,5.778,-0.0037499971222132444,-0.03942250832915306,0.00010066748654935509
1761817935906927900,5.787927978515625,-0.0055028898641467094,-0.03699477016925812,0.0029939257074147463
1761817935916855800,5.797855712890625,-0.004172907210886478,-0.035591017454862595,0.009786584414541721
1761817935926783700,5.80778369140625,-0.0047026099637150764,-0.027758659794926643,0.012944560497999191
1761817935936712700,5.817712646484375,-0.00227886694483459,-0.018185662105679512,0.011514176614582539
1761817935946640600,5.827640625,-0.0007456850726157427,-0.010405236855149269,0.013199425302445889
1761817935956568800,5.83756884765625,0.0004498079069890082,-0.007435545790940523,0.009431318379938602
1761817935966496800,5.847496826171875,-0.00007483482477255166,-0.002016545506194234,0.00580862071365118
1761817935976424700,5.8574248046875,-0.0009784454014152288,0.00006684534309897572,0.0033683660440146923
1761817935986352600,5.8673525390625,-0.004776113200932741,-0.000988032785244286,0.004257329273968935
1761817935996280600,5.877280517578125,-0.000990962260402739,-0.001532382913865149,0.00506959343329072
1761817936006209800,5.887209716796875,-0.00008868326403899118,0.0021544971968978643,0.0085426215082407
1761817936016137700,5.8971376953125,-0.0011973571963608265,0.0010072075529024005,0.011438276618719101
1761817936026066000,5.90706591796875,-0.0012183962389826775,0.0059907808899879456,0.014276674017310143
1761817936035993900,5.916993896484375,-0.0027230822015553713,0.006275206338614225,0.016469255089759827
1761817936045921800,5.926921875,0.000966993800830096,0.011186608113348484,0.011178085580468178
1761817936055849700,5.936849609375,-0.0006157228490337729,0.011012704111635685,0.01441382709890604
1761817936065777700,5.946777587890625,-0.0012745888670906425,0.012484366074204445,0.00936181005090475
1761817936075705900,5.956705810546875,-0.00375985074788332,0.016652479767799377,0.007616374175995588
1761817936085634800,5.966634765625,0.0007329019135795534,0.017525997012853622,0.003952397499233484
1761817936095562800,5.976562744140625,-0.0005171858938410878,0.017344102263450623,0.005537244491279125
1761817936105490700,5.98649072265625,-0.0007962851668708026,0.014535000547766685,0.007142597809433937
1761817936115418600,5.996418701171875,0.0011060107499361038,0.013361078687012196,0.009494967758655548
1761817936125346800,6.006346923828125,-0.001535312389023602,0.010078732855618,0.012982910498976707
1761817936135275000,6.01627490234375,-0.0018421085551381111,0.006376140285283327,0.010822021402418613
1761817936145203000,6.026202880859375,-0.0032061797101050615,0.0022533005103468895,0.018311362713575363
1761817936155132000,6.0361318359375,-0.0020503676496446133,0.0006325007416307926,0.015186143107712269
1761817936165059800,6.046059814453125,-0.0032373385038226843,-0.0005033374181948602,0.01335548609495163
1761817936174987800,6.05598779296875,-0.00046685212873853743,-0.0005225121858529747,0.009820139966905117
1761817936184915700,6.065915771484375,-0.0002956108655780554,-0.0030032468494027853,0.006901049055159092
1761817936194843600,6.07584375,-0.0024828650057315826,-0.002951048780232668,0.0060091568157076836
1761817936204771800,6.085771728515625,-0.000928377965465188,-0.0035481294617056847,0.0059601543471217155
1761817936214699800,6.09569970703125,-0.0016636766958981752,0.00022423815971706063,0.006894125137478113
1761817936224627700,6.105627685546875,0.0010002832859754562,0.003774764481931925,0.008732505142688751
1761817936234556700,6.115556640625,0.0009885653853416443,0.006411027628928423,0.007481884676963091
1761817936244484900,6.12548486328125,-0.0001893507578643039,0.005029646214097738,0.012207663618028164
1761817936254412800,6.135412841796875,-0.0001233043585671112,0.006567088887095451,0.01082548312842846
1761817936264341000,6.145341064453125,-0.0007590008899569511,0.009622001089155674,0.01261086668819189
1761817936274269000,6.15526904296875,-0.003311907174065709,0.00950855016708374,0.01011069118976593
1761817936284196900,6.16519677734375,-0.0013688647886738181,0.008855010382831097,0.0086590014398098
1761817936294124800,6.175124755859375,-0.0006498112925328314,0.01155891828238964,0.008036088198423386
1761817936304053800,6.1850537109375,0.002375007141381502,0.013352557085454464,0.01095677725970745
1761817936313981700,6.194981689453125,-0.00018375810759607702,0.009590841829776764,0.007565508130937815
1761817936323909600,6.20490966796875,0.0007379619055427611,0.010853713378310204,0.00606508320197463
1761817936333837800,6.214837890625,-0.00020399813365656883,0.008762066252529621,0.006451241206377745
1761817936343765800,6.224765869140625,-0.0019891150295734406,0.011659053154289722,0.007997472770512104
1761817936353693700,6.234693603515625,-0.0030839405953884125,0.008191350847482681,0.007458981592208147
1761817936363621600,6.24462158203125,-0.0037641117814928293,0.01245240867137909,0.005291967187076807
1761817936373549800,6.2545498046875,0.000437291048001498,0.009118396788835526,0.010522149503231049
1761817936383478800,6.264478759765625,0.000023435817638528533,0.009074188768863678,0.004785700235515833
1761817936393407000,6.274406982421875,-0.0006056028068996966,0.002007757080718875,0.0060264673084020615
1761817936403335000,6.2843349609375,-0.002541188383474946,0.002668221015483141,0.003093794221058488
1761817936413262800,6.294262939453125,-0.0014713965356349945,0.0006591323763132095,0.005028580781072378
1761817936423190800,6.304190673828125,0.0024857944808900356,0.0012628709664568305,0.007413707673549652
1761817936433118700,6.31411865234375,-0.002609098795801401,0.001118527608923614,0.009472331032156944
1761817936443047000,6.324046875,-0.0011749867117032409,0.004232561681419611,0.013039635494351387
1761817936452974800,6.333974853515625,-0.0016215987270697951,0.0029875340405851603,0.013423130847513676
1761817936462903800,6.34390380859375,-0.0009534116834402084,0.009817210957407951,0.010044111870229244
1761817936472831700,6.353831787109375,-0.00495054991915822,0.004714061506092548,0.009999637492001057
1761817936482759700,6.363759765625,0.0020535634830594063,0.004572647623717785,0.003206978552043438
1761817936492687600,6.3736875,0.0014748586108908057,0.0003038666909560561,-0.00152332813013345
1761817936502615800,6.38361572265625,-0.0009595369338057935,-0.004595550708472729,-0.001026115962304175
1761817936512543700,6.393543701171875,-0.0004964132094755769,-0.000740625080652535,-0.0006916229031048715
1761817936522472000,6.403471923828125,0.00006364954606397077,0.002368082758039236,0.005320729687809944
1761817936532399900,6.41339990234375,-0.0010450243717059493,0.0029672940727323294,0.011492605321109295
1761817936542328800,6.423328857421875,-0.0006862966110929847,0.0015166702214628458,0.012862801551818848
1761817936552256800,6.4332568359375,0.002590723102912307,0.005344964098185301,0.01375256385654211
1761817936562184700,6.443184814453125,-0.0009547432418912649,0.0001603222917765379,0.012003932148218155
1761817936572113000,6.45311279296875,-0.0018314558546990156,0.0007957525085657835,0.011964517645537853
1761817936582040800,6.463040771484375,-0.0033601103350520134,0.0025798040442168713,0.00803076196461916
1761817936591968800,6.47296875,-0.0012343751732259989,0.011100322008132935,0.009131979197263718
1761817936601896700,6.482896728515625,0.00018482338055036962,0.013771206140518188,0.01344496849924326
1761817936611825700,6.49282568359375,0.00024820660473778844,0.015046327374875546,0.00999138131737709
1761817936621753600,6.502753662109375,0.0022921827621757984,0.016586966812610626,0.011379687115550041
1761817936631681800,6.512681884765625,0.00010173275222769007,0.015988022089004517,0.009887252002954483
1761817936641609700,6.522609619140625,-0.0009558085002936423,0.01104279700666666,0.012557337060570717
1761817936651538000,6.532537841796875,-0.002100967802107334,0.006040848325937986,0.011946141719818115
1761817936661465900,6.5424658203125,-0.0009273127070628107,0.002034655073657632,0.014948323369026184
1761817936671393800,6.552393798828125,-0.0032019184436649084,-0.0060147494077682495,0.012539493851363659
1761817936681322000,6.562322021484375,-0.002272208919748664,-0.011504323221743107,0.014284662902355194
1761817936691250700,6.572250732421875,-0.0054821171797811985,-0.013433783315122128,0.011243066750466824
1761817936701179000,6.582178955078125,-0.001184574095532298,-0.01164333987981081,0.011717109940946102
1761817936711106800,6.59210693359375,-0.003050118451938033,-0.010006029158830643,0.014577078633010387
1761817936721034800,6.60203466796875,-0.004895422607660294,-0.007767109200358391,0.015266571193933487
1761817936730962700,6.611962646484375,0.0011984225129708648,-0.007794273551553488,0.014511564746499062
1761817936740890600,6.621890625,-0.0016916398890316486,-0.0025244103744626045,0.017161943018436432
1761817936750818800,6.63181884765625,-0.00024154871061909944,0.0044014062732458115,0.009079781360924244
1761817936760746800,6.641746826171875,0.001609614584594965,0.0032493227627128363,0.0070310113951563835
1761817936770676000,6.651676025390625,-0.0008711199625395238,0.004199272487312555,0.006251237820833921
1761817936780604000,6.66160400390625,-0.001894839107990265,0.00968591682612896,0.0062578958459198475
1761817936790531800,6.67153173828125,-0.00464641721919179,0.009816678240895271,0.004954278469085693
1761817936800459800,6.681459716796875,0.0002300971100339666,0.010356767103075981,0.012942164205014706
1761817936810388000,6.691387939453125,-0.00020266656065359712,0.008290953002870083,0.014485465362668037
1761817936820316000,6.70131591796875,0.002156361471861601,0.007893876172602177,0.016595488414168358
1761817936830243800,6.711243896484375,-0.0007153250626288354,0.0028732845094054937,0.020305804908275604
1761817936840172800,6.7211728515625,-0.0015520902816206217,0.001270327833481133,0.016025038436055183
1761817936850100700,6.731100830078125,-0.0008109325426630676,-0.005136172287166119,0.014489993453025818
1761817936860029200,6.741029296875,-0.0027507790364325047,-0.008563394658267498,0.003967311233282089
1761817936869957000,6.75095703125,-0.0019651465117931366,-0.007527424953877926,0.0023222763556987047
1761817936879885300,6.76088525390625,-0.0011635350529104471,-0.007241934072226286,-0.0011515507940202951
1761817936889813200,6.770813232421875,-0.0015030881622806191,-0.011359713971614838,-0.004032292403280735
1761817936899741200,6.7807412109375,-0.0018013621447607875,-0.005082643125206232,0.001892175991088152
1761817936909669000,6.790669189453125,-0.0001512675517005846,0.0006362291751429439,0.00762969022616744
1761817936919597000,6.80059716796875,-0.0005342300864867866,0.005126052536070347,0.012350409291684628
1761817936929526300,6.8105263671875,0.002457032445818186,0.011086206883192062,0.018735604360699654
1761817936939454200,6.8204541015625,0.003290868131443858,0.011536813341081142,0.018458370119333267
1761817936949382400,6.83038232421875,0.003081543603911996,0.008746353909373283,0.021031515672802925
1761817936959310300,6.840310302734375,0.0016263924771919847,0.004540157038718462,0.01883014664053917
1761817936969238300,6.85023828125,0.0012804478174075484,-0.001163268811069429,0.011175955645740032
1761817936979166200,6.860166259765625,-0.00029774141148664057,-0.0054943677969276905,0.008190818130970001
1761817936989094100,6.87009423828125,-0.005512743256986141,-0.00863370206207037,0.0033910030033439398
1761817936999022300,6.880022216796875,-0.00443842401728034,-0.009916280396282673,0.0009648632840253413
1761817937008951300,6.889951416015625,-0.001085504423826933,-0.00959616806358099,-0.00045912896166555583
1761817937018879200,6.899879150390625,-0.0007299724384211004,-0.0063798688352108,0.0023132218047976494
1761817937028807200,6.90980712890625,-0.0017699368763715029,-0.0027984497137367725,0.0076392777264118195
1761817937038735000,6.919735107421875,-0.0013353090034797788,-0.0015931029338389635,0.008653675206005573
1761817937048663000,6.9296630859375,-0.0018466358305886388,0.00341550400480628,0.014336062595248222
1761817937058591200,6.93959130859375,0.00007616640505148098,0.0052472264505922794,0.015037273056805134
1761817937068519400,6.94951953125,0.005434979218989611,0.009938384406268597,0.017736652866005898
1761817937078447400,6.959447265625,0.0031638352666050196,0.005706355441361666,0.017194699496030807
1761817937088376300,6.969376220703125,0.0001584580895723775,0.006206497084349394,0.014330470003187656
1761817937098304300,6.97930419921875,0.0003009371866937727,0.0002146507758880034,0.01320927869528532
1761817937108232200,6.989232177734375,-0.003133208956569433,-0.0021608888637274504,0.009638246148824692
1761817937118160100,6.99916015625,-0.0025334651581943035,-0.002013616031035781,0.009287774562835693
1761817937128088300,7.00908837890625,0.0008761800127103925,-0.0019294602097943425,0.007471232209354639
1761817937138016300,7.019016357421875,0.0001555285998620093,0.0009302421822212636,0.0060176788829267025
1761817937147944200,7.028944091796875,0.0006146575906313956,0.0013789847726002336,0.005167331546545029
1761817937157872000,7.0388720703125,-0.0011579424608498812,0.002901514060795307,0.006455502472817898
1761817937167801000,7.048801025390625,-0.0015222628135234118,0.009398561902344227,0.00932372733950615
1761817937177729000,7.05872900390625,0.0007099987124092877,0.007367368787527084,0.008444084785878658
1761817937187657500,7.068657470703125,0.0017142767319455743,0.009814014658331871,0.0139594916254282
1761817937197585400,7.07858544921875,-0.0011984225129708648,0.0076869479380548,0.014667359180748463
1761817937207513300,7.088513427734375,0.0008958873804658651,0.006977215874940157,0.014094780199229717
1761817937217441300,7.098441162109375,0.0008396946941502392,-0.00037044569035060704,0.013037770986557007
1761817937227369200,7.108369140625,-0.0013670006301254034,-0.008639028295874596,0.01179514080286026
1761817937237297400,7.11829736328125,-0.002436526119709015,-0.015243668109178543,0.012316853739321232
1761817937247226000,7.12822607421875,-0.0021606225054711103,-0.02058224007487297,0.008580971509218216
1761817937257154300,7.138154296875,-0.0012253203894942999,-0.02058543637394905,0.005860285833477974
1761817937267082200,7.148082275390625,-0.0015536881983280182,-0.009044094942510128,0.007284544408321381
1761817937277010200,7.15801025390625,-0.0003981425834354013,0.00038775624125264585,0.0075910743325948715
1761817937286938000,7.167938232421875,-0.0006974819116294384,0.00926140882074833,0.009139702655375004
1761817937296866300,7.1778662109375,-0.0013459615875035524,0.015813317149877548,0.008418784476816654
1761817937306794200,7.187794189453125,-0.0004239752306602895,0.02273540571331978,0.007953796535730362
1761817937316722200,7.19772216796875,0.0013198626693338156,0.025366077199578285,0.006815827917307615
1761817937326650000,7.207650146484375,-0.0029768813401460648,0.023679763078689575,0.0051963599398732185
1761817937336579300,7.217579345703125,-0.0002306297537870705,0.02490508370101452,0.007413707673549652
1761817937346507300,7.22750732421875,0.0006649913266301155,0.012260926887392998,0.004848018288612366
1761817937356435200,7.237435302734375,-0.00010253170330543071,0.0044259075075387955,0.005003546830266714
1761817937366363400,7.24736328125,-0.0030533140525221825,-0.006096774712204933,0.009615609422326088
1761817937376291300,7.257291259765625,-0.0035872780717909336,-0.017554758116602898,0.006095442920923233
1761817937386219300,7.26721923828125,-0.001544100814498961,-0.02436739206314087,0.007470433134585619
1761817937396147200,7.277147216796875,-0.0001448759576305747,-0.025851303711533546,0.006597715429961681
1761817937406075100,7.2870751953125,-0.000687361869495362,-0.02442757785320282,0.006006759591400623
1761817937416004000,7.297004150390625,-0.0015939018921926618,-0.021629927679896355,0.010582603514194489
1761817937425932300,7.306932373046875,-0.0021052288357168436,-0.014639928936958313,0.012177304364740849
1761817937435860200,7.316860107421875,-0.003719370812177658,-0.0006900250446051359,0.01116530317813158
1761817937445788200,7.3267880859375,0.0014498248929157853,0.009446232579648495,0.011873437091708183
1761817937455716000,7.336716064453125,0.0005717806634493172,0.015267635695636272,0.0073263561353087425
1761817937465644300,7.346644287109375,0.0038120488170534372,0.020024575293064117,0.003431216813623905
1761817937475572200,7.356572265625,0.002490854589268565,0.019417107105255127,-0.0016421051695942879
1761817937485500400,7.36650048828125,0.0010058758780360222,0.016144614666700363,-0.00737189594656229
1761817937495429400,7.376429443359375,-0.0022277343086898327,0.014073474332690239,-0.0013310478534549475
1761817937505357300,7.386357421875,-0.0014655375853180885,0.010323477908968925,0.006477074231952429
1761817937515285200,7.39628515625,0.0009861685102805495,0.0041542649269104,0.008519718423485756
1761817937525213200,7.406213134765625,0.0014980280539020896,-0.0011081412667408586,0.010439857840538025
1761817937535141000,7.41614111328125,0.001984054921194911,-0.0075820195488631725,0.006299174856394529
1761817937545069300,7.4260693359375,0.0012101404136046767,-0.014519021846354008,0.009759419597685337
1761817937554997200,7.435997314453125,-0.0018583538476377726,-0.01570546068251133,0.007267233915627003
1761817937564925200,7.44592529296875,-0.0012032161466777325,-0.012152536772191525,0.011385812424123287
1761817937574853000,7.45585302734375,-0.0008652610122226179,-0.0068094367161393166,0.015095329843461514
1761817937584782300,7.4657822265625,0.0010333064710721374,-0.005997438915073872,0.018011758103966713
1761817937594710300,7.475710205078125,-0.0008820389630272985,0.0033830134198069572,0.018629077821969986
1761817937604638500,7.485638427734375,0.0007185208378359675,0.007456584833562374,0.012958941981196404
1761817937614566400,7.49556640625,-0.0002234392159152776,0.005782788153737783,0.014436730183660984
1761817937624494300,7.505494384765625,0.0001400822657160461,0.00926353968679905,0.012592224404215813
1761817937634422300,7.51542236328125,-0.0031007183715701103,0.00839961040765047,0.008803877979516983
1761817937644350200,7.52535009765625,0.0008247809601016343,0.008416654542088509,0.006018743850290775
1761817937654278400,7.5352783203125,-0.000767523015383631,0.010003365576267242,-0.000005858954409632133
1761817937664206300,7.545206298828125,-0.0010538127971813083,0.010692858137190342,0.0034671693574637175
1761817937674135300,7.55513525390625,-0.00005725796290789731,0.009914415888488293,2.6631610694494157e-7
1761817937684063200,7.565063232421875,-0.002083390951156616,0.008836900815367699,0.005826197564601898
1761817937693991200,7.5749912109375,-0.003704723436385393,0.008799617178738117,0.011436413042247295
1761817937703919000,7.584919189453125,-0.0006823018775321543,0.009969010949134827,0.016979249194264412
1761817937713847000,7.594846923828125,0.00222027744166553,0.0108284130692482,0.019952403381466866
1761817937723775200,7.604775146484375,0.002892459277063608,0.00785499345511198,0.020440027117729187
1761817937733703200,7.614703125,0.0007491472060792148,0.0015672702575102448,0.019420303404331207
1761817937743631400,7.62463134765625,-0.00034647725988179445,0.0001603222917765379,0.017165403813123703
1761817937753559300,7.634559326171875,-0.003326288191601634,-0.008563128300011158,0.011798868887126446
1761817937763488300,7.64448828125,-0.002525475574657321,-0.012535499408841133,0.006341785658150911
1761817937773416200,7.654416259765625,0.0007994809420779347,-0.019245067611336708,0.004766525700688362
1761817937783344400,7.664344482421875,0.0000977380113909021,-0.025356754660606384,0.0018442390719428658
1761817937793272300,7.674272216796875,-0.00042450788896530867,-0.02039475366473198,0.004092213232070208
1761817937803200300,7.6842001953125,-0.001199221471324563,-0.016530239954590797,0.009314672090113163
1761817937813128200,7.694128173828125,-0.001603755634278059,-0.007831291295588017,0.014162157662212849
1761817937823056100,7.70405615234375,0.00227886694483459,0.00018216021999251097,0.015725966542959213
1761817937832984300,7.713984375,-0.002400839701294899,0.005598763469606638,0.016561400145292282
1761817937842912300,7.723912353515625,0.0009504822082817554,0.007821970619261265,0.011671303771436214
1761817937852841200,7.73384130859375,-0.0010128001449629664,0.011070228181779385,0.004420847166329622
1761817937862768600,7.7437685546875,-0.000254331884207204,0.008657404221594334,0.0014554174849763513
1761817937872696600,7.753696533203125,-0.003376355627551675,0.010713363997638226,-0.00013528858835343271
1761817937882624500,7.76362451171875,-0.00307675008662045,0.013610350899398327,0.0040943436324596405
1761817937892552700,7.773552734375,0.0032290827948600054,0.009904828853905201,0.004306331276893616
1761817937902480600,7.783480712890625,-0.0006476807757280767,0.006668022833764553,0.006871222052723169
1761817937912408600,7.79340869140625,0.002948119305074215,0.004989698529243469,0.010349310003221035
1761817937922336500,7.80333642578125,0.00037683729897253215,0.004042412154376507,0.013797570951282978
1761817937932264400,7.813264404296875,0.002112685702741146,-0.004854143597185612,0.013851899653673172
1761817937942193400,7.823193359375,-0.0009914948605000973,-0.006145243998616934,0.010034524835646152
1761817937952121900,7.833121826171875,-0.002070607617497444,-0.004559597931802273,0.012235094793140888
1761817937962049800,7.8430498046875,-0.004003263544291258,-0.007240069564431906,0.008971656672656536
1761817937971977700,7.852977783203125,-0.002210423583164811,-0.007871238514780998,0.006797718815505505
1761817937981905700,7.86290576171875,-0.002645051572471857,-0.003578489413484931,0.010713097639381886
1761817937991833600,7.87283349609375,-0.0012391688069328666,0.003498861100524664,0.009466205723583698
1761817938001761800,7.88276171875,-0.002716158051043749,0.002484196564182639,0.011783422902226448
1761817938011689700,7.892689697265625,-0.001835716888308525,0.005164402071386576,0.010409231297671795
1761817938021617700,7.90261767578125,-0.004524710588157177,0.010328804142773151,0.010410829447209835
1761817938031546600,7.912546630859375,-0.0008322378271259367,0.007637146860361099,0.011976235546171665
1761817938041474600,7.922474609375,-0.0026871294248849154,0.007011037785559893,0.009273393079638481
1761817938051402500,7.932402587890625,-0.0007368966471403837,0.004428304266184568,0.00923184771090746
1761817938061330400,7.942330322265625,-0.003450657706707716,-0.0036634444259107113,0.008459797129034996
1761817938071258600,7.952258544921875,-0.0011792477453127503,-0.0041425470262765884,0.007081345189362764
1761817938081186600,7.9621865234375,-0.00108257494866848,-0.008564193733036518,0.012556005269289017
1761817938091114500,7.972114501953125,0.001406947965733707,-0.012614062055945396,0.009189769625663757
1761817938101042400,7.98204248046875,-0.0005478122038766742,-0.007757788058370352,0.01347639411687851
1761817938110970600,7.991970703125,-0.0021853898651897907,-0.009109608829021454,0.012249208986759186
1761817938120898800,8.00189892578125,-0.001094559207558632,-0.006433930713683367,0.012532569468021393
1761817938130827800,8.011827880859375,-0.004141215234994888,-0.0014034858904778957,0.00999244675040245
1761817938140755700,8.021755615234374,-0.00014753911818843335,-0.0007874967413954437,0.008857407607138157
1761817938150683600,8.03168359375,-0.0017963021527975798,0.004612328484654427,0.011656922288239002
1761817938160611600,8.041611572265625,0.0007390272221527994,0.0064927865751087666,0.005591573193669319
1761817938170539500,8.05153955078125,-0.0027121631428599358,0.009910954162478447,0.00532472413033247
1761817938180467700,8.0614677734375,-0.0015494271647185087,0.00424348097294569,0.008508799597620964
1761817938190395600,8.071395751953125,-0.0039854203350842,-0.0003478088474366814,0.008135158568620682
1761817938200323600,8.081323486328126,-0.0033366745337843895,-0.004306863993406296,0.01074186060577631
1761817938210251500,8.09125146484375,-0.00598518829792738,-0.012547217309474945,0.012351741082966328
1761817938220180500,8.101180419921874,-0.003882622579112649,-0.020961208269000053,0.016888169571757317
1761817938230108700,8.111108642578126,-0.0034059167373925447,-0.02719327062368393,0.017619740217924118
1761817938240036600,8.12103662109375,-0.0012711267918348312,-0.03632365167140961,0.01733637973666191
1761817938249964800,8.13096484375,-0.004591289907693863,-0.039739158004522324,0.013200757093727589
1761817938259892700,8.140892822265625,-0.0013406352372840047,-0.03856337070465088,0.009593239054083824
1761817938269820700,8.150820556640625,0.0003603257064241916,-0.032095085829496384,0.006849916651844978
1761817938279748600,8.16074853515625,0.0015877765836194158,-0.020184630528092384,0.0036160401068627834
1761817938289676500,8.170676513671875,-0.00033209618413820863,0.003585147438570857,0.005018726922571659
1761817938299604700,8.180604736328124,-0.00020133497309871018,0.018269551917910576,0.003376355627551675
1761817938309533700,8.19053369140625,-0.0016383767360821366,0.03021569363772869,0.0046149916015565395
1761817938319461600,8.200461669921875,0.0008378304773941636,0.04201296344399452,0.009909888729453087
1761817938329389600,8.2103896484375,0.00370072852820158,0.04207634553313255,0.003757720347493887
1761817938339317500,8.2203173828125,0.00202320353128016,0.04096847027540207,0.0005214469274505973
1761817938349245400,8.230245361328125,0.004307663068175316,0.02767876535654068,-0.002463157754391432
1761817938359173600,8.240173583984374,0.0034549187403172255,0.015992814674973488,-0.006901315413415432
1761817938369101600,8.2501015625,-0.0001257012045243755,0.0046269758604466915,-0.0030514500103890896
1761817938379029500,8.260029541015625,-0.0027920580469071865,-0.00498224189504981,0.0024517059791833162
1761817938388957700,8.269957763671876,0.0003664509567897767,-0.013590111397206783,0.009949303232133389
1761817938398886700,8.27988671875,0.0016820525052025914,-0.018986474722623825,0.013310212641954422
1761817938408814600,8.289814697265625,0.0007491472060792148,-0.019695406779646873,0.011512046679854393
1761817938418742800,8.29974267578125,0.0026754115242511034,-0.01774677261710167,0.009207080118358135
1761817938428670700,8.309670654296875,-0.0022423816844820976,-0.012476110830903053,0.008950884453952312
1761817938438598700,8.3195986328125,-0.0022919164039194584,-0.007740743923932314,0.0066637615673244
1761817938448526600,8.329526611328125,-0.0014900385867804289,0.003629622282460332,0.009464874863624573
1761817938458454500,8.33945458984375,-0.0009864348685368896,0.011206582188606262,0.009863549843430519
1761817938468382700,8.3493828125,0.0014865765115246177,0.01835344173014164,0.009364473633468151
1761817938478310700,8.359310546875,0.0018881811993196607,0.019629893824458122,0.007541006896644831
1761817938488239600,8.369239501953125,0.0005246427026577294,0.019002718850970268,0.0017651431262493134
1761817938498167600,8.37916748046875,0.001264468883164227,0.014770956709980965,0.006393184419721365
1761817938508095500,8.389095458984375,-0.0015728629659861326,0.008738097734749317,0.007831557653844357
1761817938518023700,8.399023681640625,-0.004729773849248886,0.0032530513126403093,0.008194014430046082
1761817938527951600,8.40895166015625,-0.0011377023765817285,-0.005073055624961853,0.01085744146257639
1761817938537879800,8.4188798828125,0.00021598236344289035,-0.0028972530271857977,0.009735983796417713
1761817938547807700,8.428807861328124,-0.0014389059506356716,-0.003552124137058854,0.011750931851565838
1761817938557735700,8.438735595703125,-0.002201635157689452,0.0004825647920370102,0.0124220484867692
1761817938567663600,8.44866357421875,-0.0015310513554140925,0.002507898723706603,0.011890481226146221
1761817938577591600,8.458591552734376,-0.0027691549621522427,0.004859736189246178,0.011247861199080944
1761817938587520500,8.4685205078125,-0.004572114907205105,0.006923419889062643,0.011621768586337566
1761817938597448700,8.47844873046875,-0.0009813748765736818,0.01116556953638792,0.012264389544725418
1761817938607376600,8.488376708984376,-0.000004793690095539205,0.009270730428397655,0.011550662107765675
1761817938617304600,8.4983046875,-0.002132925670593977,0.012089685536921024,0.01407773606479168
1761817938627232500,8.508232421875,-0.001910019083879888,0.02135455794632435,0.01264016143977642
1761817938637160400,8.518160400390625,-0.003946804907172918,0.023845411837100983,0.01031708624213934
1761817938647088600,8.528088623046875,-0.0031430625822395086,0.02599990926682949,0.014086524024605751
1761817938657016600,8.5380166015625,-0.0012098740553483367,0.02617434598505497,0.010559167712926865
1761817938666944500,8.547944580078125,-0.002680205274373293,0.028298482298851013,0.014936605468392372
1761817938676873700,8.557873779296875,-0.0026373283471912146,0.03251213580369949,0.014030331745743752
1761817938686801700,8.5678017578125,-0.0025811356026679277,0.028909679502248764,0.015426094643771648
1761817938696729600,8.5777294921875,-0.0018349179299548268,0.026684341952204704,0.014845258556306362
1761817938706657500,8.587657470703125,0.00222001108340919,0.02148105762898922,0.014127536676824093
1761817938716585700,8.597585693359376,0.004315386060625315,0.012322712689638138,0.010177535936236382
1761817938726513700,8.607513671875,0.008352472446858883,0.003418433479964733,0.0024533038958907127
1761817938736441600,8.617441650390624,0.008310128003358841,-0.00227860058657825,0.006393184419721365
1761817938746369500,8.62736962890625,0.005553755909204483,-0.002273540711030364,0.005290902219712734
1761817938756297500,8.63729736328125,0.003867176128551364,-0.004058923572301865,0.007924768142402172
1761817938766225700,8.6472255859375,0.0006681871018372476,-0.009704292751848698,0.008972189389169216
1761817938776154600,8.657154541015625,-0.0008322378271259367,-0.011215902864933014,0.006788397673517466
1761817938786082600,8.66708251953125,-0.00780519237741828,-0.012409531511366367,0.00398568669334054
1761817938796010800,8.6770107421875,-0.007588677573949099,-0.012368785217404366,0.007562312297523022
1761817938805938700,8.686938720703125,-0.003941478207707405,-0.01031788531690836,0.004821919370442629
1761817938815866600,8.69686669921875,-0.002273007994517684,-0.006690393202006817,0.012732839211821556
1761817938825794800,8.706794921875,-0.0003379551344551146,0.0035321505274623632,0.012439625337719917
1761817938835722800,8.71672265625,0.000018908443962573074,0.012643356807529926,0.015634620562195778
1761817938845650700,8.726650634765624,0.0025422535836696625,0.01865943893790245,0.009189503267407417
1761817938855578600,8.73657861328125,0.0012191950809210539,0.024380439892411232,0.0046850331127643585
1761817938865507600,8.746507568359375,0.001440237509086728,0.023434486240148544,0.0017603494925424457
1761817938875435500,8.756435546875,0.0002724413643591106,0.016774719581007957,-0.0031190942972898483
1761817938885363500,8.766363525390625,-0.0011848403373733163,0.013382917270064354,-0.002936401404440403
1761817938895291600,8.776291748046875,-0.0031518512405455112,0.00755006168037653,-0.0012695288751274347
1761817938905219600,8.786219482421876,-0.0014144048327580094,0.0000756337758502923,0.00006072007090551779
1761817938915147800,8.796147705078125,-0.0004159857635386288,-0.007896805182099342,0.0027627632953226566
1761817938925075700,8.80607568359375,-0.001790975802578032,-0.015186409465968609,0.00755059439688921
1761817938935003600,8.816003662109376,-0.001383245806209743,-0.01830204203724861,0.012029765173792839
1761817938944931800,8.825931884765625,-0.0013571468880400062,-0.02682788483798504,0.01732812449336052
1761817938954859800,8.83585986328125,-0.004511927254498005,-0.032230641692876816,0.01768365502357483
1761817938964788700,8.845788818359376,-0.007065632846206427,-0.030586937442421913,0.019059179350733757
1761817938974716700,8.855716552734375,-0.0038333539851009846,-0.034326016902923584,0.013056146912276745
1761817938984644600,8.86564453125,-0.002113218419253826,-0.02719646692276001,0.015106248669326305
1761817938994572500,8.875572509765625,-0.001306280493736267,-0.016621587797999382,0.007773767225444317
1761817939004500700,8.885500732421875,-0.002008023438975215,-0.003875964554026723,0.005795571021735668
1761817939014428700,8.8954287109375,0.0002817624481394887,0.01455790363252163,0.006762565113604069
1761817939024356600,8.905356689453125,-0.0017915084026753902,0.030943801626563072,0.009612945839762688
1761817939034284500,8.915284423828124,0.0028855351265519857,0.04138365760445595,0.006701312027871609
1761817939044212500,8.92521240234375,0.003337739733979106,0.04142254218459129,0.00785366166383028
1761817939054140700,8.935140625,0.0037201696541160345,0.03930932283401489,0.006937534548342228
1761817939064069600,8.945069580078124,0.0025070998817682266,0.03045777417719364,0.00800120085477829
1761817939073997800,8.954997802734376,0.0012311793398112059,0.016150208190083504,0.007833422161638737
1761817939083925800,8.96492578125,-0.003733219113200903,-0.0006173207075335085,0.004918325692415237
1761817939093853700,8.974853759765624,-0.0023337281309068203,-0.01799231581389904,0.006148972548544407
1761817939103781600,8.98478173828125,-0.0029678267892450094,-0.02720019593834877,0.0070488546043634415
1761817939113709600,8.99470947265625,-0.00023941817926242948,-0.036563336849212646,0.011183411814272404
1761817939123637800,9.0046376953125,-0.003724164329469204,-0.039451003074645996,0.011374094523489475
1761817939133565700,9.014565673828125,-0.0030517163686454296,-0.03501763939857483,0.015851400792598724
1761817939143493600,9.02449365234375,-0.0022000374738126993,-0.027516845613718033,0.014063088223338127
1761817939153421600,9.034421630859375,-0.003837881376966834,-0.01720881462097168,0.01324176974594593
1761817939163350500,9.0443505859375,0.0006609965930692852,-0.0011638014111667871,0.009943177923560143
1761817939173278500,9.054278564453124,0.0034503915812820196,0.0114001939073205,0.005539374891668558
1761817939183206700,9.06420654296875,0.0014652712270617485,0.02394341677427292,0.0033920682035386562
1761817939193134600,9.074134521484375,0.0017121462151408195,0.031502265483140945,-0.0015190670965239406
1761817939203062800,9.084062744140626,0.0012562130577862263,0.036193691194057465,0.00015632755821570754
1761817939212990700,9.09399072265625,-0.0000673779723001644,0.03585014119744301,0.001782453735359013
1761817939222918700,9.103918701171875,0.002266882685944438,0.03347540274262428,0.0038863508962094784
1761817939232846800,9.113846923828126,0.0009534116834402084,0.023860592395067215,0.007166566327214241
1761817939242774800,9.12377490234375,0.0007635282818228006,0.010439591482281685,0.008216384798288345
1761817939252702700,9.13370263671875,-0.0009262474486604333,-0.0057138120755553246,0.0049500176683068275
1761817939262630700,9.143630615234375,-0.0021313277538865805,-0.01528787612915039,0.005137237720191479
1761817939272559600,9.1535595703125,-0.004265318624675274,-0.025114674121141434,0.0028503811918199062
1761817939282487600,9.163487548828124,-0.003430151380598545,-0.025610554963350296,0.006037918850779533
1761817939292415700,9.173415771484375,-0.002395247109234333,-0.026080336421728134,0.01107635349035263
1761817939302343700,9.18334375,0.002374474424868822,-0.023376962170004845,0.012207929976284504
1761817939312271600,9.193271728515626,0.0029084382113069296,-0.014990401454269886,0.013259879313409328
1761817939322199600,9.203199462890625,0.0031728900503367186,-0.006016347091645002,0.011863583698868752
1761817939332127500,9.21312744140625,0.0006570018595084548,0.009843043051660061,0.015677496790885925
1761817939342055700,9.2230556640625,-0.001845038030296564,0.015585883520543575,0.014393320307135582
1761817939351983600,9.232983642578125,-0.005179848056286573,0.014900652691721916,0.011827364563941956
1761817939361911800,9.242911865234374,-0.0006458165589720011,0.012376242317259312,0.009836917743086815
1761817939371840800,9.2528408203125,-0.005736981518566608,0.013272395357489586,0.0038919434882700443
1761817939381768700,9.262768798828125,-0.0030394657514989376,0.009366869926452637,-0.00045540055725723505
1761817939391696600,9.272696533203124,-0.0017595505341887474,0.01363405305892229,0.00012090751260984689
1761817939401624600,9.28262451171875,0.00008415588672505692,0.017964087426662445,0.0004932174342684448
1761817939411552800,9.292552734375,0.000027696874894900247,0.012015916407108307,0.005915147252380848
1761817939421480700,9.302480712890626,0.004963333252817392,0.006654174067080021,0.014282532967627048
1761817939431408600,9.31240869140625,0.00012516857532318681,-0.00333241350017488,0.016527045518159866
1761817939441336600,9.322336669921874,-0.002436259761452675,-0.016813067719340324,0.01781468279659748
1761817939451264500,9.332264404296875,-0.0022945795208215714,-0.02333994396030903,0.017316672950983047
1761817939461192700,9.342192626953125,-0.006747651379555464,-0.022903185337781906,0.015897473320364952
1761817939471120600,9.35212060546875,-0.004778243601322174,-0.01805729791522026,0.010608435608446598
1761817939481049900,9.3620498046875,-0.002886067610234022,-0.00827683787792921,0.010835603810846806
1761817939490977800,9.371977783203125,-0.0021792647894471884,0.008132761344313622,0.007443801499903202
1761817939500905700,9.38190576171875,0.00129695946816355,0.01732892356812954,0.007471232209354639
1761817939510833700,9.391833740234375,0.0013289173366501927,0.02425447292625904,0.012386628426611423
1761817939520761900,9.401761962890625,-0.0005033374181948602,0.02708514779806137,0.009383381344377995
1761817939530689800,9.411689697265626,-0.0012905678013339639,0.0238195788115263,0.010305901058018208
1761817939540617700,9.42161767578125,-0.001240766723640263,0.016230901703238487,0.006116748321801424
1761817939550545700,9.431545654296874,0.002017344580963254,0.011366637423634529,0.006473079323768616
1761817939560473600,9.4414736328125,0.0024349282030016184,0.002897519152611494,0.007701595313847065
1761817939570401800,9.45140185546875,-0.0025899240281432867,-0.004541754722595215,0.0022066952660679817
1761817939580330500,9.46133056640625,-0.0019835224375128746,-0.009847836568951607,0.007051251363009214
1761817939590258700,9.4712587890625,-0.0021696772892028093,-0.010511763393878937,0.006259227637201548
1761817939600186600,9.4811865234375,-0.0021164140198379755,-0.010496582835912704,0.011225489899516106
1761817939610114600,9.491114501953126,-0.0023960459511727095,-0.006964965257793665,0.014700915664434433
1761817939620042500,9.50104248046875,0.00336090917699039,-0.0033566481433808804,0.012496883049607277
1761817939629970400,9.510970458984374,0.0010128001449629664,0.0007155913626775146,0.01221618615090847
1761817939639899000,9.52089892578125,0.0019214707426726818,-0.0024828650057315826,0.008718123659491539
1761817939649826800,9.530826904296875,-0.0001400822657160461,0.0043779704719781876,0.007527690846472979
1761817939659754800,9.540754638671874,-0.0012032161466777325,0.004286091309040785,0.00566827179864049
1761817939669682700,9.5506826171875,-0.003084206720814109,0.007188138086348772,0.003760383464396
1761817939679610600,9.560610595703125,-0.0005962817813269794,0.008688828907907009,0.0041057956404984
1761817939689539600,9.57053955078125,-0.0010668623726814985,0.011383149772882462,0.004634699318557978
1761817939699467800,9.5804677734375,-0.0016873788554221392,0.00782676413655281,0.007466704584658146
1761817939709395700,9.590395751953125,0.0024234766606241465,0.007420365698635578,0.00842810608446598
1761817939719323600,9.60032373046875,-0.0005558017292059958,0.00014034859486855567,0.00962493009865284
1761817939729251600,9.61025146484375,-0.002168079372495413,-0.004218979738652706,0.012796222232282162
1761817939739179500,9.620179443359374,-0.001347293145954609,-0.00555135915055871,0.013125123456120491
1761817939749107700,9.630107666015626,0.001454884884878993,-0.011890747584402561,0.010343717411160469
1761817939759035600,9.64003564453125,0.0007909588166512549,-0.00857404712587595,0.00996448379009962
1761817939768963600,9.649963623046874,-0.001261273049749434,-0.004237622022628784,0.00640889722853899
1761817939778891500,9.6598916015625,-0.0015331818722188473,0.0016200009267777205,0.005844040773808956
1761817939788819500,9.6698193359375,-0.00007057376933516935,0.004336691461503506,0.003088467987254262
1761817939798748700,9.679748779296874,-0.0024048343766480684,0.011178351938724518,0.006406500469893217
1761817939808676600,9.689676513671875,0.0037681066896766424,0.01734144054353237,0.007725830189883709
1761817939818604800,9.699604736328125,0.002094842493534088,0.018369685858488083,0.009181780740618706
1761817939828532700,9.70953271484375,0.0019944412633776665,0.021106883883476257,0.009103749878704548
1761817939838460700,9.719460693359375,0.0018453042721375823,0.018150242045521736,0.010756507515907288
1761817939848388600,9.729388671875,0.0018397116800770164,0.015806393697857857,0.013146961107850075
1761817939858316500,9.739316650390625,-0.0001073253879440017,0.013390639796853065,0.011577825993299484
1761817939868244500,9.749244384765625,0.00024474450037814677,0.005632585845887661,0.013352290727198124
1761817939878172400,9.75917236328125,-0.0018042916199192405,-0.0030085730832070112,0.013405287638306618
1761817939888100400,9.769100341796875,-0.002038117265328765,-0.0075721656903624535,0.013709953054785728
1761817939898028300,9.7790283203125,-0.0034381409641355276,-0.012151204980909824,0.011870508082211018
1761817939907956500,9.78895654296875,-0.0033566481433808804,-0.016626913100481033,0.00606481684371829
1761817939917885200,9.79888525390625,-0.0026043052785098553,-0.018556373193860054,0.008344748988747597
1761817939927813400,9.8088134765625,-0.00011105381418019533,-0.01101350225508213,0.012501411139965057
1761817939937741300,9.8187412109375,0.0008724515791982412,-0.0018010957865044475,0.011057711206376553
1761817939947669200,9.828669189453125,0.0021281319204717875,0.0011179950088262558,0.011625496670603752
1761817939957597200,9.83859716796875,-0.0002990729990415275,0.008915198035538197,0.008285094052553177
1761817939967525400,9.848525390625,-0.0017475662752985954,0.018972625955939293,0.009723201394081116
1761817939977453600,9.85845361328125,-0.0007781756576150656,0.02238093875348568,0.009924535639584064
1761817939987381500,9.868381591796876,-0.004850149154663086,0.02545103058218956,0.005330583080649376
1761817939997309400,9.878309326171875,0.0002170476218452677,0.02051086723804474,0.006807305850088596
1761817940007237400,9.8882373046875,-0.0009198558400385082,0.013624199666082859,0.007495200727134943
1761817940017165300,9.898165283203125,0.0000697748182574287,0.008787366561591625,0.00818149745464325
1761817940027094300,9.90809423828125,-0.0009126652730628848,0.00030413299100473523,0.0089391665533185
1761817940037022500,9.9180224609375,-0.0017417073249816895,-0.00827843602746725,0.010046775452792645
1761817940046950400,9.927950439453125,-0.004850149154663086,-0.012209794484078884,0.010729609988629818
1761817940056878300,9.93787841796875,-0.001975532853975892,-0.016690030694007874,0.007727960590273142
1761817940066806300,9.94780615234375,-0.005770537536591291,-0.01836143061518669,0.00694951880723238
1761817940076734200,9.957734130859375,0.0008442220860160887,-0.018065553158521652,0.009198292158544064
1761817940086662400,9.967662353515625,0.00004420847471919842,-0.015249792486429214,0.009015066549181938
1761817940096590300,9.97759033203125,-0.0007294398383237422,-0.013556554913520813,0.009318133816123009
1761817940106518300,9.987518310546875,-0.000594950164668262,-0.003425357863306999,0.008709602057933807
1761817940116446200,9.9974462890625,-0.0026762105990201235,0.0032900692895054817,0.007948736660182476
1761817940126374400,10.00737451171875,0.0005022721597924829,0.007236607372760773,0.009372462518513203
1761817940136302600,10.017302490234375,0.0024343954864889383,0.010959972627460957,0.008383364416658878
1761817940146231300,10.027231201171874,0.0007880293414928019,0.013607155531644821,0.010637464001774788
1761817940156159500,10.037159423828125,0.0023331954143941402,0.015244998969137669,0.00800253264605999
1761817940166087400,10.04708740234375,-0.0011291803093627095,0.011438276618719101,0.002859169617295265
1761817940176015400,10.057015380859376,-0.0005925533478148282,0.010385795496404171,0.0027984497137367725
1761817940185943300,10.066943359375,-0.0004242415598127991,0.007451258134096861,-0.00003808320252574049
1761817940195871200,10.076871337890625,-0.0014594122767448425,0.00038722361205145717,0.0043862261809408665
1761817940205799400,10.08679931640625,-0.0008008125587366521,-0.00042264367220923305,0.00503923324868083
1761817940215727400,10.096727294921875,-0.0021523667965084314,-0.00013502225920092314,0.009602027013897896
1761817940225655300,10.1066552734375,-0.0010657970560714602,0.001478587044402957,0.011979430913925171
1761817940235583200,10.116583251953125,-0.000675111310556531,0.004862932022660971,0.015195731073617935
1761817940245511200,10.12651123046875,-0.0009278453071601689,0.0044019389897584915,0.014348579570651054
1761817940255439400,10.136439453125,0.0028703550342470407,-0.00009960222087102011,0.01107209175825119
1761817940265368600,10.14636865234375,0.003976631909608841,-0.0031396006233990192,0.00361683894880116
1761817940275296500,10.156296630859375,0.0011323761427775025,-0.008131962269544601,0.0005491438205353916
1761817940285224400,10.166224365234376,-0.0026098978705704212,-0.010481669567525387,-0.0010551444720476866
1761817940295152400,10.17615234375,-0.001856755930930376,-0.012558668851852417,0.002499909373000264
1761817940305080300,10.186080322265624,0.00010466222738614306,-0.013393303379416466,0.008539958856999874
1761817940315008500,10.196008544921876,0.0014000238152220845,-0.01001934427767992,0.005125253461301327
1761817940324936400,10.2059365234375,0.0005014732014387846,-0.007903463207185268,0.008855010382831097
1761817940334864400,10.215864501953124,-0.0035720979794859886,-0.0021614215802401304,0.009558085352182388
1761817940344792300,10.225792236328125,-0.0014508900931105018,0.004742823541164398,0.011026285588741302
1761817940354720300,10.23572021484375,-0.0023587618488818407,0.00993066094815731,0.01477654930204153
1761817940364648400,10.2456484375,-0.0002436792419757694,0.012181032449007034,0.014825551770627499
1761817940374576400,10.255576416015625,-0.003600061172619462,0.012219914235174656,0.01588229276239872
1761817940384504300,10.26550439453125,0.0009853695519268513,0.015736619010567665,0.012388759292662144
1761817940394433300,10.275433349609376,0.0023430490400642157,0.011031611822545528,0.007986820302903652
1761817940404361500,10.285361572265625,0.0018722022650763392,0.004388622939586639,0.008468053303658962
1761817940414289400,10.295289306640624,-0.0031382690649479628,0.002552373567596078,0.00748987402766943
1761817940424217300,10.30521728515625,-0.0023483755066990852,-0.0002567287301644683,0.006146575789898634
1761817940434145500,10.3151455078125,-0.00549276964738965,-0.0028668928425759077,0.00851652305573225
1761817940444073500,10.325073486328124,-0.001835716888308525,-0.002808836055919528,0.008915464393794537
1761817940454001400,10.33500146484375,-0.0014716627774760127,0.003337473375722766,0.00990269798785448
1761817940463929300,10.344929443359375,0.0008127967594191432,0.005744704511016607,0.012070777826011181
1761817940473857300,10.354857177734376,-0.0007147924043238163,0.003567037871107459,0.013089170679450035
1761817940483785500,10.364785400390625,-0.0011326423846185207,0.005437375977635384,0.012927782721817493
1761817940493713400,10.37471337890625,-0.0014415690675377846,0.010047041811048985,0.0134465666487813
1761817940503641300,10.384641357421875,-0.0019113506423309445,0.005532983224838972,0.007192665245383978
1761817940513570300,10.3945703125,0.0025505092926323414,0.00387410051189363,0.009341037832200527
1761817940523498200,10.404498291015624,0.00004340952364145778,0.00014674017438665032,0.006139917764812708
1761817940533426200,10.41442626953125,-0.00037230990710668266,-0.003483414649963379,0.005117796827107668
1761817940543354400,10.424354248046875,-0.0025920546613633633,-0.007910920307040215,0.0073079802095890045
1761817940553282300,10.4342822265625,-0.0035382758360356092,-0.008827580139040947,0.007354319095611572
1761817940563210500,10.44421044921875,-0.0023409186396747828,-0.012572516687214375,0.006595584563910961
1761817940573138400,10.454138427734375,-0.0009068063227459788,-0.01937449723482132,0.013434848748147488
1761817940583066400,10.46406640625,-0.00006444849714171141,-0.02888651005923748,0.012211658991873264
1761817940592994600,10.47399462890625,-0.0006660565850324929,-0.033853836357593536,0.015975505113601685
1761817940602922500,10.483922607421874,-0.001651159836910665,-0.032943036407232285,0.01768871583044529
1761817940612850400,10.493850341796875,-0.0034439999144524336,-0.03255181759595871,0.016931045800447464
1761817940622778400,10.5037783203125,-0.0039084553718566895,-0.027453994378447533,0.014486530795693398
1761817940632706300,10.513706298828126,0.0030977888964116573,-0.027772242203354836,0.0040855552069842815
1761817940642635300,10.52363525390625,-0.000017843178284238093,-0.021286912262439728,0.0033334787003695965
1761817940652563500,10.5335634765625,0.0012873720843344927,-0.015490543097257614,-0.0012865731259807944
1761817940662491400,10.543491455078126,-0.0025065671652555466,-0.009912019595503807,-0.004406466148793697
1761817940672419300,10.55341943359375,-0.0029521139804273844,0.0015395734226331115,0.0020426444243639708
1761817940682347300,10.56334716796875,-0.002121740486472845,0.006658168975263834,0.00592606607824564
1761817940692275200,10.573275146484375,-0.0021374530624598265,0.017238374799489975,0.014189855195581913
1761817940702203400,10.583203369140625,0.000958205375354737,0.02159903571009636,0.01666872575879097
1761817940712131300,10.59313134765625,0.003242931328713894,0.026825755834579468,0.020674385130405426
1761817940722059500,10.6030595703125,-0.002380866091698408,0.031034881249070168,0.02040886878967285
1761817940731987500,10.612987548828125,0.0005906891310587525,0.025011610239744186,0.01834411919116974
1761817940741915400,10.622915283203126,-0.0016418388113379478,0.01594327948987484,0.011087538674473763
1761817940751843300,10.63284326171875,-0.002316950121894479,0.011406851932406425,0.005794239696115255
1761817940761771500,10.642771484375,-0.0041220407001674175,0.005299157928675413,0.0012338425731286407
1761817940771700500,10.652700439453126,-0.0007989483419805765,-0.000029827404432580806,-0.0012591425329446793
1761817940781628400,10.66262841796875,-0.002064748667180538,-0.003722033929079771,-0.0015635418239980936
1761817940791556400,10.672556396484374,-0.0014050838071852922,-0.00219551008194685,0.003896470880135894
1761817940801484300,10.682484375,-0.002314553363248706,0.0023763386998325586,0.009731989353895187
1761817940811412200,10.692412109375,-0.005940180737525225,0.01116317231208086,0.012023906223475933
1761817940821340400,10.70234033203125,-0.0016650082543492317,0.015205850824713707,0.018581407144665718
1761817940831268400,10.712268310546875,-0.00005858954318682663,0.019772905856370926,0.01829325407743454
1761817940841196300,10.7221962890625,0.0005840312223881483,0.027669444680213928,0.016334498301148415
1761817940851124200,10.732124267578126,0.0017230651574209332,0.023960459977388382,0.012328837998211384
1761817940861052200,10.74205224609375,-0.00159470085054636,0.016203470528125763,0.012033759616315365
1761817940870980000,10.75197998046875,-0.004718322306871414,0.008955944329500198,0.009840913116931915
1761817940880908000,10.761907958984375,-0.0008535431115888059,0.0018461032304912806,0.006935404147952795
1761817940890836000,10.7718359375,-0.0009219863568432629,-0.005348159931600094,0.005918875336647034
1761817940900765000,10.781764892578124,-0.0001448759576305747,-0.012484632432460785,0.00999111495912075
1761817940910692900,10.79169287109375,-0.0020655477419495583,-0.01236079540103674,0.01414537988603115
1761817940920620800,10.801620849609375,-0.0016293219523504376,-0.010610832832753658,0.015567242167890072
1761817940930549000,10.811549072265626,-0.0038685076870024204,-0.009730657562613487,0.01672731526196003
1761817940940477000,10.821476806640625,-0.0014540859265252948,-0.007678159512579441,0.014502509497106075
1761817940950404900,10.83140478515625,0.0013518205378204584,-0.003780889790505171,0.012455337680876255
1761817940960332800,10.841332763671875,-0.001005609636195004,0.0033920682035386562,0.014198909513652325
1761817940970260700,10.8512607421875,-0.002751844236627221,0.00407596817240119,0.007995608262717724
1761817940980189000,10.86118896484375,0.0002300971100339666,0.011096592992544174,0.009121593087911606
1761817940990116900,10.871116943359375,-0.0002162486780434847,0.01569533906877041,0.008945291861891747
1761817941000044800,10.881044921875,0.00012064119800925255,0.016023706644773483,0.01133947353810072
1761817941009972700,10.89097265625,0.0041345576755702496,0.011515508405864239,0.014607172459363937
1761817941019900700,10.900900634765625,0.0004876247840002179,0.008747684769332409,0.010267018340528011
1761817941029830000,10.910829833984375,-0.0001757686259225011,0.0010159959783777595,0.010340522043406963
1761817941039758000,10.920758056640626,-0.0014500912511721253,-0.007820372469723225,0.006674148142337799
1761817941049686000,10.93068603515625,-0.0009888317435979843,-0.0111634386703372,0.010486463084816933
1761817941059614000,10.940614013671874,-0.0012357067316770554,-0.01498214527964592,0.008623049594461918
1761817941069542000,10.9505419921875,-0.0034583809319883585,-0.015270831994712353,0.008071241900324821
1761817941079469800,10.9604697265625,0.00046924897469580173,-0.013262541964650154,0.01164387259632349
1761817941089398000,10.97039794921875,-0.0008053398923948407,-0.009575129486620426,0.008296545594930649
1761817941099326000,10.980325927734375,-0.0008801747462712228,-0.007792143151164055,0.0120689133182168
1761817941109254000,10.99025390625,-0.0031284152064472437,0.0010434264549985528,0.00703873485326767
1761817941119181800,11.000181884765626,-0.0020724718924611807,0.009102151729166508,0.008477906696498394
1761817941129109800,11.01010986328125,-0.0008633967954665422,0.008265919052064419,0.009524262510240078
1761817941139038000,11.020037841796874,-0.0005075985100120306,0.011658520437777042,0.008357265964150429
1761817941148966000,11.0299658203125,0.004009655211120844,0.007254184223711491,0.008235027082264423
1761817941158893800,11.039893798828125,-0.001716673607006669,0.009206813760101795,0.007179616019129753
1761817941168823000,11.049822998046874,0.0012958941515535116,0.005744970869272947,0.01088780164718628
1761817941178751000,11.0597509765625,0.00018961707246489823,0.0018961706664413214,0.009870474226772785
1761817941188679000,11.069678955078125,0.001160072977654636,-0.0030919299460947514,0.008711732923984528
1761817941198606800,11.07960693359375,-0.0005411543534137309,-0.007167898118495941,0.009577792137861252
1761817941208535000,11.08953515625,0.0010980212828144431,-0.006858438719063997,0.006041114684194326
1761817941218463000,11.099462890625,0.0007811051327735186,-0.010102701373398304,0.005011270288378
1761817941228391000,11.109390869140626,-0.002516953507438302,-0.011433483101427555,0.00523683987557888
1761817941238318800,11.11931884765625,-0.0020471718162298203,-0.01050643716007471,0.005065598525106907
1761817941248246800,11.129246826171874,-0.003841077210381627,-0.0014298511669039726,0.011689945124089718
1761817941258175000,11.139175048828125,-0.0022857910953462124,0.007084008306264877,0.011656922288239002
1761817941268103000,11.14910302734375,-0.0025859293527901173,0.009929862804710865,0.01595419831573963
1761817941278030800,11.15903076171875,0.001094825565814972,0.01624847762286663,0.012398879043757915
1761817941287958800,11.168958740234375,0.0019949739798903465,0.018927086144685745,0.008019044063985348
1761817941297887700,11.1788876953125,0.003820837242528796,0.011403122916817665,0.005664543714374304
1761817941307816000,11.18881591796875,-0.0013813816476613283,0.003887682454660535,-0.0021193434949964285
1761817941317744000,11.198744140625,-0.0022927154786884785,-0.002960369922220707,0.0014245248166844249
1761817941327672000,11.208672119140624,-0.0014026869321241975,-0.0031244205310940742,0.002412557601928711
1761817941337600000,11.21860009765625,0.0016157397767528892,-0.01007713470607996,0.003468234557658434
1761817941347528000,11.22852783203125,-0.000011185276889591478,-0.010161024518311024,0.006946322973817587
1761817941357456000,11.238455810546874,-0.0012085424968972802,-0.0116188395768404,0.007895739749073982
1761817941367384000,11.248384033203125,-0.0046759783290326595,-0.007442203816026449,0.009239571169018745
1761817941377312000,11.25831201171875,-0.0037971350830048323,-0.0046669235453009605,0.016035158187150955
1761817941387240000,11.268239990234376,-0.005797169171273708,-0.0011946940794587135,0.01648922823369503
1761817941397167900,11.27816796875,0.00012650014832615852,0.008975385688245296,0.017606956884264946
1761817941407095800,11.288095703125,0.002138518262654543,0.006360693834722042,0.014329404570162296
1761817941417024000,11.29802392578125,0.001178182428702712,0.007441937457770109,0.009652094915509224
1761817941426953000,11.307952880859375,0.0035449336282908916,0.0014596786350011826,0.0054757255129516125
1761817941436881000,11.317880859375,-0.001365668955259025,-0.007834487594664097,0.0006554039428010583
1761817941446808800,11.327808837890625,-0.0028399948496371508,-0.01565645821392536,0.0033318807836622
1761817941456736800,11.33773681640625,-0.0029614351224154234,-0.019106050953269005,0.007207046262919903
1761817941466665000,11.3476650390625,-0.00022024342615623027,-0.01750549115240574,0.01164547074586153
1761817941476593000,11.357593017578125,0.0010373012628406286,-0.01503860391676426,0.020318854600191116
1761817941486521000,11.36752099609375,-0.0016772588714957237,-0.008580705150961876,0.019665047526359558
1761817941496449000,11.377448974609376,-0.0001257012045243755,0.0006114617572166026,0.022214224562048912
1761817941506377000,11.387376953125,-0.0027134947013109922,0.014288658276200294,0.02063417248427868
1761817941516305000,11.397304931640624,-0.002748914761468768,0.023364711552858353,0.015668708831071854
1761817941526232800,11.40723291015625,-0.0019273296929895878,0.03301840275526047,0.00980549305677414
1761817941536161000,11.4171611328125,-0.001996838254854083,0.04340473189949989,0.005615008994936943
1761817941546090000,11.427090087890624,-0.0030655646696686745,0.0592779703438282,0.007585481740534306
1761817941556018000,11.437017822265625,-0.00589597225189209,0.07429979741573334,0.011694206856191158
1761817941565945900,11.44694580078125,-0.00344559783115983,0.0897490605711937,0.019760388880968094
1761817941575873800,11.456873779296876,-0.004400340840220451,0.09748873859643936,0.028503546491265297
1761817941585801700,11.4668017578125,-0.0019451729021966457,0.09460347145795822,0.03214249014854431
1761817941595730000,11.47672998046875,0.000669252360239625,0.07558370381593704,0.03116937167942524
1761817941605657900,11.486657958984376,0.00011158645065734163,0.0476577989757061,0.025018267333507538
1761817941615585800,11.496585693359375,-0.0010636665392667055,0.01667751371860504,0.015914518386125565
1761817941625514000,11.506513916015624,-0.0028873991686850786,-0.005795304663479328,0.008885636925697327
1761817941635442000,11.51644189453125,-0.0013009541435167193,-0.023514647036790848,0.006078931502997875
1761817941645370000,11.5263701171875,0.0003632551815826446,-0.024999359622597694,0.012309396639466286
1761817941655298000,11.536298095703126,0.004032558295875788,-0.02592374198138714,0.018211228772997856
1761817941665226000,11.54622607421875,0.0015417039394378662,-0.02720818482339382,0.023629695177078247
1761817941675154000,11.55615380859375,-0.005871471017599106,-0.03405890241265297,0.01865464448928833
1761817941685083000,11.566082763671876,-0.00884995050728321,-0.03641899302601814,0.013336045667529106
1761817941695010800,11.5760107421875,-0.0049010151997208595,-0.035167839378118515,0.003162237349897623
1761817941704939000,11.58593896484375,-0.0015688681742176414,-0.025258485227823257,-0.0005938849062658846
1761817941714867000,11.595866943359376,-0.0018540926976129413,0.00011211907985853031,-0.0024612934794276953
1761817941724795000,11.605794921875,-0.0010892328573390841,0.03648530691862106,0.00020586235041264445
1761817941734722800,11.615722900390624,0.0013510215794667602,0.06560643762350082,0.010125870816409588
1761817941744650800,11.625650634765625,0.004893292207270861,0.09682348370552063,0.014520086348056793
1761817941754579000,11.635578857421875,0.008800415322184563,0.10252451151609421,0.016380837187170982
1761817941764507000,11.6455068359375,0.009474461898207664,0.09808262437582016,0.012012987397611141
1761817941774434800,11.655434814453125,0.005210474599152803,0.08047220855951309,0.004983306862413883
1761817941784363000,11.665363037109374,0.004761465825140476,0.04981496185064316,-0.0008546083699911833
1761817941794291000,11.675291015625,0.002388589084148407,0.016112124547362328,-0.009212406352162361
1761817941804219000,11.685218994140625,-0.0020932445768266916,-0.01823040284216404,-0.01215599849820137
1761817941814147000,11.69514697265625,-0.0062368568032979965,-0.053823284804821014,-0.013760819099843502
1761817941824076000,11.705075927734375,-0.005745503585785627,-0.07218711078166962,-0.006328469607979059
1761817941834004000,11.71500390625,-0.004736698232591152,-0.08791308104991913,0.004805940669029951
1761817941843932000,11.724931884765626,-0.00436119269579649,-0.08518306910991669,0.010245979763567448
1761817941853859800,11.73485986328125,-0.0037864823825657368,-0.07441431283950806,0.02389068529009819
1761817941863789000,11.7447890625,-0.0044197821989655495,-0.05355110764503479,0.02888144925236702
