time,seconds_elapsed,z,y,x
1761231987377873200,0.071873046875,-0.8411407470703125,-0.5590362548828125,0.1807098388671875
1761231987387943200,0.081943115234375,-0.837310791015625,-0.554351806640625,0.171295166015625
1761231987398012200,0.09201220703125,-0.847381591796875,-0.559112548828125,0.1649627685546875
1761231987408082200,0.102082275390625,-0.8421478271484375,-0.565948486328125,0.1484375
1761231987418151200,0.112151123046875,-0.839691162109375,-0.5721588134765625,0.135040283203125
1761231987428220200,0.12222021484375,-0.842681884765625,-0.574493408203125,0.12591552734375
1761231987438290400,0.13229052734375,-0.839141845703125,-0.571807861328125,0.1208953857421875
1761231987448359200,0.142359130859375,-0.8412017822265625,-0.568695068359375,0.1170654296875
1761231987458429400,0.152429443359375,-0.8399200439453125,-0.5680694580078125,0.111907958984375
1761231987468498200,0.162498291015625,-0.832366943359375,-0.56634521484375,0.1022186279296875
1761231987478567200,0.172567138671875,-0.830718994140625,-0.567901611328125,0.0974578857421875
1761231987488637200,0.18263720703125,-0.8332061767578125,-0.5706634521484375,0.0941314697265625
1761231987498706400,0.19270654296875,-0.8342437744140625,-0.571044921875,0.095001220703125
1761231987508775200,0.202775146484375,-0.8350372314453125,-0.56915283203125,0.093597412109375
1761231987518845400,0.212845458984375,-0.840972900390625,-0.563385009765625,0.0938262939453125
1761231987528914200,0.2229140625,-0.8472747802734375,-0.5587615966796875,0.09515380859375
1761231987538984200,0.232984130859375,-0.8401947021484375,-0.555419921875,0.090087890625
1761231987549053200,0.24305322265625,-0.8375091552734375,-0.5543975830078125,0.084625244140625
1761231987559122400,0.253122314453125,-0.843231201171875,-0.558990478515625,0.079833984375
1761231987569192200,0.263192138671875,-0.8451995849609375,-0.5619354248046875,0.0761566162109375
1761231987579261200,0.27326123046875,-0.8476715087890625,-0.5606689453125,0.0750579833984375
1761231987589331200,0.283331298828125,-0.847015380859375,-0.56298828125,0.0736846923828125
1761231987599400200,0.293400146484375,-0.8443603515625,-0.566253662109375,0.06915283203125
1761231987609469200,0.30346923828125,-0.8437957763671875,-0.565185546875,0.062591552734375
1761231987619539200,0.313539306640625,-0.83856201171875,-0.5625457763671875,0.0546722412109375
1761231987629608200,0.323608154296875,-0.830413818359375,-0.5652923583984375,0.0496978759765625
1761231987639678200,0.33367822265625,-0.829925537109375,-0.5691680908203125,0.0507659912109375
1761231987649747200,0.343747314453125,-0.8280487060546875,-0.5703887939453125,0.0497894287109375
1761231987659818200,0.353818359375,-0.8227691650390625,-0.571990966796875,0.0465850830078125
1761231987669888300,0.36388818359375,-0.8121490478515625,-0.56866455078125,0.0413055419921875
1761231987679957200,0.373957275390625,-0.8019866943359375,-0.5677032470703125,0.035858154296875
1761231987690027300,0.38402734375,-0.7916412353515625,-0.5670318603515625,0.0319366455078125
1761231987700096300,0.39409619140625,-0.791229248046875,-0.5663604736328125,0.0269775390625
1761231987710165200,0.404165283203125,-0.79736328125,-0.568267822265625,0.0332489013671875
1761231987720235300,0.4142353515625,-0.783447265625,-0.5658111572265625,0.036834716796875
1761231987730304300,0.42430419921875,-0.75543212890625,-0.554168701171875,0.0384674072265625
1761231987740373200,0.434373291015625,-0.7352142333984375,-0.5484771728515625,0.0402679443359375
1761231987750443300,0.444443359375,-0.734161376953125,-0.547943115234375,0.053009033203125
1761231987760512300,0.45451220703125,-0.8069305419921875,-0.5500030517578125,0.0864410400390625
1761231987770582300,0.464582275390625,-0.85028076171875,-0.5524444580078125,0.1161651611328125
1761231987780651300,0.4746513671875,-0.8206329345703125,-0.549346923828125,0.1240997314453125
1761231987790720300,0.48472021484375,-0.7983245849609375,-0.5525970458984375,0.1239166259765625
1761231987800790300,0.494790283203125,-0.7967376708984375,-0.569580078125,0.1346893310546875
1761231987810859300,0.504859375,-0.8015899658203125,-0.5928497314453125,0.1703338623046875
1761231987820929300,0.51492919921875,-0.831146240234375,-0.6094970703125,0.2164764404296875
1761231987830998300,0.524998291015625,-0.8218231201171875,-0.6357574462890625,0.2418975830078125
1761231987841067300,0.5350673828125,-0.78179931640625,-0.6557769775390625,0.2570343017578125
1761231987851137300,0.54513720703125,-0.7547149658203125,-0.6549224853515625,0.262725830078125
1761231987861206300,0.555206298828125,-0.7317962646484375,-0.6434326171875,0.25885009765625
1761231987871276000,0.565276123046875,-0.7094573974609375,-0.636260986328125,0.2539215087890625
1761231987881345300,0.57534521484375,-0.6974029541015625,-0.6409149169921875,0.251373291015625
1761231987891414300,0.585414306640625,-0.7041473388671875,-0.649505615234375,0.24853515625
1761231987901484300,0.595484375,-0.709320068359375,-0.6529388427734375,0.2366180419921875
1761231987911553000,0.605552978515625,-0.72540283203125,-0.6440277099609375,0.2266082763671875
1761231987921622300,0.615622314453125,-0.734588623046875,-0.6259307861328125,0.208770751953125
1761231987931692000,0.625692138671875,-0.7411346435546875,-0.6021881103515625,0.1851959228515625
1761231987941761300,0.63576123046875,-0.7545013427734375,-0.5810546875,0.1696014404296875
1761231987951832000,0.64583203125,-0.775848388671875,-0.5723724365234375,0.1690521240234375
1761231987961901000,0.655901123046875,-0.7812957763671875,-0.574127197265625,0.173614501953125
1761231987971970000,0.665969970703125,-0.782073974609375,-0.5689239501953125,0.183135986328125
1761231987982039800,0.676039794921875,-0.7917633056640625,-0.560028076171875,0.1918487548828125
1761231987992109000,0.686109130859375,-0.7936553955078125,-0.564422607421875,0.1946563720703125
1761231988002178800,0.6961787109375,-0.7863311767578125,-0.570770263671875,0.198699951171875
1761231988012248000,0.706248046875,-0.793060302734375,-0.575286865234375,0.2008209228515625
1761231988022317000,0.716317138671875,-0.7612152099609375,-0.5732574462890625,0.1942291259765625
1761231988032387000,0.726386962890625,-0.729156494140625,-0.561676025390625,0.2076263427734375
1761231988042455800,0.736455810546875,-0.8243255615234375,-0.564422607421875,0.249053955078125
1761231988052526000,0.746526123046875,-0.7923431396484375,-0.590789794921875,0.2402496337890625
1761231988062594800,0.7565947265625,-0.7666168212890625,-0.5881500244140625,0.2151947021484375
1761231988072664000,0.7666640625,-0.7720794677734375,-0.5823211669921875,0.1956024169921875
1761231988082734000,0.776734130859375,-0.7679443359375,-0.59368896484375,0.1972503662109375
1761231988092803000,0.786802978515625,-0.7629241943359375,-0.5916290283203125,0.2027130126953125
1761231988102873000,0.796873046875,-0.73492431640625,-0.5777130126953125,0.1923675537109375
1761231988112942000,0.806942138671875,-0.70916748046875,-0.5695037841796875,0.1854705810546875
1761231988123010800,0.8170107421875,-0.7438201904296875,-0.5677337646484375,0.2103271484375
1761231988133080800,0.827080810546875,-0.77923583984375,-0.5876312255859375,0.243011474609375
1761231988143150000,0.837150146484375,-0.7808380126953125,-0.6177520751953125,0.256256103515625
1761231988153219000,0.847218994140625,-0.77362060546875,-0.6122589111328125,0.2380218505859375
1761231988163289000,0.8572890625,-0.7639312744140625,-0.5692138671875,0.2088470458984375
1761231988173358000,0.867358154296875,-0.7671661376953125,-0.535491943359375,0.1835174560546875
1761231988183428000,0.877427978515625,-0.7718658447265625,-0.5243682861328125,0.1700286865234375
1761231988193496800,0.887496826171875,-0.774505615234375,-0.528839111328125,0.1610107421875
1761231988203566000,0.897566162109375,-0.7963714599609375,-0.5374603271484375,0.1591033935546875
1761231988213635800,0.9076357421875,-0.8007659912109375,-0.54437255859375,0.1605377197265625
1761231988223705000,0.917705078125,-0.7973175048828125,-0.5454559326171875,0.1622772216796875
1761231988233774800,0.92777490234375,-0.8047027587890625,-0.542724609375,0.16705322265625
1761231988243844000,0.937843994140625,-0.8097991943359375,-0.5396881103515625,0.1734619140625
1761231988253912800,0.947912841796875,-0.811065673828125,-0.534759521484375,0.1761474609375
1761231988263983000,0.957983154296875,-0.812835693359375,-0.533294677734375,0.1710205078125
1761231988274051800,0.9680517578125,-0.8157806396484375,-0.53399658203125,0.16180419921875
1761231988284122000,0.9781220703125,-0.820556640625,-0.5358123779296875,0.1461029052734375
1761231988294190800,0.98819091796875,-0.8154144287109375,-0.5338897705078125,0.1259002685546875
1761231988304260000,0.998260009765625,-0.806610107421875,-0.5277252197265625,0.1074981689453125
1761231988314330000,1.008330078125,-0.8054046630859375,-0.5210418701171875,0.0913848876953125
1761231988324399000,1.018399169921875,-0.811859130859375,-0.523284912109375,0.0814208984375
1761231988334469000,1.02846923828125,-0.81085205078125,-0.5257568359375,0.0774078369140625
1761231988344537900,1.038537841796875,-0.801239013671875,-0.5230255126953125,0.074188232421875
1761231988354607000,1.048607177734375,-0.7990570068359375,-0.5182037353515625,0.0659942626953125
1761231988364676900,1.0586767578125,-0.785858154296875,-0.514617919921875,0.048309326171875
1761231988374746000,1.06874609375,-0.7852783203125,-0.506805419921875,0.0313720703125
1761231988384815900,1.07881591796875,-0.784393310546875,-0.4981231689453125,0.0147857666015625
1761231988394885000,1.088885009765625,-0.7727508544921875,-0.4901885986328125,0.002044677734375
1761231988404953900,1.098953857421875,-0.761383056640625,-0.48162841796875,-0.00616455078125
1761231988415024000,1.109024169921875,-0.7427520751953125,-0.4720916748046875,-0.0105743408203125
1761231988425092900,1.1190927734375,-0.734893798828125,-0.465545654296875,-0.0087738037109375
1761231988435163100,1.1291630859375,-0.7448577880859375,-0.46575927734375,-0.0034332275390625
1761231988445231900,1.13923193359375,-0.737091064453125,-0.4606781005859375,-0.0078887939453125
1761231988455301000,1.149301025390625,-0.7275238037109375,-0.447265625,-0.0178985595703125
1761231988465371000,1.159370849609375,-0.7292327880859375,-0.4488677978515625,-0.0236663818359375
1761231988475440000,1.169440185546875,-0.7247467041015625,-0.4640655517578125,-0.0288238525390625
1761231988485508900,1.1795087890625,-0.73260498046875,-0.4722442626953125,-0.0358123779296875
1761231988495579000,1.189578857421875,-0.7519989013671875,-0.473785400390625,-0.0450286865234375
1761231988505647900,1.19964794921875,-0.774444580078125,-0.474090576171875,-0.0544586181640625
1761231988515718000,1.2097177734375,-0.822509765625,-0.4854583740234375,-0.0582122802734375
1761231988525787000,1.219786865234375,-0.900543212890625,-0.5168609619140625,-0.04541015625
1761231988535856000,1.229856201171875,-0.9509735107421875,-0.560577392578125,-0.0264739990234375
1761231988545926100,1.239926025390625,-0.968231201171875,-0.5901947021484375,-0.0144500732421875
1761231988555995000,1.249994873046875,-0.9848785400390625,-0.61248779296875,-0.000946044921875
1761231988566065200,1.260065185546875,-1.017059326171875,-0.6502227783203125,0.005767822265625
1761231988576134000,1.2701337890625,-1.0361328125,-0.684906005859375,0.002349853515625
1761231988586203100,1.280203125,-1.033966064453125,-0.6929779052734375,-0.0096282958984375
1761231988596273000,1.29027294921875,-1.0310516357421875,-0.689117431640625,-0.0182037353515625
1761231988606342100,1.300342041015625,-1.0230560302734375,-0.691619873046875,-0.0178375244140625
1761231988616412000,1.310411865234375,-1.016265869140625,-0.6978607177734375,0.00341796875
1761231988626481200,1.320481201171875,-1.0169219970703125,-0.705169677734375,0.0395355224609375
1761231988636550000,1.3305498046875,-1.022705078125,-0.7157745361328125,0.07818603515625
1761231988646620200,1.3406201171875,-1.02679443359375,-0.7257843017578125,0.1000518798828125
1761231988656689000,1.35068896484375,-1.0336151123046875,-0.72125244140625,0.1004638671875
1761231988666759000,1.360759033203125,-1.033355712890625,-0.7003936767578125,0.089324951171875
1761231988676828000,1.370827880859375,-1.0193328857421875,-0.66143798828125,0.080291748046875
1761231988686897200,1.380897216796875,-1.0076904296875,-0.6119537353515625,0.0792694091796875
1761231988696967000,1.390966796875,-0.9715118408203125,-0.5660247802734375,0.0699310302734375
1761231988707036000,1.401035888671875,-0.8988037109375,-0.5261993408203125,0.055694580078125
1761231988717106200,1.411106201171875,-0.835968017578125,-0.492340087890625,0.034332275390625
1761231988727175000,1.4211748046875,-0.7610321044921875,-0.4784088134765625,0.021331787109375
1761231988737244000,1.431243896484375,-0.68646240234375,-0.4950408935546875,0.0273895263671875
1761231988747314000,1.44131396484375,-0.6360626220703125,-0.509033203125,0.0332489013671875
1761231988757383200,1.451383056640625,-0.6080322265625,-0.52581787109375,0.041656494140625
1761231988767453000,1.461452880859375,-0.6176605224609375,-0.568023681640625,0.056610107421875
1761231988777522200,1.471522216796875,-0.6307220458984375,-0.588134765625,0.1230926513671875
1761231988787591000,1.4815908203125,-0.6626739501953125,-0.581329345703125,0.1775360107421875
1761231988797661200,1.4916611328125,-0.7191314697265625,-0.582275390625,0.2130889892578125
1761231988807730000,1.50172998046875,-0.741943359375,-0.5929107666015625,0.2368927001953125
1761231988817800000,1.511800048828125,-0.73016357421875,-0.6064453125,0.2156982421875
1761231988827869000,1.521868896484375,-0.711669921875,-0.618316650390625,0.1598663330078125
1761231988837938200,1.531938232421875,-0.642242431640625,-0.611572265625,0.1840667724609375
1761231988848008000,1.542008056640625,-0.641693115234375,-0.5476531982421875,0.1791534423828125
1761231988858077000,1.552076904296875,-0.68280029296875,-0.5105133056640625,0.154510498046875
1761231988868147000,1.56214697265625,-0.688720703125,-0.5145416259765625,0.188629150390625
1761231988878216000,1.5722158203125,-0.6968841552734375,-0.4934234619140625,0.220947265625
1761231988888285000,1.582284912109375,-0.695770263671875,-0.4535369873046875,0.247314453125
1761231988898355000,1.59235498046875,-0.6851959228515625,-0.418487548828125,0.2751312255859375
1761231988908424000,1.602423828125,-0.69818115234375,-0.401947021484375,0.296478271484375
1761231988918494000,1.612493896484375,-0.7511138916015625,-0.4467620849609375,0.332275390625
1761231988928563000,1.62256298828125,-0.920623779296875,-0.5371856689453125,0.383819580078125
1761231988938632000,1.6326318359375,-1.066497802734375,-0.6035308837890625,0.43634033203125
1761231988948702200,1.6427021484375,-1.115325927734375,-0.655487060546875,0.479339599609375
1761231988958774300,1.652774169921875,-1.1284332275390625,-0.70159912109375,0.461883544921875
1761231988968844300,1.66284423828125,-1.1696319580078125,-0.6652374267578125,0.4073333740234375
1761231988978913300,1.672913330078125,-1.10894775390625,-0.6081390380859375,0.3541107177734375
1761231988988982300,1.682982177734375,-1.0919036865234375,-0.61834716796875,0.3392333984375
1761231988999052300,1.69305224609375,-1.14794921875,-0.6267242431640625,0.3341217041015625
1761231989009121300,1.703121337890625,-1.2292938232421875,-0.6419830322265625,0.351837158203125
1761231989019190300,1.713190185546875,-1.3408203125,-0.6592254638671875,0.344268798828125
1761231989029260000,1.723260009765625,-1.36114501953125,-0.6513214111328125,0.307952880859375
1761231989039329300,1.733329345703125,-1.3645172119140625,-0.6058349609375,0.2614898681640625
1761231989049399000,1.74339892578125,-1.365814208984375,-0.56414794921875,0.2257537841796875
1761231989059468300,1.75346826171875,-1.362579345703125,-0.55419921875,0.1950836181640625
1761231989069538300,1.763538330078125,-1.3594512939453125,-0.548126220703125,0.156982421875
1761231989079607300,1.773607177734375,-1.32708740234375,-0.5216827392578125,0.120391845703125
1761231989089676000,1.783676025390625,-1.2863006591796875,-0.482757568359375,0.070281982421875
1761231989099746300,1.793746337890625,-1.2203826904296875,-0.430419921875,0.0020599365234375
1761231989109815300,1.803815185546875,-1.08953857421875,-0.384185791015625,-0.05377197265625
1761231989119885300,1.81388525390625,-0.98126220703125,-0.3601837158203125,-0.0868072509765625
1761231989129954300,1.823954345703125,-0.90362548828125,-0.357147216796875,-0.1051788330078125
1761231989140023300,1.834023193359375,-0.8657379150390625,-0.342132568359375,-0.1324462890625
1761231989150093300,1.84409326171875,-0.8436431884765625,-0.34613037109375,-0.1739654541015625
1761231989160162300,1.854162353515625,-0.7690582275390625,-0.334625244140625,-0.211761474609375
1761231989170232300,1.864232421875,-0.6684722900390625,-0.2815399169921875,-0.2545166015625
1761231989180301300,1.87430126953125,-0.56658935546875,-0.2089996337890625,-0.2967376708984375
1761231989190370300,1.884370361328125,-0.4973297119140625,-0.17742919921875,-0.31634521484375
1761231989200440000,1.894440185546875,-0.483795166015625,-0.1950225830078125,-0.33477783203125
1761231989210509300,1.90450927734375,-0.506561279296875,-0.203704833984375,-0.3684539794921875
1761231989220579000,1.9145791015625,-0.5253143310546875,-0.180999755859375,-0.3838043212890625
1761231989230648300,1.9246484375,-0.5683135986328125,-0.127227783203125,-0.36822509765625
1761231989240717000,1.934717041015625,-0.6171417236328125,-0.0492401123046875,-0.32403564453125
1761231989250787300,1.944787353515625,-0.6400604248046875,0.0196685791015625,-0.2676239013671875
1761231989260856000,1.95485595703125,-0.62615966796875,0.0753173828125,-0.187744140625
1761231989270926300,1.96492626953125,-0.60906982421875,0.061065673828125,-0.0996856689453125
1761231989280995000,1.9749951171875,-0.584014892578125,-0.0430450439453125,-0.023040771484375
1761231989291064300,1.985064208984375,-0.6004791259765625,-0.1778564453125,-0.014068603515625
1761231989301134300,1.99513427734375,-0.6822052001953125,-0.3147125244140625,-0.036865234375
1761231989311203300,2.005203369140625,-0.82879638671875,-0.5052490234375,-0.0277099609375
1761231989321273300,2.0152734375,-1.0145263671875,-0.694488525390625,0.0477752685546875
1761231989331342300,2.02534228515625,-1.16949462890625,-0.6862030029296875,0.1652984619140625
1761231989341411300,2.035411376953125,-1.2102508544921875,-0.5125732421875,0.1878814697265625
1761231989351481000,2.045481201171875,-1.1544189453125,-0.4078521728515625,0.204376220703125
1761231989361550300,2.05555029296875,-1.1020965576171875,-0.4710693359375,0.2616424560546875
1761231989371620000,2.0656201171875,-1.1390533447265625,-0.606201171875,0.3438568115234375
1761231989381689300,2.075689453125,-1.208343505859375,-0.6859588623046875,0.4452972412109375
1761231989391758000,2.085758056640625,-1.27764892578125,-0.6710662841796875,0.5360870361328125
1761231989401828400,2.095828369140625,-1.3181304931640625,-0.6297607421875,0.5743560791015625
1761231989411897000,2.10589697265625,-1.2897491455078125,-0.594329833984375,0.5541534423828125
1761231989421967400,2.11596728515625,-1.2412567138671875,-0.5745849609375,0.5308990478515625
1761231989432036000,2.1260361328125,-1.2692108154296875,-0.5960693359375,0.5324859619140625
1761231989442105300,2.136105224609375,-1.29058837890625,-0.620361328125,0.5359649658203125
1761231989452175000,2.146175048828125,-1.2369232177734375,-0.6286468505859375,0.5436859130859375
1761231989462244400,2.156244384765625,-1.1828460693359375,-0.640472412109375,0.538726806640625
1761231989472314400,2.166314453125,-1.1386566162109375,-0.6508026123046875,0.510955810546875
1761231989482383400,2.17638330078125,-1.078277587890625,-0.646636962890625,0.4701690673828125
1761231989492452000,2.1864521484375,-0.983428955078125,-0.6319427490234375,0.417022705078125
1761231989502522000,2.196522216796875,-0.8995513916015625,-0.614471435546875,0.36151123046875
1761231989512591000,2.206591064453125,-0.9593505859375,-0.5995941162109375,0.2943115234375
1761231989522661000,2.2166611328125,-1.02862548828125,-0.5796966552734375,0.1833648681640625
1761231989532730400,2.22673046875,-0.9216766357421875,-0.502532958984375,0.085845947265625
1761231989542799400,2.23679931640625,-0.77203369140625,-0.3968505859375,0.0218963623046875
1761231989552869400,2.246869384765625,-0.6416015625,-0.3393402099609375,0.01837158203125
1761231989562938000,2.256938232421875,-0.5699005126953125,-0.3378143310546875,0.0747222900390625
1761231989573008400,2.26700830078125,-0.5365447998046875,-0.362945556640625,0.1405792236328125
1761231989583077000,2.2770771484375,-0.505645751953125,-0.3929290771484375,0.1947174072265625
1761231989593146400,2.287146484375,-0.5010223388671875,-0.421844482421875,0.242218017578125
1761231989603216100,2.297216064453125,-0.493927001953125,-0.4271087646484375,0.2601165771484375
1761231989613285400,2.307285400390625,-0.437713623046875,-0.4004669189453125,0.257659912109375
1761231989623355100,2.317355224609375,-0.3731842041015625,-0.3623504638671875,0.2418212890625
1761231989633424400,2.32742431640625,-0.3437347412109375,-0.3365478515625,0.2291717529296875
1761231989643493000,2.3374931640625,-0.35015869140625,-0.3462066650390625,0.2408599853515625
1761231989653563100,2.347563232421875,-0.461151123046875,-0.3544921875,0.285064697265625
1761231989663632100,2.357632080078125,-0.550537109375,-0.336883544921875,0.366363525390625
1761231989673702100,2.3677021484375,-0.5579833984375,-0.341156005859375,0.448394775390625
1761231989683771100,2.377771240234375,-0.524169921875,-0.384521484375,0.508575439453125
1761231989693840400,2.38784033203125,-0.54656982421875,-0.4182586669921875,0.54888916015625
1761231989703910400,2.397910400390625,-0.6427001953125,-0.46136474609375,0.5826263427734375
1761231989713979100,2.407979248046875,-0.809722900390625,-0.5471954345703125,0.5938568115234375
1761231989724049400,2.41804931640625,-0.9570159912109375,-0.6561737060546875,0.6075897216796875
1761231989734118100,2.4281181640625,-1.1076812744140625,-0.7083587646484375,0.6172943115234375
1761231989744187400,2.4381875,-1.2495574951171875,-0.64312744140625,0.550750732421875
1761231989754257200,2.448257080078125,-1.28936767578125,-0.4937591552734375,0.4108123779296875
1761231989764326400,2.458326416015625,-1.240264892578125,-0.4217071533203125,0.255523681640625
1761231989774396200,2.468396240234375,-1.1697235107421875,-0.420928955078125,0.1453399658203125
1761231989784465400,2.47846533203125,-1.1547393798828125,-0.43841552734375,0.0793609619140625
1761231989794534100,2.4885341796875,-1.15667724609375,-0.4774017333984375,0.0449371337890625
1761231989804604400,2.4986044921875,-1.1412506103515625,-0.513702392578125,0.0160064697265625
1761231989814673200,2.508673095703125,-1.132965087890625,-0.547119140625,0.0185394287109375
1761231989824743200,2.5187431640625,-1.1390533447265625,-0.585052490234375,0.0386199951171875
1761231989834812200,2.528812255859375,-1.133209228515625,-0.602203369140625,0.0518035888671875
1761231989844881400,2.53888134765625,-1.0957489013671875,-0.579864501953125,0.0445709228515625
1761231989854951200,2.548951171875,-1.011932373046875,-0.5373382568359375,0.0220794677734375
1761231989865020200,2.559020263671875,-0.916534423828125,-0.4997711181640625,0.0011444091796875
1761231989875090200,2.569090087890625,-0.8368988037109375,-0.4887237548828125,-0.0142974853515625
1761231989885159200,2.5791591796875,-0.7802581787109375,-0.4984893798828125,-0.00360107421875
1761231989895228200,2.589228271484375,-0.770050048828125,-0.5024261474609375,0.0249176025390625
1761231989905298200,2.599298095703125,-0.78436279296875,-0.4896087646484375,0.0468292236328125
1761231989915367200,2.6093671875,-0.780853271484375,-0.471099853515625,0.0556182861328125
1761231989925437200,2.619437255859375,-0.7631072998046875,-0.45849609375,0.051116943359375
1761231989935506400,2.62950634765625,-0.7518463134765625,-0.4449310302734375,0.0338134765625
1761231989945575200,2.6395751953125,-0.7454986572265625,-0.417633056640625,0.0058135986328125
1761231989955642000,2.64964208984375,-0.726470947265625,-0.3826446533203125,-0.0315399169921875
1761231989965711400,2.65971142578125,-0.704833984375,-0.3424224853515625,-0.0722503662109375
1761231989975781000,2.669781005859375,-0.6884613037109375,-0.29962158203125,-0.1158599853515625
1761231989985850400,2.679850341796875,-0.653900146484375,-0.2612457275390625,-0.14984130859375
1761231989995920100,2.689920166015625,-0.599334716796875,-0.233551025390625,-0.1655731201171875
1761231990005989400,2.6999892578125,-0.5549163818359375,-0.2146453857421875,-0.167877197265625
1761231990016058000,2.71005810546875,-0.54949951171875,-0.2032318115234375,-0.1580047607421875
1761231990026128400,2.72012841796875,-0.5735321044921875,-0.2099456787109375,-0.141204833984375
1761231990036197000,2.730197021484375,-0.5894775390625,-0.22698974609375,-0.124237060546875
1761231990046267400,2.740267333984375,-0.625762939453125,-0.2325439453125,-0.105194091796875
1761231990056336100,2.750336181640625,-0.6544189453125,-0.249969482421875,-0.0681915283203125
1761231990066405400,2.7604052734375,-0.6248779296875,-0.31494140625,-0.0264434814453125
1761231990076475400,2.770475341796875,-0.6148681640625,-0.396270751953125,0.004547119140625
1761231990086544400,2.78054443359375,-0.637115478515625,-0.4900054931640625,0.0489959716796875
1761231990096614400,2.790614501953125,-0.7254791259765625,-0.5447235107421875,0.07659912109375
1761231990106683100,2.80068310546875,-0.842559814453125,-0.579376220703125,0.0891876220703125
1761231990116752400,2.81075244140625,-0.9237518310546875,-0.6453704833984375,0.0859832763671875
1761231990126822100,2.820822265625,-0.983795166015625,-0.6811065673828125,0.0657806396484375
1761231990136891400,2.830891357421875,-1.0569610595703125,-0.6597137451171875,0.020721435546875
1761231990146961200,2.840961181640625,-1.112213134765625,-0.6422882080078125,-0.0128631591796875
1761231990157030400,2.851030517578125,-1.149261474609375,-0.6675262451171875,-0.02154541015625
1761231990167099100,2.86109912109375,-1.187957763671875,-0.676177978515625,-0.02587890625
1761231990177169400,2.87116943359375,-1.20574951171875,-0.6579437255859375,-0.0283203125
1761231990187238100,2.881238037109375,-1.1435546875,-0.643218994140625,0.01007080078125
1761231990197308400,2.891308349609375,-1.0442047119140625,-0.6384735107421875,0.087799072265625
1761231990207377200,2.901377197265625,-1.037200927734375,-0.61956787109375,0.185028076171875
1761231990217446400,2.9114462890625,-1.085479736328125,-0.599090576171875,0.29754638671875
1761231990227516200,2.92151611328125,-1.11273193359375,-0.60028076171875,0.41558837890625
1761231990237585400,2.93158544921875,-1.1611175537109375,-0.6103057861328125,0.5088348388671875
1761231990247655400,2.941655517578125,-1.2355194091796875,-0.629974365234375,0.55670166015625
1761231990257724200,2.95172412109375,-1.2743072509765625,-0.66094970703125,0.5368499755859375
1761231990267793200,2.961793212890625,-1.2563629150390625,-0.668121337890625,0.4497222900390625
1761231990277863200,2.97186328125,-1.24609375,-0.6482391357421875,0.3214263916015625
1761231990287932400,2.981932373046875,-1.22235107421875,-0.620941162109375,0.1934051513671875
1761231990298002200,2.992002197265625,-1.1563720703125,-0.5717010498046875,0.0833587646484375
1761231990308071400,3.002071533203125,-1.0487060546875,-0.495819091796875,-0.00689697265625
1761231990318140200,3.01214013671875,-0.8969573974609375,-0.4298095703125,-0.0452880859375
1761231990328210400,3.02221044921875,-0.7839508056640625,-0.4015655517578125,-0.013427734375
1761231990338279200,3.032279052734375,-0.7516937255859375,-0.4163818359375,0.063446044921875
1761231990348349400,3.042349365234375,-0.7384185791015625,-0.4462738037109375,0.14208984375
1761231990358418200,3.052418212890625,-0.7058258056640625,-0.464813232421875,0.194091796875
1761231990368487400,3.0624873046875,-0.647796630859375,-0.4723663330078125,0.2258758544921875
1761231990378557200,3.07255712890625,-0.597076416015625,-0.4734344482421875,0.244964599609375
1761231990388626400,3.08262646484375,-0.584503173828125,-0.470001220703125,0.2565460205078125
1761231990398696200,3.0926962890625,-0.586456298828125,-0.4604644775390625,0.27435302734375
1761231990408765400,3.102765380859375,-0.589141845703125,-0.44140625,0.286651611328125
1761231990418835200,3.112835205078125,-0.593109130859375,-0.4055328369140625,0.2782440185546875
1761231990428904200,3.122904296875,-0.585479736328125,-0.3682098388671875,0.264434814453125
1761231990438973200,3.13297314453125,-0.5750579833984375,-0.3442840576171875,0.260589599609375
1761231990449043200,3.143043212890625,-0.551239013671875,-0.347625732421875,0.2886810302734375
1761231990459112200,3.1531123046875,-0.5316162109375,-0.382232666015625,0.3461761474609375
1761231990469182200,3.16318212890625,-0.5570220947265625,-0.4010467529296875,0.406951904296875
1761231990479251500,3.17325146484375,-0.6365966796875,-0.4097137451171875,0.483123779296875
1761231990489320200,3.1833203125,-0.7617034912109375,-0.4321746826171875,0.547332763671875
1761231990499390500,3.193390380859375,-0.934478759765625,-0.4576416015625,0.5878448486328125
1761231990509459200,3.203459228515625,-1.1043701171875,-0.4761962890625,0.6230010986328125
1761231990519529200,3.213529296875,-1.1970672607421875,-0.4888458251953125,0.6491241455078125
1761231990529598200,3.22359814453125,-1.2563934326171875,-0.4684906005859375,0.63128662109375
1761231990539667500,3.23366748046875,-1.2855224609375,-0.410675048828125,0.5623626708984375
1761231990549737200,3.2437373046875,-1.277313232421875,-0.3365020751953125,0.4623565673828125
1761231990559806500,3.253806396484375,-1.2985687255859375,-0.274078369140625,0.38751220703125
1761231990569876200,3.263876220703125,-1.376312255859375,-0.2544708251953125,0.35357666015625
1761231990579945200,3.2739453125,-1.4344329833984375,-0.2555084228515625,0.3367919921875
1761231990590014200,3.28401416015625,-1.4370574951171875,-0.2509918212890625,0.3430023193359375
1761231990600084200,3.294084228515625,-1.3859710693359375,-0.2514801025390625,0.3517303466796875
1761231990610153200,3.3041533203125,-1.30902099609375,-0.2747039794921875,0.360382080078125
1761231990620223200,3.31422314453125,-1.261871337890625,-0.31024169921875,0.3722076416015625
1761231990630292200,3.324292236328125,-1.2222442626953125,-0.3365478515625,0.371917724609375
1761231990640361200,3.334361328125,-1.1603240966796875,-0.3484649658203125,0.3653564453125
1761231990650431500,3.344431396484375,-1.108978271484375,-0.3610992431640625,0.352386474609375
1761231990660500200,3.354500244140625,-1.0722198486328125,-0.3819427490234375,0.334381103515625
1761231990670570500,3.364570556640625,-1.0328521728515625,-0.39288330078125,0.3081512451171875
1761231990680639200,3.37463916015625,-0.981903076171875,-0.386016845703125,0.2722015380859375
1761231990690708500,3.38470849609375,-0.93060302734375,-0.362640380859375,0.2302093505859375
1761231990700778200,3.3947783203125,-0.8896942138671875,-0.3349761962890625,0.18804931640625
1761231990710847500,3.404847412109375,-0.85406494140625,-0.3126220703125,0.1587982177734375
1761231990720917200,3.414917236328125,-0.820220947265625,-0.29461669921875,0.1412353515625
1761231990730986200,3.424986328125,-0.78594970703125,-0.2777557373046875,0.1294403076171875
1761231990741055200,3.43505517578125,-0.753814697265625,-0.2650299072265625,0.12628173828125
1761231990751125200,3.445125244140625,-0.734527587890625,-0.2567138671875,0.12939453125
1761231990761194200,3.4551943359375,-0.71893310546875,-0.2475433349609375,0.1279449462890625
1761231990771264300,3.46526416015625,-0.706695556640625,-0.2380828857421875,0.114715576171875
1761231990781333200,3.475333251953125,-0.7010498046875,-0.2285003662109375,0.0875701904296875
1761231990791402200,3.48540234375,-0.679351806640625,-0.218536376953125,0.051666259765625
1761231990801472300,3.49547216796875,-0.6384124755859375,-0.201873779296875,0.016754150390625
1761231990811541200,3.505541259765625,-0.5973968505859375,-0.18231201171875,-0.00750732421875
1761231990821611300,3.515611328125,-0.5570831298828125,-0.1724395751953125,-0.0111083984375
1761231990831680300,3.52568017578125,-0.514129638671875,-0.19281005859375,0.0220184326171875
1761231990841750300,3.535750244140625,-0.4957122802734375,-0.2445068359375,0.10675048828125
1761231990851819300,3.5458193359375,-0.516998291015625,-0.3018646240234375,0.2124786376953125
1761231990861888300,3.55588818359375,-0.5625457763671875,-0.3606414794921875,0.3127593994140625
1761231990871958300,3.565958251953125,-0.66802978515625,-0.4228668212890625,0.380157470703125
1761231990882027300,3.57602734375,-0.789337158203125,-0.4915924072265625,0.3892059326171875
1761231990892097300,3.58609716796875,-0.889129638671875,-0.5379180908203125,0.3790435791015625
1761231990902166300,3.596166259765625,-1.032684326171875,-0.55035400390625,0.363037109375
1761231990912235300,3.6062353515625,-1.2117767333984375,-0.526947021484375,0.32891845703125
1761231990922305300,3.61630517578125,-1.3227081298828125,-0.4910430908203125,0.24749755859375
1761231990932374300,3.626374267578125,-1.32293701171875,-0.4720306396484375,0.1228485107421875
1761231990942444300,3.6364443359375,-1.2677154541015625,-0.4462738037109375,-0.016387939453125
1761231990952513500,3.646513427734375,-1.1943206787109375,-0.4167022705078125,-0.1322174072265625
1761231990962582300,3.656582275390625,-1.10882568359375,-0.4022216796875,-0.1904449462890625
1761231990972652500,3.666652587890625,-1.0396270751953125,-0.4087677001953125,-0.1925201416015625
1761231990982721300,3.67672119140625,-1.005828857421875,-0.42669677734375,-0.1331939697265625
1761231990992791300,3.686791259765625,-1.0123138427734375,-0.46502685546875,-0.0293426513671875
1761231991002860300,3.6968603515625,-0.98834228515625,-0.5220489501953125,0.0745849609375
1761231991012929500,3.706929443359375,-0.9396820068359375,-0.5728302001953125,0.16534423828125
1761231991022999600,3.71699951171875,-0.9227752685546875,-0.5935516357421875,0.2238006591796875
1761231991033068500,3.727068603515625,-0.9305267333984375,-0.586578369140625,0.251007080078125
1761231991043138600,3.737138671875,-0.9462890625,-0.5731201171875,0.259521484375
1761231991053207300,3.747207275390625,-0.9512786865234375,-0.556732177734375,0.25396728515625
1761231991063276300,3.7572763671875,-0.9500274658203125,-0.533203125,0.2367706298828125
1761231991073346300,3.76734619140625,-0.9439239501953125,-0.5006561279296875,0.1999969482421875
1761231991083415600,3.77741552734375,-0.9290313720703125,-0.449188232421875,0.14727783203125
1761231991093485300,3.7874853515625,-0.87921142578125,-0.376708984375,0.0977325439453125
1761231991103554600,3.797554443359375,-0.8265533447265625,-0.3089141845703125,0.0654296875
1761231991113624300,3.807624267578125,-0.78631591796875,-0.262115478515625,0.0643310546875
1761231991123693600,3.817693603515625,-0.790283203125,-0.2410430908203125,0.0873260498046875
1761231991133762300,3.82776220703125,-0.7750701904296875,-0.2303466796875,0.1134185791015625
1761231991143832300,3.837832275390625,-0.7086639404296875,-0.2056121826171875,0.127288818359375
1761231991153901300,3.8479013671875,-0.646697998046875,-0.1744842529296875,0.148193359375
1761231991163971300,3.857971435546875,-0.603515625,-0.1612701416015625,0.1789703369140625
1761231991174040300,3.868040283203125,-0.5789947509765625,-0.1673583984375,0.1987152099609375
1761231991184109600,3.878109619140625,-0.5579986572265625,-0.18798828125,0.2059173583984375
1761231991194179300,3.888179443359375,-0.538665771484375,-0.2152252197265625,0.1914215087890625
1761231991204248300,3.898248291015625,-0.5032196044921875,-0.2490234375,0.146820068359375
1761231991214318600,3.908318603515625,-0.4168243408203125,-0.3070526123046875,0.127471923828125
1761231991224387300,3.91838720703125,-0.372314453125,-0.3791656494140625,0.138153076171875
1761231991234456300,3.928456298828125,-0.4285430908203125,-0.4585418701171875,0.1836090087890625
1761231991244526300,3.9385263671875,-0.5589141845703125,-0.507720947265625,0.2325286865234375
1761231991254595600,3.948595703125,-0.733856201171875,-0.521820068359375,0.3110198974609375
1761231991264665300,3.958665283203125,-0.89947509765625,-0.526153564453125,0.3930206298828125
1761231991274734600,3.968734619140625,-1.004425048828125,-0.53680419921875,0.4673309326171875
1761231991284803300,3.97880322265625,-1.0788116455078125,-0.5900115966796875,0.5297698974609375
1761231991294873600,3.98887353515625,-1.2169036865234375,-0.617889404296875,0.5393218994140625
1761231991304942300,3.9989423828125,-1.3525543212890625,-0.5443115234375,0.4668426513671875
1761231991315012400,4.009012451171875,-1.4083099365234375,-0.426544189453125,0.343017578125
1761231991325081300,4.019081298828125,-1.422760009765625,-0.3198394775390625,0.22882080078125
1761231991335150600,4.029150634765625,-1.4467010498046875,-0.2382965087890625,0.154327392578125
1761231991345220400,4.039220458984375,-1.472259521484375,-0.1905059814453125,0.1278533935546875
1761231991355289300,4.049289306640625,-1.5144805908203125,-0.1729583740234375,0.16009521484375
1761231991365359400,4.059359375,-1.55206298828125,-0.167694091796875,0.2177734375
1761231991375428400,4.069428466796875,-1.5621795654296875,-0.162811279296875,0.2630462646484375
1761231991385497300,4.079497314453125,-1.564178466796875,-0.16571044921875,0.2965240478515625
1761231991395567400,4.0895673828125,-1.5413360595703125,-0.171417236328125,0.2988433837890625
1761231991405636400,4.09963623046875,-1.5018463134765625,-0.164642333984375,0.257080078125
1761231991415706400,4.109706298828125,-1.4415435791015625,-0.1445159912109375,0.18817138671875
1761231991425775400,4.119775390625,-1.3740386962890625,-0.143585205078125,0.12591552734375
1761231991435844400,4.12984423828125,-1.296966552734375,-0.1730194091796875,0.0799102783203125
1761231991445914600,4.13991455078125,-1.21514892578125,-0.2079620361328125,0.0626373291015625
1761231991455983400,4.1499833984375,-1.1568450927734375,-0.2433929443359375,0.06146240234375
1761231991466053400,4.160053466796875,-1.113525390625,-0.28399658203125,0.065582275390625
1761231991476122400,4.170122314453125,-1.081085205078125,-0.3119964599609375,0.0662994384765625
1761231991486192400,4.1801923828125,-1.034698486328125,-0.3269195556640625,0.059600830078125
1761231991496261400,4.190261474609375,-0.9731597900390625,-0.3352813720703125,0.049285888671875
1761231991506330400,4.200330322265625,-0.9121551513671875,-0.330902099609375,0.0350341796875
1761231991516400400,4.210400390625,-0.85894775390625,-0.3212890625,0.023468017578125
1761231991526469400,4.220469482421875,-0.8150482177734375,-0.307891845703125,0.0144500732421875
1761231991536539400,4.230539306640625,-0.7930450439453125,-0.29443359375,0.0002899169921875
1761231991546608400,4.2406083984375,-0.7853546142578125,-0.2855224609375,-0.01165771484375
1761231991556677400,4.250677490234375,-0.78076171875,-0.2645263671875,-0.02215576171875
1761231991566747400,4.260747314453125,-0.7706298828125,-0.23748779296875,-0.0354156494140625
1761231991576816400,4.27081640625,-0.7546844482421875,-0.213470458984375,-0.050628662109375
1761231991586886400,4.280886474609375,-0.7357177734375,-0.1915740966796875,-0.0569305419921875
1761231991596955400,4.290955322265625,-0.7205047607421875,-0.178558349609375,-0.056793212890625
1761231991607024400,4.3010244140625,-0.71002197265625,-0.179656982421875,-0.0608673095703125
1761231991617094400,4.311094482421875,-0.7071533203125,-0.19927978515625,-0.067352294921875
1761231991627163400,4.321163330078125,-0.70733642578125,-0.2614288330078125,-0.0481414794921875
1761231991637233400,4.3312333984375,-0.7270050048828125,-0.3435516357421875,-0.0374755859375
1761231991647302400,4.341302490234375,-0.765899658203125,-0.3793792724609375,-0.0578765869140625
1761231991657371600,4.35137158203125,-0.759613037109375,-0.382781982421875,-0.08740234375
1761231991667441400,4.36144140625,-0.7626495361328125,-0.40185546875,-0.10687255859375
1761231991677510400,4.371510498046875,-0.798797607421875,-0.446441650390625,-0.1037139892578125
1761231991687580400,4.381580322265625,-0.8623809814453125,-0.4854278564453125,-0.0924835205078125
1761231991697649400,4.3916494140625,-0.9275360107421875,-0.5024566650390625,-0.0967559814453125
1761231991707718400,4.401718505859375,-0.9733123779296875,-0.497161865234375,-0.1179962158203125
1761231991717788400,4.411788330078125,-0.9984588623046875,-0.4892730712890625,-0.1441650390625
1761231991727857400,4.421857421875,-1.0140533447265625,-0.49371337890625,-0.1594390869140625
1761231991737927400,4.431927490234375,-1.0464019775390625,-0.506591796875,-0.16845703125
1761231991747996400,4.441996337890625,-1.07916259765625,-0.518707275390625,-0.1756744384765625
1761231991758066400,4.45206640625,-1.0828857421875,-0.52783203125,-0.1888275146484375
1761231991768135400,4.462135498046875,-1.0784149169921875,-0.5370330810546875,-0.1934051513671875
1761231991778204400,4.472204345703125,-1.0771484375,-0.5496826171875,-0.183258056640625
1761231991788274200,4.482274169921875,-1.077178955078125,-0.5604400634765625,-0.1605224609375
1761231991798343400,4.492343505859375,-1.0614776611328125,-0.5659027099609375,-0.1291961669921875
1761231991808413400,4.502413330078125,-1.003509521484375,-0.5687103271484375,-0.0956268310546875
1761231991818482400,4.512482421875,-0.9406890869140625,-0.568695068359375,-0.064788818359375
1761231991828551200,4.52255126953125,-0.899871826171875,-0.5686492919921875,-0.0325927734375
1761231991838621400,4.532621337890625,-0.873077392578125,-0.576446533203125,-0.0037384033203125
1761231991848690400,4.5426904296875,-0.84539794921875,-0.5869140625,0.02142333984375
1761231991858760400,4.552760498046875,-0.842742919921875,-0.5913238525390625,0.0305328369140625
1761231991868829400,4.562829345703125,-0.83282470703125,-0.5907135009765625,0.0315093994140625
1761231991878898400,4.5728984375,-0.8271636962890625,-0.588836669921875,0.02398681640625
1761231991888968400,4.582968505859375,-0.823883056640625,-0.5842437744140625,0.005126953125
1761231991899037400,4.593037353515625,-0.8025665283203125,-0.5693511962890625,-0.02081298828125
1761231991909107500,4.603107421875,-0.77740478515625,-0.5458221435546875,-0.0336151123046875
1761231991919176400,4.613176513671875,-0.766510009765625,-0.5344390869140625,-0.0279083251953125
1761231991929245400,4.623245361328125,-0.7630462646484375,-0.529510498046875,-0.0139617919921875
1761231991939315200,4.633315185546875,-0.7559967041015625,-0.5186920166015625,0.0018768310546875
1761231991949384400,4.643384521484375,-0.7427978515625,-0.5069122314453125,0.0243988037109375
1761231991959457300,4.653457275390625,-0.7296142578125,-0.5032501220703125,0.047637939453125
1761231991969526000,4.663526123046875,-0.7246246337890625,-0.513214111328125,0.0773468017578125
1761231991979595300,4.67359521484375,-0.725494384765625,-0.543060302734375,0.1068115234375
1761231991989665300,4.683665283203125,-0.737884521484375,-0.5825653076171875,0.131622314453125
1761231991999734300,4.693734375,-0.7593231201171875,-0.6012115478515625,0.1490631103515625
1761231992009804300,4.70380419921875,-0.778564453125,-0.5897674560546875,0.1421051025390625
1761231992019873000,4.713873046875,-0.7821197509765625,-0.554534912109375,0.1182403564453125
1761231992029942300,4.7239423828125,-0.7977752685546875,-0.52069091796875,0.110260009765625
1761231992040012000,4.734011962890625,-0.8235015869140625,-0.5040435791015625,0.125030517578125
1761231992050081300,4.744081298828125,-0.843017578125,-0.4936065673828125,0.1457977294921875
1761231992060151000,4.754151123046875,-0.8787841796875,-0.4708251953125,0.1582489013671875
1761231992070220300,4.76422021484375,-0.8888702392578125,-0.449462890625,0.1643524169921875
1761231992080290000,4.7742900390625,-0.8972625732421875,-0.429931640625,0.1642608642578125
1761231992090359300,4.784359375,-0.9365692138671875,-0.41571044921875,0.168701171875
1761231992100428000,4.794427978515625,-0.963409423828125,-0.4173736572265625,0.1789093017578125
1761231992110498300,4.804498291015625,-0.9879150390625,-0.421417236328125,0.193756103515625
1761231992120565200,4.814565185546875,-1.034149169921875,-0.434967041015625,0.2079925537109375
1761231992130635300,4.82463525390625,-1.058319091796875,-0.4523468017578125,0.2149810791015625
1761231992140704300,4.834704345703125,-1.0679779052734375,-0.456939697265625,0.212890625
1761231992150773000,4.84477294921875,-1.05963134765625,-0.449859619140625,0.2034149169921875
1761231992160843000,4.854843017578125,-1.0508880615234375,-0.4395904541015625,0.184722900390625
1761231992170912300,4.864912353515625,-1.0588531494140625,-0.430145263671875,0.1598358154296875
1761231992180982000,4.87498193359375,-1.06353759765625,-0.424285888671875,0.139129638671875
1761231992191051300,4.88505126953125,-1.092132568359375,-0.4197235107421875,0.1196746826171875
1761231992201120300,4.895120361328125,-1.13067626953125,-0.4142608642578125,0.0965423583984375
1761231992211190300,4.905190185546875,-1.152130126953125,-0.4049835205078125,0.068267822265625
1761231992221259000,4.915259033203125,-1.176116943359375,-0.4023284912109375,0.0317230224609375
1761231992231329300,4.925329345703125,-1.1953582763671875,-0.4106292724609375,-0.0133514404296875
1761231992241398000,4.93539794921875,-1.1984710693359375,-0.4049530029296875,-0.0718841552734375
1761231992251467300,4.94546728515625,-1.172119140625,-0.3753509521484375,-0.13311767578125
1761231992261537000,4.955537109375,-1.1287994384765625,-0.3434600830078125,-0.1815185546875
1761231992271606300,4.965606201171875,-1.0895233154296875,-0.32965087890625,-0.21405029296875
1761231992281676000,4.975676025390625,-1.036407470703125,-0.3377685546875,-0.2170562744140625
1761231992291745300,4.985745361328125,-0.9632110595703125,-0.35333251953125,-0.19879150390625
1761231992301814000,4.99581396484375,-0.8765411376953125,-0.3604888916015625,-0.1757659912109375
1761231992311884300,5.00588427734375,-0.7773284912109375,-0.3614959716796875,-0.15576171875
1761231992321953000,5.015953125,-0.696685791015625,-0.3553466796875,-0.1374969482421875
1761231992332023000,5.02602294921875,-0.641326904296875,-0.3477325439453125,-0.112396240234375
1761231992342092300,5.03609228515625,-0.6106719970703125,-0.3477325439453125,-0.077728271484375
1761231992352161300,5.046161376953125,-0.60626220703125,-0.359771728515625,-0.0343780517578125
1761231992362231300,5.056231201171875,-0.623931884765625,-0.3748321533203125,0.005584716796875
1761231992372300000,5.066300048828125,-0.6387481689453125,-0.3809356689453125,0.0259246826171875
1761231992382370300,5.076370361328125,-0.6427459716796875,-0.36651611328125,0.0229339599609375
1761231992392439000,5.08643896484375,-0.653076171875,-0.3380279541015625,-0.0057525634765625
1761231992402508300,5.09650830078125,-0.684906005859375,-0.31231689453125,-0.0507049560546875
1761231992412578000,5.106578125,-0.7217559814453125,-0.294586181640625,-0.1043701171875
1761231992422647300,5.116647216796875,-0.72479248046875,-0.270050048828125,-0.160064697265625
1761231992432717000,5.126717041015625,-0.6944732666015625,-0.248077392578125,-0.1973114013671875
1761231992442786300,5.136786376953125,-0.6428070068359375,-0.278411865234375,-0.1925811767578125
1761231992452856000,5.14685595703125,-0.653289794921875,-0.34698486328125,-0.17510986328125
1761231992462925300,5.15692529296875,-0.7084503173828125,-0.412811279296875,-0.1517333984375
1761231992472994000,5.166994140625,-0.7542877197265625,-0.4802703857421875,-0.1401824951171875
1761231992483064000,5.17706396484375,-0.82196044921875,-0.54766845703125,-0.119537353515625
1761231992493133000,5.187133056640625,-0.906005859375,-0.626190185546875,-0.0869293212890625
1761231992503203000,5.197203125,-0.9591064453125,-0.6989898681640625,-0.0611419677734375
1761231992513272000,5.20727197265625,-0.9689788818359375,-0.722412109375,-0.0715484619140625
1761231992523341000,5.217341064453125,-0.9804229736328125,-0.686492919921875,-0.1131439208984375
1761231992533411300,5.227411376953125,-0.99176025390625,-0.6295013427734375,-0.154083251953125
1761231992543480000,5.23747998046875,-0.9816741943359375,-0.5951995849609375,-0.1795196533203125
1761231992553550300,5.24755029296875,-0.9957122802734375,-0.5915069580078125,-0.1765594482421875
1761231992563619000,5.257619140625,-1.053558349609375,-0.60009765625,-0.141754150390625
1761231992573688300,5.267688232421875,-1.1081695556640625,-0.6106719970703125,-0.088714599609375
1761231992583758000,5.277758056640625,-1.12359619140625,-0.612213134765625,-0.038299560546875
1761231992593827300,5.287827392578125,-1.0968475341796875,-0.584930419921875,0.007720947265625
1761231992603897000,5.29789697265625,-1.0594635009765625,-0.5502166748046875,0.0624542236328125
1761231992613966300,5.30796630859375,-1.029998779296875,-0.5376434326171875,0.1296539306640625
1761231992624035000,5.31803515625,-1.0178375244140625,-0.54986572265625,0.1912841796875
1761231992634105000,5.32810498046875,-1.0340118408203125,-0.5752716064453125,0.2395782470703125
1761231992644174000,5.338174072265625,-1.043487548828125,-0.5981903076171875,0.257110595703125
1761231992654244000,5.348244140625,-1.0449066162109375,-0.621734619140625,0.2421722412109375
1761231992664313000,5.35831298828125,-1.023956298828125,-0.6328887939453125,0.1922454833984375
1761231992674382300,5.36838232421875,-0.964324951171875,-0.621612548828125,0.1222381591796875
1761231992684452000,5.3784521484375,-0.9156646728515625,-0.5946197509765625,0.0612030029296875
1761231992694521000,5.38852099609375,-0.87139892578125,-0.55902099609375,0.0128021240234375
1761231992704591400,5.39859130859375,-0.8417816162109375,-0.5157470703125,-0.024017333984375
1761231992714662100,5.408662109375,-0.8123931884765625,-0.470703125,-0.044281005859375
1761231992724732200,5.418732177734375,-0.780029296875,-0.43621826171875,-0.0393218994140625
1761231992734801200,5.42880126953125,-0.7535552978515625,-0.4099884033203125,-0.0111846923828125
1761231992744870100,5.4388701171875,-0.721527099609375,-0.3928070068359375,0.0270233154296875
1761231992754940200,5.448940185546875,-0.6934661865234375,-0.3697509765625,0.063201904296875
1761231992765009200,5.459009033203125,-0.67352294921875,-0.335052490234375,0.0968017578125
1761231992775079200,5.4690791015625,-0.6542510986328125,-0.304901123046875,0.1205902099609375
1761231992785148200,5.479148193359375,-0.624481201171875,-0.2794647216796875,0.13616943359375
1761231992795217200,5.489217041015625,-0.584228515625,-0.2626800537109375,0.1495208740234375
1761231992805287200,5.499287109375,-0.54327392578125,-0.2573394775390625,0.1693572998046875
1761231992815356200,5.509356201171875,-0.5192108154296875,-0.2705078125,0.20574951171875
1761231992825426200,5.51942626953125,-0.5443878173828125,-0.291046142578125,0.244873046875
1761231992835495200,5.5294951171875,-0.5841827392578125,-0.3134918212890625,0.282562255859375
1761231992845564200,5.539564208984375,-0.61761474609375,-0.34490966796875,0.32550048828125
1761231992855634200,5.54963427734375,-0.686737060546875,-0.39288330078125,0.3800048828125
1761231992865703200,5.559703125,-0.8073883056640625,-0.4646759033203125,0.443572998046875
1761231992875773200,5.569773193359375,-0.9026947021484375,-0.527130126953125,0.483795166015625
1761231992885842200,5.57984228515625,-0.9525909423828125,-0.5505828857421875,0.48822021484375
1761231992895911200,5.5899111328125,-0.9943695068359375,-0.5387725830078125,0.4587249755859375
1761231992905981200,5.599981201171875,-1.0612030029296875,-0.5074005126953125,0.421539306640625
1761231992916050200,5.61005029296875,-1.11865234375,-0.45928955078125,0.3755340576171875
1761231992926120000,5.620119873046875,-1.14898681640625,-0.4105224609375,0.3227386474609375
1761231992936189200,5.630189208984375,-1.1793670654296875,-0.3728179931640625,0.2933197021484375
1761231992946258200,5.640258056640625,-1.2083892822265625,-0.347900390625,0.2723388671875
1761231992956325400,5.650325439453125,-1.2439727783203125,-0.321075439453125,0.2480926513671875
1761231992966394000,5.66039404296875,-1.248870849609375,-0.3292236328125,0.2355194091796875
1761231992976464400,5.67046435546875,-1.251861572265625,-0.37774658203125,0.2188568115234375
1761231992986533000,5.680533203125,-1.25982666015625,-0.4148406982421875,0.185791015625
1761231992996602400,5.690602294921875,-1.2520904541015625,-0.4131011962890625,0.13165283203125
1761231993006672100,5.700672119140625,-1.2171478271484375,-0.3838043212890625,0.0694732666015625
1761231993016741400,5.710741455078125,-1.1572113037109375,-0.35601806640625,0.02801513671875
1761231993026811100,5.72081103515625,-1.1033477783203125,-0.352142333984375,0.0159759521484375
1761231993036880100,5.730880126953125,-1.0803070068359375,-0.3554840087890625,0.0191497802734375
1761231993046949000,5.74094921875,-1.05487060546875,-0.35107421875,0.0237884521484375
1761231993057019100,5.75101904296875,-1.0113067626953125,-0.3428955078125,0.032745361328125
1761231993067088100,5.761088134765625,-0.9720458984375,-0.343658447265625,0.0472564697265625
1761231993077158100,5.771158203125,-0.9380035400390625,-0.3501434326171875,0.0657501220703125
1761231993087227400,5.781227294921875,-0.9066314697265625,-0.346282958984375,0.08599853515625
1761231993097296100,5.791296142578125,-0.8756561279296875,-0.3353118896484375,0.105255126953125
1761231993107366400,5.801366455078125,-0.847808837890625,-0.324493408203125,0.1187744140625
1761231993117435100,5.81143505859375,-0.8265838623046875,-0.3180389404296875,0.119659423828125
1761231993127505400,5.82150537109375,-0.8126373291015625,-0.3160400390625,0.1022491455078125
1761231993137574100,5.83157421875,-0.8087615966796875,-0.3115692138671875,0.0699462890625
1761231993147644200,5.84164404296875,-0.8143463134765625,-0.301361083984375,0.037322998046875
1761231993157713200,5.851713134765625,-0.8330535888671875,-0.2867279052734375,0.006744384765625
1761231993167782400,5.861782470703125,-0.8588104248046875,-0.265533447265625,-0.0137481689453125
1761231993177852200,5.87185205078125,-0.8714599609375,-0.238616943359375,-0.0323944091796875
1761231993187921400,5.88192138671875,-0.8782196044921875,-0.2066802978515625,-0.056732177734375
1761231993197991200,5.8919912109375,-0.877685546875,-0.1730804443359375,-0.0820159912109375
1761231993208060200,5.90206005859375,-0.8539276123046875,-0.145965576171875,-0.09954833984375
1761231993218129200,5.912129150390625,-0.804229736328125,-0.1672515869140625,-0.0860595703125
1761231993228199200,5.92219921875,-0.7968292236328125,-0.246063232421875,-0.062286376953125
1761231993238268200,5.93226806640625,-0.8359222412109375,-0.2985076904296875,-0.02911376953125
1761231993248338200,5.942338134765625,-0.8480987548828125,-0.311767578125,-0.0220489501953125
1761231993258407400,5.952407470703125,-0.86614990234375,-0.324462890625,-0.02093505859375
1761231993268476200,5.96247607421875,-0.8899993896484375,-0.376312255859375,0.0146331787109375
1761231993278546400,5.97254638671875,-0.9825592041015625,-0.4566650390625,0.047821044921875
1761231993288615200,5.982615234375,-1.0818328857421875,-0.4919281005859375,0.03155517578125
1761231993298685400,5.992685546875,-1.09765625,-0.4575042724609375,-0.022430419921875
1761231993308754200,6.002754150390625,-1.0262298583984375,-0.4219970703125,-0.0641021728515625
1761231993318823400,6.012823486328125,-0.9654541015625,-0.4352569580078125,-0.080108642578125
1761231993328893200,6.02289306640625,-1.00653076171875,-0.4612884521484375,-0.0934600830078125
1761231993338962400,6.03296240234375,-1.094635009765625,-0.4554595947265625,-0.09918212890625
1761231993349032200,6.0430322265625,-1.0976715087890625,-0.44805908203125,-0.09210205078125
1761231993359101200,6.05310107421875,-1.0347137451171875,-0.4535064697265625,-0.08331298828125
1761231993369170200,6.063170166015625,-0.980499267578125,-0.4797210693359375,-0.0571441650390625
1761231993379240200,6.073240234375,-0.952911376953125,-0.525177001953125,0.003387451171875
1761231993389309200,6.08330908203125,-0.942138671875,-0.5682220458984375,0.0685882568359375
1761231993399379200,6.093379150390625,-0.93603515625,-0.6044464111328125,0.1195831298828125
1761231993409448200,6.1034482421875,-0.9428253173828125,-0.6323089599609375,0.152252197265625
1761231993419517200,6.11351708984375,-0.947967529296875,-0.647369384765625,0.1615447998046875
1761231993429587200,6.123587158203125,-0.9563140869140625,-0.66448974609375,0.1555633544921875
1761231993439656200,6.13365625,-1.0066375732421875,-0.6671905517578125,0.1462554931640625
1761231993449726500,6.1437265625,-1.024261474609375,-0.626617431640625,0.1127471923828125
1761231993459795200,6.153795166015625,-0.97906494140625,-0.541107177734375,0.05841064453125
1761231993469864200,6.1638642578125,-0.93157958984375,-0.4548492431640625,0.0162200927734375
1761231993479934200,6.173934326171875,-0.8823089599609375,-0.40618896484375,-0.004425048828125
1761231993490003500,6.18400341796875,-0.84820556640625,-0.3903961181640625,-0.0054168701171875
1761231993500073200,6.1940732421875,-0.8079376220703125,-0.379302978515625,0.0071258544921875
1761231993510142200,6.20414208984375,-0.752044677734375,-0.3602294921875,0.0248870849609375
1761231993520212200,6.214212158203125,-0.7100067138671875,-0.3454742431640625,0.0493621826171875
1761231993530281200,6.22428125,-0.68023681640625,-0.3428802490234375,0.0806427001953125
1761231993540350200,6.23435009765625,-0.6663970947265625,-0.3429412841796875,0.1164398193359375
1761231993550420200,6.244420166015625,-0.6663665771484375,-0.3438568115234375,0.154266357421875
1761231993560489200,6.2544892578125,-0.662139892578125,-0.3457489013671875,0.179718017578125
1761231993570559200,6.264559326171875,-0.651947021484375,-0.3453521728515625,0.1934356689453125
1761231993580628200,6.274628173828125,-0.6344146728515625,-0.33758544921875,0.19122314453125
1761231993590697200,6.284697265625,-0.6219329833984375,-0.3335418701171875,0.1801605224609375
1761231993600767200,6.294767333984375,-0.622100830078125,-0.3411865234375,0.1718292236328125
1761231993610836200,6.304836181640625,-0.61578369140625,-0.3616790771484375,0.1776123046875
1761231993620906200,6.31490625,-0.6394805908203125,-0.3718414306640625,0.17291259765625
1761231993630975200,6.324975341796875,-0.7072601318359375,-0.3536834716796875,0.1613311767578125
1761231993641044200,6.335044189453125,-0.74749755859375,-0.330718994140625,0.1469268798828125
1761231993651114200,6.3451142578125,-0.7610626220703125,-0.334075927734375,0.152374267578125
1761231993661183200,6.355183349609375,-0.8131866455078125,-0.36578369140625,0.1768341064453125
1761231993671253200,6.365253173828125,-0.9041290283203125,-0.3900146484375,0.1984405517578125
1761231993681322200,6.375322265625,-0.983184814453125,-0.3972930908203125,0.2229156494140625
1761231993691391200,6.38539111328125,-1.016845703125,-0.399017333984375,0.22613525390625
1761231993701461200,6.395461181640625,-1.0466766357421875,-0.381927490234375,0.1917724609375
1761231993711530200,6.4055302734375,-1.0899200439453125,-0.3397369384765625,0.1402587890625
1761231993721600300,6.415600341796875,-1.136566162109375,-0.2904815673828125,0.086212158203125
1761231993731669200,6.425669189453125,-1.15740966796875,-0.2587890625,0.033721923828125
1761231993741738200,6.43573828125,-1.1550750732421875,-0.2631378173828125,-0.013397216796875
1761231993751808300,6.445808349609375,-1.1469879150390625,-0.287628173828125,-0.0535888671875
1761231993761877200,6.455877197265625,-1.1376190185546875,-0.3088226318359375,-0.0783843994140625
1761231993771947300,6.465947265625,-1.142303466796875,-0.3302459716796875,-0.0841064453125
1761231993782016300,6.476016357421875,-1.135589599609375,-0.34381103515625,-0.0986175537109375
1761231993792085200,6.486085205078125,-1.1134033203125,-0.3455352783203125,-0.1180267333984375
1761231993802155300,6.4961552734375,-1.0916290283203125,-0.35662841796875,-0.1232757568359375
1761231993812224300,6.506224365234375,-1.0719451904296875,-0.383453369140625,-0.11553955078125
1761231993822294300,6.516294189453125,-1.060943603515625,-0.4076385498046875,-0.102447509765625
1761231993832363000,6.526363037109375,-1.0574188232421875,-0.4195709228515625,-0.090484619140625
1761231993842432300,6.536432373046875,-1.0462188720703125,-0.415435791015625,-0.0967864990234375
1761231993852502300,6.546502197265625,-1.0339508056640625,-0.3932952880859375,-0.1204071044921875
1761231993862571300,6.5565712890625,-1.0376434326171875,-0.356842041015625,-0.151336669921875
1761231993872641300,6.566641357421875,-1.060089111328125,-0.3243865966796875,-0.1707305908203125
1761231993882710300,6.576710205078125,-1.0757904052734375,-0.2992401123046875,-0.172760009765625
1761231993892779300,6.586779296875,-1.057373046875,-0.2791595458984375,-0.169036865234375
1761231993902849300,6.596849365234375,-1.00946044921875,-0.240875244140625,-0.16180419921875
1761231993912918300,6.606918212890625,-0.9397430419921875,-0.2003631591796875,-0.1464691162109375
1761231993922988300,6.61698828125,-0.873291015625,-0.178680419921875,-0.1180572509765625
1761231993933057300,6.627057373046875,-0.8226165771484375,-0.1672821044921875,-0.0839691162109375
1761231993943127000,6.637126953125,-0.76495361328125,-0.1556396484375,-0.061859130859375
1761231993953196300,6.6471962890625,-0.7281951904296875,-0.1466522216796875,-0.0515899658203125
1761231993963268000,6.65726806640625,-0.7307891845703125,-0.1568756103515625,-0.039520263671875
1761231993973338000,6.667338134765625,-0.749481201171875,-0.18310546875,-0.0330047607421875
1761231993983407000,6.677406982421875,-0.7472381591796875,-0.1956329345703125,-0.04913330078125
1761231993993477000,6.68747705078125,-0.7253265380859375,-0.1781463623046875,-0.09527587890625
1761231994003546000,6.697546142578125,-0.710052490234375,-0.154449462890625,-0.1408843994140625
1761231994013615000,6.707614990234375,-0.7000274658203125,-0.14111328125,-0.1737213134765625
1761231994023684900,6.717684814453125,-0.6959381103515625,-0.1344451904296875,-0.19720458984375
1761231994033754000,6.727754150390625,-0.7119293212890625,-0.1509552001953125,-0.18499755859375
1761231994043823900,6.737823974609375,-0.731719970703125,-0.243743896484375,-0.0990447998046875
1761231994053893000,6.74789306640625,-0.790130615234375,-0.3650360107421875,-0.012725830078125
1761231994063961900,6.7579619140625,-0.885528564453125,-0.3964080810546875,0.0106658935546875
1761231994074032000,6.7680322265625,-1.01043701171875,-0.3596954345703125,0.0045623779296875
1761231994084100900,6.778100830078125,-1.1161651611328125,-0.360748291015625,0.033935546875
1761231994094171100,6.788171142578125,-1.234893798828125,-0.4113922119140625,0.0731658935546875
1761231994104239900,6.798239990234375,-1.31927490234375,-0.43377685546875,0.0740814208984375
1761231994114309000,6.80830908203125,-1.338592529296875,-0.3840484619140625,0.0206451416015625
1761231994124379000,6.81837890625,-1.326751708984375,-0.3319854736328125,-0.048614501953125
1761231994134448000,6.8284482421875,-1.330780029296875,-0.3095703125,-0.0882720947265625
1761231994144518100,6.83851806640625,-1.335205078125,-0.3064422607421875,-0.0904998779296875
1761231994154587100,6.848587158203125,-1.3561553955078125,-0.3186798095703125,-0.0668182373046875
1761231994164655900,6.85865576171875,-1.3894805908203125,-0.364288330078125,-0.01715087890625
1761231994174726000,6.868725830078125,-1.406585693359375,-0.4275054931640625,0.032928466796875
1761231994184795100,6.878795166015625,-1.405517578125,-0.471466064453125,0.064178466796875
1761231994194865000,6.888864990234375,-1.37786865234375,-0.5067901611328125,0.0889739990234375
1761231994204934100,6.89893408203125,-1.3392791748046875,-0.5413055419921875,0.11358642578125
1761231994215003100,6.909003173828125,-1.3224639892578125,-0.5673828125,0.1423187255859375
1761231994225073200,6.9190732421875,-1.3046112060546875,-0.56976318359375,0.1768341064453125
1761231994235142000,6.929141845703125,-1.2873077392578125,-0.5398712158203125,0.21038818359375
1761231994245212200,6.939212158203125,-1.28448486328125,-0.4988861083984375,0.2272796630859375
1761231994255281000,6.949281005859375,-1.267547607421875,-0.462921142578125,0.2176055908203125
1761231994265350100,6.95935009765625,-1.2087249755859375,-0.40863037109375,0.17022705078125
1761231994275420000,6.969419921875,-1.1353302001953125,-0.33074951171875,0.109039306640625
1761231994285489200,6.9794892578125,-1.0673370361328125,-0.2712249755859375,0.0511016845703125
1761231994295559000,6.989558837890625,-0.99847412109375,-0.23614501953125,-0.00164794921875
1761231994305628200,6.999628173828125,-0.9405364990234375,-0.2098236083984375,-0.04925537109375
1761231994315697000,7.00969677734375,-0.8796844482421875,-0.1838836669921875,-0.0789794921875
1761231994325767200,7.01976708984375,-0.82867431640625,-0.1555328369140625,-0.0888519287109375
1761231994335836000,7.0298359375,-0.7755126953125,-0.127105712890625,-0.0882568359375
1761231994345906000,7.039906005859375,-0.699951171875,-0.101318359375,-0.0847015380859375
1761231994355975200,7.04997509765625,-0.6437225341796875,-0.08038330078125,-0.0790252685546875
1761231994366045000,7.060044921875,-0.6079254150390625,-0.0732574462890625,-0.0579681396484375
1761231994376114200,7.0701142578125,-0.598876953125,-0.0777587890625,-0.01971435546875
1761231994386183000,7.080182861328125,-0.604827880859375,-0.0926055908203125,0.0191650390625
1761231994396253200,7.090253173828125,-0.62188720703125,-0.1088104248046875,0.0540771484375
1761231994406322000,7.100322021484375,-0.63140869140625,-0.1214447021484375,0.0712738037109375
1761231994416392200,7.11039208984375,-0.618988037109375,-0.1266632080078125,0.0751800537109375
1761231994426461000,7.1204609375,-0.5996246337890625,-0.1269683837890625,0.066741943359375
1761231994436530200,7.1305302734375,-0.578277587890625,-0.140380859375,0.060150146484375
1761231994446600000,7.140599853515625,-0.5701141357421875,-0.1732025146484375,0.0726318359375
1761231994456669200,7.150669189453125,-0.5642547607421875,-0.2330780029296875,0.1241607666015625
1761231994466739000,7.160739013671875,-0.5643463134765625,-0.3148040771484375,0.18414306640625
1761231994476808200,7.17080810546875,-0.6030731201171875,-0.39239501953125,0.235595703125
1761231994486877000,7.180876953125,-0.680450439453125,-0.4504852294921875,0.274383544921875
1761231994496947000,7.190947021484375,-0.8081817626953125,-0.485595703125,0.2929534912109375
1761231994507016000,7.201015869140625,-0.897216796875,-0.5594329833984375,0.3238677978515625
1761231994517086000,7.2110859375,-0.9298248291015625,-0.6696319580078125,0.364898681640625
1761231994527155000,7.221155029296875,-1.044036865234375,-0.7220001220703125,0.3932342529296875
1761231994537224000,7.231223876953125,-1.1517333984375,-0.6637115478515625,0.3562774658203125
1761231994547294200,7.241294189453125,-1.146636962890625,-0.5579833984375,0.2802734375
1761231994557363000,7.251363037109375,-1.1051177978515625,-0.4910430908203125,0.2005157470703125
1761231994567433200,7.26143310546875,-1.09808349609375,-0.459686279296875,0.13671875
1761231994577502000,7.271501953125,-1.128631591796875,-0.423126220703125,0.0982666015625
1761231994587571200,7.2815712890625,-1.16943359375,-0.395904541015625,0.0906829833984375
1761231994597641000,7.291640869140625,-1.1986541748046875,-0.3921356201171875,0.1126556396484375
1761231994607710200,7.301710205078125,-1.203033447265625,-0.39764404296875,0.147613525390625
1761231994617780000,7.311780029296875,-1.1682891845703125,-0.41064453125,0.16619873046875
1761231994627849200,7.32184912109375,-1.1104888916015625,-0.42254638671875,0.167388916015625
1761231994637918000,7.33191796875,-1.0754852294921875,-0.4201507568359375,0.1762237548828125
1761231994647988000,7.341988037109375,-1.056732177734375,-0.396148681640625,0.184783935546875
1761231994658057000,7.352056884765625,-1.0073089599609375,-0.3848724365234375,0.19573974609375
1761231994668127000,7.362126953125,-0.949951171875,-0.39349365234375,0.206146240234375
1761231994678196000,7.372196044921875,-0.91314697265625,-0.4060821533203125,0.2069549560546875
1761231994688265000,7.382264892578125,-0.8986053466796875,-0.40185546875,0.2086639404296875
1761231994698335000,7.3923349609375,-0.889312744140625,-0.3746795654296875,0.2107391357421875
1761231994708404000,7.402404052734375,-0.86383056640625,-0.3443603515625,0.1949462890625
1761231994718474200,7.41247412109375,-0.8347320556640625,-0.321197509765625,0.1552734375
1761231994728543000,7.42254296875,-0.820068359375,-0.2945556640625,0.110198974609375
1761231994738612000,7.432612060546875,-0.7864227294921875,-0.2545166015625,0.046905517578125
1761231994748682000,7.442681884765625,-0.7563629150390625,-0.2135467529296875,-0.022857666015625
1761231994758751000,7.4527509765625,-0.714813232421875,-0.1778564453125,-0.0799560546875
1761231994768821000,7.462821044921875,-0.6733245849609375,-0.136566162109375,-0.108612060546875
1761231994778890200,7.47289013671875,-0.6673736572265625,-0.111541748046875,-0.098236083984375
1761231994788959000,7.482958984375,-0.689605712890625,-0.13214111328125,-0.060455322265625
1761231994799029000,7.493029052734375,-0.727325439453125,-0.17083740234375,-0.0131988525390625
1761231994809098000,7.503097900390625,-0.77276611328125,-0.204803466796875,0.0225067138671875
1761231994819168000,7.51316796875,-0.784149169921875,-0.252716064453125,0.0619354248046875
1761231994829237000,7.523237060546875,-0.7066497802734375,-0.3455963134765625,0.1296844482421875
1761231994839306200,7.53330615234375,-0.66119384765625,-0.4519500732421875,0.1490020751953125
1761231994849376000,7.5433759765625,-0.751373291015625,-0.48236083984375,0.09747314453125
1761231994859445000,7.553445068359375,-0.88079833984375,-0.479461669921875,0.01483154296875
1761231994869515000,7.563514892578125,-0.9423370361328125,-0.5594329833984375,-0.02386474609375
1761231994879584000,7.573583984375,-1.037445068359375,-0.642547607421875,-0.0347137451171875
1761231994889653000,7.583653076171875,-1.19390869140625,-0.5975494384765625,-0.0703125
1761231994899723000,7.593722900390625,-1.299041748046875,-0.4565582275390625,-0.1315460205078125
1761231994909792000,7.6037919921875,-1.3102874755859375,-0.3514862060546875,-0.1697998046875
1761231994919862000,7.613862060546875,-1.2848968505859375,-0.335235595703125,-0.17608642578125
1761231994929931000,7.623930908203125,-1.2747802734375,-0.377471923828125,-0.1483154296875
1761231994940001000,7.6340009765625,-1.2587738037109375,-0.4376373291015625,-0.1025543212890625
1761231994950070000,7.644070068359375,-1.209381103515625,-0.4974822998046875,-0.0581512451171875
1761231994960136000,7.654135986328125,-1.13531494140625,-0.5434417724609375,-0.022857666015625
1761231994970206000,7.6642060546875,-1.0495147705078125,-0.5842437744140625,0.0050811767578125
1761231994980275000,7.67427490234375,-0.9817657470703125,-0.642822265625,0.0430450439453125
1761231994990344000,7.684343994140625,-0.909088134765625,-0.7083892822265625,0.1154022216796875
1761231995000414000,7.6944140625,-0.819122314453125,-0.7762908935546875,0.2062225341796875
1761231995010483000,7.70448291015625,-0.7863922119140625,-0.816162109375,0.2751922607421875
1761231995020553000,7.714552978515625,-0.82257080078125,-0.8238525390625,0.30499267578125
1761231995030622000,7.7246220703125,-0.8709716796875,-0.79351806640625,0.2888031005859375
1761231995040692000,7.73469189453125,-0.914886474609375,-0.7095489501953125,0.2327423095703125
1761231995050761000,7.744760986328125,-0.9759063720703125,-0.5914154052734375,0.177886962890625
1761231995060830000,7.754829833984375,-1.0204315185546875,-0.478759765625,0.1419677734375
1761231995070900000,7.76489990234375,-1.02484130859375,-0.382415771484375,0.1123046875
1761231995080969200,7.77496923828125,-0.996368408203125,-0.3206634521484375,0.0769195556640625
1761231995091039000,7.7850390625,-0.947723388671875,-0.2996368408203125,0.0455322265625
1761231995101108000,7.79510791015625,-0.903228759765625,-0.289459228515625,0.0269622802734375
1761231995111177000,7.805177001953125,-0.8591156005859375,-0.295379638671875,0.0322723388671875
1761231995121247000,7.8152470703125,-0.8132781982421875,-0.305755615234375,0.052490234375
1761231995131316000,7.82531591796875,-0.74737548828125,-0.311187744140625,0.0650787353515625
1761231995141386000,7.835385986328125,-0.6563262939453125,-0.32891845703125,0.0743560791015625
1761231995151455000,7.845455078125,-0.58978271484375,-0.3620452880859375,0.0973358154296875
1761231995161524000,7.85552392578125,-0.555694580078125,-0.397491455078125,0.1320037841796875
1761231995171594000,7.865593994140625,-0.5478057861328125,-0.430206298828125,0.173492431640625
1761231995181663000,7.8756630859375,-0.5709381103515625,-0.452789306640625,0.2120361328125
1761231995191733000,7.88573291015625,-0.581146240234375,-0.4558563232421875,0.22320556640625
1761231995201802000,7.895802001953125,-0.554229736328125,-0.44378662109375,0.205413818359375
1761231995211871000,7.90587109375,-0.531494140625,-0.439422607421875,0.175537109375
1761231995221941000,7.91594091796875,-0.5435943603515625,-0.439971923828125,0.160003662109375
1761231995232010000,7.926010009765625,-0.5796356201171875,-0.437713623046875,0.1542816162109375
1761231995242080000,7.936080078125,-0.6405029296875,-0.4438323974609375,0.165374755859375
1761231995252149000,7.94614892578125,-0.749908447265625,-0.478851318359375,0.19549560546875
1761231995262218000,7.956218017578125,-0.8318634033203125,-0.533599853515625,0.2273406982421875
1761231995272288000,7.9662880859375,-0.8737945556640625,-0.565277099609375,0.2537078857421875
1761231995282357000,7.97635693359375,-0.9732818603515625,-0.563140869140625,0.2800140380859375
1761231995292427000,7.986427001953125,-1.0518646240234375,-0.5597991943359375,0.2868194580078125
1761231995302496000,7.99649609375,-1.064727783203125,-0.56451416015625,0.2530975341796875
1761231995312565000,8.00656494140625,-1.0523681640625,-0.5637054443359375,0.18963623046875
1761231995322635000,8.016635009765626,-1.036712646484375,-0.5355377197265625,0.128082275390625
1761231995332704000,8.0267041015625,-1.061309814453125,-0.4871826171875,0.0918731689453125
1761231995342774000,8.03677392578125,-1.1114959716796875,-0.445220947265625,0.0845489501953125
1761231995352843000,8.046843017578125,-1.1485443115234375,-0.4164276123046875,0.0890350341796875
1761231995362912000,8.056912109375,-1.13604736328125,-0.410064697265625,0.107269287109375
1761231995372982000,8.06698193359375,-1.114898681640625,-0.427276611328125,0.12603759765625
1761231995383051000,8.077051025390626,-1.1090850830078125,-0.44561767578125,0.1386260986328125
1761231995393121000,8.08712109375,-1.0710601806640625,-0.480804443359375,0.163055419921875
1761231995403190000,8.09718994140625,-1.0426788330078125,-0.5183258056640625,0.1913909912109375
1761231995413259000,8.107259033203125,-1.0695343017578125,-0.5344696044921875,0.1976470947265625
1761231995423328800,8.117328857421874,-1.0757598876953125,-0.5414581298828125,0.1677093505859375
1761231995433398000,8.12739794921875,-1.0635223388671875,-0.54815673828125,0.1286163330078125
1761231995443468000,8.137468017578126,-1.0686798095703125,-0.5569610595703125,0.1093597412109375
1761231995453537000,8.147537109375,-1.0743865966796875,-0.5583953857421875,0.1058197021484375
1761231995463605800,8.157605712890625,-1.05072021484375,-0.5400543212890625,0.092803955078125
1761231995473676000,8.167676025390625,-1.001739501953125,-0.5063629150390625,0.0797271728515625
1761231995483745000,8.1777451171875,-0.9455108642578125,-0.470428466796875,0.0712738037109375
1761231995493815000,8.18781494140625,-0.898040771484375,-0.4410858154296875,0.065399169921875
1761231995503884000,8.197884033203126,-0.856048583984375,-0.4166717529296875,0.05413818359375
1761231995513954000,8.2079541015625,-0.7952880859375,-0.38287353515625,0.0427703857421875
1761231995524023000,8.21802294921875,-0.765350341796875,-0.3450469970703125,0.0438385009765625
1761231995534092000,8.228092041015625,-0.7765960693359375,-0.3311614990234375,0.0577392578125
1761231995544162000,8.238162109375,-0.7942047119140625,-0.3347930908203125,0.0662841796875
1761231995554231000,8.24823095703125,-0.7833251953125,-0.3307647705078125,0.0528717041015625
1761231995564301000,8.258301025390624,-0.754180908203125,-0.328460693359375,0.0255889892578125
1761231995574369800,8.268369873046876,-0.7266387939453125,-0.3355712890625,0.0062713623046875
1761231995584439000,8.27843896484375,-0.71490478515625,-0.338653564453125,-0.0052337646484375
1761231995594508800,8.2885087890625,-0.7046051025390625,-0.32989501953125,-0.0202178955078125
1761231995604578000,8.298578125,-0.6935882568359375,-0.31842041015625,-0.03936767578125
1761231995614648000,8.30864794921875,-0.68023681640625,-0.3162994384765625,-0.055328369140625
1761231995624717000,8.318717041015624,-0.6725006103515625,-0.32537841796875,-0.0504302978515625
1761231995634785800,8.328785888671876,-0.6946258544921875,-0.330780029296875,-0.027313232421875
1761231995644856000,8.33885595703125,-0.716156005859375,-0.3326568603515625,-0.00830078125
1761231995654925000,8.348925048828125,-0.74615478515625,-0.3606719970703125,-0.0057525634765625
1761231995664995000,8.3589951171875,-0.8029937744140625,-0.4292755126953125,-0.0108489990234375
1761231995675064000,8.36906396484375,-0.8605499267578125,-0.5002288818359375,-0.0373687744140625
1761231995685133000,8.379133056640624,-0.923980712890625,-0.5455169677734375,-0.0834808349609375
1761231995695203000,8.389203125,-0.98681640625,-0.559112548828125,-0.1258544921875
1761231995705272000,8.39927197265625,-1.0276031494140625,-0.5439605712890625,-0.155792236328125
1761231995715342000,8.409342041015625,-1.0639801025390625,-0.5229949951171875,-0.1722869873046875
1761231995725410800,8.419410888671875,-1.0937347412109375,-0.5123138427734375,-0.1805572509765625
1761231995735480000,8.42947998046875,-1.1118927001953125,-0.5156707763671875,-0.181243896484375
1761231995745549800,8.4395498046875,-1.126617431640625,-0.518829345703125,-0.1917266845703125
1761231995755619000,8.449619140625,-1.119110107421875,-0.5218505859375,-0.206512451171875
1761231995765688800,8.459688720703125,-1.087371826171875,-0.5267181396484375,-0.21240234375
1761231995775758000,8.469758056640625,-1.0440826416015625,-0.5278778076171875,-0.207611083984375
1761231995785826800,8.479826904296875,-1.0001220703125,-0.5364837646484375,-0.175506591796875
1761231995795897000,8.48989697265625,-0.9760894775390625,-0.5644989013671875,-0.12603759765625
1761231995805965800,8.4999658203125,-0.947509765625,-0.5956878662109375,-0.079986572265625
1761231995816036000,8.5100361328125,-0.91729736328125,-0.6120758056640625,-0.0480194091796875
1761231995826104800,8.520104736328125,-0.88812255859375,-0.620574951171875,-0.030426025390625
1761231995836174000,8.530174072265625,-0.87957763671875,-0.6284027099609375,-0.013275146484375
1761231995846244000,8.540244140625,-0.8872528076171875,-0.632965087890625,0.01153564453125
1761231995856313000,8.55031298828125,-0.910400390625,-0.633026123046875,0.0382080078125
1761231995866383000,8.560383056640624,-0.9223175048828125,-0.6160736083984375,0.04034423828125
1761231995876452000,8.5704521484375,-0.9141082763671875,-0.5632781982421875,0.016265869140625
1761231995886522000,8.580522216796876,-0.887359619140625,-0.4971160888671875,-0.016357421875
1761231995896590800,8.5905908203125,-0.8506317138671875,-0.4492645263671875,-0.03143310546875
1761231995906660000,8.60066015625,-0.828369140625,-0.4238128662109375,-0.020904541015625
1761231995916729900,8.610729736328125,-0.8057708740234375,-0.408599853515625,0.003143310546875
1761231995926799000,8.620799072265624,-0.757232666015625,-0.38714599609375,0.031158447265625
1761231995936868900,8.630868896484374,-0.705535888671875,-0.3630828857421875,0.0650177001953125
1761231995946938000,8.640938232421876,-0.6706085205078125,-0.350982666015625,0.1067962646484375
1761231995957006800,8.6510068359375,-0.641265869140625,-0.3536376953125,0.153717041015625
1761231995967077400,8.661077392578125,-0.61285400390625,-0.3465423583984375,0.195220947265625
1761231995977146600,8.671146728515625,-0.590423583984375,-0.330413818359375,0.2262725830078125
1761231995987216400,8.68121630859375,-0.574310302734375,-0.3242645263671875,0.250701904296875
1761231995997285600,8.69128564453125,-0.576171875,-0.3306427001953125,0.26629638671875
1761231996007354600,8.701354736328126,-0.5897064208984375,-0.348480224609375,0.2762451171875
1761231996017424600,8.711424560546876,-0.607177734375,-0.3701171875,0.2777099609375
1761231996027493400,8.721493408203125,-0.6097869873046875,-0.395721435546875,0.269012451171875
1761231996037563600,8.731563720703125,-0.5984954833984375,-0.4290618896484375,0.261474609375
1761231996047632400,8.74163232421875,-0.614532470703125,-0.4517974853515625,0.240203857421875
1761231996057701600,8.75170166015625,-0.6547088623046875,-0.4561767578125,0.2086029052734375
1761231996067771400,8.761771484375,-0.68438720703125,-0.466064453125,0.1826019287109375
1761231996077840600,8.771840576171876,-0.720306396484375,-0.485595703125,0.165283203125
1761231996087910400,8.781910400390625,-0.7844085693359375,-0.5078887939453125,0.1645660400390625
1761231996097979600,8.791979736328125,-0.845703125,-0.527984619140625,0.170166015625
1761231996108048400,8.80204833984375,-0.8999786376953125,-0.538360595703125,0.1793365478515625
1761231996118118400,8.812118408203125,-0.93853759765625,-0.53558349609375,0.1894073486328125
1761231996128185600,8.822185546875,-0.9580841064453125,-0.5217742919921875,0.1837310791015625
1761231996138255600,8.832255615234375,-0.98443603515625,-0.5029754638671875,0.1702728271484375
1761231996148324600,8.84232470703125,-1.01068115234375,-0.487518310546875,0.1515655517578125
1761231996158393600,8.8523935546875,-1.04620361328125,-0.486907958984375,0.1425323486328125
1761231996168463400,8.86246337890625,-1.0724334716796875,-0.51708984375,0.1390228271484375
1761231996178532600,8.87253271484375,-1.0721435546875,-0.5491180419921875,0.1157379150390625
1761231996188602400,8.882602294921876,-1.0697784423828125,-0.55706787109375,0.0789642333984375
1761231996198671600,8.892671630859375,-1.0679931640625,-0.560699462890625,0.0500030517578125
1761231996208740400,8.902740234375,-1.0709228515625,-0.56622314453125,0.04010009765625
1761231996218810600,8.912810546875,-1.060638427734375,-0.56298828125,0.04803466796875
1761231996228879400,8.92287939453125,-1.0512542724609375,-0.5518341064453125,0.0686798095703125
1761231996238949600,8.93294970703125,-1.0573883056640625,-0.5476226806640625,0.099395751953125
1761231996249018400,8.943018310546876,-1.0759735107421875,-0.5496063232421875,0.1291961669921875
1761231996259087600,8.953087646484375,-1.0738525390625,-0.5492401123046875,0.138641357421875
1761231996269157600,8.96315771484375,-1.0579833984375,-0.5349884033203125,0.1295166015625
1761231996279226600,8.9732265625,-1.04071044921875,-0.5183868408203125,0.1201629638671875
1761231996289296600,8.983296630859375,-1.0419158935546875,-0.5070037841796875,0.1132659912109375
1761231996299365600,8.99336572265625,-1.0434112548828125,-0.493804931640625,0.094879150390625
1761231996309434400,9.003434326171876,-1.0128326416015625,-0.4582672119140625,0.0633392333984375
1761231996319504400,9.01350439453125,-0.947021484375,-0.404815673828125,0.02508544921875
1761231996329573600,9.02357373046875,-0.8777618408203125,-0.3638763427734375,-0.0085906982421875
1761231996339643400,9.033643310546875,-0.823150634765625,-0.3362579345703125,-0.0268096923828125
1761231996349712600,9.043712646484375,-0.7911834716796875,-0.304107666015625,-0.027587890625
1761231996359781400,9.053781494140624,-0.7522430419921875,-0.2680816650390625,-0.0240478515625
1761231996369851600,9.0638515625,-0.7135467529296875,-0.245269775390625,-0.0110931396484375
1761231996379920400,9.07392041015625,-0.71209716796875,-0.2447509765625,0.017333984375
1761231996389990700,9.08399072265625,-0.7251739501953125,-0.2607879638671875,0.053619384765625
1761231996400059400,9.094059326171875,-0.7321319580078125,-0.277801513671875,0.0864410400390625
1761231996410128600,9.104128662109375,-0.720916748046875,-0.2893524169921875,0.102569580078125
1761231996420198400,9.114198486328124,-0.7157745361328125,-0.2969970703125,0.1141815185546875
1761231996430267600,9.124267578125,-0.714813232421875,-0.3049163818359375,0.1240081787109375
1761231996440337400,9.13433740234375,-0.7091064453125,-0.3321685791015625,0.125274658203125
1761231996450406700,9.14440673828125,-0.696014404296875,-0.38714599609375,0.130889892578125
1761231996460475400,9.154475341796875,-0.7009429931640625,-0.42974853515625,0.1293182373046875
1761231996470545400,9.16454541015625,-0.72381591796875,-0.4371337890625,0.110748291015625
1761231996480614400,9.174614501953124,-0.702850341796875,-0.4158935546875,0.102874755859375
1761231996490684400,9.184684326171874,-0.819061279296875,-0.3960418701171875,0.133758544921875
1761231996500753700,9.194753662109376,-0.9646759033203125,-0.431182861328125,0.108001708984375
1761231996510823400,9.204823486328126,-0.9180755615234375,-0.47784423828125,0.05023193359375
1761231996520892700,9.214892578125,-0.9219207763671875,-0.4727935791015625,0.0467529296875
1761231996530961400,9.22496142578125,-0.950775146484375,-0.433502197265625,0.0538787841796875
1761231996541031700,9.23503173828125,-0.985382080078125,-0.4109344482421875,0.053466796875
1761231996551100400,9.245100341796874,-1.025238037109375,-0.3870697021484375,0.080535888671875
1761231996561170700,9.255170654296874,-1.0593414306640625,-0.365478515625,0.09600830078125
