time,seconds_elapsed,z,y,x
1761231987379132200,0.073132080078125,-0.07647107541561127,-0.23492169380187988,-0.12696141004562378
1761231987389201200,0.083201171875,-0.054546333849430084,-0.2579817473888397,-0.10429338365793228
1761231987399271200,0.093271240234375,-0.021077588200569153,-0.2524210512638092,-0.09667700529098511
1761231987409340200,0.103340087890625,0.023247266188263893,-0.2045488804578781,-0.10019930452108383
1761231987419410200,0.11341015625,0.07577385753393173,-0.17110010981559753,-0.10141424089670181
1761231987429479200,0.123479248046875,0.11963824927806854,-0.1427678018808365,-0.1061895564198494
1761231987439548200,0.133548095703125,0.14549754559993744,-0.13038596510887146,-0.10455144196748734
1761231987449618400,0.143618408203125,0.14955992996692657,-0.12341221421957016,-0.10137642174959183
1761231987459687200,0.153687255859375,0.14277152717113495,-0.0993710607290268,-0.08635512739419937
1761231987469757400,0.16375732421875,0.12883999943733215,-0.06112061068415642,-0.07009493559598923
1761231987479826200,0.173826171875,0.11533857882022858,-0.029395705088973045,-0.05337321013212204
1761231987489895400,0.1838955078125,0.10555119067430496,-0.016830911859869957,-0.03796336054801941
1761231987499965200,0.193965087890625,0.10315008461475372,-0.02394101954996586,-0.0394563302397728
1761231987510034400,0.204034423828125,0.10567343235015869,-0.04314134642481804,-0.04626070708036423
1761231987520104200,0.214104248046875,0.1144605353474617,-0.07028268277645111,-0.06060449033975601
1761231987530173200,0.224173095703125,0.1249493956565857,-0.07441218197345734,-0.06482160836458206
1761231987540242200,0.2342421875,0.1429757922887802,-0.05283445119857788,-0.05745663493871689
1761231987550312200,0.244312255859375,0.16624410450458527,-0.03868800774216652,-0.04586416110396385
1761231987560381200,0.254381103515625,0.1864287257194519,-0.030646592378616333,-0.035053856670856476
1761231987570451200,0.264451171875,0.19176144897937775,-0.03904993087053299,-0.02364114671945572
1761231987580520200,0.274520263671875,0.18656589090824127,-0.05734611302614212,-0.0007251787465065718
1761231987590589200,0.284589111328125,0.183338925242424,-0.07477996498346329,0.017496168613433838
1761231987600659200,0.2946591796875,0.16773946583271027,-0.08389542996883392,0.03888561204075813
1761231987610728200,0.304728271484375,0.145455464720726,-0.07938936352729797,0.047196272760629654
1761231987620797200,0.314797119140625,0.12499386817216873,-0.04803277179598808,0.05602092295885086
1761231987630867200,0.3248671875,0.10520897805690765,-0.014822888188064098,0.06112806871533394
1761231987640936200,0.334936279296875,0.09074614942073822,0.01264042779803276,0.05885186418890953
1761231987651006200,0.345006103515625,0.07330670207738876,0.03632152080535889,0.04926634952425957
1761231987661076200,0.355076171875,0.06199892237782478,0.0849926546216011,0.04801865667104721
1761231987671146200,0.365146240234375,0.06016533449292183,0.17103059589862823,0.04334481060504913
1761231987681215200,0.37521533203125,0.06575211882591248,0.2932438552379608,0.034567564725875854
1761231987691285200,0.38528515625,0.07196207344532013,0.42993059754371643,0.029390113428235054
1761231987701354200,0.395354248046875,0.0811539739370346,0.5598657131195068,0.031733959913253784
1761231987711423200,0.40542333984375,0.09845493733882904,0.6835373044013977,0.05756848677992821
1761231987721493200,0.4154931640625,0.09533557295799255,0.8203931450843811,0.10948122292757034
1761231987731562200,0.425562255859375,0.07135487347841263,0.9626981019973755,0.1678965985774994
1761231987741631200,0.43563134765625,0.022283202037215233,1.1107429265975952,0.23188543319702148
1761231987751701200,0.445701171875,-0.05000750720500946,1.1471960544586182,0.30237823724746704
1761231987761770200,0.455770263671875,-0.11619984358549118,1.0706013441085815,0.40774381160736084
1761231987771840300,0.46584033203125,-0.13923005759716034,1.070082664489746,0.5752177834510803
1761231987781909200,0.4759091796875,-0.09942672401666641,1.1704413890838623,0.7566820979118347
1761231987791978200,0.485978271484375,-0.006665891967713833,1.2466847896575928,0.902582049369812
1761231987802048300,0.49604833984375,0.08250952512025833,1.2414000034332275,0.9618583917617798
1761231987812117200,0.5061171875,0.11686137318611145,1.0551323890686035,0.9223275184631348
1761231987822187300,0.516187255859375,0.10434531420469284,0.7423912882804871,0.8140995502471924
1761231987832256300,0.52625634765625,0.08100270479917526,0.44839057326316833,0.6834036111831665
1761231987842325200,0.5363251953125,0.057911768555641174,0.1994342803955078,0.5438750386238098
1761231987852395300,0.546395263671875,0.021376129239797592,0.006472013890743256,0.3796890079975128
1761231987862464300,0.55646435546875,-0.008243282325565815,-0.12387001514434814,0.19782572984695435
1761231987872534300,0.5665341796875,-0.03349883854389191,-0.19083786010742188,-0.0004921521758660674
1761231987882603300,0.576603271484375,-0.047037817537784576,-0.2371334582567215,-0.21521350741386414
1761231987892672300,0.58667236328125,-0.0420803427696228,-0.2607154846191406,-0.41742971539497375
1761231987902742300,0.5967421875,-0.02845454402267933,-0.2850154936313629,-0.588699221611023
1761231987912811300,0.606811279296875,-0.008743157610297203,-0.2929503917694092,-0.7129092812538147
1761231987922880300,0.61688037109375,-0.0023960459511727095,-0.23621785640716553,-0.7693960070610046
1761231987932950300,0.6269501953125,-0.004572381265461445,-0.13234925270080566,-0.7504295110702515
1761231987943019300,0.637019287109375,-0.034268759191036224,-0.04350646585226059,-0.6767134666442871
1761231987953090000,0.647090087890625,-0.07240895181894302,0.027569042518734932,-0.5707569718360901
1761231987963159000,0.657158935546875,-0.12433473765850067,0.06395767629146576,-0.44260191917419434
1761231987973228000,0.66722802734375,-0.18771983683109283,0.05242938548326492,-0.3202618956565857
1761231987983298000,0.677298095703125,-0.23888102173805237,0.00310524576343596,-0.21231518685817719
1761231987993367000,0.687366943359375,-0.26009976863861084,-0.03423387184739113,-0.11293906718492508
1761231988003437000,0.69743701171875,-0.25476783514022827,-0.08168207854032516,-0.03845711052417755
1761231988013506000,0.707506103515625,-0.22401072084903717,-0.06427885591983795,0.027478229254484177
1761231988023575000,0.717574951171875,-0.19552475214004517,0.04893744736909866,0.09663785994052887
1761231988033644800,0.727644775390625,-0.19061069190502167,-0.0763283297419548,0.09300371259450912
1761231988043714000,0.737714111328125,-0.17030195891857147,-0.22295771539211273,0.07432723045349121
1761231988053783800,0.74778369140625,-0.11988379061222076,-0.2516420781612396,0.04844582825899124
1761231988063853000,0.75785302734375,-0.0862874835729599,-0.22883477807044983,0.0032032502349466085
1761231988073921800,0.767921875,-0.08372099697589874,-0.16647367179393768,-0.04169445112347603
1761231988083992000,0.777991943359375,-0.11878657341003418,-0.11074888706207275,-0.0895402655005455
1761231988094060800,0.788060791015625,-0.18971480429172516,-0.06053311750292778,-0.14487995207309723
1761231988104131000,0.798131103515625,-0.2659169137477875,0.002951048780232668,-0.21600580215454102
1761231988114199800,0.80819970703125,-0.31836944818496704,-0.042037464678287506,-0.32911744713783264
1761231988124269000,0.81826904296875,-0.2924973666667938,-0.22644831240177155,-0.4592325687408447
1761231988134339000,0.828339111328125,-0.18521299958229065,-0.3971465528011322,-0.5623639822006226
1761231988144408000,0.838407958984375,-0.030231405049562454,-0.4714098572731018,-0.6150307059288025
1761231988154476800,0.848476806640625,0.08580811321735382,-0.4667498767375946,-0.620600700378418
1761231988164547000,0.858547119140625,0.13103976845741272,-0.4221096932888031,-0.5992836952209473
1761231988174616000,0.868615966796875,0.1187032163143158,-0.3678629696369171,-0.5689105987548828
1761231988184685800,0.878685791015625,0.07069254666566849,-0.2835387587547302,-0.5263157486915588
1761231988194755000,0.888755126953125,0.021892515942454338,-0.2346031814813614,-0.49460598826408386
1761231988204824000,0.898823974609375,-0.014542724005877972,-0.2241758406162262,-0.48303669691085815
1761231988214894000,0.90889404296875,-0.027577033266425133,-0.20334859192371368,-0.47478461265563965
1761231988224963000,0.918963134765625,-0.019715115427970886,-0.22744859755039215,-0.4645058810710907
1761231988235033000,0.929033203125,-0.007508782669901848,-0.28915485739707947,-0.4513738453388214
1761231988245101800,0.939101806640625,-0.002641855739057064,-0.3788122832775116,-0.43031251430511475
1761231988255171000,0.949171142578125,-0.01071229949593544,-0.463844358921051,-0.40759706497192383
1761231988265240800,0.95924072265625,-0.019049324095249176,-0.5320798754692078,-0.3863146901130676
1761231988275310000,0.96931005859375,-0.027174629271030426,-0.5846070051193237,-0.3774231970310211
1761231988285379800,0.9793798828125,-0.027212180197238922,-0.5809467434883118,-0.34775131940841675
1761231988295449000,0.989448974609375,-0.03640727698802948,-0.5338324904441833,-0.3139083981513977
1761231988305517800,0.999517822265625,-0.057247310876846313,-0.4645729959011078,-0.28375980257987976
1761231988315588000,1.009588134765625,-0.08952588587999344,-0.40351444482803345,-0.26292136311531067
1761231988325656800,1.01965673828125,-0.12769778072834015,-0.3688366115093231,-0.24571442604064941
1761231988335727000,1.02972705078125,-0.15876062214374542,-0.3312700688838959,-0.23217332363128662
1761231988345796000,1.039796142578125,-0.18085633218288422,-0.3098340332508087,-0.228207066655159
1761231988355865000,1.049864990234375,-0.18885833024978638,-0.27263686060905457,-0.22296303510665894
1761231988365935000,1.05993505859375,-0.20226362347602844,-0.2462334781885147,-0.21427181363105774
1761231988376004000,1.070004150390625,-0.2219230830669403,-0.2461589127779007,-0.2237449437379837
1761231988386074000,1.08007421875,-0.2660476565361023,-0.26546335220336914,-0.2343568354845047
1761231988396142800,1.090142822265625,-0.32654109597206116,-0.2831299602985382,-0.2524716556072235
1761231988406212000,1.100212158203125,-0.383934885263443,-0.29121479392051697,-0.27891817688941956
1761231988416281900,1.11028173828125,-0.426600843667984,-0.29838934540748596,-0.3178442716598511
1761231988426351000,1.12035107421875,-0.44403257966041565,-0.32397353649139404,-0.36027055978775024
1761231988436420900,1.1304208984375,-0.43946391344070435,-0.33467546105384827,-0.37769508361816406
1761231988446490000,1.140489990234375,-0.42642855644226074,-0.32423239946365356,-0.37653157114982605
1761231988456558800,1.150558837890625,-0.40887272357940674,-0.3282811939716339,-0.37521517276763916
1761231988466629000,1.160629150390625,-0.378218412399292,-0.32722312211990356,-0.368802547454834
1761231988476697900,1.17069775390625,-0.3363138437271118,-0.32875871658325195,-0.3658868968486786
1761231988486767000,1.18076708984375,-0.30630719661712646,-0.3395114839076996,-0.36043301224708557
1761231988496836900,1.1908369140625,-0.2916664779186249,-0.35161370038986206,-0.36008042097091675
1761231988506906000,1.200906005859375,-0.2886594831943512,-0.39846909046173096,-0.355657160282135
1761231988516975900,1.210975830078125,-0.2839725911617279,-0.5488386154174805,-0.36350470781326294
1761231988527045000,1.221045166015625,-0.24616795778274536,-0.7503286004066467,-0.3667753338813782
1761231988537113900,1.23111376953125,-0.17969359457492828,-0.9039463996887207,-0.33560144901275635
1761231988547183900,1.241183837890625,-0.09243486076593399,-1.0027477741241455,-0.28171104192733765
1761231988557252900,1.2512529296875,0.0013622068800032139,-1.0819435119628906,-0.20643679797649384
1761231988567323000,1.261322998046875,0.07036471366882324,-1.1218979358673096,-0.11108790338039398
1761231988577392000,1.27139208984375,0.08616337925195694,-1.0953069925308228,-0.00487331859767437
1761231988587461000,1.281461181640625,0.04480768367648125,-1.0218788385391235,0.08745022118091583
1761231988597531100,1.29153125,-0.04025900736451149,-0.9368966221809387,0.15959285199642181
1761231988607599900,1.301599853515625,-0.1491713672876358,-0.8692954778671265,0.21654349565505981
1761231988617670100,1.311670166015625,-0.2573508322238922,-0.8658546209335327,0.25471457839012146
1761231988627739000,1.32173876953125,-0.342201828956604,-0.9401067495346069,0.24682709574699402
1761231988637808000,1.33180810546875,-0.3944176137447357,-1.0641571283340454,0.1975650042295456
1761231988647878000,1.3418779296875,-0.4109928607940674,-1.1915723085403442,0.0976722314953804
1761231988657947100,1.351947021484375,-0.4173112213611603,-1.2922322750091553,-0.022237926721572876
1761231988668017000,1.362016845703125,-0.44124531745910645,-1.3383598327636719,-0.14241893589496613
1761231988678086100,1.372086181640625,-0.5210536122322083,-1.3346866369247437,-0.2455732822418213
1761231988688155000,1.38215478515625,-0.6340273022651672,-1.2629668712615967,-0.2981044054031372
1761231988698225000,1.392224853515625,-0.757484495639801,-1.0898637771606445,-0.2772137522697449
1761231988708294000,1.4022939453125,-0.8690651059150696,-0.8498088121414185,-0.19853706657886505
1761231988718364000,1.412364013671875,-0.9485644698143005,-0.5942737460136414,-0.04548892006278038
1761231988728433000,1.422432861328125,-0.9579172134399414,-0.3278665542602539,0.16159822046756744
1761231988738502100,1.432502197265625,-0.8978021740913391,-0.10132955014705658,0.3505425751209259
1761231988748572000,1.442572021484375,-0.8002524971961975,0.06402745097875595,0.4695299565792084
1761231988758641000,1.452640869140625,-0.6522696614265442,0.15591423213481903,0.5154207348823547
1761231988768711200,1.462711181640625,-0.49854642152786255,0.205621600151062,0.47384878993034363
1761231988778780000,1.47277978515625,-0.4327849745750427,0.19035449624061584,0.359916090965271
1761231988788849000,1.482848876953125,-0.40933796763420105,0.0021824603900313377,0.2230253517627716
1761231988798919000,1.4929189453125,-0.4069203734397888,-0.2572759985923767,0.08934719115495682
1761231988808988200,1.50298828125,-0.38313114643096924,-0.4536857306957245,-0.02286696620285511
1761231988819058000,1.513057861328125,-0.2793637216091156,-0.5523955225944519,-0.08913174271583557
1761231988829127200,1.523127197265625,-0.12358745187520981,-0.4096301198005676,-0.09530894458293915
1761231988839196000,1.53319580078125,-0.060734719038009644,-0.021397167816758156,-0.11013289541006088
1761231988849266200,1.54326611328125,-0.025728533044457436,0.25317394733428955,-0.13756531476974487
1761231988859335000,1.5533349609375,0.00866379588842392,0.5249370336532593,-0.14934208989143372
1761231988869405000,1.563405029296875,0.03654096648097038,0.8028237819671631,-0.13051806390285492
1761231988879474000,1.573473876953125,0.06187242269515991,1.0595951080322266,-0.062488410621881485
1761231988889543200,1.583543212890625,0.08267544209957123,1.345603108406067,0.05898955091834068
1761231988899613000,1.593613037109375,0.10564573854207993,1.616370677947998,0.22619399428367615
1761231988909682000,1.603681884765625,0.171906515955925,1.7946957349777222,0.4199935495853424
1761231988919752000,1.613751953125,0.3291776180267334,1.6152775287628174,0.6358214616775513
1761231988929821000,1.623821044921875,0.5387580394744873,1.069716453552246,0.8563601970672607
1761231988939890000,1.633889892578125,0.75441974401474,0.5287168622016907,1.0442912578582764
1761231988949960000,1.6439599609375,0.948617696762085,0.2896171808242798,1.1439610719680786
1761231988960032300,1.6540322265625,1.0756784677505493,0.3807137906551361,1.0688525438308716
1761231988970102300,1.664102294921875,1.135698914527893,0.6010810732841492,0.7690916061401367
1761231988980171300,1.674171142578125,1.1667982339859009,0.961466908454895,0.407999724149704
1761231988990240300,1.684240234375,1.2462786436080933,1.0939011573791504,0.029646841809153557
1761231989000310300,1.694310302734375,1.3421266078948975,1.0805366039276123,-0.38500574231147766
1761231989010379300,1.704379150390625,1.4240190982818604,0.8387489914894104,-0.732227087020874
1761231989020448300,1.7144482421875,1.4488147497177124,0.6304394602775574,-0.8993462920188904
1761231989030518300,1.724518310546875,1.3877817392349243,0.5652931928634644,-0.9306938052177429
1761231989040587300,1.734587158203125,1.238282561302185,0.5767903327941895,-0.864486575126648
1761231989050657300,1.7446572265625,1.0622683763504028,0.5922529101371765,-0.7264965176582336
1761231989060726300,1.754726318359375,0.9074894189834595,0.5429223775863647,-0.5582568645477295
1761231989070796300,1.76479638671875,0.7471594214439392,0.429551899433136,-0.38394099473953247
1761231989080865000,1.774864990234375,0.5702152848243713,0.25368446111679077,-0.2360018789768219
1761231989090934300,1.784934326171875,0.35341504216194153,0.001064998097717762,-0.1457148641347885
1761231989101004000,1.795004150390625,0.10806921124458313,-0.20298054814338684,-0.1258562058210373
1761231989111073300,1.8050732421875,-0.149436354637146,-0.33718547224998474,-0.18851238489151
1761231989121143300,1.815143310546875,-0.38734105229377747,-0.4492691457271576,-0.34536007046699524
1761231989131212300,1.82521240234375,-0.6194019913673401,-0.5476692318916321,-0.5797142386436462
1761231989141281000,1.835281005859375,-0.8545556664466858,-0.6360874772071838,-0.8445176482200623
1761231989151351300,1.845351318359375,-1.0831986665725708,-0.5890424847602844,-1.0968806743621826
1761231989161420300,1.855420166015625,-1.3000231981277466,-0.33212387561798096,-1.2998793125152588
1761231989171490300,1.865490234375,-1.5007061958312988,0.15461701154708862,-1.4639942646026611
1761231989181559300,1.875559326171875,-1.6276638507843018,0.8112188577651978,-1.564200520515442
1761231989191628300,1.885628173828125,-1.6484192609786987,1.4724782705307007,-1.5896661281585693
1761231989201698300,1.8956982421875,-1.5910313129425049,1.9946495294570923,-1.5190109014511108
1761231989211767300,1.905767333984375,-1.533661961555481,2.3244588375091553,-1.3985869884490967
1761231989221837300,1.91583740234375,-1.579215407371521,2.477349042892456,-1.2428501844406128
1761231989231906000,1.925906005859375,-1.7460498809814453,2.498594045639038,-1.0678210258483887
1761231989241975300,1.935975341796875,-1.9460772275924683,2.4450571537017822,-0.8546304702758789
1761231989252045000,1.946045166015625,-2.11118221282959,2.425995349884033,-0.6319787502288818
1761231989262114300,1.9561142578125,-2.154125690460205,2.5138487815856934,-0.40633392333984375
1761231989272184000,1.96618408203125,-2.008249282836914,2.7413203716278076,-0.17653429508209229
1761231989282253300,1.97625341796875,-1.6494230031967163,2.9115192890167236,0.11639824509620667
1761231989292322000,1.986322021484375,-1.127869963645935,2.781024217605591,0.47974875569343567
1761231989302392300,1.996392333984375,-0.48000282049179077,2.232625961303711,0.9254831075668335
1761231989312461000,2.0064609375,0.26721519231796265,1.3092344999313354,1.4570143222808838
1761231989322531300,2.01653125,0.7250245809555054,0.22999192774295807,1.8532682657241821
1761231989332600300,2.026600341796875,0.7088946104049683,-0.8012822866439819,2.0450875759124756
1761231989342669300,2.03666943359375,0.2660734951496124,-1.5512654781341553,2.0475218296051025
1761231989352739300,2.0467392578125,-0.35906869173049927,-1.8875508308410645,1.878265142440796
1761231989362808300,2.056808349609375,-0.8542078733444214,-2.0288503170013428,1.598504900932312
1761231989372878300,2.06687841796875,-1.0356959104537964,-2.127894163131714,1.2268929481506348
1761231989382947300,2.076947265625,-0.9562753438949585,-2.2101056575775146,0.7885507941246033
1761231989393016300,2.087016357421875,-0.695537269115448,-2.259539842605591,0.37901681661605835
1761231989403086000,2.097086181640625,-0.27968889474868774,-2.183622360229492,0.11580143123865128
1761231989413155300,2.1071552734375,0.19359104335308075,-1.9891566038131714,0.08949179947376251
1761231989423225000,2.11722509765625,0.5879665613174438,-1.8916041851043701,0.23860831558704376
1761231989433294300,2.12729443359375,0.8086065649986267,-1.9924359321594238,0.46432825922966003
1761231989443363000,2.137363037109375,0.8352909088134766,-2.145623207092285,0.7039405703544617
1761231989453433300,2.147433349609375,0.7205570936203003,-2.301730155944824,0.8874036073684692
1761231989463502000,2.157502197265625,0.5325126647949219,-2.48987078666687,0.9579121470451355
1761231989473572400,2.167572265625,0.3468626141548157,-2.6601767539978027,0.8733527660369873
1761231989483641000,2.17764111328125,0.25615614652633667,-2.7333106994628906,0.6758016347885132
1761231989493710300,2.18771044921875,0.3393506407737732,-2.6954903602600098,0.45463407039642334
1761231989503780000,2.197780029296875,0.49306508898735046,-2.7350823879241943,0.2303413301706314
1761231989513849300,2.207849365234375,0.5705191493034363,-2.8590810298919678,0.07393787056207657
1761231989523919400,2.21791943359375,0.49375033378601074,-2.71197772026062,0.08941057324409485
1761231989533988400,2.22798828125,0.2902890741825104,-2.2602272033691406,0.2800670862197876
1761231989544057000,2.23805712890625,0.032763272523880005,-1.6382797956466675,0.5694501399993896
1761231989554127000,2.248127197265625,-0.22719374299049377,-1.0264084339141846,0.8757341504096985
1761231989564196400,2.2581962890625,-0.4697510004043579,-0.5754092335700989,1.0852797031402588
1761231989574266000,2.26826611328125,-0.6293259859085083,-0.3292820155620575,1.1489372253417969
1761231989584335400,2.27833544921875,-0.7224801778793335,-0.24124830961227417,1.07168447971344
1761231989594404000,2.288404052734375,-0.770483136177063,-0.23031948506832123,0.9062374830245972
1761231989604474400,2.298474365234375,-0.761971116065979,-0.1778152734041214,0.7317788600921631
1761231989614543000,2.308543212890625,-0.6733011603355408,-0.013336312025785446,0.5847622752189636
1761231989624613400,2.31861328125,-0.552300751209259,0.22764727473258972,0.4750373661518097
1761231989634682000,2.32868212890625,-0.4035392105579376,0.5127450823783875,0.48327958583831787
1761231989644751400,2.33875146484375,-0.2513557970523834,0.7420325875282288,0.5155618786811829
1761231989654821000,2.348821044921875,-0.14225301146507263,0.9972512722015381,0.4672532081604004
1761231989664890400,2.358890380859375,-0.06610658019781113,1.3380930423736572,0.4751151204109192
1761231989674960100,2.368960205078125,0.0705210343003273,1.7684504985809326,0.5958234071731567
1761231989685029400,2.379029296875,0.29596561193466187,2.1944169998168945,0.7464874982833862
1761231989695098000,2.38909814453125,0.5629134178161621,2.4162065982818604,0.8154966831207275
1761231989705168100,2.399168212890625,0.8450242280960083,2.251112699508667,0.7783657908439636
1761231989715237000,2.409237060546875,1.130089521408081,1.8211792707443237,0.7105156779289246
1761231989725307100,2.41930712890625,1.3778843879699707,1.3079912662506104,0.6407232880592346
1761231989735376400,2.42937646484375,1.483136773109436,0.7735170125961304,0.5539675951004028
1761231989745445400,2.4394453125,1.3412501811981201,0.3946780860424042,0.4480816423892975
1761231989755515400,2.449515380859375,1.0999046564102173,0.34794917702674866,0.37729108333587646
1761231989765584100,2.459584228515625,0.9238713383674622,0.6784061789512634,0.32957708835601807
1761231989775654400,2.469654296875,0.8442561626434326,1.141844391822815,0.2909095883369446
1761231989785723100,2.47972314453125,0.8387899994850159,1.520270586013794,0.21672990918159485
1761231989795792400,2.48979248046875,0.8574404120445251,1.7480930089950562,0.12085744738578796
1761231989805862100,2.499862060546875,0.8774588704109192,1.8051923513412476,0.04610837250947952
1761231989815931400,2.509931396484375,0.8992751836776733,1.6742247343063354,0.02050873637199402
1761231989826001200,2.520001220703125,0.9192054867744446,1.3995553255081177,0.054551657289266586
1761231989836070400,2.5300703125,0.8953113555908203,1.0659019947052002,0.12866370379924774
1761231989846139100,2.54013916015625,0.7931391596794128,0.7989874482154846,0.21025976538658142
1761231989856209200,2.550209228515625,0.6148921847343445,0.7173738479614258,0.23585647344589233
1761231989866278100,2.560278076171875,0.4121968746185303,0.7854474186897278,0.19393351674079895
1761231989876348200,2.57034814453125,0.23933802545070648,0.9290122985839844,0.0755525454878807
1761231989886417200,2.580417236328125,0.09721336513757706,1.0179301500320435,-0.12827780842781067
1761231989896486400,2.590486328125,-0.01014078501611948,0.9778549671173096,-0.39611005783081055
1761231989906556200,2.60055615234375,-0.07569342851638794,0.8559511303901672,-0.6829109191894531
1761231989916625200,2.610625244140625,-0.08263149857521057,0.7228689789772034,-0.9311428666114807
1761231989926695400,2.6206953125,-0.04210644215345383,0.6215884685516357,-1.1068310737609863
1761231989936764200,2.63076416015625,0.002688460983335972,0.5445852875709534,-1.2164983749389648
1761231989946833200,2.640833251953125,0.032097216695547104,0.49589070677757263,-1.2413278818130493
1761231989956900400,2.650900390625,0.008607869036495686,0.49309706687927246,-1.1853671073913574
1761231989966969300,2.66096923828125,-0.06715080887079239,0.518611490726471,-1.061597466468811
1761231989977039400,2.671039306640625,-0.19251538813114166,0.5675340294837952,-0.8884225487709045
1761231989987108400,2.6811083984375,-0.3473222851753235,0.6947705149650574,-0.6560572385787964
1761231989997178400,2.691178466796875,-0.5174804329872131,0.8529462814331055,-0.4000219702720642
1761231990007247000,2.7012470703125,-0.6910924315452576,0.9476134181022644,-0.1553909182548523
1761231990017316400,2.71131640625,-0.8423418402671814,0.9006246328353882,-0.0014144048327580094
1761231990027386000,2.72138623046875,-0.9514691829681396,0.7462345361709595,0.07526092976331711
1761231990037455400,2.731455322265625,-0.9932799935340881,0.5233420133590698,0.10093966126441956
1761231990047525000,2.741525146484375,-0.9733885526657104,0.3152008354663849,0.1231222003698349
1761231990057594400,2.751594482421875,-0.8262907266616821,0.32270562648773193,0.23767833411693573
1761231990067663000,2.7616630859375,-0.5057705044746399,0.4950829744338989,0.4631684422492981
1761231990077733400,2.7717333984375,-0.07939602434635162,0.6987181305885315,0.7388916611671448
1761231990087802000,2.781802001953125,0.3188754618167877,0.6698068380355835,0.9144988656044006
1761231990097872400,2.791872314453125,0.5399865508079529,0.2643482983112335,0.8985694646835327
1761231990107941400,2.80194140625,0.5351044535636902,-0.41280701756477356,0.7488441467285156
1761231990118010400,2.81201025390625,0.28994685411453247,-1.1806904077529907,0.5215414762496948
1761231990128080400,2.822080322265625,-0.16130633652210236,-1.9713642597198486,0.21853792667388916
1761231990138149400,2.8321494140625,-0.6608958840370178,-2.6583826541900635,-0.12539467215538025
1761231990148219400,2.842219482421875,-1.0079585313796997,-3.0906455516815186,-0.4741891324520111
1761231990158288100,2.8522880859375,-1.1559256315231323,-3.2235116958618164,-0.8049633502960205
1761231990168357400,2.862357421875,-1.1328357458114624,-3.0530056953430176,-1.0832860469818115
1761231990178427100,2.87242724609375,-0.9700306057929993,-2.466832399368286,-1.2508764266967773
1761231990188496400,2.882496337890625,-0.6937659978866577,-1.466334342956543,-1.2547686100006104
1761231990198566100,2.892566162109375,-0.3515188992023468,-0.424691379070282,-1.1745285987854004
1761231990208635400,2.902635498046875,0.006286391522735357,0.26423272490501404,-1.081455111503601
1761231990218704100,2.9127041015625,0.3621816635131836,0.5446411967277527,-0.9810395836830139
1761231990228774400,2.9227744140625,0.689719557762146,0.3987468481063843,-0.8622980117797852
1761231990238843100,2.932843017578125,0.9271143078804016,-0.15568625926971436,-0.7694282531738281
1761231990248913400,2.942913330078125,1.0422999858856201,-0.9569331407546997,-0.6921563744544983
1761231990258982100,2.952982177734375,1.068363070487976,-1.7165803909301758,-0.5889037251472473
1761231990269051400,2.963051513671875,1.0306366682052612,-2.269014835357666,-0.4516039490699768
1761231990279121400,2.973121337890625,0.9361679553985596,-2.558156967163086,-0.3019595742225647
1761231990289190400,2.9831904296875,0.7999275922775269,-2.5116422176361084,-0.10052500665187836
1761231990299260400,2.993260498046875,0.6253448128700256,-2.113921880722046,0.14095045626163483
1761231990309329200,3.0033291015625,0.4469013214111328,-1.384814977645874,0.3883754312992096
1761231990319398100,3.013398193359375,0.32330483198165894,-0.5064756870269775,0.5923200249671936
1761231990329468200,3.02346826171875,0.2734219431877136,0.1936168670654297,0.6723421812057495
1761231990339537400,3.033537353515625,0.3024615943431854,0.5810011029243469,0.6297795176506042
1761231990349607200,3.043607177734375,0.37864798307418823,0.7171101570129395,0.4863155782222748
1761231990359676400,3.053676513671875,0.4774366021156311,0.7349792122840881,0.28599101305007935
1761231990369745200,3.0637451171875,0.5728400945663452,0.7160947322845459,0.08799084275960922
1761231990379815400,3.0738154296875,0.6567562818527222,0.6508123874664307,-0.08553141355514526
1761231990389884200,3.08388427734375,0.7149176001548767,0.545511782169342,-0.21348963677883148
1761231990399954400,3.093954345703125,0.7681821584701538,0.46483850479125977,-0.2709207236766815
1761231990410023200,3.104023193359375,0.803217887878418,0.4330499768257141,-0.22877618670463562
1761231990420093200,3.11409326171875,0.8120114207267761,0.5066911578178406,-0.11463949829339981
1761231990430162200,3.124162109375,0.8027946949005127,0.7010856866836548,0.02991022914648056
1761231990440231400,3.1342314453125,0.7761412858963013,1.034216284751892,0.17827732861042023
1761231990450301200,3.14430126953125,0.7862660884857178,1.495699167251587,0.32975873351097107
1761231990460370200,3.1543701171875,0.877773642539978,1.9144631624221802,0.47561952471733093
1761231990470440400,3.1644404296875,1.0378706455230713,2.151266574859619,0.5582299828529358
1761231990480509200,3.17450927734375,1.263321876525879,2.114203929901123,0.5886520743370056
1761231990490578200,3.184578125,1.5021722316741943,1.7026911973953247,0.5682293772697449
1761231990500648200,3.194648193359375,1.6692051887512207,0.9926472306251526,0.5009475350379944
1761231990510717400,3.204717529296875,1.7272706031799316,0.29617759585380554,0.41689762473106384
1761231990520787200,3.214787109375,1.6913543939590454,-0.17394809424877167,0.3654991388320923
1761231990530856400,3.2248564453125,1.5747425556182861,-0.33253028988838196,0.3519236743450165
1761231990540925200,3.23492529296875,1.4352184534072876,-0.13122619688510895,0.40449023246765137
1761231990550995500,3.244995361328125,1.3099644184112549,0.2726112902164459,0.4967687427997589
1761231990561064200,3.255064208984375,1.2115238904953003,0.6437922716140747,0.5751687288284302
1761231990571134200,3.26513427734375,1.1651222705841064,0.9094122648239136,0.6384835243225098
1761231990581203200,3.275203125,1.1635878086090088,1.1311079263687134,0.6940610408782959
1761231990591272400,3.2852724609375,1.1834909915924072,1.364707589149475,0.7442432641983032
1761231990601342200,3.29534228515625,1.2286770343780518,1.6249756813049316,0.778632640838623
1761231990611411500,3.305411376953125,1.287463665008545,1.8091098070144653,0.7733737230300903
1761231990621481200,3.315481201171875,1.3439570665359497,1.8432561159133911,0.7316100001335144
1761231990631550200,3.32555029296875,1.3660889863967896,1.7923436164855957,0.663110077381134
1761231990641619200,3.335619140625,1.3402504920959473,1.6899796724319458,0.5610417723655701
1761231990651689200,3.345689208984375,1.2959187030792236,1.5355110168457031,0.44109058380126953
1761231990661758200,3.35575830078125,1.2384564876556396,1.3664051294326782,0.3078523576259613
1761231990671828200,3.365828125,1.1740309000015259,1.2518473863601685,0.18323586881160736
1761231990681897200,3.375897216796875,1.098494529724121,1.233502984046936,0.05854320526123047
1761231990691966200,3.38596630859375,1.010609745979309,1.2899047136306763,-0.041668884456157684
1761231990702036500,3.396036376953125,0.9206371903419495,1.3843235969543457,-0.1382012814283371
1761231990712105200,3.406105224609375,0.8362996578216553,1.4724828004837036,-0.24611762166023254
1761231990722175200,3.41617529296875,0.7662950158119202,1.5569270849227905,-0.3819063603878021
1761231990732244200,3.426244140625,0.7421944737434387,1.627057671546936,-0.5293030142784119
1761231990742313500,3.4363134765625,0.7863345146179199,1.672784447669983,-0.6656704545021057
1761231990752383200,3.44638330078125,0.9034989476203918,1.6840866804122925,-0.7659744024276733
1761231990762452500,3.456452392578125,1.0900496244430542,1.6498613357543945,-0.8118627667427063
1761231990772522200,3.466522216796875,1.3164900541305542,1.5751111507415771,-0.7922427654266357
1761231990782591200,3.47659130859375,1.529030203819275,1.4952027797698975,-0.709221601486206
1761231990792660200,3.48666015625,1.689285397529602,1.4632610082626343,-0.5595107078552246
1761231990802730200,3.496730224609375,1.776724934577942,1.4805982112884521,-0.3666000962257385
1761231990812799200,3.50679931640625,1.7892529964447021,1.5446515083312988,-0.16397055983543396
1761231990822869200,3.516869140625,1.7542122602462769,1.6690949201583862,0.0530104860663414
1761231990832938200,3.526938232421875,1.7401057481765747,1.8220903873443604,0.26765885949134827
1761231990843008300,3.53700830078125,1.796351432800293,1.902773141860962,0.4450879991054535
1761231990853077200,3.5470771484375,1.9468698501586914,1.8316774368286133,0.5462425351142883
1761231990863146200,3.557146240234375,2.1549417972564697,1.5044548511505127,0.5402483344078064
1761231990873216500,3.567216552734375,2.3744313716888428,0.9263829588890076,0.427119642496109
1761231990883285200,3.57728515625,2.500119209289551,0.28625786304473877,0.2547212243080139
1761231990893355300,3.587355224609375,2.46746563911438,-0.3693367540836334,0.024937041103839874
1761231990903424300,3.59742431640625,2.254833459854126,-1.081375002861023,-0.24743802845478058
1761231990913493500,3.607493408203125,1.9511828422546387,-1.70417058467865,-0.497164249420166
1761231990923563300,3.617563232421875,1.7161293029785156,-1.92526113986969,-0.6666864156723022
1761231990933632300,3.62763232421875,1.6202064752578735,-1.6365667581558228,-0.7000864744186401
1761231990943702300,3.637702392578125,1.6360608339309692,-0.9443137645721436,-0.6237189769744873
1761231990953771300,3.647771240234375,1.6665407419204712,0.04238234460353851,-0.5155967473983765
1761231990963840500,3.657840576171875,1.6914252042770386,1.0850751399993896,-0.42890873551368713
1761231990973910300,3.66791015625,1.7299503087997437,1.9562909603118896,-0.4114866256713867
1761231990983979500,3.6779794921875,1.781941533088684,2.468764066696167,-0.4823429584503174
1761231990994049300,3.68804931640625,1.8619972467422485,2.677776336669922,-0.597211480140686
1761231991004118500,3.698118408203125,1.975371241569519,2.7133781909942627,-0.6927265524864197
1761231991014187300,3.708187255859375,2.0860793590545654,2.5708577632904053,-0.7812681198120117
1761231991024257500,3.718257568359375,2.144798755645752,2.214630126953125,-0.8821119070053101
1761231991034326300,3.728326171875,2.142235040664673,1.7024723291397095,-0.9883731007575989
1761231991044396300,3.738396240234375,2.096113681793213,1.1478978395462036,-1.073316216468811
1761231991054465300,3.74846533203125,2.0457282066345215,0.6598487496376038,-1.109191656112671
1761231991064534500,3.758534423828125,2.0231781005859375,0.29497119784355164,-1.0928963422775269
1761231991074604500,3.7686044921875,2.0314865112304688,0.06057466194033623,-1.007188081741333
1761231991084673300,3.77867333984375,2.025895595550537,0.04484310373663902,-0.853337287902832
1761231991094743600,3.78874365234375,1.9963446855545044,0.22665977478027344,-0.6844877600669861
1761231991104812300,3.798812255859375,1.9454703330993652,0.5311062335968018,-0.520997941493988
1761231991114882600,3.808882568359375,1.9092187881469727,0.800663411617279,-0.3894129991531372
1761231991124951300,3.818951416015625,1.9242020845413208,0.9675397276878357,-0.2674407660961151
1761231991135020500,3.8290205078125,1.9882769584655762,1.1163337230682373,-0.15376266837120056
1761231991145090300,3.83909033203125,2.0516159534454346,1.2842530012130737,-0.06672549992799759
1761231991155159600,3.84915966796875,2.099018096923828,1.444273829460144,-0.02581641636788845
1761231991165229300,3.859229248046875,2.145414113998413,1.562037467956543,-0.019784091040492058
1761231991175298600,3.869298583984375,2.229628801345825,1.6207939386367798,-0.02887505665421486
1761231991185367300,3.8793671875,2.35835599899292,1.6531466245651245,-0.03212997317314148
1761231991195437300,3.889437255859375,2.5204923152923584,1.6897282600402832,-0.009514409117400646
1761231991205506300,3.89950634765625,2.663724422454834,1.8884168863296509,0.08372126519680023
1761231991215576300,3.909576416015625,2.7327773571014404,2.2115423679351807,0.25552576780319214
1761231991225645300,3.919645263671875,2.725926160812378,2.420417308807373,0.4234998822212219
1761231991235714600,3.929714599609375,2.653010129928589,2.3109052181243896,0.5040650367736816
1761231991245784600,3.93978466796875,2.5085530281066895,1.76288640499115,0.46341025829315186
1761231991255853300,3.949853271484375,2.339372158050537,0.8429469466209412,0.33571088314056396
1761231991265923600,3.959923583984375,2.195599317550659,-0.1463010162115097,0.1873515099287033
1761231991275992300,3.969992431640625,2.1047470569610596,-0.8521572351455688,0.07892144471406937
1761231991286061600,3.9800615234375,2.087087869644165,-1.3595224618911743,-0.01774357631802559
1761231991296131300,3.99013134765625,2.039912223815918,-1.7343732118606567,-0.16863642632961273
1761231991306200600,4.00020068359375,1.877936840057373,-1.833120346069336,-0.3806578516960144
1761231991316270300,4.010270263671875,1.6221599578857422,-1.5652090311050415,-0.597811222076416
1761231991326339600,4.020339599609375,1.3571854829788208,-1.0049595832824707,-0.7573130130767822
1761231991336408300,4.030408203125,1.1800527572631836,-0.2848394513130188,-0.8265141844749451
1761231991346478300,4.040478271484375,1.1184933185577393,0.38684359192848206,-0.8173531889915466
1761231991356547300,4.05054736328125,1.164703369140625,0.8208680152893066,-0.7804662585258484
1761231991366617300,4.060617431640625,1.2895992994308472,1.0082600116729736,-0.7167157530784607
1761231991376686300,4.070686279296875,1.4380183219909668,0.9692686796188354,-0.639585018157959
1761231991386755600,4.080755615234375,1.5891319513320923,0.8265091180801392,-0.523542046546936
1761231991396825300,4.090825439453125,1.7099601030349731,0.6809021234512329,-0.33264079689979553
1761231991406894300,4.100894287109375,1.7704564332962036,0.6460556983947754,-0.06234779581427574
1761231991416964400,4.11096435546875,1.7495423555374146,0.7686628699302673,0.23655448853969574
1761231991427033300,4.121033447265625,1.6661697626113892,1.0239697694778442,0.5327478051185608
1761231991437102300,4.131102294921875,1.5410884618759155,1.357637643814087,0.7575268745422363
1761231991447172400,4.14117236328125,1.4169721603393555,1.618375301361084,0.8505768775939941
1761231991457241300,4.151241455078125,1.3120355606079102,1.748595118522644,0.7850013375282288
1761231991467311400,4.161311279296875,1.2436206340789795,1.7410775423049927,0.5755197405815125
1761231991477380600,4.171380615234375,1.2022782564163208,1.6543689966201782,0.2790028750896454
1761231991487450400,4.181450439453125,1.1860175132751465,1.5842865705490112,-0.0569642148911953
1761231991497519600,4.19151953125,1.1904250383377075,1.5879292488098145,-0.38263311982154846
1761231991507588400,4.20158837890625,1.227141261100769,1.6493265628814697,-0.6875514984130859
1761231991517658400,4.211658447265625,1.276400089263916,1.7465723752975464,-0.9436423778533936
1761231991527727400,4.221727294921875,1.3447167873382568,1.834309697151184,-1.1293749809265137
1761231991537797400,4.23179736328125,1.4141297340393066,1.885558009147644,-1.237475872039795
1761231991547866400,4.241866455078125,1.4782922267913818,1.8833214044570923,-1.2483175992965698
1761231991557935400,4.251935302734375,1.5155996084213257,1.8363879919052124,-1.1752386093139648
1761231991568005400,4.26200537109375,1.5246658325195312,1.7720540761947632,-1.040897011756897
1761231991578074400,4.272074462890625,1.498524785041809,1.7084444761276245,-0.867841899394989
1761231991588144400,4.282144287109375,1.46915602684021,1.640792965888977,-0.6835871338844299
1761231991598213400,4.29221337890625,1.4415591955184937,1.5663608312606812,-0.5012535452842712
1761231991608282400,4.302282470703125,1.4344619512557983,1.4925140142440796,-0.3493289649486542
1761231991618352400,4.312352294921875,1.4773838520050049,1.4285904169082642,-0.23554541170597076
1761231991628421400,4.32242138671875,1.608370065689087,1.3507840633392334,-0.13312876224517822
1761231991638491400,4.332491455078125,1.7709019184112549,1.1683067083358765,-0.06505995988845825
1761231991648560600,4.342560546875,1.8592201471328735,0.9834744930267334,-0.05582172051072121
1761231991658629400,4.35262939453125,1.8415974378585815,0.8578089475631714,-0.09105055034160614
1761231991668699400,4.362699462890625,1.7240548133850098,0.7652625441551208,-0.1360638290643692
1761231991678768400,4.372768310546875,1.5353549718856812,0.659980058670044,-0.17711512744426727
1761231991688838400,4.38283837890625,1.3201321363449097,0.5023736357688904,-0.22393615543842316
1761231991698907400,4.392907470703125,1.1247503757476807,0.33928564190864563,-0.2601391673088074
1761231991708976400,4.402976318359375,0.9783814549446106,0.24196043610572815,-0.30078884959220886
1761231991719046400,4.41304638671875,0.9114775061607361,0.2527044117450714,-0.32667025923728943
1761231991729115400,4.423115478515625,0.9193122982978821,0.2912241220474243,-0.3305451571941376
1761231991739185400,4.433185302734375,0.954745352268219,0.3087344169616699,-0.33125221729278564
1761231991749254400,4.44325439453125,0.9868588447570801,0.3284258246421814,-0.31230223178863525
1761231991759324400,4.453324462890625,0.9986510276794434,0.37215012311935425,-0.25859135389328003
1761231991769393400,4.463393310546875,0.9983440041542053,0.4107702374458313,-0.18533949553966522
1761231991779462400,4.47346240234375,0.9941362142562866,0.407880961894989,-0.0802956372499466
1761231991789532400,4.483532470703125,0.982159435749054,0.3685426115989685,0.03159467875957489
1761231991799601400,4.493601318359375,0.9665809869766235,0.3775145411491394,0.14623869955539703
1761231991809671400,4.50367138671875,0.9555501937866211,0.43764790892601013,0.23482689261436462
1761231991819740400,4.513740478515625,0.9331415295600891,0.48165053129196167,0.24869370460510254
1761231991829809400,4.523809326171875,0.9158621430397034,0.4612288773059845,0.17771780490875244
1761231991839879400,4.53387939453125,0.9235267639160156,0.4042412042617798,0.05362780764698982
1761231991849948400,4.543948486328125,0.970197856426239,0.2863830327987671,-0.10128587484359741
1761231991860018400,4.554018310546875,1.03862726688385,0.13545343279838562,-0.25778359174728394
1761231991870087400,4.56408740234375,1.1348294019699097,-0.012047874741256237,-0.39766454696655273
1761231991880156400,4.574156494140625,1.2442495822906494,-0.14867523312568665,-0.5030628442764282
1761231991890226400,4.584226318359375,1.331758975982666,-0.21990279853343964,-0.557399332523346
1761231991900295400,4.59429541015625,1.3671425580978394,-0.19594207406044006,-0.5521710515022278
1761231991910365400,4.604365478515625,1.3333475589752197,-0.1290285587310791,-0.4984681308269501
1761231991920434400,4.614434326171875,1.260420322418213,-0.04379408434033394,-0.41999807953834534
1761231991930503400,4.62450341796875,1.1702563762664795,0.031210916116833687,-0.3081834018230438
1761231991940573400,4.634573486328125,1.0862985849380493,0.10317804664373398,-0.19153960049152374
1761231991950642400,4.644642333984375,1.0348260402679443,0.16753040254116058,-0.08393857628107071
1761231991960715000,4.654715087890625,1.0313069820404053,0.20211288332939148,0.011065168306231499
1761231991970784300,4.6647841796875,1.0882251262664795,0.21111197769641876,0.0719359740614891
1761231991980853000,4.67485302734375,1.1842821836471558,0.1923883557319641,0.10850996524095535
1761231991990923300,4.68492333984375,1.2673426866531372,0.15188033878803253,0.12248170375823975
1761231992000992000,4.694991943359375,1.276241421699524,0.12503167986869812,0.13681510090827942
1761231992011062300,4.705062255859375,1.198161244392395,0.15232162177562714,0.1512204110622406
1761231992021131000,4.715131103515625,1.0337163209915161,0.2417614907026291,0.16376230120658875
1761231992031200300,4.7252001953125,0.8328176140785217,0.35645559430122375,0.16705556213855743
1761231992041270300,4.735270263671875,0.6683897972106934,0.5127701163291931,0.182402566075325
1761231992051339300,4.74533935546875,0.5982415676116943,0.6293342709541321,0.19637431204319
1761231992061409300,4.7554091796875,0.6211085319519043,0.7345829010009766,0.226396381855011
1761231992071478000,4.76547802734375,0.7163612842559814,0.8435767889022827,0.28264155983924866
1761231992081548300,4.77554833984375,0.8211787939071655,0.8754518628120422,0.35438603162765503
1761231992091617000,4.785616943359375,0.890109121799469,0.8294228911399841,0.4458392560482025
1761231992101686300,4.795686279296875,0.9087474942207336,0.7340015172958374,0.5470622777938843
1761231992111756000,4.805756103515625,0.8804735541343689,0.5453459024429321,0.6381389498710632
1761231992121824300,4.81582421875,0.8065534830093384,0.3287754952907562,0.720132052898407
1761231992131893200,4.825893310546875,0.6968909502029419,0.17089398205280304,0.7816281914710999
1761231992141963300,4.83596337890625,0.5642378330230713,0.10897868126630783,0.7983464598655701
1761231992152032300,4.8460322265625,0.44700199365615845,0.1477109044790268,0.7531872391700745
1761231992162101200,4.856101318359375,0.3654136657714844,0.20977666974067688,0.6348206400871277
1761231992172171000,4.8661708984375,0.35514265298843384,0.29420074820518494,0.43666812777519226
1761231992182240300,4.876240234375,0.41476762294769287,0.3498584032058716,0.20423409342765808
1761231992192310000,4.88631005859375,0.5268608927726746,0.35440388321876526,-0.028501415625214577
1761231992202379300,4.896379150390625,0.6571182012557983,0.3448958694934845,-0.21461881697177887
1761231992212448000,4.906447998046875,0.7656750679016113,0.3198736011981964,-0.3298601806163788
1761231992222518300,4.916518310546875,0.8400459289550781,0.29307955503463745,-0.37107980251312256
1761231992232587000,4.9265869140625,0.8555333018302917,0.297564834356308,-0.3329569101333618
1761231992242657300,4.9366572265625,0.7834660410881042,0.3488149642944336,-0.23505805432796478
1761231992252726000,4.94672607421875,0.6387059092521667,0.43940985202789307,-0.1156027615070343
1761231992262795300,4.956795166015625,0.46912646293640137,0.49931925535202026,-0.001442900625988841
1761231992272865000,4.966864990234375,0.3062092065811157,0.5252659320831299,0.08423604816198349
1761231992282934300,4.976934326171875,0.17689967155456543,0.5513665080070496,0.13220544159412384
1761231992293004300,4.98700439453125,0.07746016979217529,0.6056326627731323,0.14443041384220123
1761231992303073300,4.9970732421875,-0.0037324202712625265,0.7096050977706909,0.12780509889125824
1761231992313143300,5.007143310546875,-0.07406117767095566,0.8333366513252258,0.07469075173139572
1761231992323212000,5.0172119140625,-0.13311651349067688,0.9128556847572327,-0.021862953901290894
1761231992333281000,5.027281005859375,-0.1753646284341812,0.9062260389328003,-0.1524806171655655
1761231992343351000,5.03735107421875,-0.1798030585050583,0.7908741235733032,-0.30149221420288086
1761231992353420300,5.047420166015625,-0.1448860764503479,0.5660439729690552,-0.4417731463909149
1761231992363490000,5.057489990234375,-0.07859174907207489,0.2880227267742157,-0.5507315993309021
1761231992373559300,5.067559326171875,-0.006352970842272043,0.03633430600166321,-0.6016088724136353
1761231992383628000,5.0776279296875,0.051910869777202606,-0.14918628334999084,-0.603339672088623
1761231992393698300,5.0876982421875,0.09383248537778854,-0.30120912194252014,-0.5462231040000916
1761231992403767000,5.09776708984375,0.12272512167692184,-0.42924270033836365,-0.42324793338775635
1761231992413837300,5.10783740234375,0.13459669053554535,-0.4669261574745178,-0.21998775005340576
1761231992423906000,5.117906005859375,0.11822890490293503,-0.33344241976737976,0.05849393457174301
1761231992433975300,5.127975341796875,0.08881322294473648,0.005399559158831835,0.4051418900489807
1761231992444045000,5.138045166015625,0.08440037071704865,0.3639848828315735,0.7668103575706482
1761231992454114300,5.1481142578125,0.07059773802757263,0.5059611797332764,1.0494694709777832
1761231992464184000,5.15818408203125,0.053938865661621094,0.4021937847137451,1.2271603345870972
1761231992474253000,5.168253173828125,0.0024410535115748644,0.08229061216115952,1.2655436992645264
1761231992484322000,5.178322021484375,-0.09573931246995926,-0.38293567299842834,1.1737205982208252
1761231992494392000,5.18839208984375,-0.24191781878471375,-0.867700457572937,0.9965192079544067
1761231992504461000,5.1984609375,-0.42303887009620667,-1.2185914516448975,0.7702645063400269
1761231992514531000,5.208531005859375,-0.6332070231437683,-1.3986626863479614,0.5046213269233704
1761231992524600300,5.218600341796875,-0.8397138714790344,-1.4502744674682617,0.1862921118736267
1761231992534669000,5.2286689453125,-0.9884045124053955,-1.3361190557479858,-0.14976686239242554
1761231992544739300,5.2387392578125,-1.0209048986434937,-1.1118700504302979,-0.4779479205608368
1761231992554808000,5.24880810546875,-0.9365692734718323,-0.8882552981376648,-0.7782020568847656
1761231992564878300,5.25887841796875,-0.7626792788505554,-0.6919742226600647,-0.9991407990455627
1761231992574947000,5.268947021484375,-0.5271003246307373,-0.4313172996044159,-1.092074990272522
1761231992585016300,5.279016357421875,-0.2826274335384369,-0.07307261228561401,-1.029693603515625
1761231992595086000,5.289086181640625,-0.0784900113940239,0.3359111547470093,-0.8598585724830627
1761231992605155300,5.2991552734375,0.08002852648496628,0.663931667804718,-0.6445196270942688
1761231992615225000,5.30922509765625,0.19071827828884125,0.8263930082321167,-0.4856308698654175
1761231992625294300,5.31929443359375,0.2671251893043518,0.7448350191116333,-0.40579304099082947
1761231992635363000,5.329363037109375,0.32850223779678345,0.4508494734764099,-0.40062251687049866
1761231992645433000,5.33943310546875,0.3698267936706543,0.04813770204782486,-0.4404008090496063
1761231992655502000,5.349502197265625,0.40169045329093933,-0.3354911804199219,-0.5081854462623596
1761231992665572000,5.359572021484375,0.42536622285842896,-0.530183732509613,-0.5569708347320557
1761231992675641000,5.36964111328125,0.4164952337741852,-0.5104742050170898,-0.5596920847892761
1761231992685711000,5.379711181640625,0.3646368086338043,-0.31680670380592346,-0.5205819606781006
1761231992695780000,5.389780029296875,0.2839353084564209,-0.04613393917679787,-0.44535136222839355
1761231992705849000,5.39984912109375,0.18971773982048035,0.2111750841140747,-0.36529141664505005
1761231992715920100,5.409920166015625,0.097870372235775,0.41874265670776367,-0.29697123169898987
1761231992725990100,5.419990234375,0.018611501902341843,0.551872193813324,-0.2548791766166687
1761231992736059100,5.43005908203125,-0.04066673666238785,0.6278106570243835,-0.2281695157289505
1761231992746128100,5.440128173828125,-0.0663105770945549,0.6713594794273376,-0.19919300079345703
1761231992756198100,5.4501982421875,-0.055684033781290054,0.6553738713264465,-0.1611713171005249
1761231992766267100,5.46026708984375,-0.005673864856362343,0.6025955677032471,-0.10548461228609085
1761231992776337200,5.470337158203125,0.07966287434101105,0.5630723834037781,-0.02268853411078453
1761231992786406100,5.48040625,0.18967406451702118,0.5927703976631165,0.08589652925729752
1761231992796475100,5.49047509765625,0.29555922746658325,0.7155551314353943,0.20120155811309814
1761231992806545200,5.500545166015625,0.393875390291214,0.9061980843544006,0.2979792356491089
1761231992816614100,5.5106142578125,0.5020537972450256,1.026564121246338,0.36232438683509827
1761231992826684200,5.52068408203125,0.6285491585731506,1.002637267112732,0.35376232862472534
1761231992836753200,5.530753173828125,0.7664932012557983,0.8955281376838684,0.28191450238227844
1761231992846822100,5.540822265625,0.9046105742454529,0.7021509408950806,0.16262459754943848
1761231992856892200,5.55089208984375,1.0234951972961426,0.3557943105697632,0.03063167817890644
1761231992866961200,5.560961181640625,1.1170804500579834,-0.05139980837702751,-0.05709923803806305
1761231992877031200,5.57103125,1.1598598957061768,-0.37376055121421814,-0.07168244570493698
1761231992887100200,5.58110009765625,1.1340222358703613,-0.530121922492981,-0.015898805111646652
1761231992897169200,5.591169189453125,1.0317761898040771,-0.589897632598877,0.071617990732193
1761231992907239200,5.6012392578125,0.851559579372406,-0.5695446729660034,0.1687253713607788
1761231992917308200,5.61130810546875,0.6381053924560547,-0.46028023958206177,0.2660718858242035
1761231992927378200,5.621378173828125,0.4172512888908386,-0.2911207973957062,0.3616737723350525
1761231992937447200,5.631447265625,0.23876677453517914,-0.14269882440567017,0.4457194209098816
1761231992947516200,5.64151611328125,0.09683360159397125,-0.12579014897346497,0.4625348746776581
1761231992957583000,5.6515830078125,0.008144745603203773,-0.17121835052967072,0.38279131054878235
1761231992967652400,5.66165234375,-0.0020785972010344267,-0.21346087753772736,0.2442595362663269
1761231992977722000,5.67172216796875,0.05922950059175491,-0.2542373538017273,0.07960055023431778
1761231992987791400,5.681791259765625,0.12415816634893417,-0.2778547704219818,-0.08768564462661743
1761231992997860000,5.691860107421875,0.14917989075183868,-0.24864603579044342,-0.2384442687034607
1761231993007930400,5.701930419921875,0.12508174777030945,-0.11607547104358673,-0.3500719964504242
1761231993017999000,5.7119990234375,0.06785015016794205,0.11240057647228241,-0.42389988899230957
1761231993028069400,5.7220693359375,-0.0031068436801433563,0.3425688147544861,-0.4890029728412628
1761231993038138000,5.73213818359375,-0.07771876454353333,0.5048035383224487,-0.5683044791221619
1761231993048207400,5.742207275390625,-0.14986006915569305,0.6340270042419434,-0.6594045162200928
1761231993058277000,5.752277099609375,-0.20708687603473663,0.744784951210022,-0.7443546056747437
1761231993068346400,5.762346435546875,-0.21869133412837982,0.8184874057769775,-0.7891979813575745
1761231993078416400,5.77241650390625,-0.19596338272094727,0.8564435839653015,-0.7978460192680359
1761231993088485000,5.782485107421875,-0.15719068050384521,0.8569468855857849,-0.7713829874992371
1761231993098554000,5.79255419921875,-0.10140624642372131,0.8285024762153625,-0.705479085445404
1761231993108624100,5.8026240234375,-0.03502562642097473,0.7646047472953796,-0.6130087971687317
1761231993118693400,5.812693359375,0.032046351581811905,0.6748183965682983,-0.5173078775405884
1761231993128763100,5.82276318359375,0.08065809309482574,0.5551023483276367,-0.41845983266830444
1761231993138832400,5.832832275390625,0.08791840076446533,0.4107856750488281,-0.32193276286125183
1761231993148902100,5.842902099609375,0.05601266771554947,0.25790637731552124,-0.23612411320209503
1761231993158971400,5.852971435546875,0.0035334820859134197,0.11158298701047897,-0.137107253074646
1761231993169040100,5.8630400390625,-0.03602644428610802,0.012603675946593285,0.021155884489417076
1761231993179110400,5.8731103515625,-0.043602071702480316,-0.025439312681555748,0.2324976921081543
1761231993189179100,5.88317919921875,-0.03852422162890434,-0.0065377941355109215,0.4788203835487366
1761231993199249200,5.893249267578125,-0.04056660085916519,0.089773029088974,0.7269005179405212
1761231993209318100,5.903318115234375,-0.039807599037885666,0.33757564425468445,0.9693149924278259
1761231993219387400,5.913387451171875,0.01848020777106285,0.6421731114387512,1.2081164121627808
1761231993229457200,5.92345703125,0.12228037416934967,0.7748712301254272,1.380395531654358
1761231993239526100,5.933526123046875,0.18475626409053802,0.7358101010322571,1.4631338119506836
1761231993249596400,5.943596435546875,0.1300586611032486,0.5173030495643616,1.443530797958374
1761231993259665200,5.9536650390625,-0.05938103422522545,0.24071992933750153,1.317867398262024
1761231993269734100,5.963734130859375,-0.29860347509384155,-0.15764155983924866,1.1155773401260376
1761231993279804200,5.97380419921875,-0.5378013849258423,-0.7158499956130981,0.8585479855537415
1761231993289873200,5.983873046875,-0.7644638419151306,-1.2381027936935425,0.5799171924591064
1761231993299943200,5.993943115234375,-0.9187849760055542,-1.4523887634277344,0.33629944920539856
1761231993310012400,6.004012451171875,-0.9221746325492859,-1.2875782251358032,0.18101559579372406
1761231993320081200,6.0140810546875,-0.7732927799224854,-1.0633642673492432,0.06859903782606125
1761231993330151400,6.0241513671875,-0.5718438029289246,-1.0488263368606567,-0.05656607449054718
1761231993340220200,6.03422021484375,-0.401231050491333,-1.0800529718399048,-0.15208540856838226
1761231993350290200,6.044290283203125,-0.2867974042892456,-0.8901232481002808,-0.1417427510023117
1761231993360359200,6.054359130859375,-0.20894096791744232,-0.48330116271972656,-0.03218270465731621
1761231993370428400,6.064428466796875,-0.13455142080783844,0.011685151606798172,0.12023799121379852
1761231993380498200,6.074498291015625,-0.06112034618854523,0.42692628502845764,0.23765809834003448
1761231993390567400,6.0845673828125,0.022113824263215065,0.6713210940361023,0.28030940890312195
1761231993400637200,6.09463720703125,0.1024017408490181,0.6992108225822449,0.2297133505344391
1761231993410706200,6.1047060546875,0.16893576085567474,0.5074989199638367,0.09458589553833008
1761231993420775200,6.114775146484375,0.20888423919677734,0.17432813346385956,-0.11892025917768478
1761231993430845200,6.12484521484375,0.2113516628742218,-0.2655496597290039,-0.38790830969810486
1761231993440914200,6.1349140625,0.16072815656661987,-0.7069643139839172,-0.6570804119110107
1761231993450984200,6.144984130859375,0.05078062415122986,-0.9146722555160522,-0.8475645780563354
1761231993461053200,6.15505322265625,-0.07607585936784744,-0.8909810185432434,-0.9362475872039795
1761231993471122200,6.1651220703125,-0.16998291015625,-0.6742172837257385,-0.9213040471076965
1761231993481192400,6.1751923828125,-0.20271849632263184,-0.3928660452365875,-0.829584538936615
1761231993491261200,6.18526123046875,-0.185596764087677,-0.12044758349657059,-0.6878388524055481
1761231993501331500,6.19533154296875,-0.16078142821788788,0.1386210024356842,-0.519289493560791
1761231993511400200,6.205400146484375,-0.16811630129814148,0.3521769642829895,-0.34034132957458496
1761231993521470200,6.21547021484375,-0.2096078246831894,0.4782816171646118,-0.15831613540649414
1761231993531539200,6.225539306640625,-0.28906935453414917,0.4953210651874542,0.015025555156171322
1761231993541608400,6.2356083984375,-0.38218146562576294,0.3880356252193451,0.169386625289917
1761231993551678200,6.24567822265625,-0.45220980048179626,0.19102215766906738,0.3021199107170105
1761231993561747200,6.255747314453125,-0.4733782112598419,-0.023968182504177094,0.4164331555366516
1761231993571817200,6.265817138671875,-0.43178683519363403,-0.16949768364429474,0.5243753790855408
1761231993581886200,6.27588623046875,-0.3308916389942169,-0.22744220495224,0.6191958785057068
1761231993591955200,6.285955078125,-0.17441707849502563,-0.21502521634101868,0.6947119235992432
1761231993602025200,6.296025146484375,0.019762519747018814,-0.09171074628829956,0.7352606654167175
1761231993612094200,6.30609423828125,0.2305365353822708,0.07581087201833725,0.7547345161437988
1761231993622164200,6.316164306640625,0.39961424469947815,0.13477805256843567,0.7363419532775879
1761231993632233200,6.326233154296875,0.4861525893211365,0.12085025757551193,0.6813897490501404
1761231993642302200,6.33630224609375,0.5004276633262634,0.15311577916145325,0.6088513731956482
1761231993652372500,6.34637255859375,0.4867536723613739,0.20364341139793396,0.5170742869377136
1761231993662441200,6.356441162109375,0.4727585017681122,0.13837970793247223,0.40001025795936584
1761231993672511200,6.36651123046875,0.4403928220272064,-0.04778776317834854,0.2622435986995697
1761231993682580200,6.376580322265625,0.4069350063800812,-0.22685684263706207,0.15885542333126068
1761231993692649200,6.386649169921875,0.40033861994743347,-0.3400545120239258,0.14061251282691956
1761231993702719200,6.39671923828125,0.39348551630973816,-0.43414345383644104,0.18971560895442963
1761231993712788200,6.406788330078125,0.3252207040786743,-0.5699716210365295,0.26111629605293274
1761231993722858200,6.416858154296875,0.19309382140636444,-0.7029581665992737,0.3288196921348572
1761231993732927200,6.42692724609375,0.041312817484140396,-0.7681339383125305,0.3691956102848053
1761231993742996200,6.436996337890625,-0.07881438732147217,-0.7242221236228943,0.4010685980319977
1761231993753066200,6.447066162109375,-0.1612943559885025,-0.5999593138694763,0.4226332902908325
1761231993763135200,6.45713525390625,-0.2280675172805786,-0.4625716507434845,0.433245450258255
1761231993773205200,6.467205322265625,-0.2963123619556427,-0.32736507058143616,0.43735283613204956
1761231993783274200,6.477274169921875,-0.36964383721351624,-0.2055206596851349,0.4136371314525604
1761231993793343200,6.48734326171875,-0.4600432217121124,-0.09975775331258774,0.3604186475276947
1761231993803413200,6.497413330078125,-0.5401812195777893,-0.023249397054314613,0.2778145670890808
1761231993813482200,6.507482177734375,-0.6013668179512024,0.01968502067029476,0.18288113176822662
1761231993823552300,6.51755224609375,-0.6525998711585999,0.009242500178515911,0.06756492704153061
1761231993833621200,6.527621337890625,-0.7152891159057617,-0.03285462036728859,-0.05870538949966431
1761231993843690200,6.537690185546875,-0.8016991019248962,-0.09823974967002869,-0.20226654410362244
1761231993853760300,6.54776025390625,-0.9350550174713135,-0.20480453968048096,-0.3664299249649048
1761231993863829200,6.557829345703125,-1.1120569705963135,-0.37813663482666016,-0.5590073466300964
1761231993873899300,6.567899169921875,-1.3117327690124512,-0.5823262929916382,-0.7381342649459839
1761231993883968300,6.57796826171875,-1.4965308904647827,-0.6964741349220276,-0.8597344160079956
1761231993894037200,6.588037353515625,-1.6496211290359497,-0.6614503860473633,-0.8764010071754456
1761231993904107300,6.598107177734375,-1.7597383260726929,-0.4674718677997589,-0.806882381439209
1761231993914176300,6.60817626953125,-1.8110076189041138,-0.1871512532234192,-0.6521218419075012
1761231993924246300,6.618246337890625,-1.8126105070114136,0.060377590358257294,-0.44459477066993713
1761231993934315300,6.628315185546875,-1.8005110025405884,0.24089011549949646,-0.232465460896492
1761231993944385300,6.63838525390625,-1.8141019344329834,0.3088052570819855,-0.05726595222949982
1761231993954454300,6.648454345703125,-1.8556629419326782,0.19128766655921936,0.05524061992764473
1761231993964525800,6.65852587890625,-1.9053783416748047,-0.09278479963541031,0.13299986720085144
1761231993974596000,6.66859619140625,-1.9532244205474854,-0.4349709153175354,0.20253366231918335
1761231993984664800,6.678664794921875,-2.0165414810180664,-0.6762418150901794,0.2900885343551636
1761231993994735000,6.688735107421875,-2.1182656288146973,-0.7894786596298218,0.40538638830184937
1761231994004804000,6.69880419921875,-2.246448040008545,-0.779897153377533,0.5313738584518433
1761231994014873000,6.708873046875,-2.397678852081299,-0.6655668020248413,0.649968683719635
1761231994024943000,6.718943115234375,-2.5461041927337646,-0.48691266775131226,0.7581098079681396
1761231994035012000,6.72901220703125,-2.6094560623168945,-0.25132331252098083,0.9004480242729187
1761231994045082000,6.73908203125,-2.5038208961486816,-0.059833504259586334,1.10590660572052
1761231994055151000,6.749151123046875,-2.292018413543701,-0.11150629073381424,1.295453429222107
1761231994065220000,6.75922021484375,-2.150053024291992,-0.537372350692749,1.370387077331543
1761231994075289900,6.769289794921875,-2.1923775672912598,-1.1630806922912598,1.2755711078643799
1761231994085359000,6.779359130859375,-2.4122538566589355,-1.8139642477035522,1.0559614896774292
1761231994095428900,6.789428955078125,-2.7374064922332764,-2.39314603805542,0.7623511552810669
1761231994105498000,6.799498046875,-3.0494391918182373,-2.744297742843628,0.4534958600997925
1761231994115566800,6.80956689453125,-3.183115005493164,-2.7593870162963867,0.20590442419052124
1761231994125637000,6.81963720703125,-3.0934207439422607,-2.511849880218506,0.04574565216898918
1761231994135705900,6.829705810546875,-2.814974069595337,-2.1064107418060303,-0.015994146466255188
1761231994145776000,6.839776123046875,-2.404700994491577,-1.69078528881073,-0.01852281764149666
1761231994155844900,6.849844970703125,-1.9078830480575562,-1.413718819618225,0.046960052102804184
1761231994165914000,6.8599140625,-1.3982192277908325,-1.2996056079864502,0.19064664840698242
1761231994175984000,6.869984130859375,-1.0092387199401855,-1.3258179426193237,0.37018153071403503
1761231994186053000,6.88005322265625,-0.7968984842300415,-1.4184720516204834,0.5570874810218811
1761231994196123100,6.890123046875,-0.7486550807952881,-1.5023666620254517,0.7247713208198547
1761231994206192000,6.900192138671875,-0.8521364331245422,-1.6009392738342285,0.8246302604675293
1761231994216261000,6.91026123046875,-1.060402512550354,-1.7179229259490967,0.8334988355636597
1761231994226331000,6.920330810546875,-1.3519459962844849,-1.8365051746368408,0.7470201253890991
1761231994236400000,6.930400146484375,-1.6563711166381836,-1.9840971231460571,0.5591011047363281
1761231994246470000,6.940469970703125,-1.868826150894165,-2.1049294471740723,0.30566591024398804
1761231994256539100,6.9505390625,-1.9369908571243286,-2.0740113258361816,0.03530446067452431
1761231994266607900,6.96060791015625,-1.9043902158737183,-1.8481261730194092,-0.21371574699878693
1761231994276678100,6.97067822265625,-1.804805874824524,-1.5131713151931763,-0.40995901823043823
1761231994286747000,6.980746826171875,-1.6836488246917725,-1.1133307218551636,-0.5206253528594971
1761231994296817200,6.990817138671875,-1.5910922288894653,-0.7272086143493652,-0.5486327409744263
1761231994306886000,7.000885986328125,-1.5789053440093994,-0.3689873516559601,-0.4931103587150574
1761231994316955100,7.010955078125,-1.652529239654541,-0.059534698724746704,-0.36832448840141296
1761231994327025000,7.02102490234375,-1.7900266647338867,0.1560303419828415,-0.18586760759353638
1761231994337094100,7.03109423828125,-1.9579535722732544,0.33084744215011597,0.04403670132160187
1761231994347164000,7.041163818359375,-2.1390926837921143,0.46048691868782043,0.2831387519836426
1761231994357233200,7.051233154296875,-2.3154382705688477,0.5068578720092773,0.4846836030483246
1761231994367303200,7.06130322265625,-2.474917411804199,0.44195955991744995,0.6114436984062195
1761231994377372000,7.071371826171875,-2.57718825340271,0.2566608190536499,0.6538704633712769
1761231994387441000,7.08144091796875,-2.594791889190674,-0.01323830708861351,0.6358669996261597
1761231994397511000,7.091510986328125,-2.525790214538574,-0.30899032950401306,0.5702517628669739
1761231994407580200,7.101580078125,-2.391892194747925,-0.5270174741744995,0.4911912977695465
1761231994417650000,7.11164990234375,-2.2182915210723877,-0.6106194257736206,0.4199008643627167
1761231994427719200,7.12171923828125,-2.0237197875976562,-0.5398414134979248,0.3637276291847229
1761231994437788000,7.131787841796875,-1.8149021863937378,-0.33340325951576233,0.3411325514316559
1761231994447858200,7.141858154296875,-1.593894124031067,-0.024397751316428185,0.38240888714790344
1761231994457927000,7.151927001953125,-1.3416951894760132,0.33105435967445374,0.5076954364776611
1761231994467997200,7.1619970703125,-1.0577702522277832,0.5708965063095093,0.6897611021995544
1761231994478066000,7.17206591796875,-0.7874621152877808,0.5536208748817444,0.8553212881088257
1761231994488135200,7.18213525390625,-0.5958444476127625,0.14858947694301605,0.9390191435813904
1761231994498205000,7.192204833984375,-0.49271461367607117,-0.51397705078125,0.944581925868988
1761231994508274200,7.202274169921875,-0.4790251851081848,-1.1001760959625244,0.9682574272155762
1761231994518344000,7.212343994140625,-0.584510862827301,-1.6766753196716309,0.9595816731452942
1761231994528413200,7.2224130859375,-0.845874011516571,-2.312835216522217,0.8556408882141113
1761231994538482000,7.23248193359375,-1.2158944606781006,-2.7373945713043213,0.6846765875816345
1761231994548552000,7.242552001953125,-1.5071446895599365,-2.7698545455932617,0.5284526348114014
1761231994558621000,7.252620849609375,-1.6140942573547363,-2.543163537979126,0.4113324284553528
1761231994568691000,7.26269091796875,-1.5923229455947876,-2.2520744800567627,0.29601407051086426
1761231994578760200,7.27276025390625,-1.5637911558151245,-2.001512050628662,0.11345279216766357
1761231994588829000,7.282828857421875,-1.55292546749115,-1.8095811605453491,-0.10535118728876114
1761231994598899200,7.292899169921875,-1.5238878726959229,-1.6598726511001587,-0.3032485544681549
1761231994608968000,7.302968017578125,-1.4351146221160889,-1.4526022672653198,-0.409189909696579
1761231994619038200,7.3130380859375,-1.2755814790725708,-1.1590570211410522,-0.3880704939365387
1761231994629107000,7.32310693359375,-1.1058217287063599,-0.8976674675941467,-0.2749045491218567
1761231994639176200,7.33317626953125,-1.0325431823730469,-0.7909010648727417,-0.13167227804660797
1761231994649246000,7.343245849609375,-1.0922832489013672,-0.7851302623748779,0.005770004820078611
1761231994659315200,7.353315185546875,-1.265031337738037,-0.8351771831512451,0.11317502707242966
1761231994669385000,7.363385009765625,-1.5084317922592163,-0.9770514965057373,0.19388878345489502
1761231994679454200,7.3734541015625,-1.7858960628509521,-1.267356276512146,0.20583944022655487
1761231994689523000,7.38352294921875,-2.0811290740966797,-1.6723804473876953,0.1181199848651886
1761231994699593000,7.393593017578125,-2.2958321571350098,-2.0737972259521484,-0.033137980848550797
1761231994709662000,7.403661865234375,-2.3618059158325195,-2.3522653579711914,-0.1730402261018753
1761231994719732000,7.41373193359375,-2.2936830520629883,-2.519925117492676,-0.24044163525104523
1761231994729801000,7.423801025390625,-2.150602102279663,-2.5356619358062744,-0.1959732323884964
1761231994739870000,7.433869873046875,-2.029553174972534,-2.40220308303833,-0.09037197381258011
1761231994749940000,7.44393994140625,-1.998818278312683,-2.1219773292541504,0.04469183832406998
1761231994760009000,7.454009033203125,-2.0960168838500977,-1.735689640045166,0.1645175814628601
1761231994770079200,7.464079345703125,-2.299699306488037,-1.3569670915603638,0.246699258685112
1761231994780148000,7.47414794921875,-2.5173890590667725,-1.1060811281204224,0.29001370072364807
1761231994790217000,7.484217041015625,-2.6491169929504395,-1.041799545288086,0.33462512493133545
1761231994800287000,7.494286865234375,-2.683007001876831,-1.1525535583496094,0.3828568458557129
1761231994810356200,7.504356201171875,-2.6168229579925537,-1.3320811986923218,0.43197059631347656
1761231994820426000,7.514426025390625,-2.4693024158477783,-1.2783687114715576,0.5150068998336792
1761231994830495200,7.5244951171875,-2.236828565597534,-0.9787705540657043,0.6169977188110352
1761231994840564000,7.53456396484375,-2.0320470333099365,-0.8325489163398743,0.565683126449585
1761231994850634000,7.544634033203125,-1.9904881715774536,-1.0707426071166992,0.2617732882499695
1761231994860703000,7.554702880859375,-2.153094530105591,-1.3602542877197266,-0.19554100930690765
1761231994870773000,7.56477294921875,-2.44012188911438,-1.5520950555801392,-0.6435976028442383
1761231994880842000,7.574842041015625,-2.7898545265197754,-1.7529581785202026,-0.9953234195709229
1761231994890911000,7.584910888671875,-3.1167595386505127,-1.9535905122756958,-1.2112098932266235
1761231994900981000,7.59498095703125,-3.307584524154663,-1.9427860975265503,-1.2540849447250366
1761231994911050000,7.605050048828125,-3.267031192779541,-1.601353645324707,-1.0775320529937744
1761231994921120000,7.6151201171875,-2.9804203510284424,-1.0773026943206787,-0.7128483057022095
1761231994931189000,7.62518896484375,-2.531761884689331,-0.5575165152549744,-0.2821238338947296
1761231994941259300,7.63525927734375,-2.0313522815704346,-0.1561794877052307,0.1172531247138977
1761231994951328000,7.645327880859375,-1.595579981803894,0.0842118188738823,0.43112024664878845
1761231994961394200,7.655394287109375,-1.3132190704345703,0.19289781153202057,0.6402332186698914
1761231994971464000,7.6654638671875,-1.1726467609405518,0.19187410175800323,0.7324792742729187
1761231994981533000,7.675532958984375,-1.1555781364440918,0.1562066525220871,0.7171599864959717
1761231994991602000,7.685601806640625,-1.1805260181427002,0.21402627229690552,0.6574995517730713
1761231995001672000,7.695671875,-1.1860510110855103,0.22991947829723358,0.5556267499923706
1761231995011741000,7.705740966796875,-1.1811721324920654,0.05331755056977272,0.3665580153465271
1761231995021811000,7.71581103515625,-1.1921718120574951,-0.32791128754615784,0.07780105620622635
1761231995031880000,7.7258798828125,-1.2384241819381714,-0.7964732050895691,-0.27198171615600586
1761231995041950000,7.735949951171875,-1.321229338645935,-1.256580114364624,-0.641739547252655
1761231995052019000,7.74601904296875,-1.3919628858566284,-1.6025265455245972,-0.9457178115844727
1761231995062088000,7.756087890625,-1.4121030569076538,-1.7417871952056885,-1.127774715423584
1761231995072158200,7.766158203125,-1.3457213640213013,-1.6272326707839966,-1.1142252683639526
1761231995082227000,7.77622705078125,-1.1711448431015015,-1.2710168361663818,-0.9137798547744751
1761231995092297000,7.786296875,-0.9528228640556335,-0.7942649126052856,-0.5625187158584595
1761231995102366000,7.796365966796875,-0.7380242347717285,-0.3454974889755249,-0.16127623617649078
1761231995112435200,7.806435302734375,-0.5846163034439087,-0.021456290036439896,0.2007908970117569
1761231995122505000,7.8165048828125,-0.5258193016052246,0.14726375043392181,0.47983983159065247
1761231995132574200,7.82657421875,-0.5308156609535217,0.24222461879253387,0.6594088077545166
1761231995142644000,7.83664404296875,-0.5668405294418335,0.2679363787174225,0.7431955933570862
1761231995152713000,7.846712890625,-0.6121331453323364,0.20760245621204376,0.7281918525695801
1761231995162782000,7.856781982421875,-0.6577088832855225,0.06584319472312927,0.6246007680892944
1761231995172852000,7.86685205078125,-0.6875061988830566,-0.1538020819425583,0.4607851803302765
1761231995182921000,7.8769208984375,-0.6673069596290588,-0.370975136756897,0.28751060366630554
1761231995192991000,7.886990966796875,-0.5776095390319824,-0.41828805208206177,0.14785178005695343
1761231995203060000,7.89706005859375,-0.44694340229034424,-0.254488468170166,0.07542737573385239
1761231995213129000,7.90712890625,-0.2972135543823242,-0.0012178635224699974,0.041729602962732315
1761231995223199000,7.917198974609375,-0.18538451194763184,0.18367289006710052,0.010408165864646435
1761231995233268000,7.92726806640625,-0.14521151781082153,0.2121705859899521,-0.0167374350130558
1761231995243338000,7.937337890625,-0.1870042383670807,0.006455236114561558,-0.049262356013059616
1761231995253407000,7.947406982421875,-0.26718375086784363,-0.37574538588523865,-0.04482739418745041
1761231995263476000,7.95747607421875,-0.3622833788394928,-0.7311524748802185,0.03321920707821846
1761231995273546000,7.9675458984375,-0.4987890422344208,-1.1225799322128296,0.12486124038696289
1761231995283615000,7.977614990234375,-0.6581518054008484,-1.543212890625,0.20827677845954895
1761231995293685000,7.98768505859375,-0.8195928931236267,-1.7998420000076294,0.2949994206428528
1761231995303754000,7.99775390625,-0.9542843699455261,-1.7983202934265137,0.3919624388217926
1761231995313823000,8.007822998046874,-1.0537598133087158,-1.546433925628662,0.48665300011634827
1761231995323893000,8.01789306640625,-1.1260361671447754,-1.202957034111023,0.552018940448761
1761231995333962000,8.0279619140625,-1.158699870109558,-0.9270051121711731,0.5692160725593567
1761231995344032000,8.038031982421876,-1.1301614046096802,-0.766078531742096,0.5349150896072388
1761231995354101000,8.04810107421875,-1.0345051288604736,-0.6250601410865784,0.45856544375419617
1761231995364170000,8.058169921875,-0.8592502474784851,-0.44085249304771423,0.35560309886932373
1761231995374240000,8.068239990234375,-0.6203639507293701,-0.2737348675727844,0.2360897660255432
1761231995384309000,8.07830908203125,-0.34954336285591125,-0.07486704736948013,0.12445883452892303
1761231995394379000,8.08837890625,-0.09391078352928162,0.1511831283569336,0.02551201730966568
1761231995404448000,8.098447998046876,0.09170115739107132,0.2125980108976364,-0.0898212343454361
1761231995414517000,8.10851708984375,0.1935175359249115,0.08556949347257614,-0.21700873970985413
1761231995424587000,8.1185869140625,0.1830824762582779,-0.1254758983850479,-0.35656797885894775
1761231995434656000,8.128656005859375,0.05476338043808937,-0.38492798805236816,-0.5170269012451172
1761231995444726000,8.13872607421875,-0.1591707468032837,-0.6417885422706604,-0.6853588819503784
1761231995454795000,8.148794921875,-0.3635483980178833,-0.7834076881408691,-0.8194730281829834
1761231995464864000,8.158864013671876,-0.4983360171318054,-0.7449558973312378,-0.9032472968101501
1761231995474934000,8.16893408203125,-0.5431708693504333,-0.5697124600410461,-0.9335993528366089
1761231995485003000,8.1790029296875,-0.4981996715068817,-0.34432968497276306,-0.9082202315330505
1761231995495073000,8.189072998046875,-0.38655197620391846,-0.15302923321723938,-0.8458114266395569
1761231995505142000,8.19914208984375,-0.26406627893447876,0.04494377225637436,-0.746649980545044
1761231995515212000,8.2092119140625,-0.1748272031545639,0.18567639589309692,-0.6165491938591003
1761231995525281000,8.219281005859376,-0.12176185101270676,0.17653562128543854,-0.4685903787612915
1761231995535350000,8.22935009765625,-0.09483277052640915,-0.001315335277467966,-0.2929123044013977
1761231995545420000,8.239419921875,-0.09118290990591049,-0.24216310679912567,-0.11402430385351181
1761231995555489000,8.249489013671875,-0.0943741723895073,-0.4462946653366089,0.05751362815499306
1761231995565558800,8.259558837890625,-0.08838339149951935,-0.5672280192375183,0.22380752861499786
1761231995575628000,8.2696279296875,-0.09018954634666443,-0.6292577981948853,0.34229928255081177
1761231995585697000,8.279697021484376,-0.11087032407522202,-0.6416982412338257,0.41851896047592163
1761231995595767000,8.28976708984375,-0.14278830587863922,-0.5872187614440918,0.44800201058387756
1761231995605836000,8.2998359375,-0.18483643233776093,-0.4247867166996002,0.43142569065093994
1761231995615906000,8.309906005859375,-0.21425236761569977,-0.17507141828536987,0.4033397436141968
1761231995625974800,8.319974853515625,-0.2365904301404953,0.04507799446582794,0.38945215940475464
1761231995636044000,8.3300439453125,-0.25945845246315,0.1715291440486908,0.3857690095901489
1761231995646113800,8.34011376953125,-0.2798987627029419,0.16396284103393555,0.3839620351791382
1761231995656183000,8.35018310546875,-0.279702752828598,0.0021755362395197153,0.36075153946876526
1761231995666253000,8.360253173828125,-0.3092752993106842,-0.26237383484840393,0.3104742467403412
1761231995676322000,8.370322021484375,-0.42484158277511597,-0.5707519054412842,0.22174277901649475
1761231995686390800,8.380390869140625,-0.6590090394020081,-0.885917067527771,0.08873972296714783
1761231995696461000,8.3904609375,-0.9708183407783508,-1.118814468383789,-0.0492093563079834
1761231995706530000,8.400530029296876,-1.2758275270462036,-1.2156299352645874,-0.15535789728164673
1761231995716600000,8.41060009765625,-1.4958651065826416,-1.1870439052581787,-0.21477249264717102
1761231995726669000,8.4206689453125,-1.5893659591674805,-1.059577465057373,-0.2025882601737976
1761231995736738000,8.430738037109375,-1.556878924369812,-0.893022894859314,-0.13358043134212494
1761231995746808000,8.44080810546875,-1.4398561716079712,-0.7160558104515076,-0.04296024888753891
1761231995756877000,8.450876953125,-1.2943426370620728,-0.5064640045166016,0.060983993113040924
1761231995766947000,8.460947021484374,-1.147883653640747,-0.31055334210395813,0.1652318388223648
1761231995777015800,8.471015869140626,-1.0191084146499634,-0.13472957909107208,0.27705901861190796
1761231995787085000,8.4810849609375,-0.9244953393936157,-0.044494498521089554,0.35553067922592163
1761231995797154800,8.49115478515625,-0.8721951246261597,-0.026126941666007042,0.4012558162212372
1761231995807224000,8.50122412109375,-0.8543000221252441,-0.048710014671087265,0.3961990177631378
1761231995817293800,8.5112939453125,-0.87262362241745,-0.06281758099794388,0.34071096777915955
1761231995827363000,8.521363037109374,-0.8815028667449951,-0.07830039411783218,0.23665355145931244
1761231995837431800,8.531431884765626,-0.8624426126480103,-0.13222834467887878,0.10043579339981079
1761231995847502000,8.541502197265626,-0.7836703062057495,-0.2424432635307312,-0.04006326198577881
1761231995857570800,8.55157080078125,-0.6468000411987305,-0.3844219744205475,-0.14228764176368713
1761231995867641000,8.56164111328125,-0.5132734179496765,-0.5053590536117554,-0.20345884561538696
1761231995877710000,8.5717099609375,-0.4385286271572113,-0.5566999912261963,-0.22167673707008362
1761231995887779800,8.58177978515625,-0.41279104351997375,-0.5005035996437073,-0.21614082157611847
1761231995897849000,8.59184912109375,-0.4030294716358185,-0.3567133843898773,-0.17627117037773132
1761231995907918000,8.60191796875,-0.3937089443206787,-0.17545464634895325,-0.107107013463974
1761231995917988000,8.611988037109375,-0.3817092776298523,0.05283844843506813,-0.0035414716694504023
1761231995928056800,8.622056884765625,-0.3679625689983368,0.3156735301017761,0.12194161862134933
1761231995938127000,8.632127197265625,-0.3666653335094452,0.5479435324668884,0.21944580972194672
1761231995948195800,8.64219580078125,-0.37450116872787476,0.7308387756347656,0.28336912393569946
1761231995958265000,8.65226513671875,-0.37039563059806824,0.8687175512313843,0.32772141695022583
1761231995968335600,8.662335693359376,-0.3524959981441498,0.9531522989273071,0.3377162516117096
1761231995978404600,8.672404541015625,-0.30398306250572205,0.9870601892471313,0.3169494569301605
1761231995988474600,8.682474609375,-0.21888095140457153,0.9550034403800964,0.2577918469905853
1761231995998543600,8.692543701171875,-0.08544406294822693,0.8486484885215759,0.162399023771286
1761231996008612600,8.702612548828125,0.08244027942419052,0.6916266679763794,0.04935237020254135
1761231996018682400,8.712682373046874,0.2746216952800751,0.5504136085510254,-0.04969378560781479
1761231996028751600,8.722751708984376,0.4696069061756134,0.5174553990364075,-0.08337505161762238
1761231996038821400,8.7328212890625,0.636218249797821,0.5450044870376587,-0.05753892660140991
1761231996048890600,8.742890625,0.7322803735733032,0.5202650427818298,-0.036790769547224045
1761231996058959400,8.75295947265625,0.7217177152633667,0.45485273003578186,-0.04211549460887909
1761231996069029600,8.763029541015625,0.6340435147285461,0.38418787717819214,-0.06802912056446075
1761231996079098400,8.773098388671874,0.5015895962715149,0.2680673897266388,-0.09826718270778656
1761231996089168600,8.783168701171874,0.38488590717315674,0.1282903254032135,-0.10370402783155441
1761231996099237400,8.7932373046875,0.31830286979675293,0.007328486535698175,-0.0863972082734108
1761231996109306600,8.803306640625,0.315042108297348,-0.04723915085196495,-0.029258819296956062
1761231996119376400,8.81337646484375,0.37376001477241516,-0.011208712123334408,0.0820554569363594
1761231996129444600,8.823444580078124,0.47202134132385254,0.05754025653004646,0.24032285809516907
1761231996139513600,8.833513671875,0.5624018311500549,0.10130637884140015,0.39622271060943604
1761231996149583600,8.84358349609375,0.6203128099441528,0.08950325101613998,0.5121474266052246
1761231996159652400,8.85365234375,0.6407983899116516,0.014613297767937183,0.5645656585693359
1761231996169721600,8.8637216796875,0.641452431678772,-0.04480768367648125,0.5459805130958557
1761231996179791400,8.873791259765625,0.5952900052070618,-0.08571357280015945,0.46251437067985535
1761231996189860600,8.883860595703124,0.49716848134994507,-0.0797579437494278,0.3197076916694641
1761231996199930400,8.893930419921874,0.3795691728591919,-0.01558242179453373,0.15035168826580048
1761231996209999600,8.90399951171875,0.2777661085128784,0.13395993411540985,0.02401665225625038
1761231996220068400,8.914068359375,0.21454238891601562,0.3510270118713379,-0.04369315132498741
1761231996230138600,8.924138671875,0.19079124927520752,0.5531854033470154,-0.07762422412633896
1761231996240207400,8.934207275390625,0.19175904989242554,0.6422830820083618,-0.12547457218170166
1761231996250277600,8.944277587890625,0.1935441642999649,0.6053021550178528,-0.2030676305294037
1761231996260346600,8.9543466796875,0.16990381479263306,0.4958353042602539,-0.309634804725647
1761231996270415600,8.96441552734375,0.11259765177965164,0.34787169098854065,-0.45009100437164307
1761231996280485600,8.974485595703126,0.030721427872776985,0.1723209023475647,-0.6061599850654602
1761231996290554600,8.9845546875,-0.019306587055325508,-0.01581731252372265,-0.7498822212219238
1761231996300624600,8.994624755859375,-0.025239042937755585,-0.12008779495954514,-0.8168708682060242
1761231996310693400,9.004693359375,-0.011924836784601212,-0.056289371103048325,-0.792153000831604
1761231996320763600,9.014763671875,0.02232767641544342,0.16157345473766327,-0.6868153810501099
1761231996330832400,9.024832275390626,0.06023537740111351,0.45181939005851746,-0.5451557040214539
1761231996340901600,9.034901611328126,0.07199855893850327,0.7103111147880554,-0.39364877343177795
1761231996350971400,9.044971435546875,0.038248319178819656,0.9241677522659302,-0.2515840232372284
1761231996361040600,9.05504052734375,-0.0333787277340889,1.1250574588775635,-0.14469780027866364
1761231996371110400,9.0651103515625,-0.10291173309087753,1.2474933862686157,-0.06737291812896729
1761231996381179600,9.0751796875,-0.12101484090089798,1.2424554824829102,-0.012083826586604118
1761231996391248400,9.085248291015626,-0.09680137783288956,1.1254491806030273,0.022225411608815193
1761231996401318700,9.095318603515626,-0.04838244616985321,0.9808520674705505,0.03634442389011383
1761231996411387400,9.105387451171875,0.02412770688533783,0.8253738284111023,0.06261996924877167
1761231996421457400,9.11545751953125,0.090166375041008,0.6627268195152283,0.10600259900093079
1761231996431526400,9.1255263671875,0.15514831244945526,0.5356325507164001,0.14244529604911804
1761231996441595600,9.135595703125,0.24912966787815094,0.5048384070396423,0.2009618729352951
1761231996451665700,9.145665771484374,0.3772372901439667,0.5543915629386902,0.28463226556777954
1761231996461734700,9.155734619140626,0.46830275654792786,0.6168714761734009,0.3239727318286896
1761231996471804700,9.1658046875,0.476139634847641,0.6831010580062866,0.3169286847114563
1761231996481873400,9.175873291015625,0.2543582618236542,0.612163245677948,0.3837932050228119
1761231996491942700,9.185942626953125,-0.05746062844991684,0.08557695150375366,0.3340757191181183
1761231996502012400,9.196012451171875,-0.20234698057174683,-0.26285186409950256,0.30951017141342163
1761231996512081700,9.20608154296875,-0.2697233557701111,-0.4364902377128601,0.309963196516037
1761231996522151400,9.2161513671875,-0.38768354058265686,-0.5651035904884338,0.29158419370651245
1761231996532220700,9.226220703125,-0.4939362108707428,-0.7022518515586853,0.19781827926635742
1761231996542289400,9.236289306640625,-0.5628952980041504,-0.8593767881393433,0.06131954863667488
1761231996552359700,9.246359619140625,-0.5826106667518616,-1.0965112447738647,-0.05592292174696922
1761231996562428400,9.256428466796875,-0.43521350622177124,-1.2803226709365845,-0.08675619959831238
