time,seconds_elapsed,z,y,x
1761231987390460200,0.084460205078125,-0.04851769283413887,-0.2497727870941162,-0.1083204448223114
1761231987400530400,0.094530517578125,-0.015795700252056122,-0.2388056069612503,-0.10257787257432938
1761231987410599200,0.10459912109375,0.03070916421711445,-0.1925383359193802,-0.1020318791270256
1761231987420668200,0.114668212890625,0.08625870943069458,-0.15842990577220917,-0.10955770313739777
1761231987430738200,0.12473828125,0.12689208984375,-0.13338680565357208,-0.11203927546739578
1761231987440807400,0.134807373046875,0.15103338658809662,-0.12224733084440231,-0.11003577709197998
1761231987450877200,0.144877197265625,0.15260475873947144,-0.11352327466011047,-0.1033623218536377
1761231987460946400,0.154946533203125,0.14072813093662262,-0.08556247502565384,-0.08996608853340149
1761231987471015200,0.16501513671875,0.1264093965291977,-0.045385122299194336,-0.07470864057540894
1761231987481085200,0.175085205078125,0.11449893563985825,-0.017102621495723724,-0.055260106921195984
1761231987491154200,0.185154296875,0.10676420480012894,-0.009975871071219444,-0.04150841012597084
1761231987501223400,0.195223388671875,0.10569175332784653,-0.016717664897441864,-0.04414946585893631
1761231987511293200,0.205293212890625,0.10839784145355225,-0.03631268069148064,-0.05440009757876396
1761231987521362400,0.215362548828125,0.11752103269100189,-0.06083959713578224,-0.06566393375396729
1761231987531432200,0.22543212890625,0.13003748655319214,-0.06251154839992523,-0.06629549711942673
1761231987541501200,0.235501220703125,0.149549663066864,-0.04107629880309105,-0.058745697140693665
1761231987551570200,0.245570068359375,0.17048217356204987,-0.02617853693664074,-0.04942585155367851
1761231987561640200,0.25564013671875,0.18925824761390686,-0.02227514237165451,-0.037351347506046295
1761231987571709200,0.265709228515625,0.19138799607753754,-0.03433452546596527,-0.022985298186540604
1761231987581779200,0.275779296875,0.18920420110225677,-0.05219581350684166,-0.004616677761077881
1761231987591848200,0.28584814453125,0.18035808205604553,-0.06893566995859146,0.016302214935421944
1761231987601917200,0.295917236328125,0.16790060698986053,-0.07705564796924591,0.0325498953461647
1761231987611987500,0.305987548828125,0.1436588615179062,-0.0687539204955101,0.04184131696820259
1761231987622056200,0.31605615234375,0.12375438213348389,-0.03455813229084015,0.051622577011585236
1761231987632126200,0.326126220703125,0.10691991448402405,0.00039348378777503967,0.05762653052806854
1761231987642195200,0.3361953125,0.08981335908174515,0.025170203298330307,0.05370768904685974
1761231987652264400,0.346264404296875,0.0726926326751709,0.04914356768131256,0.04577074199914932
1761231987662334200,0.356334228515625,0.06272628158330917,0.10372638702392578,0.04339573532342911
1761231987672404200,0.366404296875,0.06352274119853973,0.19055871665477753,0.03725798428058624
1761231987682473200,0.37647314453125,0.06839313358068466,0.3156695067882538,0.029396597295999527
1761231987692543200,0.386543212890625,0.07682379335165024,0.45771440863609314,0.026525869965553284
1761231987702612200,0.3966123046875,0.08614139258861542,0.5830979347229004,0.026961829513311386
1761231987712681200,0.40668115234375,0.1000552847981453,0.7057404518127441,0.05906079709529877
1761231987722751200,0.416751220703125,0.09305410087108612,0.847113311290741,0.11252348870038986
1761231987732820200,0.4268203125,0.06822577863931656,0.9908002018928528,0.1691804975271225
1761231987742889200,0.43688916015625,0.02004680037498474,1.138145089149475,0.2373691350221634
1761231987752959200,0.446959228515625,-0.05689719319343567,1.1460717916488647,0.3089713752269745
1761231987763028200,0.4570283203125,-0.12152305990457535,1.0709373950958252,0.42279380559921265
1761231987773098200,0.46709814453125,-0.13869822025299072,1.0886732339859009,0.5925171971321106
1761231987783167200,0.477167236328125,-0.08824782818555832,1.194092869758606,0.7712496519088745
1761231987793236200,0.487236328125,0.008119581267237663,1.2596468925476074,0.9095938205718994
1761231987803306200,0.49730615234375,0.09284591674804688,1.240346908569336,0.9571229815483093
1761231987813375200,0.507375244140625,0.11863509565591812,1.028411865234375,0.9065356850624084
1761231987823445200,0.5174453125,0.10413311421871185,0.7108929753303528,0.7936152815818787
1761231987833514200,0.52751416015625,0.08169104903936386,0.4256019592285156,0.6621907353401184
1761231987843583200,0.537583251953125,0.05569886416196823,0.18532651662826538,0.5226954221725464
1761231987853653200,0.5476533203125,0.01645190641283989,-0.004204383119940758,0.35583943128585815
1761231987863722200,0.55772216796875,-0.0117943799123168,-0.1250988394021988,0.17248718440532684
1761231987873792300,0.567792236328125,-0.03406184911727905,-0.18883584439754486,-0.030033662915229797
1761231987883861200,0.577861328125,-0.046245276927948,-0.23410771787166595,-0.24434836208820343
1761231987893930200,0.58793017578125,-0.0395999439060688,-0.25123023986816406,-0.44273990392684937
1761231987904000300,0.598000244140625,-0.02416852116584778,-0.2843565046787262,-0.6117251515388489
1761231987914069200,0.6080693359375,-0.007965262047946453,-0.2830573320388794,-0.7282249331474304
1761231987924138200,0.61813818359375,0.0022335792891681194,-0.21519145369529724,-0.7759231925010681
1761231987934208300,0.628208251953125,-0.00614609569311142,-0.1101234182715416,-0.7474604845046997
1761231987944277200,0.63827734375,-0.03670613467693329,-0.022029509767889977,-0.6682831048965454
1761231987954348000,0.64834814453125,-0.07694399356842041,0.04380323737859726,-0.5580956339836121
1761231987964417000,0.6584169921875,-0.12925219535827637,0.07449403405189514,-0.43109560012817383
1761231987974485800,0.66848583984375,-0.19497369229793549,0.05527703836560249,-0.31144580245018005
1761231987984556000,0.67855615234375,-0.24413111805915833,0.00773615064099431,-0.20443174242973328
1761231987994625000,0.688625,-0.25994083285331726,-0.03262227401137352,-0.10525372624397278
1761231988004695000,0.698695068359375,-0.2533702850341797,-0.07860574126243591,-0.034477826207876205
1761231988014764000,0.708763916015625,-0.21746143698692322,-0.04574283957481384,0.03401946648955345
1761231988024833000,0.7188330078125,-0.19294516742229462,0.06125525012612343,0.09179142117500305
1761231988034903000,0.728903076171875,-0.1892237812280655,-0.09344866126775742,0.08496537059545517
1761231988044972000,0.738971923828125,-0.16199375689029694,-0.2199307084083557,0.06800263375043869
1761231988055042000,0.7490419921875,-0.11427951604127884,-0.24134373664855957,0.038548555225133896
1761231988065111000,0.759111083984375,-0.08258417248725891,-0.21425193548202515,-0.008942795917391777
1761231988075180000,0.769179931640625,-0.08385270088911057,-0.14991451799869537,-0.05123390629887581
1761231988085249800,0.779249755859375,-0.12369252741336823,-0.09306029975414276,-0.09923871606588364
1761231988095319000,0.789319091796875,-0.19652046263217926,-0.03968249633908272,-0.1532505750656128
1761231988105388800,0.799388916015625,-0.272698312997818,0.011914383620023727,-0.23134298622608185
1761231988115458000,0.8094580078125,-0.319817453622818,-0.05093901604413986,-0.3459489941596985
1761231988125526800,0.81952685546875,-0.28102079033851624,-0.24153372645378113,-0.47808465361595154
1761231988135597000,0.82959716796875,-0.16558288037776947,-0.40318763256073,-0.5789199471473694
1761231988145665800,0.839665771484375,-0.009865446016192436,-0.4659969210624695,-0.6227129697799683
1761231988155735000,0.849735107421875,0.09819836914539337,-0.45259231328964233,-0.6254098415374756
1761231988165805000,0.85980517578125,0.13445517420768738,-0.4078919589519501,-0.6000149846076965
1761231988175874000,0.8698740234375,0.11382404714822769,-0.34974315762519836,-0.5671943426132202
1761231988185944000,0.879944091796875,0.06512787938117981,-0.26472386717796326,-0.5232418179512024
1761231988196013000,0.890012939453125,0.015206299722194672,-0.22499284148216248,-0.5015707015991211
1761231988206082000,0.90008203125,-0.014414442703127861,-0.21129034459590912,-0.4847533404827118
1761231988216152000,0.910152099609375,-0.02822107821702957,-0.1932673305273056,-0.47976621985435486
1761231988226221000,0.920220947265625,-0.016152165830135345,-0.224952831864357,-0.46901077032089233
1761231988236290800,0.930290771484375,-0.003369203070178628,-0.2920612096786499,-0.4532097280025482
1761231988246360000,0.940360107421875,-0.0013705005403608084,-0.3809484541416168,-0.4301137328147888
1761231988256429000,0.950428955078125,-0.011810876429080963,-0.46605023741722107,-0.4099070429801941
1761231988266499000,0.9604990234375,-0.017418161034584045,-0.5310719013214111,-0.39128008484840393
1761231988276567800,0.97056787109375,-0.027494212612509727,-0.5772189497947693,-0.3774779438972473
1761231988286638000,0.98063818359375,-0.02601242996752262,-0.5701165795326233,-0.35046204924583435
1761231988296706800,0.990706787109375,-0.036900512874126434,-0.5161172747612,-0.3147796392440796
1761231988306776000,1.000776123046875,-0.06116350740194321,-0.44814813137054443,-0.28793177008628845
1761231988316845800,1.010845703125,-0.09438697248697281,-0.3917904496192932,-0.2650698125362396
1761231988326915000,1.0209150390625,-0.1316714882850647,-0.35407450795173645,-0.24625803530216217
1761231988336984800,1.03098486328125,-0.1616489589214325,-0.31898006796836853,-0.23690345883369446
1761231988347054000,1.04105419921875,-0.18113797903060913,-0.2974604070186615,-0.2317425161600113
1761231988357122800,1.051122802734375,-0.18841734528541565,-0.2599644660949707,-0.22517633438110352
1761231988367193000,1.061193115234375,-0.19943936169147491,-0.23559467494487762,-0.22098185122013092
1761231988377261800,1.07126171875,-0.22376292943954468,-0.23978567123413086,-0.22818931937217712
1761231988387331800,1.081331787109375,-0.2729986608028412,-0.25885042548179626,-0.23928910493850708
1761231988397401000,1.091401123046875,-0.33231717348098755,-0.275499165058136,-0.2580723762512207
1761231988407470000,1.101469970703125,-0.3881964087486267,-0.2835341989994049,-0.29011020064353943
1761231988417540000,1.1115400390625,-0.4294848144054413,-0.29227131605148315,-0.32824862003326416
1761231988427609000,1.121609130859375,-0.4437292814254761,-0.318921834230423,-0.36906981468200684
1761231988437679000,1.13167919921875,-0.43575558066368103,-0.3261169195175171,-0.380924254655838
1761231988447747800,1.141747802734375,-0.4239295423030853,-0.3164653480052948,-0.3819061517715454
1761231988457817000,1.151817138671875,-0.4025237560272217,-0.3206273317337036,-0.3763257563114166
1761231988467886800,1.161886962890625,-0.3729240596294403,-0.31725549697875977,-0.37375473976135254
1761231988477956000,1.1719560546875,-0.32786881923675537,-0.3199331760406494,-0.36756905913352966
1761231988488024800,1.18202490234375,-0.30250298976898193,-0.3311357796192169,-0.36443719267845154
1761231988498095000,1.19209521484375,-0.2894846200942993,-0.34781980514526367,-0.3645009398460388
1761231988508163800,1.202163818359375,-0.2858099937438965,-0.4033653736114502,-0.3625594675540924
1761231988518234000,1.212234130859375,-0.2781534492969513,-0.565525233745575,-0.3676646053791046
1761231988528302800,1.222302734375,-0.2372177392244339,-0.7656567096710205,-0.3707568049430847
1761231988538372000,1.2323720703125,-0.1696450114250183,-0.9126015901565552,-0.3341829776763916
1761231988548441900,1.24244189453125,-0.08074017614126205,-1.0056740045547485,-0.2787729799747467
1761231988558511000,1.252510986328125,0.014462579973042011,-1.0824811458587646,-0.19837667047977448
1761231988568581000,1.2625810546875,0.07681676745414734,-1.113540768623352,-0.10018913447856903
1761231988578650000,1.272650146484375,0.0858885869383812,-1.0803035497665405,0.0037408466450870037
1761231988588718800,1.28271875,0.03880789130926132,-1.0015716552734375,0.09149520099163055
1761231988598788900,1.292788818359375,-0.052193865180015564,-0.9131051301956177,0.16460292041301727
1761231988608858000,1.302858154296875,-0.16017386317253113,-0.8573483824729919,0.21986937522888184
1761231988618927900,1.312927978515625,-0.2680555582046509,-0.8621609210968018,0.2477777898311615
1761231988628997000,1.3229970703125,-0.35106897354125977,-0.9449636340141296,0.23736536502838135
1761231988639065900,1.33306591796875,-0.3963578939437866,-1.0745141506195068,0.18251675367355347
1761231988649136000,1.34313623046875,-0.4096587896347046,-1.1993281841278076,0.08003059774637222
1761231988659204900,1.353204833984375,-0.4156714677810669,-1.2910406589508057,-0.04040781781077385
1761231988669275100,1.363275146484375,-0.4472046196460724,-1.3310357332229614,-0.1609925478696823
1761231988679343900,1.37334375,-0.5347786545753479,-1.3216607570648193,-0.25731098651885986
1761231988689413000,1.3834130859375,-0.6495694518089294,-1.2388767004013062,-0.30242225527763367
1761231988699483000,1.39348291015625,-0.7709222435951233,-1.0529416799545288,-0.27410194277763367
1761231988709552000,1.40355224609375,-0.8804990649223328,-0.8098571300506592,-0.18864376842975616
1761231988719622000,1.413621826171875,-0.9499431848526001,-0.550048291683197,-0.02636747807264328
1761231988729691100,1.423691162109375,-0.9517570734024048,-0.28647762537002563,0.18134842813014984
1761231988739759900,1.433759765625,-0.8854801654815674,-0.06846952438354492,0.36552926898002625
1761231988749830000,1.443829833984375,-0.7839548587799072,0.08982610702514648,0.47691065073013306
1761231988759899000,1.45389892578125,-0.6269080638885498,0.1703837513923645,0.5106565356254578
1761231988769969000,1.463968994140625,-0.48667052388191223,0.21830680966377258,0.45728811621665955
1761231988780038000,1.474037841796875,-0.42748525738716125,0.1852046251296997,0.3393036425113678
1761231988790107100,1.484107177734375,-0.40760716795921326,-0.019327212125062943,0.203681081533432
1761231988800177200,1.49417724609375,-0.4038989543914795,-0.2804448902606964,0.07148683816194534
1761231988810246000,1.504245849609375,-0.37460577487945557,-0.45901888608932495,-0.038678281009197235
1761231988820316200,1.514316162109375,-0.25729143619537354,-0.5534231066703796,-0.09917093068361282
1761231988830385000,1.524385009765625,-0.11012221872806549,-0.3502361476421356,-0.09778555482625961
1761231988840454100,1.5344541015625,-0.053872354328632355,0.02677580714225769,-0.11934371292591095
1761231988850524000,1.54452392578125,-0.01882888376712799,0.2932482361793518,-0.145169198513031
1761231988860593200,1.55459326171875,0.013077068142592907,0.570794403553009,-0.15215329825878143
1761231988870663000,1.564662841796875,0.04247969761490822,0.8440922498703003,-0.12585803866386414
1761231988880732200,1.574732177734375,0.06653393059968948,1.1029599905014038,-0.0504240058362484
1761231988890801000,1.58480078125,0.08655451238155365,1.3903783559799194,0.07662209868431091
1761231988900871000,1.594870849609375,0.11034385859966278,1.6563835144042969,0.24345189332962036
1761231988910940000,1.60493994140625,0.18643756210803986,1.8086018562316895,0.44388672709465027
1761231988921010000,1.615010009765625,0.3529166877269745,1.5688313245773315,0.6573103666305542
1761231988931079000,1.625078857421875,0.5697701573371887,1.00467848777771,0.8766403198242188
1761231988941148200,1.635148193359375,0.7823688983917236,0.48169827461242676,1.0595200061798096
1761231988951218000,1.645218017578125,0.9707657098770142,0.3050110936164856,1.1429051160812378
1761231988961290200,1.655290283203125,1.0874226093292236,0.39593014121055603,1.0372120141983032
1761231988971360300,1.6653603515625,1.1409623622894287,0.6610435247421265,0.7203920483589172
1761231988981429200,1.67542919921875,1.175762414932251,0.9994579553604126,0.35911688208580017
1761231988991498200,1.685498291015625,1.2605798244476318,1.1082857847213745,-0.026912325993180275
1761231989001568300,1.695568359375,1.3543615341186523,1.068846583366394,-0.4387422502040863
1761231989011637200,1.70563720703125,1.430976390838623,0.8150865435600281,-0.7678729891777039
1761231989021706200,1.715706298828125,1.447794795036316,0.6253376603126526,-0.9126589298248291
1761231989031776300,1.7257763671875,1.3754010200500488,0.5735460519790649,-0.9291830658912659
1761231989041845200,1.73584521484375,1.2207986116409302,0.5910441875457764,-0.854661762714386
1761231989051915300,1.745915283203125,1.0456122159957886,0.6006742119789124,-0.7117618918418884
1761231989061984300,1.755984375,0.8881193995475769,0.5392219424247742,-0.5389745831489563
1761231989072054300,1.76605419921875,0.7274735569953918,0.42060044407844543,-0.3686891496181488
1761231989082123300,1.776123291015625,0.5472239255905151,0.22971323132514954,-0.22598373889923096
1761231989092192300,1.786192138671875,0.32601913809776306,-0.024347003549337387,-0.1427285224199295
1761231989102262300,1.79626220703125,0.07702694833278656,-0.21327927708625793,-0.13308659195899963
1761231989112331300,1.806331298828125,-0.17913159728050232,-0.34413665533065796,-0.20802660286426544
1761231989122401300,1.8164013671875,-0.41534072160720825,-0.45023995637893677,-0.37665823101997375
1761231989132470000,1.826469970703125,-0.645187258720398,-0.5554760694503784,-0.6172599196434021
1761231989142539300,1.836539306640625,-0.8818592429161072,-0.6319897770881653,-0.8823533654212952
1761231989152609300,1.846609375,-1.10977303981781,-0.5624732971191406,-1.1294896602630615
1761231989162678300,1.85667822265625,-1.325153112411499,-0.2768261432647705,-1.3283859491348267
1761231989172748300,1.866748291015625,-1.5177643299102783,0.23920126259326935,-1.481541395187378
1761231989182817300,1.8768173828125,-1.6348367929458618,0.9040757417678833,-1.5761425495147705
1761231989192886300,1.88688623046875,-1.6426085233688354,1.5564719438552856,-1.589786410331726
1761231989202956300,1.896956298828125,-1.5798879861831665,2.052980899810791,-1.51050865650177
1761231989213025300,1.907025390625,-1.5279574394226074,2.3616130352020264,-1.3839690685272217
1761231989223095300,1.91709521484375,-1.5927823781967163,2.494856834411621,-1.2264502048492432
1761231989233164300,1.927164306640625,-1.7707459926605225,2.5019571781158447,-1.0491721630096436
1761231989243233300,1.9372333984375,-1.9693729877471924,2.4501283168792725,-0.8331172466278076
1761231989253303300,1.94730322265625,-2.1218247413635254,2.4391276836395264,-0.6047700643539429
1761231989263372300,1.957372314453125,-2.1456947326660156,2.543083429336548,-0.3803177773952484
1761231989273442300,1.9674423828125,-1.9738683700561523,2.7808985710144043,-0.1462421417236328
1761231989283511000,1.977510986328125,-1.5884212255477905,2.9233546257019043,0.15273089706897736
1761231989293580300,1.987580322265625,-1.05341374874115,2.7443652153015137,0.5260708928108215
1761231989303650000,1.997650146484375,-0.3876035213470459,2.1418190002441406,0.9815412163734436
1761231989313719300,2.00771923828125,0.3494036793708801,1.1881009340286255,1.5139765739440918
1761231989323789300,2.017789306640625,0.7507787942886353,0.10516984015703201,1.8836228847503662
1761231989333858300,2.0278583984375,0.6744562983512878,-0.9094215631484985,2.0512194633483887
1761231989343927000,2.037927001953125,0.1914607435464859,-1.6036165952682495,2.029939651489258
1761231989353997300,2.047997314453125,-0.43428462743759155,-1.9023569822311401,1.8423389196395874
1761231989364066000,2.058066162109375,-0.8923248052597046,-2.035193681716919,1.5518829822540283
1761231989374136300,2.06813623046875,-1.03815495967865,-2.1310155391693115,1.1716244220733643
1761231989384205300,2.078205322265625,-0.9294363856315613,-2.2122983932495117,0.7301702499389648
1761231989394274300,2.0882744140625,-0.6482774615287781,-2.250627279281616,0.330390602350235
1761231989404344300,2.09834423828125,-0.2193816602230072,-2.1540684700012207,0.09686218947172165
1761231989414413300,2.108413330078125,0.24988596141338348,-1.9591009616851807,0.09583820402622223
1761231989424483300,2.1184833984375,0.6258881688117981,-1.8843592405319214,0.2619239389896393
1761231989434552300,2.12855224609375,0.8238928914070129,-2.0031466484069824,0.49083462357521057
1761231989444621300,2.138621337890625,0.8273544907569885,-2.154998302459717,0.7249552011489868
1761231989454691000,2.148691162109375,0.7017097473144531,-2.3118393421173096,0.9019227623939514
1761231989464760300,2.15876025390625,0.5102753639221191,-2.503317356109619,0.9516966342926025
1761231989474830000,2.168830078125,0.3266022503376007,-2.668260097503662,0.8467142581939697
1761231989484899300,2.1788994140625,0.25835341215133667,-2.726105213165283,0.6451235413551331
1761231989494968000,2.188968017578125,0.3583444654941559,-2.681711435317993,0.4212779402732849
1761231989505038300,2.199038330078125,0.5112355351448059,-2.7424678802490234,0.20039208233356476
1761231989515107000,2.209107177734375,0.5719491839408875,-2.853905200958252,0.060642439872026443
1761231989525177300,2.21917724609375,0.476113885641098,-2.661078691482544,0.10110030323266983
1761231989535246000,2.22924609375,0.260520875453949,-2.1813042163848877,0.30636852979660034
1761231989545315300,2.2393154296875,0.001696587074548006,-1.5472604036331177,0.604516863822937
1761231989555385300,2.24938525390625,-0.26009589433670044,-0.9499685168266296,0.9076354503631592
1761231989565454300,2.259454345703125,-0.49315983057022095,-0.5255140662193298,1.0992107391357422
1761231989575524400,2.2695244140625,-0.6422643661499023,-0.3032248020172119,1.1396294832229614
1761231989585593300,2.27959326171875,-0.7283403277397156,-0.22966240346431732,1.0505352020263672
1761231989595662300,2.289662353515625,-0.7716902494430542,-0.22113363444805145,0.8796096444129944
1761231989605732000,2.299732177734375,-0.7521984577178955,-0.15472815930843353,0.7078920602798462
1761231989615801300,2.30980126953125,-0.6581904888153076,0.0204313974827528,0.5629468560218811
1761231989625871000,2.31987109375,-0.5326536893844604,0.2701031267642975,0.4622479975223541
1761231989635940400,2.3299404296875,-0.3814055323600769,0.5570270419120789,0.49041011929512024
1761231989646009000,2.340009033203125,-0.2345948964357376,0.7773165702819824,0.50519198179245
1761231989656079400,2.350079345703125,-0.1308482587337494,1.0443706512451172,0.4602159857749939
1761231989666148000,2.360148193359375,-0.05287704989314079,1.3933697938919067,0.47975993156433105
1761231989676218400,2.37021826171875,0.09822244942188263,1.8329527378082275,0.6121004223823547
1761231989686287000,2.380287109375,0.32922786474227905,2.243551015853882,0.7567145824432373
1761231989696356400,2.3903564453125,0.5985469818115234,2.4284539222717285,0.8104787468910217
1761231989706426000,2.400426025390625,0.881554126739502,2.216353178024292,0.7663056254386902
1761231989716495400,2.410495361328125,1.1660093069076538,1.7695499658584595,0.6995013356208801
1761231989726565000,2.420565185546875,1.400236964225769,1.2482919692993164,0.6275132894515991
1761231989736634400,2.43063427734375,1.4807446002960205,0.7209471464157104,0.53741055727005
1761231989746703000,2.440703125,1.311396598815918,0.3780005872249603,0.4325881004333496
1761231989756773000,2.450773193359375,1.074020504951477,0.37779471278190613,0.3651462197303772
1761231989766842000,2.460842041015625,0.9116687178611755,0.7453895807266235,0.3194974958896637
1761231989776912100,2.470912109375,0.8424691557884216,1.2060391902923584,0.2811948359012604
1761231989786981400,2.4809814453125,0.8410850763320923,1.5641299486160278,0.20081540942192078
1761231989797050000,2.491050048828125,0.8608358502388,1.7761796712875366,0.10640741884708405
1761231989807120400,2.501120361328125,0.8819602727890015,1.8052805662155151,0.03314918279647827
1761231989817189000,2.511189208984375,0.9036921858787537,1.65475594997406,0.01581280119717121
1761231989827259400,2.52125927734375,0.9207873344421387,1.3674812316894531,0.058073628693819046
1761231989837328100,2.531328125,0.8870384097099304,1.0327732563018799,0.13532660901546478
1761231989847397400,2.5413974609375,0.7768205404281616,0.7879700660705566,0.21336305141448975
1761231989857467100,2.551467041015625,0.5906490683555603,0.7272116541862488,0.22918196022510529
1761231989867536400,2.561536376953125,0.3890950679779053,0.810951292514801,0.17915934324264526
1761231989877606100,2.571606201171875,0.21930310130119324,0.9549058079719543,0.05009377375245094
1761231989887675400,2.58167529296875,0.08479631692171097,1.031581997871399,-0.16288381814956665
1761231989897744100,2.591744140625,-0.020057132467627525,0.9742182493209839,-0.4357960522174835
1761231989907814100,2.601814208984375,-0.08152507245540619,0.8487620949745178,-0.7210702896118164
1761231989917883100,2.611883056640625,-0.07580513507127762,0.7179140448570251,-0.9612317681312561
1761231989927953200,2.621953125,-0.03428617864847183,0.6210256814956665,-1.1280837059020996
1761231989938022100,2.632022216796875,0.011175842955708504,0.5409278869628906,-1.22846519947052
1761231989948091400,2.64209130859375,0.03299099579453468,0.5009817481040955,-1.2420635223388672
1761231989958158300,2.652158447265625,0.0026035290211439133,0.5061219334602356,-1.1775809526443481
1761231989968227300,2.662227294921875,-0.07751001417636871,0.530938982963562,-1.048278570175171
1761231989978297300,2.67229736328125,-0.20779718458652496,0.5870848298072815,-0.8686281442642212
1761231989988366300,2.682366455078125,-0.3657251298427582,0.7223820686340332,-0.6305207014083862
1761231989998436000,2.69243603515625,-0.5399110317230225,0.8766562938690186,-0.36989763379096985
1761231990008505300,2.70250537109375,-0.7101431488990784,0.9591567516326904,-0.1374160498380661
1761231990018574300,2.71257421875,-0.8581514954566956,0.8930480480194092,0.006107292138040066
1761231990028644400,2.722644287109375,-0.9596237540245056,0.7310547828674316,0.07281236350536346
1761231990038713300,2.73271337890625,-0.9951508641242981,0.5026327967643738,0.09948258846998215
1761231990048783400,2.742783447265625,-0.9625131487846375,0.3119829595088959,0.1268005073070526
1761231990058852000,2.75285205078125,-0.7946458458900452,0.3477340042591095,0.25272274017333984
1761231990068921300,2.76292138671875,-0.45746105909347534,0.533154308795929,0.49319612979888916
1761231990078991000,2.7729912109375,-0.02321907877922058,0.7219913005828857,0.7643610835075378
1761231990089060400,2.783060302734375,0.36245664954185486,0.6453138589859009,0.9177947044372559
1761231990099130400,2.79313037109375,0.554725706577301,0.19939285516738892,0.8804025650024414
1761231990109199400,2.803199462890625,0.5206637382507324,-0.49835413694381714,0.720355749130249
1761231990119268000,2.81326806640625,0.24538475275039673,-1.271464467048645,0.4820414185523987
1761231990129338400,2.82333837890625,-0.2247212678194046,-2.0553674697875977,0.1731071025133133
1761231990139407400,2.833407470703125,-0.7144129276275635,-2.7201550006866455,-0.1732279509305954
1761231990149477000,2.84347705078125,-1.0358058214187622,-3.1143438816070557,-0.5217284560203552
1761231990159546400,2.85354638671875,-1.1605945825576782,-3.2113165855407715,-0.848243236541748
1761231990169615400,2.863615478515625,-1.1161082983016968,-2.9962546825408936,-1.1182811260223389
1761231990179685400,2.873685302734375,-0.9391319155693054,-2.351309299468994,-1.2643007040023804
1761231990189754400,2.88375439453125,-0.6521627306938171,-1.31742525100708,-1.2503063678741455
1761231990199824400,2.893824462890625,-0.3039746582508087,-0.30769699811935425,-1.1656837463378906
1761231990209893000,2.90389306640625,0.05329751968383789,0.3297361433506012,-1.0738035440444946
1761231990219962400,2.91396240234375,0.4070340096950531,0.5589680075645447,-0.9747927784919739
1761231990230032100,2.9240322265625,0.7244545817375183,0.359550803899765,-0.8572643399238586
1761231990240101400,2.934101318359375,0.9492799639701843,-0.24399206042289734,-0.7650715112686157
1761231990250171100,2.944171142578125,1.0518888235092163,-1.0513097047805786,-0.6862952709197998
1761231990260240400,2.954240478515625,1.0655348300933838,-1.7890039682388306,-0.5796723961830139
1761231990270309000,2.96430908203125,1.024421215057373,-2.312324285507202,-0.4392877519130707
1761231990280379400,2.97437939453125,0.921157717704773,-2.5663704872131348,-0.28040435910224915
1761231990290448100,2.9844482421875,0.7821597456932068,-2.4743123054504395,-0.07594499737024307
1761231990300518400,2.994518310546875,0.6031215786933899,-2.0320029258728027,0.1656588315963745
1761231990310587100,3.004587158203125,0.4315585494041443,-1.2704271078109741,0.4135010838508606
1761231990320656400,3.014656494140625,0.31508544087409973,-0.39374804496765137,0.6065752506256104
1761231990330726400,3.024726318359375,0.2735704779624939,0.26776885986328125,0.6689041256904602
1761231990340795400,3.03479541015625,0.31217992305755615,0.6147451996803284,0.6134973764419556
1761231990350865400,3.044865478515625,0.39275968074798584,0.7308230400085449,0.4569762647151947
1761231990360934100,3.05493408203125,0.49004149436950684,0.7416855692863464,0.2548633813858032
1761231990371003400,3.06500341796875,0.5864469408988953,0.7193793654441833,0.05944984033703804
1761231990381073200,3.0750732421875,0.6673274040222168,0.6450995802879333,-0.10773782432079315
1761231990391142400,3.085142333984375,0.721219003200531,0.5445401072502136,-0.23081786930561066
1761231990401212200,3.095212158203125,0.7727596759796143,0.4649517834186554,-0.2733384370803833
1761231990411281400,3.105281494140625,0.8086106777191162,0.4442344605922699,-0.22264137864112854
1761231990421351200,3.11535107421875,0.8127404451370239,0.5339568853378296,-0.10374536365270615
1761231990431420400,3.12542041015625,0.8030182719230652,0.7439424395561218,0.04378824681043625
1761231990441489200,3.1354892578125,0.7761996984481812,1.0977524518966675,0.19210314750671387
1761231990451559400,3.145559326171875,0.7958064079284668,1.56158447265625,0.3441152274608612
1761231990461628200,3.155628173828125,0.8962967991828918,1.9635425806045532,0.4846545159816742
1761231990471698200,3.1656982421875,1.0641766786575317,2.1736977100372314,0.560865581035614
1761231990481767200,3.17576708984375,1.2936543226242065,2.0932958126068115,0.5834087133407593
1761231990491836400,3.18583642578125,1.5296865701675415,1.6325699090957642,0.5547158122062683
1761231990501906400,3.195906494140625,1.6850521564483643,0.9077791571617126,0.48660436272621155
1761231990511975200,3.20597509765625,1.7298557758331299,0.2327418178319931,0.4059463143348694
1761231990522045400,3.21604541015625,1.6814861297607422,-0.20264293253421783,0.35527142882347107
1761231990532114200,3.2261142578125,1.5581541061401367,-0.317848265171051,0.34837988018989563
1761231990542183400,3.236183349609375,1.418630599975586,-0.07946763932704926,0.41150346398353577
1761231990552253200,3.246253173828125,1.2975236177444458,0.33335694670677185,0.5040292739868164
1761231990562322400,3.256322509765625,1.2059000730514526,0.6890727281570435,0.5806941986083984
1761231990572392200,3.26639208984375,1.166115403175354,0.9467273354530334,0.6395893692970276
1761231990582461400,3.27646142578125,1.1672413349151611,1.1671185493469238,0.6972308158874512
1761231990592530200,3.2865302734375,1.1884855031967163,1.4041287899017334,0.7446882128715515
1761231990602600400,3.296600341796875,1.2340383529663086,1.6624833345413208,0.7747917771339417
1761231990612669200,3.306669189453125,1.2956032752990723,1.8293344974517822,0.7669913172721863
1761231990622739200,3.3167392578125,1.3497519493103027,1.8488613367080688,0.7227886915206909
1761231990632808200,3.32680810546875,1.364475131034851,1.7911559343338013,0.6456196308135986
1761231990642877400,3.33687744140625,1.3347516059875488,1.6810877323150635,0.542046308517456
1761231990652947200,3.346947265625,1.2891117334365845,1.5193390846252441,0.42096397280693054
1761231990663016200,3.35701611328125,1.233625054359436,1.3540213108062744,0.2875681221485138
1761231990673086200,3.367086181640625,1.1665701866149902,1.2534050941467285,0.16221308708190918
1761231990683155200,3.3771552734375,1.0905989408493042,1.2455343008041382,0.039716195315122604
1761231990693224200,3.38722412109375,1.0019224882125854,1.3126877546310425,-0.060619428753852844
1761231990703294200,3.397294189453125,0.9117845892906189,1.4028098583221436,-0.15566019713878632
1761231990713363200,3.40736328125,0.8284801840782166,1.493295431137085,-0.26671910285949707
1761231990723433200,3.41743310546875,0.7632383108139038,1.5738462209701538,-0.4054058790206909
1761231990733502500,3.42750244140625,0.7428944706916809,1.6410387754440308,-0.5535340905189514
1761231990743571200,3.4375712890625,0.7972269654273987,1.6836427450180054,-0.6862428784370422
1761231990753641500,3.447641357421875,0.9265357255935669,1.6899962425231934,-0.7805096507072449
1761231990763710200,3.457710205078125,1.1193078756332397,1.6526051759719849,-0.8159850835800171
1761231990773780200,3.4677802734375,1.3482848405838013,1.570491909980774,-0.7883281111717224
1761231990783849200,3.47784912109375,1.5528134107589722,1.4977604150772095,-0.6986541748046875
1761231990793918500,3.48791845703125,1.7072551250457764,1.4716171026229858,-0.5433856248855591
1761231990803988200,3.49798828125,1.7834851741790771,1.4963892698287964,-0.3459697961807251
1761231990814057500,3.508057373046875,1.7905067205429077,1.566001534461975,-0.13816498219966888
1761231990824127200,3.518127197265625,1.7507199048995972,1.6962708234786987,0.07484903931617737
1761231990834196200,3.5281962890625,1.7427427768707275,1.8476028442382812,0.28818240761756897
1761231990844266200,3.538266357421875,1.8125572204589844,1.9125287532806396,0.4590473473072052
1761231990854335200,3.548335205078125,1.9715914726257324,1.8150819540023804,0.5483924746513367
1761231990864404200,3.558404296875,2.183077096939087,1.4502371549606323,0.5263055562973022
1761231990874474200,3.56847412109375,2.4002323150634766,0.8567790985107422,0.40505754947662354
1761231990884543200,3.578543212890625,2.509565830230713,0.21449631452560425,0.2261836975812912
1761231990894613200,3.58861328125,2.4506235122680664,-0.44644927978515625,-0.01045768428593874
1761231990904682500,3.5986826171875,2.2201831340789795,-1.1621977090835571,-0.28489965200424194
1761231990914751200,3.608751220703125,1.917188048362732,-1.7508574724197388,-0.5327797532081604
1761231990924821500,3.618821533203125,1.6985816955566406,-1.906024694442749,-0.6789534687995911
1761231990934890200,3.62889013671875,1.6175073385238647,-1.5622317790985107,-0.7007330060005188
1761231990944960300,3.638960205078125,1.6400331258773804,-0.8227498531341553,-0.616064727306366
1761231990955029500,3.649029541015625,1.6683359146118164,0.1821790635585785,-0.5054776072502136
1761231990965098500,3.659098388671875,1.6972777843475342,1.2181053161621094,-0.4274831712245941
1761231990975168500,3.66916845703125,1.73566472530365,2.0489306449890137,-0.42060205340385437
1761231990985237200,3.6792373046875,1.789501428604126,2.516702890396118,-0.5028271675109863
1761231990995307500,3.6893076171875,1.8779245615005493,2.7006494998931885,-0.6140841245651245
1761231991005376300,3.699376220703125,1.991368055343628,2.7165660858154297,-0.7111601233482361
1761231991015445500,3.709445556640625,2.0963709354400635,2.544001579284668,-0.7962480187416077
1761231991025515300,3.719515380859375,2.148625373840332,2.164574384689331,-0.9037688970565796
1761231991035584500,3.72958447265625,2.139691114425659,1.6382139921188354,-1.0071882009506226
1761231991045654300,3.739654296875,2.090386152267456,1.0902302265167236,-1.084558367729187
1761231991055723500,3.7497236328125,2.041111946105957,0.6158781051635742,-1.1178321838378906
1761231991065792300,3.759792236328125,2.0256481170654297,0.2665126621723175,-1.0936700105667114
1761231991075862500,3.769862548828125,2.0336098670959473,0.054566919803619385,-0.9942840933799744
1761231991085931300,3.77993115234375,2.0257463455200195,0.06816182285547256,-0.8401690721511841
1761231991096001300,3.790001220703125,1.9935888051986694,0.2671889364719391,-0.6676612496376038
1761231991106070500,3.800070556640625,1.9393359422683716,0.5785766243934631,-0.508720874786377
1761231991116140300,3.810140380859375,1.9096732139587402,0.8355801105499268,-0.3781009018421173
1761231991126209500,3.82020947265625,1.9319158792495728,0.9934472441673279,-0.2573563754558563
1761231991136278300,3.8302783203125,1.9989738464355469,1.1461210250854492,-0.14748340845108032
1761231991146348500,3.8403486328125,2.061168909072876,1.311859369277954,-0.06421168893575668
1761231991156417300,3.850417236328125,2.105191230773926,1.4694550037384033,-0.02635948732495308
1761231991166487600,3.860487548828125,2.1560728549957275,1.5827398300170898,-0.02660210058093071
1761231991176556300,3.870556396484375,2.243727445602417,1.6346226930618286,-0.03206946328282356
1761231991186625500,3.88062548828125,2.3814916610717773,1.6658862829208374,-0.03597099706530571
1761231991196695300,3.8906953125,2.5436766147613525,1.709882378578186,-0.005810428410768509
1761231991206764500,3.9007646484375,2.6755971908569336,1.9334113597869873,0.09622646123170853
1761231991216834300,3.910834228515625,2.738511323928833,2.2575461864471436,0.2765467166900635
1761231991226903600,3.920903564453125,2.722698450088501,2.4360225200653076,0.435649037361145
1761231991236972300,3.93097216796875,2.6396830081939697,2.273681879043579,0.5015044212341309
1761231991247042300,3.941042236328125,2.4881293773651123,1.6723941564559937,0.44348931312561035
1761231991257111300,3.951111328125,2.3215267658233643,0.7210805416107178,0.31046244502067566
1761231991267181300,3.961181396484375,2.1801040172576904,-0.24536918103694916,0.16590631008148193
1761231991277250300,3.971250244140625,2.1013972759246826,-0.9164115190505981,0.06185555085539818
1761231991287319300,3.9813193359375,2.0850744247436523,-1.406347632408142,-0.0377139188349247
1761231991297389600,3.9913896484375,2.029311418533325,-1.7548190355300903,-0.19876085221767426
1761231991307458300,4.001458251953125,1.852181077003479,-1.810518741607666,-0.41237619519233704
1761231991317528600,4.011528564453125,1.5908427238464355,-1.5001438856124878,-0.6267516016960144
1761231991327597300,4.021597412109375,1.3332070112228394,-0.9131746888160706,-0.776874840259552
1761231991337666600,4.03166650390625,1.1657543182373047,-0.18624189496040344,-0.8334324359893799
1761231991347736300,4.041736328125,1.121867299079895,0.4632945954799652,-0.8163495063781738
1761231991357805600,4.0518056640625,1.1795026063919067,0.8687928318977356,-0.7755967378616333
1761231991367875300,4.061875244140625,1.3077458143234253,1.019698143005371,-0.7120308876037598
1761231991377944600,4.071944580078125,1.458021640777588,0.9630244374275208,-0.6334105730056763
1761231991388013300,4.082013427734375,1.6086260080337524,0.8157433271408081,-0.5080281496047974
1761231991398083300,4.092083251953125,1.7253718376159668,0.6784689426422119,-0.30910950899124146
1761231991408152300,4.10215234375,1.7737953662872314,0.6603895425796509,-0.031058184802532196
1761231991418222300,4.112222412109375,1.7455615997314453,0.7991064786911011,0.2700377106666565
1761231991428291300,4.122291259765625,1.653888463973999,1.0703773498535156,0.5628743171691895
1761231991438360600,4.132360595703125,1.526094913482666,1.40683114528656,0.7742359638214111
1761231991448430300,4.142430419921875,1.4023703336715698,1.6521276235580444,0.8483006358146667
1761231991458499300,4.152499267578125,1.3046925067901611,1.7635283470153809,0.7593396306037903
1761231991468569600,4.162569580078125,1.2391793727874756,1.7396528720855713,0.5382890105247498
1761231991478638300,4.172638427734375,1.202478289604187,1.6513475179672241,0.2341814637184143
1761231991488708600,4.18270849609375,1.188668966293335,1.5888057947158813,-0.10169586539268494
1761231991498777300,4.19277734375,1.1971174478530884,1.6004998683929443,-0.4263697564601898
1761231991508846600,4.2028466796875,1.233696460723877,1.6697026491165161,-0.72614985704422
1761231991518916400,4.212916259765625,1.2871310710906982,1.7662216424942017,-0.9732518196105957
1761231991528985600,4.222985595703125,1.3550528287887573,1.8508801460266113,-1.1516125202178955
1761231991539055400,4.233055419921875,1.423880934715271,1.8977108001708984,-1.2487729787826538
1761231991549124400,4.243124267578125,1.4857124090194702,1.8859508037567139,-1.2492587566375732
1761231991559193300,4.253193359375,1.524064540863037,1.8371261358261108,-1.167122721672058
1761231991569263400,4.263263427734375,1.5246163606643677,1.7731143236160278,-1.0260738134384155
1761231991579332400,4.273332275390625,1.499847650527954,1.708018183708191,-0.8488737940788269
1761231991589402400,4.28340234375,1.4659274816513062,1.639580488204956,-0.6633737087249756
1761231991599471400,4.293471435546875,1.439463496208191,1.5667978525161743,-0.48775333166122437
1761231991609540400,4.303540283203125,1.4385218620300293,1.491670846939087,-0.3377489149570465
1761231991619610400,4.3136103515625,1.4906023740768433,1.4311232566833496,-0.22595059871673584
1761231991629679400,4.323679443359375,1.6316865682601929,1.3422205448150635,-0.1245747059583664
1761231991639749400,4.333749267578125,1.7882541418075562,1.1517243385314941,-0.0652395561337471
1761231991649818400,4.343818359375,1.864628553390503,0.9724283218383789,-0.06335137039422989
1761231991659887400,4.353887451171875,1.832474946975708,0.8508614301681519,-0.09839819371700287
1761231991669957400,4.363957275390625,1.704878330230713,0.7629539966583252,-0.1460067182779312
1761231991680026400,4.3740263671875,1.5088837146759033,0.6513521075248718,-0.18860562145709991
1761231991690096400,4.384096435546875,1.2953338623046875,0.491250604391098,-0.2317054271697998
1761231991700165600,4.39416552734375,1.104413390159607,0.32927799224853516,-0.2702750563621521
1761231991710234400,4.404234375,0.9669458270072937,0.24826009571552277,-0.310883492231369
1761231991720304400,4.414304443359375,0.9093025326728821,0.2675511837005615,-0.3350774645805359
1761231991730373400,4.424373291015625,0.9240170121192932,0.3045523464679718,-0.33708468079566956
1761231991740443400,4.434443359375,0.9602545499801636,0.3180449903011322,-0.334500789642334
1761231991750512400,4.444512451171875,0.9916638731956482,0.3412051796913147,-0.3115014433860779
1761231991760582400,4.45458251953125,1.0032758712768555,0.3876936435699463,-0.25702106952667236
1761231991770651400,4.4646513671875,0.9994745254516602,0.42264285683631897,-0.17672567069530487
1761231991780720400,4.474720458984375,0.9912694692611694,0.4126570224761963,-0.07388386875391006
1761231991790790400,4.484790283203125,0.9814600348472595,0.37447261810302734,0.038760121911764145
1761231991800859400,4.494859375,0.9667963981628418,0.3901500701904297,0.1558200865983963
1761231991810929400,4.504929443359375,0.954836905002594,0.45308294892311096,0.2346842885017395
1761231991820998400,4.514998291015625,0.9324272871017456,0.4902905225753784,0.2392798215150833
1761231991831067400,4.5250673828125,0.9145071506500244,0.46329379081726074,0.15908005833625793
1761231991841137400,4.535137451171875,0.9306979179382324,0.4017395079135895,0.03265025466680527
1761231991851206400,4.545206298828125,0.9764246344566345,0.2786543369293213,-0.12651009857654572
1761231991861276400,4.5552763671875,1.0503497123718262,0.12826135754585266,-0.28270047903060913
1761231991871345400,4.565345458984375,1.15101158618927,-0.024544700980186462,-0.41664204001426697
1761231991881414400,4.575414306640625,1.260544776916504,-0.15356144309043884,-0.5214399099349976
1761231991891484400,4.585484375,1.3397024869918823,-0.2136855125427246,-0.5669764280319214
1761231991901553400,4.595553466796875,1.3668767213821411,-0.18109703063964844,-0.5521749258041382
1761231991911623400,4.60562353515625,1.327582597732544,-0.11011819541454315,-0.4945138096809387
1761231991921692400,4.6156923828125,1.2523142099380493,-0.02603980153799057,-0.40978866815567017
1761231991931761400,4.625761474609375,1.15962815284729,0.05188988521695137,-0.2972988784313202
1761231991941831400,4.63583154296875,1.078498125076294,0.12184488773345947,-0.1805277168750763
1761231991951900400,4.645900390625,1.0299732685089111,0.18091753125190735,-0.07693075388669968
1761231991961973200,4.65597314453125,1.0368356704711914,0.2135842889547348,0.014755526557564735
1761231991972042000,4.6660419921875,1.1012492179870605,0.21820886433124542,0.07469289749860764
1761231991982111200,4.676111328125,1.1993584632873535,0.19518229365348816,0.10818446427583694
1761231991992181000,4.686180908203125,1.2742798328399658,0.15683330595493317,0.12264809757471085
1761231992002250200,4.696250244140625,1.2756738662719727,0.1335267871618271,0.1309853047132492
1761231992012320000,4.706320068359375,1.1851391792297363,0.17148348689079285,0.14792221784591675
1761231992022389200,4.71638916015625,1.0144747495651245,0.2632485628128052,0.16135786473751068
1761231992032458000,4.7264580078125,0.8107178211212158,0.38441893458366394,0.16500507295131683
1761231992042528300,4.7365283203125,0.6541715264320374,0.5384664535522461,0.17931559681892395
1761231992052597000,4.746596923828125,0.5992637872695923,0.649346113204956,0.19775186479091644
1761231992062667000,4.7566669921875,0.6328895688056946,0.7578908205032349,0.22654390335083008
1761231992072736300,4.766736328125,0.73088139295578,0.8614888787269592,0.28685837984085083
1761231992082806000,4.776805908203125,0.8317317962646484,0.8793817758560181,0.35868585109710693
1761231992092875300,4.786875244140625,0.8969400525093079,0.8283058404922485,0.4507737159729004
1761231992102944300,4.7969443359375,0.9098639488220215,0.7250213623046875,0.5564978122711182
1761231992113014300,4.80701416015625,0.8749368786811829,0.5258544683456421,0.6437480449676514
1761231992123082200,4.817082275390625,0.7961136698722839,0.31392720341682434,0.7263555526733398
1761231992133152300,4.82715234375,0.6825119853019714,0.16373315453529358,0.7830013036727905
1761231992143221200,4.83722119140625,0.5498806834220886,0.12029530853033066,0.7927526235580444
1761231992153291300,4.847291259765625,0.4335082471370697,0.16042515635490417,0.7377599477767944
1761231992163360000,4.857360107421875,0.36341091990470886,0.22508504986763,0.608212411403656
1761231992173430300,4.86743017578125,0.35883426666259766,0.31347671151161194,0.40414369106292725
1761231992183499000,4.8774990234375,0.42990535497665405,0.3639109432697296,0.16860592365264893
1761231992193568300,4.887568359375,0.5474429130554199,0.3601694703102112,-0.05947890132665634
1761231992203638000,4.897637939453125,0.6740949749946594,0.3510112464427948,-0.23783324658870697
1761231992213707300,4.907707275390625,0.7801785469055176,0.32327815890312195,-0.345146119594574
1761231992223777000,4.917777099609375,0.8458913564682007,0.29996344447135925,-0.3753524422645569
1761231992233846300,4.92784619140625,0.8526528477668762,0.3112480640411377,-0.3280765414237976
1761231992243915000,4.9379150390625,0.7718417644500732,0.3682840168476105,-0.22360987961292267
1761231992253985300,4.9479853515625,0.6209115982055664,0.45970848202705383,-0.10405950248241425
1761231992264054000,4.958053955078125,0.448665976524353,0.5141423344612122,0.007305447943508625
1761231992274124000,4.9681240234375,0.2908531725406647,0.5368257761001587,0.08733929693698883
1761231992284193000,4.978193115234375,0.16590043902397156,0.5635242462158203,0.1307891458272934
1761231992294262300,4.98826220703125,0.07000242173671722,0.6253431439399719,0.13892404735088348
1761231992304332300,4.998332275390625,-0.01226132083684206,0.7342709302902222,0.1184157282114029
1761231992314401000,5.008401123046875,-0.08000201731920242,0.854197084903717,0.05989808589220047
1761231992324471300,5.01847119140625,-0.14106495678424835,0.9270285367965698,-0.04167826473712921
1761231992334540000,5.0285400390625,-0.1757478266954422,0.9088487029075623,-0.17418012022972107
1761231992344609300,5.038609375,-0.17571952939033508,0.775897741317749,-0.3232290744781494
1761231992354679000,5.048678955078125,-0.1375926434993744,0.5408309102058411,-0.4616532623767853
1761231992364748300,5.058748291015625,-0.06883774697780609,0.26355016231536865,-0.5649381875991821
1761231992374818000,5.068818115234375,0.0038678767159581184,0.015668191015720367,-0.6094353199005127
1761231992384887300,5.07888720703125,0.06158842891454697,-0.16026422381401062,-0.6035862565040588
1761231992394956000,5.0889560546875,0.09834910929203033,-0.31229183077812195,-0.5383380055427551
1761231992405026300,5.0990263671875,0.1287180632352829,-0.43182793259620667,-0.4052189886569977
1761231992415095000,5.109094970703125,0.13471895456314087,-0.4521750211715698,-0.19108833372592926
1761231992425165000,5.1191650390625,0.11534491926431656,-0.295817106962204,0.09531466662883759
1761231992435234000,5.129234130859375,0.08904913067817688,0.06709636747837067,0.4497164189815521
1761231992445303300,5.13930322265625,0.08471538126468658,0.4050888419151306,0.8035966753959656
1761231992455373000,5.149373046875,0.0705857127904892,0.515488862991333,1.072172999382019
1761231992465442300,5.1594423828125,0.05230184644460678,0.38334789872169495,1.2343820333480835
1761231992475512300,5.16951220703125,-0.007979335263371468,0.04005153477191925,1.2528092861175537
1761231992485581000,5.1795810546875,-0.11229334026575089,-0.436519056558609,1.1530033349990845
1761231992495651300,5.1896513671875,-0.25862258672714233,-0.9114969968795776,0.9647889137268066
1761231992505720000,5.199719970703125,-0.4472946524620056,-1.2394334077835083,0.738554835319519
1761231992515789300,5.209789306640625,-0.6594727039337158,-1.4018769264221191,0.46252304315567017
1761231992525859000,5.219859130859375,-0.8628362417221069,-1.4346179962158203,0.14196106791496277
1761231992535928300,5.22992822265625,-0.9956970810890198,-1.3023505210876465,-0.19836588203907013
1761231992545998000,5.239998046875,-1.015026330947876,-1.0757077932357788,-0.5246860384941101
1761231992556067300,5.2500673828125,-0.9191552400588989,-0.8565874099731445,-0.8151333332061768
1761231992566136000,5.260135986328125,-0.732408344745636,-0.6543009877204895,-1.0224764347076416
1761231992576206000,5.2702060546875,-0.49313318729400635,-0.3820582330226898,-1.0965181589126587
1761231992586275000,5.280275146484375,-0.2535287141799927,-0.011954453773796558,-1.0178340673446655
1761231992596345000,5.290344970703125,-0.054587673395872116,0.39239755272865295,-0.8376784324645996
1761231992606414000,5.3004140625,0.09903008490800858,0.7049986720085144,-0.6265557408332825
1761231992616483300,5.3104833984375,0.20263023674488068,0.8382531404495239,-0.4751233160495758
1761231992626553000,5.320552978515625,0.2768656611442566,0.7253754138946533,-0.40749025344848633
1761231992636622000,5.3306220703125,0.33483919501304626,0.4088802933692932,-0.4053690433502197
1761231992646692400,5.3406923828125,0.3753281831741333,0.005972487851977348,-0.45263081789016724
1761231992656761000,5.350760986328125,0.40804511308670044,-0.36530548334121704,-0.5205432772636414
1761231992666830000,5.360830078125,0.4275980591773987,-0.530483603477478,-0.5648658871650696
1761231992676900000,5.370900146484375,0.4144638776779175,-0.48899582028388977,-0.5626536011695862
1761231992686969000,5.380968994140625,0.3587567210197449,-0.2747809588909149,-0.5139783620834351
1761231992697039000,5.3910390625,0.27466049790382385,-0.003522813320159912,-0.4406399130821228
1761231992707108400,5.4011083984375,0.1789356768131256,0.24874141812324524,-0.36101222038269043
1761231992717178000,5.41117822265625,0.08889739960432053,0.4471437335014343,-0.2944776713848114
1761231992727248100,5.421248046875,0.011723509058356285,0.5711730718612671,-0.25353753566741943
1761231992737317000,5.431317138671875,-0.04314373433589935,0.6461631655693054,-0.23136594891548157
1761231992747386000,5.44138623046875,-0.06451544165611267,0.6811113357543945,-0.1990412175655365
1761231992757456100,5.4514560546875,-0.04907843470573425,0.6557095646858215,-0.156621053814888
1761231992767525000,5.461525146484375,0.004797114059329033,0.6026277542114258,-0.1020439863204956
1761231992777595100,5.47159521484375,0.0941576138138771,0.5703297257423401,-0.013951409608125687
1761231992787664100,5.4816640625,0.20358385145664215,0.6122356653213501,0.09587401151657104
1761231992797733000,5.491733154296875,0.30859124660491943,0.7485759258270264,0.20993320643901825
1761231992807803100,5.50180322265625,0.40657418966293335,0.9405633807182312,0.30413153767585754
1761231992817872100,5.5118720703125,0.5179315805435181,1.0383684635162354,0.3579652011394501
1761231992827942100,5.521942138671875,0.6481510996818542,0.9996911883354187,0.3431757092475891
1761231992838011400,5.532011474609375,0.7852170467376709,0.8880187273025513,0.26227501034736633
1761231992848080100,5.542080078125,0.920955240726471,0.6762575507164001,0.14152324199676514
1761231992858150100,5.552150146484375,1.039155125617981,0.31411609053611755,0.01089173648506403
1761231992868219100,5.56221923828125,1.1277567148208618,-0.09129282832145691,-0.06408374011516571
1761231992878289200,5.5722890625,1.1626907587051392,-0.39375707507133484,-0.0724138468503952
1761231992888358100,5.582358154296875,1.126932144165039,-0.5333886742591858,-0.010047024115920067
1761231992898427100,5.59242724609375,1.016486406326294,-0.5811327695846558,0.08145385980606079
1761231992908497200,5.6024970703125,0.8274920582771301,-0.5532622337341309,0.17535677552223206
1761231992918566100,5.612566162109375,0.611045777797699,-0.4309203326702118,0.2741145193576813
1761231992928636200,5.62263623046875,0.3945011496543884,-0.26141560077667236,0.36755332350730896
1761231992938705200,5.632705078125,0.2207474559545517,-0.1251523196697235,0.44830089807510376
1761231992948774100,5.642774169921875,0.08342160284519196,-0.12218870967626572,0.45194435119628906
1761231992958841300,5.65284130859375,0.003231955226510763,-0.1664336770772934,0.36476442217826843
1761231992968910300,5.662910400390625,0.0030414131470024586,-0.21014703810214996,0.2206912636756897
1761231992978980400,5.67298046875,0.0697418823838234,-0.2505298852920532,0.05482479929924011
1761231992989049000,5.683049072265625,0.13143327832221985,-0.2670340836048126,-0.11314259469509125
1761231992999118300,5.693118408203125,0.1514487862586975,-0.2296249270439148,-0.2570510506629944
1761231993009188000,5.70318798828125,0.11716052144765854,-0.08259264379739761,-0.36496108770370483
1761231993019257300,5.71325732421875,0.06266878545284271,0.15440551936626434,-0.4362059533596039
1761231993029327000,5.7233271484375,-0.008579205721616745,0.3744335472583771,-0.5023189783096313
1761231993039396400,5.733396240234375,-0.08628678321838379,0.5306960940361023,-0.5853944420814514
1761231993049465000,5.743465087890625,-0.15944086015224457,0.655571699142456,-0.6735880374908447
1761231993059535400,5.753535400390625,-0.2052389681339264,0.7623162269592285,-0.7593138813972473
1761231993069604000,5.76360400390625,-0.2134087234735489,0.8361715078353882,-0.798758864402771
1761231993079674400,5.77367431640625,-0.19089116156101227,0.8688210844993591,-0.8038042187690735
1761231993089743000,5.7837431640625,-0.1507275551557541,0.8654061555862427,-0.7700340747833252
1761231993099812400,5.793812255859375,-0.09296146035194397,0.8316812515258789,-0.6987622976303101
1761231993109882400,5.80388232421875,-0.025308730080723763,0.762454092502594,-0.6049253940582275
1761231993119951400,5.813951416015625,0.04141969978809357,0.6713564395904541,-0.5063750743865967
1761231993130021400,5.824021484375,0.08660822361707687,0.5456852912902832,-0.4093431830406189
1761231993140090000,5.834090087890625,0.08734272420406342,0.39920130372047424,-0.31605076789855957
1761231993150160400,5.844160400390625,0.04868859797716141,0.24957969784736633,-0.2292645275592804
1761231993160229000,5.85422900390625,-0.0005258208839222789,0.10523956269025803,-0.12350506335496902
1761231993170298400,5.86429833984375,-0.03792152181267738,0.011689402163028717,0.04038597643375397
1761231993180368100,5.8743681640625,-0.04351922124624252,-0.01609961874783039,0.260253369808197
1761231993190437400,5.884437255859375,-0.03545229882001877,0.005589498206973076,0.5059688091278076
1761231993200507100,5.894507080078125,-0.03932506591081619,0.11958850175142288,0.7524174451828003
1761231993210576400,5.904576416015625,-0.038328927010297775,0.3886469900608063,0.9983261227607727
1761231993220645000,5.91464501953125,0.03233965113759041,0.6790260672569275,1.2283278703689575
1761231993230715400,5.92471533203125,0.13573089241981506,0.7889382839202881,1.3905117511749268
1761231993240784100,5.9347841796875,0.1871698498725891,0.7274613976478577,1.4620423316955566
1761231993250854100,5.944854248046875,0.11530017852783203,0.49313077330589294,1.432921290397644
1761231993260923100,5.954923095703125,-0.08565503358840942,0.20995792746543884,1.2938129901885986
1761231993270992400,5.964992431640625,-0.325100839138031,-0.21435102820396423,1.0810744762420654
1761231993281062100,5.975062255859375,-0.565534770488739,-0.7792527675628662,0.8199501037597656
1761231993291131100,5.985131103515625,-0.7895071506500244,-1.279020071029663,0.5396907329559326
1761231993301201400,5.995201416015625,-0.927169144153595,-1.4408634901046753,0.30793237686157227
1761231993311270100,6.005270263671875,-0.9087875485420227,-1.2453179359436035,0.1636962592601776
1761231993321339100,6.015339111328125,-0.7485376596450806,-1.0433350801467896,0.04986105114221573
1761231993331409200,6.0254091796875,-0.5475391745567322,-1.0494617223739624,-0.0753827691078186
1761231993341478400,6.035478515625,-0.3834855556488037,-1.0624371767044067,-0.16192591190338135
1761231993351548200,6.045548095703125,-0.27334943413734436,-0.8423500657081604,-0.1364213228225708
1761231993361617400,6.055617431640625,-0.19704240560531616,-0.40879034996032715,-0.01794101484119892
1761231993371686100,6.06568603515625,-0.12387851625680923,0.08036848902702332,0.13223060965538025
1761231993381756400,6.07575634765625,-0.0494583398103714,0.4767001271247864,0.24166947603225708
1761231993391825200,6.0858251953125,0.034173958003520966,0.6950089931488037,0.2734471559524536
1761231993401895200,6.095895263671875,0.11179258674383163,0.6955741047859192,0.21344293653964996
1761231993411964200,6.105964111328125,0.17706578969955444,0.4787595868110657,0.06824960559606552
1761231993422033400,6.116033447265625,0.21233110129833221,0.13483712077140808,-0.15674303472042084
1761231993432103200,6.126103271484375,0.20837438106536865,-0.31957611441612244,-0.43193575739860535
1761231993442172400,6.13617236328125,0.1530647873878479,-0.7378801703453064,-0.6932371258735657
1761231993452242200,6.1462421875,0.038915324956178665,-0.9148127436637878,-0.8702219724655151
1761231993462311200,6.156311279296875,-0.09143708646297455,-0.861839771270752,-0.9440106749534607
1761231993472380200,6.166380126953125,-0.1769535094499588,-0.634171187877655,-0.9169542193412781
1761231993482450200,6.1764501953125,-0.20081037282943726,-0.34773004055023193,-0.8207808136940002
1761231993492519200,6.186519287109375,-0.1804681122303009,-0.07747300714254379,-0.6724210381507874
1761231993502589200,6.196589111328125,-0.1561228334903717,0.17839685082435608,-0.5008399486541748
1761231993512658400,6.206658447265625,-0.1688176393508911,0.382953405380249,-0.32225966453552246
1761231993522728200,6.216728271484375,-0.2182278037071228,0.4976347088813782,-0.13971702754497528
1761231993532797400,6.22679736328125,-0.2974618971347809,0.4953421652317047,0.03202494606375694
1761231993542866200,6.2368662109375,-0.3904520273208618,0.37242957949638367,0.18269382417201996
1761231993552936200,6.246936279296875,-0.45675188302993774,0.17301546037197113,0.31433814764022827
1761231993563005200,6.257005126953125,-0.468201607465744,-0.03826882690191269,0.4258338212966919
1761231993573075200,6.2670751953125,-0.42236360907554626,-0.17231768369674683,0.5340351462364197
1761231993583144200,6.277144287109375,-0.3135391175746918,-0.2196415215730667,0.6253730058670044
1761231993593213400,6.28721337890625,-0.15014153718948364,-0.1973283737897873,0.697234034538269
1761231993603283200,6.297283203125,0.04741041734814644,-0.061778001487255096,0.7372661828994751
1761231993613352200,6.307352294921875,0.2579813599586487,0.09924665838479996,0.7524184584617615
1761231993623422200,6.317422119140625,0.4157656729221344,0.14165189862251282,0.7242480516433716
1761231993633491200,6.3274912109375,0.4920157194137573,0.13038215041160583,0.6681817770004272
1761231993643560200,6.337560302734375,0.5001285076141357,0.1691194325685501,0.594916045665741
1761231993653630200,6.347630126953125,0.48676860332489014,0.21106019616127014,0.500630259513855
1761231993663699200,6.35769921875,0.4695605933666229,0.1297924965620041,0.378366619348526
1761231993673769200,6.367769287109375,0.4358755350112915,-0.06269155442714691,0.2419385015964508
1761231993683838200,6.377838134765625,0.40683484077453613,-0.2350872904062271,0.14765620231628418
1761231993693907200,6.3879072265625,0.4024631977081299,-0.3442762792110443,0.13846319913864136
1761231993703977500,6.3979775390625,0.3920174837112427,-0.4386339485645294,0.1925666481256485
1761231993714046200,6.408046142578125,0.31408530473709106,-0.5813565254211426,0.2666696608066559
1761231993724116200,6.4181162109375,0.17575673758983612,-0.7071024775505066,0.3281434178352356
1761231993734185200,6.428185302734375,0.025803985074162483,-0.7586418390274048,0.36685433983802795
1761231993744254500,6.43825439453125,-0.08888345211744308,-0.7039013504981995,0.3986111879348755
1761231993754324200,6.44832421875,-0.1697508543729782,-0.5733687877655029,0.420598566532135
1761231993764393200,6.458393310546875,-0.23366566002368927,-0.4365035593509674,0.4300341308116913
1761231993774463200,6.468463134765625,-0.3006010055541992,-0.30226364731788635,0.43029361963272095
1761231993784532200,6.4785322265625,-0.3814942538738251,-0.18233031034469604,0.4041126072406769
1761231993794601200,6.488601318359375,-0.4689125418663025,-0.08197984844446182,0.34482088685035706
1761231993804671200,6.498671142578125,-0.5461466312408447,-0.007451286539435387,0.26319923996925354
1761231993814740200,6.508740234375,-0.6065729260444641,0.03038397617638111,0.1658545732498169
1761231993824810200,6.518810302734375,-0.6600204706192017,0.016940873116254807,0.04884140193462372
1761231993834879200,6.528879150390625,-0.7226658463478088,-0.0332915335893631,-0.08113238215446472
1761231993844948200,6.5389482421875,-0.8131353259086609,-0.10051558166742325,-0.22789600491523743
1761231993855018200,6.549018310546875,-0.9526175856590271,-0.21482405066490173,-0.39303940534591675
1761231993865087200,6.559087158203125,-1.1347455978393555,-0.3950318992137909,-0.5885870456695557
1761231993875157200,6.5691572265625,-1.3340827226638794,-0.5932702422142029,-0.760983943939209
1761231993885226200,6.579226318359375,-1.5155928134918213,-0.6921065449714661,-0.8709957003593445
1761231993895295200,6.589295166015625,-1.6634899377822876,-0.6386709213256836,-0.8771962523460388
1761231993905365200,6.599365234375,-1.7692354917526245,-0.42906972765922546,-0.7988317012786865
1761231993915434200,6.609434326171875,-1.8107893466949463,-0.14411376416683197,-0.6341503858566284
1761231993925504300,6.619504150390625,-1.8085050582885742,0.09599417448043823,-0.42302507162094116
1761231993935573200,6.6295732421875,-1.7994784116744995,0.26687994599342346,-0.21127410233020782
1761231993945643300,6.639643310546875,-1.8171608448028564,0.3143017888069153,-0.04408032074570656
1761231993955712300,6.649712158203125,-1.8610832691192627,0.1723625510931015,0.061525698751211166
1761231993965784000,6.6597841796875,-1.91030752658844,-0.12882526218891144,0.13581538200378418
1761231993975853800,6.669853759765625,-1.9589996337890625,-0.4630641043186188,0.20746156573295593
1761231993985923000,6.679923095703125,-2.0270442962646484,-0.6897361278533936,0.30075767636299133
1761231993995993000,6.6899931640625,-2.1312153339385986,-0.7859064340591431,0.417267382144928
1761231994006062000,6.70006201171875,-2.261888027191162,-0.7621904611587524,0.5413036346435547
1761231994016130800,6.710130859375,-2.4158401489257812,-0.6368785500526428,0.661072850227356
1761231994026201000,6.720201171875,-2.5587551593780518,-0.45323440432548523,0.7686395049095154
1761231994036270000,6.73027001953125,-2.6064584255218506,-0.212672159075737,0.919887900352478
1761231994046340000,6.740340087890625,-2.479311943054199,-0.040139541029930115,1.1268894672393799
1761231994056409000,6.7504091796875,-2.2657406330108643,-0.13554251194000244,1.308252215385437
1761231994066478000,6.76047802734375,-2.1431360244750977,-0.6029919981956482,1.3610022068023682
1761231994076548000,6.770548095703125,-2.2100703716278076,-1.2371164560317993,1.2496726512908936
1761231994086617000,6.7806171875,-2.447786808013916,-1.8885629177093506,1.0160564184188843
1761231994096687000,6.79068701171875,-2.7781386375427246,-2.444308042526245,0.716293454170227
1761231994106756000,6.800756103515625,-3.0732624530792236,-2.757173538208008,0.41352397203445435
1761231994116825000,6.8108251953125,-3.1820175647735596,-2.731414794921875,0.17609518766403198
1761231994126894800,6.820894775390625,-3.065516233444214,-2.4588403701782227,0.029879124835133553
1761231994136964000,6.830964111328125,-2.7679190635681152,-2.042825698852539,-0.02481425367295742
1761231994147033900,6.841033935546875,-2.3436810970306396,-1.6386442184448242,-0.01753476820886135
1761231994157103000,6.85110302734375,-1.838617205619812,-1.383407711982727,0.05645934119820595
1761231994167171800,6.861171875,-1.3391010761260986,-1.2876298427581787,0.20742034912109375
1761231994177242000,6.8712421875,-0.9688593149185181,-1.3258095979690552,0.3904445767402649
1761231994187310800,6.881310791015625,-0.7805123329162598,-1.4207271337509155,0.5760610103607178
1761231994197381000,6.891381103515625,-0.753158450126648,-1.5065743923187256,0.7351779341697693
1761231994207450000,6.9014501953125,-0.8708507418632507,-1.6079574823379517,0.8271893262863159
1761231994217519000,6.91151904296875,-1.0924475193023682,-1.7222694158554077,0.8248732686042786
1761231994227589000,6.921589111328125,-1.3899353742599487,-1.8441241979599,0.7238667607307434
1761231994237658000,6.931658203125,-1.6882420778274536,-1.9932256937026978,0.5243510603904724
1761231994247728000,6.94172802734375,-1.882493257522583,-2.104353189468384,0.2672574818134308
1761231994257797000,6.951797119140625,-1.9356071949005127,-2.046372652053833,-0.0009003602899610996
1761231994267866000,6.9618662109375,-1.8919873237609863,-1.8029073476791382,-0.24532927572727203
1761231994277935900,6.971935791015625,-1.787562608718872,-1.4573239088058472,-0.4372861385345459
1761231994288005000,6.982005126953125,-1.6689562797546387,-1.0549213886260986,-0.5345751047134399
1761231994298075000,6.992074951171875,-1.5856817960739136,-0.6730948686599731,-0.5491889715194702
1761231994308144000,7.00214404296875,-1.5835944414138794,-0.317011296749115,-0.48751017451286316
1761231994318212900,7.012212890625,-1.6670888662338257,-0.01918064057826996,-0.35354748368263245
1761231994328283100,7.022283203125,-1.808882474899292,0.18843060731887817,-0.1645921915769577
1761231994338351900,7.032351806640625,-1.9800609350204468,0.3569701015949249,0.07116387039422989
1761231994348422100,7.042422119140625,-2.158560276031494,0.4793785512447357,0.30556413531303406
1761231994358491000,7.052490966796875,-2.3373119831085205,0.5155574679374695,0.502326250076294
1761231994368561200,7.06256103515625,-2.4895665645599365,0.4328436255455017,0.6146535873413086
1761231994378630000,7.0726298828125,-2.5832300186157227,0.23411521315574646,0.6498655676841736
1761231994388699100,7.08269921875,-2.589353561401367,-0.045358505100011826,0.624581515789032
1761231994398769200,7.09276904296875,-2.5117106437683105,-0.3320552110671997,0.5566908121109009
1761231994408838100,7.102838134765625,-2.3698155879974365,-0.5353994965553284,0.4788993299007416
1761231994418908200,7.112908203125,-2.1930835247039795,-0.6018080115318298,0.4103529155254364
1761231994428977000,7.122976806640625,-1.9962334632873535,-0.5118666291236877,0.3535098731517792
1761231994439046100,7.133046142578125,-1.7881475687026978,-0.2939387857913971,0.3379853665828705
1761231994449116000,7.143115966796875,-1.5607202053070068,0.02915005385875702,0.3870597183704376
1761231994459185200,7.15318505859375,-1.306278944015503,0.3790021240711212,0.525843620300293
1761231994469255000,7.1632548828125,-1.019564151763916,0.5940102934837341,0.7102717757225037
1761231994479324200,7.17332421875,-0.7561295032501221,0.5370203852653503,0.8689779043197632
1761231994489393000,7.183392822265625,-0.5793896317481995,0.08110103011131287,0.9380991458892822
1761231994499463200,7.193463134765625,-0.4861525297164917,-0.5851487517356873,0.9417362213134766
1761231994509532000,7.203531982421875,-0.4860106110572815,-1.1601204872131348,0.9663187861442566
1761231994519602200,7.213602294921875,-0.6079276204109192,-1.7487231492996216,0.9445966482162476
1761231994529671000,7.2236708984375,-0.8875691294670105,-2.374387502670288,0.8311289548873901
1761231994539740200,7.233740234375,-1.2586535215377808,-2.7531967163085938,0.6599707007408142
1761231994549810000,7.243809814453125,-1.530834436416626,-2.7439146041870117,0.5081790685653687
1761231994559879200,7.253879150390625,-1.6151130199432373,-2.5006704330444336,0.3935922384262085
1761231994569949200,7.26394921875,-1.589066505432129,-2.210139274597168,0.27371859550476074
1761231994580018000,7.274017822265625,-1.561112642288208,-1.9661688804626465,0.08352850377559662
1761231994590087000,7.2840869140625,-1.5508701801300049,-1.7837730646133423,-0.1383005678653717
1761231994600157000,7.294156982421875,-1.5150138139724731,-1.628934621810913,-0.3273586630821228
1761231994610226000,7.304225830078125,-1.4160600900650024,-1.4097667932510376,-0.4186398684978485
1761231994620296000,7.3142958984375,-1.2519171237945557,-1.1122877597808838,-0.38033655285835266
1761231994630365200,7.324365234375,-1.0893864631652832,-0.8669493198394775,-0.26137101650238037
1761231994640434000,7.334433837890625,-1.0315650701522827,-0.7783350944519043,-0.11783938109874725
1761231994650504200,7.344504150390625,-1.1061526536941528,-0.779847264289856,0.014873124659061432
1761231994660573000,7.354572998046875,-1.2899277210235596,-0.838309645652771,0.1202605739235878
1761231994670643200,7.364643310546875,-1.5417189598083496,-0.9967730641365051,0.19287006556987762
1761231994680712000,7.3747119140625,-1.823420763015747,-1.3047558069229126,0.19475318491458893
1761231994690781200,7.38478125,-2.1109118461608887,-1.7159957885742188,0.09649904817342758
1761231994700851000,7.394850830078125,-2.310985565185547,-2.106727361679077,-0.0558808259665966
1761231994710920200,7.404920166015625,-2.356492280960083,-2.370711088180542,-0.19201309978961945
1761231994720990000,7.414989990234375,-2.277653694152832,-2.523155450820923,-0.2427530735731125
1761231994731059200,7.42505908203125,-2.13089919090271,-2.5196404457092285,-0.19162757694721222
1761231994741128000,7.4351279296875,-2.019596576690674,-2.3651793003082275,-0.0802299901843071
1761231994751198000,7.445197998046875,-2.001851797103882,-2.0713534355163574,0.05689670518040657
1761231994761267000,7.455266845703125,-2.11692476272583,-1.6762654781341553,0.17170731723308563
1761231994771337000,7.4653369140625,-2.32547664642334,-1.3080490827560425,0.24896882474422455
1761231994781406000,7.475406005859375,-2.5373919010162354,-1.079885721206665,0.29326242208480835
1761231994791475000,7.485474853515625,-2.6575205326080322,-1.0390620231628418,0.33754414319992065
1761231994801545200,7.495545166015625,-2.678880453109741,-1.1674468517303467,0.3858174681663513
1761231994811614000,7.505614013671875,-2.601466655731201,-1.3362376689910889,0.43580710887908936
1761231994821684200,7.515684326171875,-2.4429104328155518,-1.241806149482727,0.5251925587654114
1761231994831753000,7.5257529296875,-2.204495668411255,-0.9347745180130005,0.6189243793487549
1761231994841822200,7.535822265625,-2.0119893550872803,-0.834888756275177,0.5397745966911316
1761231994851892000,7.54589208984375,-1.9978389739990234,-1.1052794456481934,0.20681636035442352
1761231994861961200,7.555961181640625,-2.1814181804656982,-1.3809831142425537,-0.2570655643939972
1761231994872031000,7.566031005859375,-2.480785846710205,-1.5659348964691162,-0.7003015875816345
1761231994882100200,7.576100341796875,-2.832691192626953,-1.7719963788986206,-1.0351942777633667
1761231994892169000,7.5861689453125,-3.147520065307617,-1.9596216678619385,-1.235106348991394
1761231994902239000,7.596239013671875,-3.317800760269165,-1.9088939428329468,-1.2492339611053467
1761231994912308000,7.606307861328125,-3.2423479557037354,-1.5328028202056885,-1.046199083328247
1761231994922378000,7.6163779296875,-2.9291646480560303,-0.9979225993156433,-0.6651954054832458
1761231994932447000,7.626447021484375,-2.4694409370422363,-0.49151432514190674,-0.2350621074438095
1761231994942517000,7.63651708984375,-1.9688162803649902,-0.10899397730827332,0.16064760088920593
1761231994952586000,7.6465859375,-1.5507889986038208,0.11257755756378174,0.4587397575378418
1761231994962652000,7.65665185546875,-1.2891408205032349,0.2060321569442749,0.6549760699272156
1761231994972722200,7.66672216796875,-1.1640883684158325,0.19390998780727386,0.731224775314331
1761231994982791000,7.676791015625,-1.1564500331878662,0.1707126796245575,0.7074354290962219
1761231994992860200,7.686860107421875,-1.1818722486495972,0.23020051419734955,0.6422311663627625
1761231995002930000,7.696929931640625,-1.183972954750061,0.22989024221897125,0.5323687195777893
1761231995012999200,7.706999267578125,-1.1787179708480835,0.023988746106624603,0.32927101850509644
1761231995023069000,7.71706884765625,-1.1931568384170532,-0.3753170967102051,0.03350166976451874
1761231995033138000,7.727137939453125,-1.2470104694366455,-0.8467365503311157,-0.32527193427085876
1761231995043208000,7.7372080078125,-1.3287602663040161,-1.2985432147979736,-0.6909490823745728
1761231995053277000,7.74727685546875,-1.3954309225082397,-1.6244416236877441,-0.9807329773902893
1761231995063346000,7.757345947265625,-1.4078197479248047,-1.7336536645889282,-1.1401703357696533
1761231995073416000,7.767416015625,-1.328595757484436,-1.586991786956787,-1.1044834852218628
1761231995083485000,7.77748486328125,-1.1443712711334229,-1.207352876663208,-0.8790869116783142
1761231995093555000,7.787554931640625,-0.9222380518913269,-0.726850152015686,-0.5210999846458435
1761231995103624200,7.797624267578125,-0.7095023989677429,-0.29005512595176697,-0.12125065922737122
1761231995113693000,7.80769287109375,-0.5710492134094238,0.0175761878490448,0.2377983182668686
1761231995123763200,7.81776318359375,-0.5212122797966003,0.1687043160200119,0.4994475841522217
1761231995133832000,7.82783203125,-0.5329179167747498,0.2583599090576172,0.6737509369850159
1761231995143902000,7.83790185546875,-0.5710492730140686,0.27184969186782837,0.7396345734596252
1761231995153971000,7.847970947265625,-0.6153594851493835,0.20200403034687042,0.7127259969711304
1761231995164040200,7.858040283203125,-0.6608300805091858,0.04762902855873108,0.6013840436935425
1761231995174110000,7.86810986328125,-0.6868406534194946,-0.17620407044887543,0.4353136122226715
1761231995184179000,7.878178955078125,-0.6576663255691528,-0.3780762851238251,0.26336413621902466
1761231995194249000,7.8882490234375,-0.5624606609344482,-0.40233662724494934,0.13013896346092224
1761231995204318000,7.89831787109375,-0.42581892013549805,-0.21566423773765564,0.0646933764219284
1761231995214387000,7.908386962890625,-0.2781341075897217,0.034273967146873474,0.03592856973409653
1761231995224457000,7.91845703125,-0.17485959827899933,0.20645849406719208,0.00247527239844203
1761231995234526000,7.92852587890625,-0.14523565769195557,0.20861566066741943,-0.0252988338470459
1761231995244596000,7.938595947265625,-0.19469968974590302,-0.029381711035966873,-0.05511212348937988
1761231995254665000,7.9486650390625,-0.2771082818508148,-0.41455867886543274,-0.04010095074772835
1761231995264734000,7.95873388671875,-0.37811464071273804,-0.767280638217926,0.04095308110117912
1761231995274804000,7.968803955078125,-0.5188310146331787,-1.1687833070755005,0.1324734091758728
1761231995284873000,7.978873046875,-0.6784720420837402,-1.576828122138977,0.2127251923084259
1761231995294943000,7.98894287109375,-0.8369407653808594,-1.8071590662002563,0.30051496624946594
1761231995305012000,7.999011962890625,-0.9659847021102905,-1.7700856924057007,0.3966413140296936
1761231995315081000,8.0090810546875,-1.0607411861419678,-1.495924472808838,0.49040696024894714
1761231995325151000,8.01915087890625,-1.1296178102493286,-1.1539448499679565,0.5511147975921631
1761231995335220200,8.02922021484375,-1.1577759981155396,-0.8911175727844238,0.5642277002334595
1761231995345290000,8.0392900390625,-1.1213091611862183,-0.7432429790496826,0.522432267665863
1761231995355359000,8.04935888671875,-1.014281988143921,-0.594287097454071,0.4434623420238495
1761231995365428000,8.059427978515625,-0.8300524950027466,-0.4092986285686493,0.3396984338760376
1761231995375498000,8.069498046875,-0.5850847959518433,-0.24353815615177155,0.21826040744781494
1761231995385567000,8.07956689453125,-0.3141089081764221,-0.03641793876886368,0.10502196848392487
1761231995395637000,8.089636962890625,-0.06512251496315002,0.18060065805912018,0.006868765689432621
1761231995405706000,8.0997060546875,0.112089604139328,0.2128758579492569,-0.10767728835344315
1761231995415775000,8.10977490234375,0.19799359142780304,0.06951737403869629,-0.24242658913135529
1761231995425845000,8.119844970703125,0.1761048138141632,-0.14627303183078766,-0.38175955414772034
1761231995435914000,8.1299140625,0.03247734159231186,-0.4103906750679016,-0.5401135087013245
1761231995445984000,8.13998388671875,-0.1861366331577301,-0.6595459580421448,-0.7093921303749084
1761231995456053000,8.150052978515625,-0.3846918046474457,-0.7799621224403381,-0.8410567045211792
1761231995466122000,8.1601220703125,-0.509720504283905,-0.7193073630332947,-0.9145499467849731
1761231995476192000,8.17019189453125,-0.5392019748687744,-0.5324751734733582,-0.9339123964309692
1761231995486261000,8.180260986328125,-0.4841069281101227,-0.3109353184700012,-0.9091464877128601
1761231995496331000,8.1903310546875,-0.3704032599925995,-0.12220189720392227,-0.8389977812767029
1761231995506400000,8.20039990234375,-0.24907661974430084,0.0780748724937439,-0.7358847856521606
1761231995516470000,8.210469970703125,-0.1625441312789917,0.203631192445755,-0.6020774245262146
1761231995526539000,8.2205390625,-0.11857542395591736,0.16585084795951843,-0.450026273727417
1761231995536608000,8.23060791015625,-0.09169640392065048,-0.023631183430552483,-0.2771168053150177
1761231995546678000,8.240677978515626,-0.08891281485557556,-0.26379603147506714,-0.09807199239730835
1761231995556747000,8.2507470703125,-0.09304364770650864,-0.4560272693634033,0.0750180333852768
1761231995566817000,8.260817138671875,-0.08961813896894455,-0.5688482522964478,0.23428457975387573
1761231995576886000,8.270885986328125,-0.09108474105596542,-0.6223381161689758,0.35271933674812317
1761231995586955000,8.280955078125,-0.11299487203359604,-0.6316140294075012,0.42157065868377686
1761231995597025000,8.29102490234375,-0.14749373495578766,-0.5654456615447998,0.44062238931655884
1761231995607094000,8.301093994140626,-0.18654336035251617,-0.3890841603279114,0.4194173514842987
1761231995617163800,8.311163818359375,-0.2168799638748169,-0.13824206590652466,0.39582014083862305
1761231995627233000,8.32123291015625,-0.23684607446193695,0.07493681460618973,0.38199180364608765
1761231995637302000,8.331302001953125,-0.262524276971817,0.1851394772529602,0.3816205561161041
1761231995647372000,8.3413720703125,-0.27765268087387085,0.16084928810596466,0.3774659037590027
1761231995657441000,8.35144091796875,-0.28136512637138367,-0.01997429132461548,0.35106438398361206
1761231995667511000,8.361510986328126,-0.31406161189079285,-0.29218852519989014,0.2963400185108185
1761231995677579800,8.371579833984375,-0.44553494453430176,-0.6011950969696045,0.2020137906074524
1761231995687649000,8.38164892578125,-0.6942352652549744,-0.9110070466995239,0.06682971864938736
1761231995697719000,8.391718994140625,-1.0116832256317139,-1.1303004026412964,-0.06837523728609085
1761231995707788000,8.4017880859375,-1.3073718547821045,-1.2106817960739136,-0.1733846664428711
1761231995717858000,8.411858154296874,-1.5127325057983398,-1.1671737432479858,-0.22031275928020477
1761231995727927000,8.421927001953126,-1.5902576446533203,-1.0329197645187378,-0.20199157297611237
1761231995737996000,8.43199609375,-1.5433566570281982,-0.8610749840736389,-0.1269918978214264
1761231995748066000,8.442066162109375,-1.4211024045944214,-0.6801897883415222,-0.03685242682695389
1761231995758135000,8.452135009765625,-1.2738794088363647,-0.47187602519989014,0.06639087200164795
1761231995768204800,8.462204833984375,-1.1277822256088257,-0.2774231433868408,0.17582784593105316
1761231995778274000,8.472274169921874,-1.0067247152328491,-0.10916886478662491,0.2853676676750183
1761231995788343000,8.482343017578126,-0.9156501889228821,-0.029879868030548096,0.3579798936843872
1761231995798413000,8.4924130859375,-0.8635877966880798,-0.016284164041280746,0.3964577913284302
1761231995808482000,8.50248193359375,-0.8558869361877441,-0.04594328626990318,0.38738352060317993
1761231995818552000,8.512552001953125,-0.8720488548278809,-0.055805504322052,0.3245480954647064
1761231995828620800,8.522620849609375,-0.8827850818634033,-0.07558868080377579,0.21440711617469788
1761231995838690000,8.53268994140625,-0.8549182415008545,-0.1336575746536255,0.07858644425868988
1761231995848759800,8.542759765625,-0.7672476172447205,-0.2521478533744812,-0.061425067484378815
1761231995858829000,8.5528291015625,-0.6283496618270874,-0.3929515480995178,-0.1557699590921402
1761231995868899000,8.562899169921875,-0.5000902414321899,-0.5081692337989807,-0.21259289979934692
1761231995878968000,8.572968017578125,-0.4325583577156067,-0.5466127395629883,-0.22781126201152802
1761231995889038000,8.5830380859375,-0.40625059604644775,-0.47566431760787964,-0.21627654135227203
1761231995899107000,8.593107177734375,-0.4016851484775543,-0.32736194133758545,-0.17519941926002502
1761231995909175800,8.60317578125,-0.3913286030292511,-0.14397476613521576,-0.09816017746925354
1761231995919246000,8.61324609375,-0.376584529876709,0.0962090790271759,0.007622440345585346
1761231995929315000,8.623315185546875,-0.3649633824825287,0.35537052154541016,0.13203753530979156
1761231995939384800,8.633384765625,-0.3658297061920166,0.5789673328399658,0.22256183624267578
1761231995949454000,8.6434541015625,-0.3727480173110962,0.7606639862060547,0.28741392493247986
1761231995959523300,8.6535234375,-0.36742913722991943,0.8899250030517578,0.32600897550582886
1761231995969593600,8.663593505859374,-0.3451118469238281,0.9679291844367981,0.3321962356567383
1761231995979662300,8.673662353515626,-0.294424444437027,0.997596025466919,0.30530229210853577
1761231995989732600,8.683732666015626,-0.20213623344898224,0.9547892212867737,0.24403955042362213
1761231995999801600,8.693801513671875,-0.06582766026258469,0.8397830128669739,0.14303064346313477
1761231996009870600,8.70387060546875,0.10678327828645706,0.6797497272491455,0.030332280322909355
1761231996019940600,8.713940673828125,0.2995245158672333,0.5477908849716187,-0.060043688863515854
1761231996030009600,8.724009521484374,0.4949563145637512,0.5297684669494629,-0.08394768834114075
1761231996040079600,8.73407958984375,0.6573089957237244,0.5526042580604553,-0.05784072354435921
1761231996050148600,8.744148681640626,0.7389212250709534,0.5217920541763306,-0.037663817405700684
1761231996060217600,8.754217529296875,0.7162220478057861,0.4545515179634094,-0.05046882480382919
1761231996070287400,8.764287353515625,0.6219090819358826,0.38166236877441406,-0.07481209933757782
1761231996080356600,8.774356689453125,0.4869627058506012,0.2603231370449066,-0.1037934198975563
1761231996090426400,8.78442626953125,0.3748911917209625,0.12007832527160645,-0.10454104095697403
1761231996100495600,8.79449560546875,0.31681832671165466,0.003414025530219078,-0.08523045480251312
1761231996110564400,8.804564453125,0.3195335566997528,-0.03762568160891533,-0.023089546710252762
1761231996120634600,8.814634521484376,0.38794565200805664,0.007114357315003872,0.09674257785081863
1761231996130702600,8.82470263671875,0.4846801459789276,0.07208957523107529,0.25558435916900635
1761231996140772600,8.834772705078125,0.5720640420913696,0.1149187982082367,0.41053318977355957
1761231996150841600,8.844841552734374,0.6258960962295532,0.08991139382123947,0.5203006267547607
1761231996160911600,8.85491162109375,0.643841564655304,0.014970841817557812,0.5601582527160645
1761231996170980400,8.86498046875,0.6397553086280823,-0.04320091754198074,0.5352041721343994
1761231996181050600,8.875050537109376,0.5888039469718933,-0.07818366587162018,0.4423437714576721
1761231996191119400,8.885119384765625,0.48351430892944336,-0.06771782040596008,0.29286259412765503
1761231996201188600,8.895188720703125,0.3652811348438263,0.007351095788180828,0.1251974254846573
1761231996211258600,8.905258544921875,0.27008315920829773,0.16714471578598022,0.006497826427221298
1761231996221327600,8.91532763671875,0.2127266675233841,0.38844674825668335,-0.051652826368808746
1761231996231396400,8.925396240234376,0.19306635856628418,0.5818569660186768,-0.08810180425643921
1761231996241466600,8.935466552734376,0.19294679164886475,0.6529641151428223,-0.13689038157463074
1761231996251535400,8.945535400390625,0.1917841136455536,0.6024065017700195,-0.21799683570861816
1761231996261605400,8.95560546875,0.16682761907577515,0.4859435260295868,-0.33209171891212463
1761231996271674600,8.965674560546875,0.10441629588603973,0.33660972118377686,-0.47109007835388184
1761231996281744400,8.975744384765624,0.021462557837367058,0.1546708196401596,-0.6323314309120178
1761231996291813600,8.985813720703124,-0.01890430599451065,-0.025882983580231667,-0.7683550119400024
1761231996301882600,8.995882568359375,-0.02341729775071144,-0.11234170943498611,-0.8223671317100525
1761231996311952600,9.00595263671875,-0.006842422299087048,-0.027610916644334793,-0.7884026169776917
1761231996322021400,9.016021484375,0.02910439297556877,0.2018403857946396,-0.6773767471313477
1761231996332091600,9.026091552734375,0.06541140377521515,0.49427270889282227,-0.5294767618179321
1761231996342160400,9.036160400390624,0.07185172289609909,0.746329128742218,-0.3777964413166046
1761231996352229600,9.046229736328126,0.03176753968000412,0.9579690098762512,-0.2420806735754013
1761231996362299400,9.05629931640625,-0.041606541723012924,1.1543751955032349,-0.1374456137418747
1761231996372368600,9.06636865234375,-0.10651929676532745,1.2607351541519165,-0.06552378833293915
1761231996382438400,9.0764384765625,-0.11746808141469955,1.2430791854858398,-0.01216229796409607
1761231996392507600,9.086507568359375,-0.09192012250423431,1.1150976419448853,0.019782889634370804
1761231996402576400,9.096576416015624,-0.03696313127875328,0.9695771932601929,0.0340915247797966
1761231996412646700,9.106646728515624,0.03422757238149643,0.8131528496742249,0.061194971203804016
1761231996422715400,9.11671533203125,0.09892161190509796,0.6516656875610352,0.10582289099693298
1761231996432785400,9.126785400390625,0.1652621626853943,0.5331610441207886,0.1428627073764801
1761231996442854700,9.136854736328125,0.26356929540634155,0.5147029161453247,0.20797380805015564
1761231996452923600,9.146923583984375,0.3934935927391052,0.5717122554779053,0.2903544008731842
1761231996462993700,9.15699365234375,0.4758363962173462,0.6335383653640747,0.3186694085597992
1761231996473062400,9.1670625,0.4632170796394348,0.7081937193870544,0.32252201437950134
1761231996483132700,9.177132568359376,0.2176280915737152,0.5621009469032288,0.3735681474208832
1761231996493201400,9.187201416015625,-0.08425754308700562,0.0391317680478096,0.3236538767814636
1761231996503270700,9.197270751953125,-0.20716987550258636,-0.282410591840744,0.303720623254776
1761231996513340400,9.20734033203125,-0.280423641204834,-0.4429439902305603,0.3076738119125366
1761231996523409700,9.21740966796875,-0.40168482065200806,-0.5749371647834778,0.2786887586116791
1761231996533479400,9.2274794921875,-0.5041097402572632,-0.7109799385070801,0.17711685597896576
1761231996543548700,9.237548583984376,-0.5654929876327515,-0.8744202852249146,0.043011512607336044
1761231996553617400,9.247617431640625,-0.574802041053772,-1.1187045574188232,-0.07039059698581696
1761231996563687700,9.257687744140625,-0.3979223072528839,-1.2868255376815796,-0.0903019905090332
