time,seconds_elapsed,z,y,x
1761232203521196300,0.0791962890625,0.0008033892372623086,-0.052383601665496826,0.12873423099517822
1761232203531265500,0.089265625,0.020612960681319237,-0.028884394094347954,0.09701284021139145
1761232203541334300,0.099334228515625,0.04084552451968193,-0.003669584169983864,0.07630516588687897
1761232203551404500,0.109404541015625,0.048816271126270294,0.01200215145945549,0.06634680181741714
1761232203561473300,0.119473388671875,0.03969414532184601,0.030613917857408524,0.06348683685064316
1761232203571543600,0.12954345703125,0.03390544652938843,0.03706614300608635,0.07183293998241425
1761232203581612300,0.1396123046875,0.028459278866648674,0.02003975585103035,0.08349625021219254
1761232203591682600,0.1496826171875,0.016228104010224342,0.00597054697573185,0.09360641986131668
1761232203601751300,0.159751220703125,0.004166646860539913,0.00835487525910139,0.10541674494743347
1761232203611821300,0.1698212890625,-0.006309886462986469,0.009248093701899052,0.12123165279626846
1761232203621890600,0.179890625,-0.004144470207393169,0.0058203390799462795,0.1367003619670868
1761232203631959600,0.18995947265625,-0.0007415373111143708,0.002874797210097313,0.15073417127132416
1761232203642029600,0.200029541015625,-0.0007777562132105231,-0.01501498743891716,0.15469668805599213
1761232203652098300,0.210098388671875,-0.00014979892875999212,-0.01878129318356514,0.1518000215291977
1761232203662168600,0.22016845703125,-0.000901875551789999,-0.024179253727197647,0.13214536011219025
1761232203672237300,0.2302373046875,-0.005734322592616081,-0.022997912019491196,0.1002616286277771
1761232203682307600,0.2403076171875,-0.007518906611949205,0.0005692010745406151,0.06396620720624924
1761232203692376300,0.250376220703125,-0.007562719285488129,0.04461290314793587,0.031307559460401535
1761232203702446300,0.2604462890625,-0.005349898710846901,0.0747859850525856,-0.001319359289482236
1761232203712515300,0.270515380859375,-0.006709502078592777,0.07713603228330612,-0.01758093386888504
1761232203722584600,0.28058447265625,-0.011073091067373753,0.06380610913038254,-0.024241235107183456
1761232203732654300,0.290654296875,-0.020394345745444298,0.045129623264074326,-0.025525951758027077
1761232203742723600,0.3007236328125,-0.027489272877573967,0.02975146472454071,-0.026400001719594002
1761232203752793600,0.310793701171875,-0.03567256033420563,0.007165877148509026,-0.02339364029467106
1761232203762862300,0.3208623046875,-0.037110671401023865,-0.014889624901115894,-0.012083195149898529
1761232203772932600,0.3309326171875,-0.03608963266015053,-0.028232768177986145,0.004087239969521761
1761232203783001300,0.34100146484375,-0.02498771622776985,-0.03488188236951828,0.013658907264471054
1761232203793070600,0.351070556640625,-0.01285773515701294,-0.03202394023537636,0.016581252217292786
1761232203803140400,0.361140380859375,-0.0032767467200756073,-0.02144133672118187,0.01920286752283573
1761232203813209600,0.371209716796875,0.008659692481160164,-0.023216083645820618,0.012015510350465775
1761232203823279400,0.381279296875,0.011527384631335735,-0.027357030659914017,0.010230924934148788
1761232203833348600,0.3913486328125,0.01086463313549757,-0.040403686463832855,0.014358509331941605
1761232203843418400,0.40141845703125,0.006012087222188711,-0.03643504157662392,0.02269686572253704
1761232203853487600,0.411487548828125,0.005460698623210192,-0.02729881927371025,0.032781701534986496
1761232203863557400,0.421557373046875,0.006998674012720585,-0.032686926424503326,0.03427307307720184
1761232203873626400,0.43162646484375,0.014062170870602131,-0.043955400586128235,0.03550897538661957
1761232203883695400,0.4416953125,0.025120947510004044,-0.04273141175508499,0.033434636890888214
1761232203893765400,0.451765380859375,0.03833167627453804,-0.03663983941078186,0.043354474008083344
1761232203903834400,0.46183447265625,0.04258740693330765,-0.022296853363513947,0.05505453795194626
1761232203913904400,0.471904296875,0.046331219375133514,-0.004386758431792259,0.0788908451795578
1761232203923973600,0.4819736328125,0.043684303760528564,0.013093432411551476,0.10683566331863403
1761232203934043400,0.49204345703125,0.037057824432849884,0.027215376496315002,0.13065578043460846
1761232203944112600,0.502112548828125,0.032489974051713943,0.0434553325176239,0.15234696865081787
1761232203954182400,0.512182373046875,0.03958910331130028,0.06219100579619408,0.17740246653556824
1761232203964251400,0.52225146484375,0.05057597532868385,0.07549376785755157,0.1945476233959198
1761232203974320400,0.5323203125,0.06006689742207527,0.07746616750955582,0.21056325733661652
1761232203984390400,0.542390380859375,0.06523528695106506,0.08099459111690521,0.22408147156238556
1761232203994459400,0.55245947265625,0.07069828361272812,0.08476556092500687,0.23469771444797516
1761232204004529400,0.562529296875,0.07014328241348267,0.09586162120103836,0.24116946756839752
1761232204014598400,0.572598388671875,0.07134221494197845,0.12392785400152206,0.25142574310302734
1761232204024668400,0.58266845703125,0.07252945005893707,0.18714916706085205,0.25518372654914856
1761232204034737400,0.5927373046875,0.06801075488328934,0.3031890392303467,0.2604949176311493
1761232204044806400,0.602806396484375,0.0733645036816597,0.4238840341567993,0.24980950355529785
1761232204054876400,0.61287646484375,0.08932317793369293,0.502381443977356,0.24526485800743103
1761232204064945400,0.6229453125,0.08663764595985413,0.6220366954803467,0.24550987780094147
1761232204075015400,0.633015380859375,0.06476326286792755,0.743050754070282,0.22744174301624298
1761232204085084400,0.64308447265625,0.015308627858757973,0.8401346802711487,0.2301938533782959
1761232204095154400,0.653154541015625,-0.06870681792497635,0.8600128293037415,0.21501243114471436
1761232204105223400,0.663223388671875,-0.1580239087343216,0.8433437943458557,0.1862119436264038
1761232204115293400,0.67329345703125,-0.2474939227104187,0.9295181632041931,0.18187694251537323
1761232204125362400,0.683362548828125,-0.2961980700492859,0.995794951915741,0.21857823431491852
1761232204135431400,0.693431396484375,-0.3125445246696472,0.9220399260520935,0.2724277973175049
1761232204145501400,0.70350146484375,-0.30939480662345886,0.7288681268692017,0.32594987750053406
1761232204155570400,0.7135703125,-0.29925042390823364,0.5095676183700562,0.3761337101459503
1761232204165640400,0.723640380859375,-0.2900097668170929,0.3102707862854004,0.4217033386230469
1761232204175709000,0.733708984375,-0.27764278650283813,0.2076256275177002,0.46861517429351807
1761232204185779200,0.743779296875,-0.2552354633808136,0.16998291015625,0.5022082328796387
1761232204195848000,0.753847900390625,-0.21746790409088135,0.16839860379695892,0.5111339688301086
1761232204205918000,0.76391796875,-0.16615864634513855,0.20212781429290771,0.4994189739227295
1761232204215987000,0.773987060546875,-0.11836261302232742,0.2122463434934616,0.4726020395755768
1761232204226056200,0.78405615234375,-0.08159873634576797,0.23773998022079468,0.4410041570663452
1761232204236126200,0.794126220703125,-0.07971265912055969,0.2934948801994324,0.415484219789505
1761232204246195200,0.8041953125,-0.10840608924627304,0.3876165747642517,0.4072747826576233
1761232204256265200,0.81426513671875,-0.1613190919160843,0.46365272998809814,0.41524574160575867
1761232204266334000,0.824333984375,-0.2197219431400299,0.4948734641075134,0.4255122244358063
1761232204276404200,0.834404296875,-0.2596336007118225,0.4795747995376587,0.44059672951698303
1761232204286473000,0.844472900390625,-0.27435582876205444,0.44858410954475403,0.4593043625354767
1761232204296543200,0.854543212890625,-0.27436912059783936,0.41501671075820923,0.4750014841556549
1761232204306612000,0.864612060546875,-0.28302040696144104,0.2901086211204529,0.45115792751312256
1761232204316681200,0.87468115234375,-0.2724168300628662,0.0066429562866687775,0.37602734565734863
1761232204326751000,0.8847509765625,-0.20381112396717072,-0.18316799402236938,0.2801612615585327
1761232204336820200,0.8948203125,-0.11680582910776138,-0.2731468677520752,0.15725106000900269
1761232204346890000,0.904889892578125,-0.0355575866997242,-0.3528140187263489,0.00527616823092103
1761232204356959200,0.914959228515625,0.018210304901003838,-0.42571350932121277,-0.14034387469291687
1761232204367029000,0.925029052734375,0.02798064425587654,-0.45286017656326294,-0.275235652923584
1761232204377098000,0.935097900390625,-0.0033713593147695065,-0.4183875024318695,-0.38321587443351746
1761232204387167000,0.9451669921875,-0.04566581919789314,-0.3156438171863556,-0.4433833360671997
1761232204397237000,0.955237060546875,-0.07701773196458817,-0.271159827709198,-0.4907093942165375
1761232204407306000,0.965305908203125,-0.059936489909887314,-0.1969849318265915,-0.49573904275894165
1761232204417376000,0.9753759765625,-0.007868248969316483,-0.1349065601825714,-0.48745420575141907
1761232204427445200,0.9854453125,0.05082356184720993,-0.15038032829761505,-0.484540730714798
1761232204437515000,0.995514892578125,0.09562790393829346,-0.1990516036748886,-0.48793137073516846
1761232204447584300,1.005584228515625,0.11154747754335403,-0.2756443917751312,-0.5099045634269714
1761232204457654000,1.015654052734375,0.11525487899780273,-0.3677269518375397,-0.5417537093162537
1761232204467723000,1.025722900390625,0.11453156173229218,-0.4413047432899475,-0.555242657661438
1761232204477792000,1.0357919921875,0.11879941821098328,-0.5024334192276001,-0.5422205328941345
1761232204487862000,1.045862060546875,0.11772296577692032,-0.5641084909439087,-0.5056042075157166
1761232204497931000,1.055930908203125,0.11242862045764923,-0.5716214776039124,-0.44223594665527344
1761232204508001000,1.0660009765625,0.10249902307987213,-0.5728347897529602,-0.38450685143470764
1761232204518070000,1.076070068359375,0.08954459428787231,-0.5563528537750244,-0.32798492908477783
1761232204528140000,1.08614013671875,0.08414183557033539,-0.47038257122039795,-0.2784578502178192
1761232204538209000,1.096208984375,0.08919204771518707,-0.35079842805862427,-0.23171934485435486
1761232204548279000,1.106279052734375,0.10432306677103043,-0.23694272339344025,-0.19146619737148285
1761232204558348300,1.116348388671875,0.13256287574768066,-0.14723476767539978,-0.15471063554286957
1761232204568417000,1.1264169921875,0.16221344470977783,-0.08343423157930374,-0.11139431595802307
1761232204578487000,1.136487060546875,0.19610005617141724,-0.06618768721818924,-0.07620756328105927
1761232204588556000,1.14655615234375,0.22429920732975006,-0.074845090508461,-0.044719148427248
1761232204598626000,1.1566259765625,0.24538493156433105,-0.08648908138275146,-0.010689899325370789
1761232204608695000,1.166695068359375,0.26023897528648376,-0.11237314343452454,0.017551325261592865
1761232204618765000,1.17676513671875,0.2651512324810028,-0.14826849102973938,0.04334188625216484
1761232204628834000,1.186833984375,0.2541092336177826,-0.20118655264377594,0.05729232355952263
1761232204638904000,1.196904052734375,0.22266578674316406,-0.24908296763896942,0.06756395846605301
1761232204648973000,1.20697314453125,0.18580123782157898,-0.24997644126415253,0.07987602055072784
1761232204659043000,1.21704296875,0.14577127993106842,-0.2090156227350235,0.08916103094816208
1761232204669112000,1.227112060546875,0.10254259407520294,-0.17980395257472992,0.08571063727140427
1761232204679181000,1.23718115234375,0.05936712026596069,-0.17159993946552277,0.06668996810913086
1761232204689251000,1.2472509765625,0.02912665717303753,-0.1337795853614807,0.06327499449253082
1761232204699320000,1.257320068359375,-0.004600756801664829,-0.06787433475255966,0.05859663709998131
1761232204709390000,1.26739013671875,-0.027453608810901642,0.011537397280335426,0.042037367820739746
1761232204719459000,1.277458984375,-0.043306488543748856,0.07745607942342758,0.015894539654254913
1761232204729529000,1.287529052734375,-0.04965279996395111,0.09639621526002884,-0.022195853292942047
1761232204739598000,1.29759814453125,-0.04689701274037361,0.08186379820108414,-0.05169886350631714
1761232204749667000,1.3076669921875,-0.03914961218833923,0.04962117224931717,-0.07243423163890839
1761232204759737000,1.317737060546875,-0.03478918969631195,-0.0032788915559649467,-0.07914862036705017
1761232204769806000,1.32780615234375,-0.0308061670511961,-0.01964747905731201,-0.05599243566393852
1761232204779876000,1.3378759765625,-0.023167723789811134,-0.03496972471475601,-0.022053686901926994
1761232204789945000,1.347945068359375,-0.01808268390595913,-0.06122396141290665,0.005284193437546492
1761232204800014800,1.358014892578125,-0.01668636128306389,-0.06287616491317749,0.03437664359807968
1761232204810084000,1.368083984375,-0.02235143631696701,-0.05603796988725662,0.05699007958173752
1761232204820153900,1.37815380859375,-0.04189731925725937,-0.029158562421798706,0.07720782607793808
1761232204830223000,1.38822314453125,-0.05786936357617378,0.029447227716445923,0.08763596415519714
1761232204840293000,1.398293212890625,-0.07573053240776062,0.08703885227441788,0.08069619536399841
1761232204850362000,1.408362060546875,-0.08620980381965637,0.1309991180896759,0.0646543800830841
1761232204860430800,1.418430908203125,-0.08662956953048706,0.16099676489830017,0.04003926366567612
1761232204870501000,1.428501220703125,-0.088137187063694,0.17797070741653442,0.016855116933584213
1761232204880570000,1.438570068359375,-0.08848433196544647,0.17831511795520782,-0.007101649418473244
1761232204890640100,1.44864013671875,-0.08192763477563858,0.16195160150527954,-0.021722668781876564
1761232204900709000,1.458709228515625,-0.06442418694496155,0.14935840666294098,-0.03323545679450035
1761232204910779000,1.46877880859375,-0.03369104489684105,0.13180950284004211,-0.039461925625801086
1761232204920848100,1.47884814453125,-0.007337475195527077,0.09434138238430023,-0.051242489367723465
1761232204930918000,1.48891796875,0.01421548705548048,0.039360158145427704,-0.05885673314332962
1761232204940987100,1.498987060546875,0.03871180862188339,-0.013522861525416374,-0.0628696158528328
1761232204951056100,1.50905615234375,0.05522793158888817,-0.0498339980840683,-0.047479741275310516
1761232204961126100,1.519126220703125,0.0658106878399849,-0.0625668466091156,-0.02692336030304432
1761232204971195000,1.52919482421875,0.05475563928484917,-0.05277546867728233,-0.010747319087386131
1761232204981265200,1.53926513671875,0.04143354669213295,-0.028733499348163605,-0.000730832340195775
1761232204991334000,1.549333984375,0.027101214975118637,0.0014947089366614819,-0.005971933249384165
1761232205001404200,1.559404052734375,0.02109535038471222,0.022508595138788223,-0.018273528665304184
1761232205011473200,1.56947314453125,0.026493310928344727,0.045368634164333344,-0.043121352791786194
1761232205021543000,1.57954296875,0.03683378919959068,0.052948132157325745,-0.06600812822580338
1761232205031612200,1.589612060546875,0.05293845757842064,0.03274725377559662,-0.08287020027637482
1761232205041681200,1.59968115234375,0.06870916485786438,0.0031322608701884747,-0.08622079342603683
1761232205051751200,1.609751220703125,0.0794808492064476,-0.0394333079457283,-0.07421260327100754
1761232205061820000,1.61981982421875,0.0725942850112915,-0.05996771156787872,-0.04708409309387207
1761232205071890200,1.62989013671875,0.045228976756334305,-0.06460188329219818,-0.009045627899467945
1761232205081959000,1.639958984375,0.00665624625980854,-0.052318863570690155,0.013525957241654396
1761232205092029200,1.650029296875,-0.020816657692193985,-0.03098507784307003,0.031162476167082787
1761232205102098000,1.660097900390625,-0.03694264963269234,-0.018109139055013657,0.029575485736131668
1761232205112168200,1.670168212890625,-0.03443874791264534,-0.015641190111637115,0.017041850835084915
1761232205122237000,1.68023681640625,-0.025281516835093498,-0.024102021008729935,0.0008155694231390953
1761232205132307000,1.690306884765625,-0.010948650538921356,-0.014219564385712147,-0.015753818675875664
1761232205142376200,1.700376220703125,0.0008211729000322521,0.017481040209531784,-0.03456047177314758
1761232205152445200,1.710445068359375,0.010060210712254047,0.05411841347813606,-0.048714373260736465
1761232205162515200,1.72051513671875,0.01923375204205513,0.07774817198514938,-0.05849782004952431
1761232205172584400,1.73058447265625,0.026527883484959602,0.08189071714878082,-0.05913165211677551
1761232205182654500,1.740654541015625,0.03186549246311188,0.07265760004520416,-0.04628973826766014
1761232205192723500,1.750723388671875,0.03782724589109421,0.04465898498892784,-0.024421190842986107
1761232205202793500,1.76079345703125,0.04036857187747955,0.014212852343916893,-0.005595803260803223
1761232205212862500,1.770862548828125,0.05170644819736481,-0.011969483457505703,0.01711270585656166
1761232205222932200,1.78093212890625,0.06258393079042435,-0.030549675226211548,0.03134668618440628
1761232205233001500,1.79100146484375,0.07562649250030518,-0.04891723021864891,0.04127468168735504
1761232205243070500,1.801070556640625,0.0841042697429657,-0.061216432601213455,0.04221261665225029
1761232205253140500,1.811140380859375,0.09199494868516922,-0.07392370700836182,0.03078073263168335
1761232205263209200,1.821209228515625,0.09002219885587692,-0.07978934794664383,0.014330015517771244
1761232205273279500,1.831279541015625,0.07785075902938843,-0.06817183643579483,-0.008702864870429039
1761232205283348500,1.841348388671875,0.06123027205467224,-0.046339914202690125,-0.033951349556446075
1761232205293418500,1.85141845703125,0.04107626900076866,-0.024496398866176605,-0.05646784231066704
1761232205303487500,1.861487548828125,0.02503068745136261,-0.01146834809333086,-0.07530639320611954
1761232205313557500,1.8715576171875,0.022292956709861755,0.0018842085264623165,-0.08206868916749954
1761232205323626500,1.88162646484375,0.023625636473298073,0.006854332983493805,-0.07781468331813812
1761232205333696300,1.8916962890625,0.03372114896774292,0.008939055725932121,-0.07024091482162476
1761232205343765500,1.901765625,0.04537050426006317,-0.007581725716590881,-0.05685067176818848
1761232205353834500,1.91183447265625,0.05282682180404663,-0.022992372512817383,-0.03817738592624664
1761232205363904500,1.921904541015625,0.04623677209019661,-0.032115913927555084,-0.017073146998882294
1761232205373973200,1.93197314453125,0.027186119928956032,-0.023168222978711128,0.006833252031356096
1761232205384043500,1.94204345703125,0.011293195188045502,-0.007715320214629173,0.030832868069410324
1761232205394112300,1.9521123046875,-0.007691148668527603,0.006838588509708643,0.05408040061593056
1761232205404182500,1.9621826171875,-0.016387522220611572,0.012930085882544518,0.06978999823331833
1761232205414251300,1.972251220703125,-0.013403450138866901,0.017677169293165207,0.07614562660455704
1761232205424321500,1.982321533203125,-0.007969867438077927,0.02066466584801674,0.07327143847942352
1761232205434390500,1.992390625,-0.0043655456975102425,0.03510725498199463,0.05420825630426407
1761232205444460300,2.002460205078125,0.0033741681836545467,0.0549297109246254,0.02857804112136364
1761232205454529500,2.012529541015625,0.01379405241459608,0.05963684618473053,0.0019898400641977787
1761232205464598500,2.0225986328125,0.021701877936720848,0.03625659644603729,-0.024925407022237778
1761232205474668500,2.03266845703125,0.023496314883232117,-0.0013704057782888412,-0.04083167016506195
1761232205484737300,2.0427373046875,0.025423916056752205,-0.03725985437631607,-0.048146240413188934
1761232205494807600,2.0528076171875,0.022072860971093178,-0.05315066874027252,-0.04229660704731941
1761232205504876300,2.062876220703125,0.029280001297593117,-0.0531117245554924,-0.03204004466533661
1761232205514946600,2.072946533203125,0.03381722792983055,-0.054285112768411636,-0.01249563880264759
1761232205525015300,2.083015380859375,0.03590978682041168,-0.042045217007398605,0.006977684795856476
1761232205535085300,2.093085205078125,0.03433958813548088,-0.01481705717742443,0.030257707461714745
1761232205545154300,2.103154296875,0.03217382729053497,0.018014397472143173,0.05007217079401016
1761232205555224300,2.113224365234375,0.029617726802825928,0.04688439518213272,0.06476616114377975
1761232205565293600,2.12329345703125,0.02355409413576126,0.05884663760662079,0.06356863677501678
1761232205575362600,2.133362548828125,0.022694425657391548,0.0525466650724411,0.0544331930577755
1761232205585432600,2.1434326171875,0.02819293551146984,0.03226630389690399,0.03809486702084541
1761232205595501300,2.153501220703125,0.041030436754226685,0.003085783217102289,0.018070295453071594
1761232205605571600,2.163571533203125,0.054205771535634995,-0.030399171635508537,0.0007936740294098854
1761232205615640300,2.173640380859375,0.06426133215427399,-0.0569615364074707,-0.011377237737178802
1761232205625710600,2.183710693359375,0.0585489422082901,-0.06716667860746384,-0.012479497119784355
1761232205635779300,2.193779296875,0.03880666196346283,-0.05990556627511978,-0.007956650108098984
1761232205645849300,2.203849365234375,0.018261535093188286,-0.04283038154244423,-0.006037123501300812
1761232205655918300,2.21391845703125,-0.009174617007374763,-0.02533794194459915,-0.009425463154911995
1761232205665988400,2.22398828125,-0.030448492616415024,-0.0015590647235512733,-0.02326524630188942
1761232205676057300,2.234057373046875,-0.039057690650224686,0.02875356748700142,-0.042496465146541595
1761232205686126600,2.244126708984375,-0.030620833858847618,0.042407579720020294,-0.05853406339883804
1761232205696196600,2.254196533203125,-0.013447441160678864,0.05409938842058182,-0.05221305042505264
1761232205706265300,2.264265380859375,-0.005007971078157425,0.045601557940244675,-0.035317547619342804
1761232205716335600,2.274335693359375,-0.009682084433734417,0.03213128820061684,-0.012148313224315643
1761232205726404400,2.284404296875,-0.01805069111287594,0.027646001428365707,0.011796731501817703
1761232205736474600,2.294474609375,-0.027530211955308914,0.02145521715283394,0.022257361561059952
1761232205746543400,2.30454345703125,-0.032578736543655396,0.007164186332374811,0.020956212654709816
1761232205756613400,2.31461328125,-0.025524023920297623,-0.005739894695580006,0.016677578911185265
1761232205766682400,2.324682373046875,-0.012026666663587093,-0.00349537655711174,0.010908919386565685
1761232205776752400,2.33475244140625,-0.0018741643289104104,-0.006569463759660721,0.003872848115861416
1761232205786821400,2.3448212890625,0.011223942041397095,-0.007152550853788853,-0.003587827319279313
1761232205796890600,2.354890625,0.02082836627960205,-0.005057974718511105,-0.012622600421309471
1761232205806960400,2.36496044921875,0.03076920658349991,-0.007988856174051762,-0.015426862984895706
1761232205817029400,2.375029296875,0.024841276928782463,-0.0056109195575118065,-0.014794094488024712
1761232205827099600,2.385099609375,0.010495159775018692,0.0005002757534384727,-0.009362993761897087
1761232205837168400,2.39516845703125,-0.0069762421771883965,0.008796288631856441,-0.005036955699324608
1761232205847238700,2.40523876953125,-0.014606085605919361,0.005553100258111954,-0.007699288427829742
1761232205857307400,2.415307373046875,-0.015747517347335815,0.0019698170945048332,-0.01611700840294361
1761232205867377400,2.42537744140625,-0.012725681066513062,-0.00733774621039629,-0.02430461160838604
1761232205877446400,2.4354462890625,-0.010448945686221123,-0.024779319763183594,-0.031674377620220184
1761232205887516400,2.445516357421875,-0.0061583975329995155,-0.021952524781227112,-0.036471713334321976
1761232205897585400,2.45558544921875,0.0021991345565766096,-0.014031218364834785,-0.031643401831388474
1761232205907654400,2.465654296875,0.012434390373528004,0.0006314623169600964,-0.028270427137613297
1761232205917724400,2.475724365234375,0.02110564336180687,0.01108197309076786,-0.021950745955109596
1761232205927793400,2.48579345703125,0.025860538706183434,0.02058541402220726,-0.013954482972621918
1761232205937863400,2.495863525390625,0.026882126927375793,0.004390731919556856,-0.005461661610752344
1761232205947932400,2.505932373046875,0.01657622680068016,-0.03242427483201027,0.0030181091278791428
1761232205958002400,2.51600244140625,-0.0006035587284713984,-0.05872511863708496,0.0002944944426417351
1761232205968071400,2.526071533203125,-0.00949824508279562,-0.046978339552879333,0.006796138361096382
1761232205978141400,2.536141357421875,-0.015817126259207726,-0.006951560266315937,0.003232561983168125
1761232205988210400,2.54621044921875,-0.011739667505025864,0.029393646866083145,-0.007948244921863079
1761232205998280400,2.556280517578125,0.00546302180737257,0.0441502220928669,-0.015240512788295746
1761232206008349400,2.566349365234375,0.021685145795345306,0.046915870159864426,-0.01980370469391346
1761232206018418400,2.57641845703125,0.029335342347621918,0.02761940471827984,-0.019965091720223427
1761232206028488400,2.586488525390625,0.024130668491125107,-0.009125754237174988,-0.017480412498116493
1761232206038557400,2.596557373046875,0.016340123489499092,-0.03441646322607994,-0.00762032438069582
1761232206048627500,2.60662744140625,0.004424075596034527,-0.03831107169389725,0.0040587023831903934
1761232206058696400,2.616696533203125,0.0002186778001487255,-0.03103584796190262,0.010791705921292305
1761232206068766500,2.626766357421875,0.0007683064904995263,-0.020487569272518158,0.019569041207432747
1761232206078835500,2.63683544921875,0.003957175649702549,-0.012316991575062275,0.01610426791012287
1761232206088905200,2.6469052734375,0.010609539225697517,-0.00437616091221571,0.013180630281567574
1761232206098974500,2.656974365234375,0.010941902175545692,0.011958337388932705,0.007557897362858057
1761232206109044500,2.66704443359375,0.010737566277384758,0.03191724792122841,0.003424221184104681
1761232206119113500,2.677113525390625,0.008816627785563469,0.041046030819416046,-0.0009220577776432037
1761232206129182500,2.687182373046875,0.001549844047985971,0.04250214248895645,-0.006679863668978214
1761232206139252500,2.69725244140625,-0.004522962030023336,0.033311836421489716,-0.01649254746735096
1761232206149321500,2.707321533203125,-0.00460236007347703,0.014753319323062897,-0.02022181637585163
1761232206159391500,2.7173916015625,0.0019487497629597783,-0.0015849079936742783,-0.022594159469008446
1761232206169460500,2.72746044921875,0.009862392209470272,-0.00998565461486578,-0.0246596597135067
1761232206179530800,2.73753076171875,0.010555080138146877,-0.009399226866662502,-0.01973840408027172
1761232206189600000,2.74760009765625,0.00868285447359085,-0.009754672646522522,-0.018279261887073517
1761232206199669800,2.757669677734375,0.005923553369939327,0.003210927825421095,-0.011754517443478107
1761232206209739000,2.767739013671875,-0.0030418364331126213,0.007972694002091885,-0.014711057767271996
1761232206219809000,2.77780908203125,-0.009765252470970154,0.02133403904736042,-0.01342075690627098
1761232206229878000,2.7878779296875,-0.01134356576949358,0.04143428057432175,-0.015487800352275372
1761232206239946800,2.79794677734375,-0.005291532725095749,0.062125708907842636,-0.013740766793489456
1761232206250017000,2.80801708984375,0.007741580717265606,0.07061419636011124,-0.010958261787891388
1761232206260086000,2.8180859375,0.021806268021464348,0.06071442365646362,-0.004424995742738247
1761232206270156000,2.828156005859375,0.02902916818857193,0.040722109377384186,0.004793372470885515
1761232206280225000,2.83822509765625,0.027860039845108986,0.0043180277571082115,0.011358598247170448
1761232206290294800,2.848294677734375,0.02515045925974846,-0.00886472500860691,0.01403155829757452
1761232206300364000,2.858364013671875,0.018822520971298218,-0.011247722432017326,0.013205445371568203
1761232206310433800,2.868433837890625,0.019533254206180573,-0.002015114761888981,0.000722560565918684
1761232206320503000,2.8785029296875,0.022692827507853508,0.023399963974952698,-0.009673088788986206
1761232206330572800,2.88857275390625,0.027693109586834908,0.03638432174921036,-0.028724461793899536
1761232206340642000,2.89864208984375,0.033219967037439346,0.043653152883052826,-0.045016348361968994
1761232206350710800,2.908710693359375,0.04349071905016899,0.046823758631944656,-0.05377515032887459
1761232206360781000,2.918781005859375,0.05511381849646568,0.049716219305992126,-0.05145846679806709
1761232206370849800,2.928849853515625,0.05834154412150383,0.03943437337875366,-0.03712134063243866
1761232206380919800,2.938919921875,0.05104075372219086,0.022852733731269836,-0.0171500314027071
1761232206390988800,2.94898876953125,0.03798490762710571,0.010136429220438004,0.008587092161178589
1761232206401058800,2.959058837890625,0.02171059511601925,0.006056200712919235,0.02676183357834816
1761232206411128000,2.969128173828125,0.003507302375510335,0.005486467387527227,0.027569063007831573
1761232206421197800,2.97919775390625,-0.0034619239158928394,0.009868965484201908,0.025350648909807205
1761232206431267000,2.98926708984375,-0.0015628236578777432,0.02146250382065773,0.008811085484921932
1761232206441336800,2.9993369140625,-0.004094158299267292,0.026431962847709656,-0.012422829866409302
1761232206451406000,3.009406005859375,0.005974147468805313,0.02896358259022236,-0.028013715520501137
1761232206461475800,3.019475830078125,0.01101178303360939,0.021016176789999008,-0.042624883353710175
1761232206471545000,3.029545166015625,0.02017921209335327,0.004697417374700308,-0.04965236037969589
1761232206481613800,3.03961376953125,0.020012497901916504,-0.014351374469697475,-0.0490555465221405
1761232206491683800,3.049683837890625,0.018361462280154228,-0.02802514284849167,-0.03400106355547905
1761232206501752800,3.0597529296875,0.016399512067437172,-0.030674990266561508,-0.015855617821216583
1761232206511822800,3.06982275390625,0.007175985258072615,-0.0317910835146904,0.007997367531061172
1761232206521891800,3.079891845703125,-0.008668226189911366,-0.019181279465556145,0.0291612409055233
1761232206531961900,3.0899619140625,-0.0287953969091177,-0.0016462663188576698,0.03608214855194092
1761232206542031000,3.100031005859375,-0.040579088032245636,0.017495470121502876,0.019160689786076546
1761232206552100900,3.110100830078125,-0.03527306392788887,0.03705619275569916,-0.0023843315429985523
1761232206562170000,3.120170166015625,-0.021685348823666573,0.05098425969481468,-0.027584493160247803
1761232206572240000,3.130239990234375,-0.004668554291129112,0.05017188563942909,-0.046230949461460114
1761232206582309000,3.14030908203125,0.010215852409601212,0.021538909524679184,-0.05471391603350639
1761232206592377900,3.1503779296875,0.018586434423923492,-0.01903994381427765,-0.05039746314287186
1761232206602448000,3.16044775390625,0.020810173824429512,-0.0580160990357399,-0.03780097886919975
1761232206612516900,3.170516845703125,0.02079414203763008,-0.07798909395933151,-0.025986110791563988
1761232206622587000,3.1805869140625,0.016418036073446274,-0.08109807223081589,-0.01128572877496481
1761232206632656000,3.19065576171875,0.012256443500518799,-0.07096998393535614,-0.0020256852731108665
1761232206642726000,3.200725830078125,0.01307696383446455,-0.04837040603160858,0.004886282607913017
1761232206652795000,3.210794921875,0.016179818660020828,-0.012753444723784924,0.005657336208969355
1761232206662865000,3.220864990234375,0.016597136855125427,0.006048206239938736,0.004530286882072687
1761232206672934100,3.23093408203125,0.018896237015724182,0.010390379466116428,0.0029363161884248257
1761232206683004000,3.24100390625,0.009069439023733139,0.019252315163612366,0.007866360247135162
1761232206693073200,3.2510732421875,-0.0018759575905278325,0.016628149896860123,0.009343164041638374
1761232206703142000,3.261141845703125,-0.01173657737672329,0.005851669702678919,0.01648416370153427
1761232206713212000,3.2712119140625,-0.013802752830088139,-0.005834078416228294,0.014067426323890686
1761232206723281000,3.281281005859375,-0.008689217269420624,-0.007597889751195908,0.01409059576690197
1761232206733351000,3.291350830078125,-0.009336471557617188,-0.011852718889713287,0.009440751746296883
1761232206743420000,3.301419921875,-0.013891275972127914,-0.0024160752072930336,0.001192410010844469
1761232206753490000,3.311489990234375,-0.026932522654533386,0.011932015419006348,-0.008586853742599487
1761232206763559000,3.321558837890625,-0.025834765285253525,0.03358990699052811,-0.017002709209918976
1761232206773629000,3.33162890625,-0.024538902565836906,0.05573498457670212,-0.026027334854006767
1761232206783698000,3.341697998046875,-0.024478983134031296,0.0631265863776207,-0.03333877772092819
1761232206793768000,3.351767822265625,-0.01883917674422264,0.06003935635089874,-0.028867356479167938
1761232206803837200,3.361837158203125,-0.01133864838629961,0.04541993513703346,-0.02286725491285324
1761232206813906000,3.371906005859375,0.00378639018163085,0.015647005289793015,-0.016460850834846497
1761232206823976000,3.381975830078125,0.01969025656580925,-0.006906242109835148,-0.010080981999635696
1761232206834045000,3.392044921875,0.028050661087036133,-0.022423887625336647,-0.006618409417569637
1761232206844115000,3.402114990234375,0.024088943377137184,-0.024034833535552025,-0.011437665671110153
1761232206854184000,3.412183837890625,0.013823169283568859,-0.014422781765460968,-0.019234901294112206
1761232206864254000,3.42225390625,-0.00019304698798805475,0.012433333322405815,-0.02936583384871483
1761232206874323000,3.432322998046875,-0.0076759373769164085,0.012366682291030884,-0.041263457387685776
1761232206884393000,3.44239306640625,-0.005766450893133879,0.023921338841319084,-0.047086458653211594
1761232206894462000,3.4524619140625,0.003806216176599264,0.033586446195840836,-0.05078650265932083
1761232206904532000,3.462531982421875,0.007850492373108864,0.021889308467507362,-0.04778112843632698
1761232206914601000,3.47260107421875,0.007722139824181795,0.003436488099396229,-0.03474002331495285
1761232206924671000,3.4826708984375,0.006172978784888983,-0.020100263878703117,-0.024424003437161446
1761232206934739700,3.49273974609375,0.0021380295511335135,-0.024261340498924255,-0.010871108621358871
1761232206944809000,3.50280908203125,-0.007408870384097099,-0.02321764826774597,-0.003113320330157876
1761232206954879000,3.51287890625,-0.022707724943757057,-0.019087281078100204,0.001901630312204361
1761232206964948000,3.522947998046875,-0.037016090005636215,-0.011543077416718006,-0.003462775144726038
1761232206975018000,3.53301806640625,-0.0410868339240551,0.007858410477638245,-0.005031900014728308
1761232206985087000,3.5430869140625,-0.04223518818616867,0.020254626870155334,-0.008179223164916039
1761232206995157000,3.553156982421875,-0.032328687608242035,0.030845900997519493,-0.009109282866120338
1761232207005226000,3.56322607421875,-0.021814797073602676,0.023583728820085526,-0.014945866540074348
1761232207015296000,3.5732958984375,-0.01567811518907547,0.011089647188782692,-0.01150117814540863
1761232207025365000,3.583364990234375,-0.011597886681556702,-0.009233467280864716,-0.006549829617142677
1761232207035435000,3.59343505859375,-0.0043060751631855965,-0.028815697878599167,0.000744289718568325
1761232207045503700,3.603503662109375,0.000011175288818776608,-0.04025716707110405,0.015921644866466522
1761232207055573000,3.613572998046875,-0.0029894793406128883,-0.029179900884628296,0.03012409806251526
1761232207065642800,3.623642822265625,-0.015268515795469284,-0.009725241921842098,0.03890400752425194
1761232207075712000,3.6337119140625,-0.026224151253700256,0.011820790357887745,0.04237302765250206
1761232207085782000,3.643781982421875,-0.02781725488603115,0.028032783418893814,0.037105828523635864
1761232207095851000,3.65385107421875,-0.026018064469099045,0.023527801036834717,0.02830679900944233
1761232207105921000,3.663921142578125,-0.014535577036440372,0.012780082412064075,0.013638639822602272
1761232207115990000,3.673989990234375,-0.0009167521493509412,-0.008226105011999607,-0.0017330378759652376
1761232207126060000,3.68406005859375,0.0170353502035141,-0.029765218496322632,-0.01010788045823574
1761232207136129000,3.69412890625,0.027425045147538185,-0.03570226579904556,-0.012112896889448166
1761232207146199000,3.704198974609375,0.024825001135468483,-0.028730645775794983,-0.005258718505501747
1761232207156267800,3.714267822265625,0.01705571450293064,-0.018854813650250435,-0.004386980086565018
1761232207166337000,3.7243369140625,0.00471116416156292,-0.004901980981230736,-0.003082563867792487
1761232207176406300,3.73440625,-0.00839115772396326,0.00877663865685463,-0.011303728446364403
1761232207186475500,3.7444755859375,-0.016745492815971375,0.0025938432663679123,-0.03102869540452957
1761232207196545500,3.754545654296875,-0.0162934772670269,-0.0015295334160327911,-0.04851929098367691
1761232207206614500,3.764614501953125,0.0021033729426562786,-0.0020909281447529793,-0.06777021288871765
1761232207216684500,3.7746845703125,0.027454707771539688,-0.009353842586278915,-0.07894493639469147
1761232207226753500,3.78475341796875,0.05597769469022751,-0.01865333504974842,-0.07450544834136963
1761232207236823600,3.794823486328125,0.07544759660959244,-0.02565927430987358,-0.05334944278001785
1761232207246892500,3.804892578125,0.07742100208997726,-0.024479493498802185,-0.021338246762752533
1761232207256962600,3.814962646484375,0.06885027885437012,-0.022902026772499084,0.021031014621257782
1761232207267031600,3.825031494140625,0.06061631813645363,-0.029662728309631348,0.04989408701658249
1761232207277100500,3.8351005859375,0.05024369806051254,-0.05256940424442291,0.06770786643028259
1761232207287170300,3.84517041015625,0.045379433780908585,-0.04798530787229538,0.07310768961906433
1761232207297239600,3.855239501953125,0.03945021331310272,-0.034949276596307755,0.06474281847476959
1761232207307309300,3.865309326171875,0.03046310879290104,-0.027499083429574966,0.04794999212026596
1761232207317378600,3.875378662109375,0.025173302739858627,-0.018410487100481987,0.023949921131134033
1761232207327448300,3.8854482421875,0.016853852197527885,-0.008962124586105347,0.009273240342736244
1761232207337517600,3.895517578125,0.00913023017346859,-0.013180045410990715,-0.0019882172346115112
1761232207347587600,3.905587646484375,0.0009932075627148151,-0.018705038353800774,-0.004131529480218887
1761232207357656600,3.915656494140625,-0.0028765015304088593,-0.02198198065161705,-0.002940331120043993
1761232207367726600,3.9257265625,-0.008370336145162582,-0.012724033556878567,0.00395192950963974
1761232207377795600,3.935795654296875,-0.010170345194637775,-0.007286214269697666,0.0018413849174976349
1761232207387864600,3.945864501953125,-0.010288323275744915,-0.001079983077943325,0.00010926509276032448
1761232207397934300,3.955934326171875,-0.010834548622369766,0.008853651583194733,-0.0013372369576245546
1761232207408003600,3.966003662109375,-0.004049346782267094,0.013860661536455154,-0.00362595752812922
1761232207418073300,3.9760732421875,0.00954713299870491,0.007974364794790745,-0.006653979420661926
1761232207428142600,3.986142578125,0.021682891994714737,-0.009799039922654629,-0.005633456166833639
1761232207438212400,3.99621240234375,0.026829918846488,-0.026432916522026062,0.0009140758775174618
1761232207448281600,4.006281494140625,0.028793467208743095,-0.03606130927801132,-0.0005898112431168556
1761232207458351400,4.016351318359375,0.025107184424996376,-0.028103478252887726,0.0017413697205483913
1761232207468420600,4.026420654296875,0.027574604377150536,-0.009297567419707775,0.0001413426361978054
1761232207478490600,4.03649072265625,0.022375939413905144,0.009241558611392975,0.0024656755849719048
1761232207488559400,4.046559326171875,0.01423385739326477,0.030858969315886497,0.005083563271909952
1761232207498628400,4.05662841796875,0.012444255873560905,0.04557492583990097,0.014421246945858002
1761232207508698400,4.066698486328125,0.017656860873103142,0.04293573275208473,0.02493354119360447
1761232207518767600,4.076767578125,0.01764068752527237,0.038688406348228455,0.03605854883790016
1761232207528837400,4.08683740234375,0.02389245666563511,0.03865645080804825,0.040782198309898376
1761232207538906600,4.09690673828125,0.023819392547011375,0.03243950381875038,0.04497968405485153
1761232207548976400,4.106976318359375,0.026221031323075294,0.025659628212451935,0.047104887664318085
1761232207559045600,4.117045654296875,0.026458602398633957,0.02495555579662323,0.0469767227768898
1761232207569115400,4.127115478515625,0.02087981253862381,0.018308306112885475,0.040146779268980026
1761232207579184600,4.1371845703125,0.014359868131577969,0.010836918838322163,0.03217334300279617
1761232207589254400,4.14725439453125,0.005974905099719763,0.0032237404957413673,0.01832810416817665
1761232207599323400,4.157323486328125,-0.012391981668770313,-0.0019356794655323029,-0.0010191951878368855
1761232207609393700,4.1673935546875,-0.02683963067829609,-0.00871901772916317,-0.029391715303063393
1761232207619462400,4.17746240234375,-0.0367877222597599,-0.0104597806930542,-0.05290379375219345
1761232207629531400,4.187531494140625,-0.041383806616067886,-0.0031541967764496803,-0.07121489197015762
1761232207639601400,4.197601318359375,-0.04636414721608162,0.012956344522535801,-0.07791029661893845
1761232207649670700,4.207670654296875,-0.05624048039317131,0.03956132382154465,-0.06977859884500504
1761232207659740400,4.217740478515625,-0.06578497588634491,0.044106919318437576,-0.05985027179121971
1761232207669809700,4.2278095703125,-0.06957092881202698,0.026034707203507423,-0.04203558713197708
1761232207679879400,4.23787939453125,-0.062272630631923676,-0.00519651360809803,-0.025363320484757423
1761232207689948700,4.24794873046875,-0.04825880751013756,-0.02632763236761093,-0.01216709055006504
1761232207700018400,4.258018310546875,-0.04473548382520676,-0.021525166928768158,0.00260834489017725
1761232207710087400,4.26808740234375,-0.04637891799211502,0.008142181672155857,0.01305113174021244
1761232207720157400,4.278157470703125,-0.05504368618130684,0.023831456899642944,0.02050631120800972
1761232207730226400,4.288226318359375,-0.06394396722316742,0.03980962559580803,0.02315535768866539
1761232207740295400,4.29829541015625,-0.05878305807709694,0.04955517500638962,0.020900383591651917
1761232207750365400,4.308365478515625,-0.05619819462299347,0.04973919689655304,0.01075294055044651
1761232207760434400,4.318434326171875,-0.04663851484656334,0.044393591582775116,-0.006090289447456598
1761232207770504400,4.32850439453125,-0.037761133164167404,0.03140588849782944,-0.020694799721240997
1761232207780573400,4.338573486328125,-0.023373939096927643,0.01613771729171276,-0.03472379967570305
1761232207790643500,4.3486435546875,-0.011708496138453484,0.002575569786131382,-0.05132408067584038
1761232207800712700,4.358712646484375,-0.0013152856845408678,0.003883855417370796,-0.06300454586744308
1761232207810782500,4.368782470703125,-0.0016388597432523966,0.007783521898090839,-0.07912120223045349
1761232207820851500,4.3788515625,-0.008811775594949722,0.015164066106081009,-0.09424678236246109
1761232207830921500,4.38892138671875,-0.019471611827611923,0.014677505940198898,-0.10354920476675034
1761232207840990500,4.398990478515625,-0.019490785896778107,0.00043172575533390045,-0.11186012625694275
1761232207851059500,4.4090595703125,-0.028524495661258698,-0.017047932371497154,-0.1218792051076889
1761232207861129500,4.41912939453125,-0.03398064151406288,-0.029988311231136322,-0.12738846242427826
1761232207871198500,4.429198486328125,-0.043208759278059006,-0.024657193571329117,-0.12958796322345734
1761232207881268500,4.4392685546875,-0.05130356550216675,-0.00645045842975378,-0.1181570366024971
1761232207891337500,4.44933740234375,-0.055612824857234955,0.011902716010808945,-0.09436356276273727
1761232207901407500,4.459407470703125,-0.04993110150098801,0.03810388222336769,-0.061782144010066986
1761232207911476500,4.4694765625,-0.03802437335252762,0.04972485080361366,-0.019960395991802216
1761232207921546500,4.47954638671875,-0.005435402505099773,0.04411002993583679,0.024289658293128014
1761232207931615500,4.489615478515625,0.03170157968997955,0.03128957375884056,0.06538942456245422
1761232207941685500,4.499685546875,0.06310977041721344,0.017497289925813675,0.09780130535364151
1761232207951754500,4.50975439453125,0.07689668983221054,0.017494894564151764,0.11995348334312439
1761232207961823500,4.519823486328125,0.0857916995882988,0.023162029683589935,0.13075664639472961
1761232207971893500,4.5298935546875,0.08414400368928909,0.023346584290266037,0.1295987069606781
1761232207981962500,4.53996240234375,0.08878765255212784,0.018939033150672913,0.1135464459657669
1761232207992032500,4.550032470703125,0.1046031042933464,-0.005370833911001682,0.08349213749170303
1761232208002101500,4.5601015625,0.12017738819122314,-0.035107292234897614,0.045902807265520096
1761232208012171500,4.570171630859375,0.14004084467887878,-0.06277167052030563,0.004447510000318289
1761232208022240500,4.580240478515625,0.15644387900829315,-0.07959001511335373,-0.03971872478723526
1761232208032310500,4.590310546875,0.16704006493091583,-0.0814952403306961,-0.0740111842751503
1761232208042379300,4.600379150390625,0.17582112550735474,-0.06739625334739685,-0.08601819723844528
1761232208052449500,4.610449462890625,0.17655882239341736,-0.05362504720687866,-0.07769741117954254
1761232208062518500,4.6205185546875,0.1795155256986618,-0.03709791600704193,-0.053450148552656174
1761232208072588500,4.630588623046875,0.18179118633270264,-0.02781600132584572,-0.02731628343462944
1761232208082657500,4.640657470703125,0.18281278014183044,-0.03581496328115463,0.0011953203938901424
1761232208092726500,4.6507265625,0.18285726010799408,-0.06817130744457245,0.019260339438915253
1761232208102796500,4.660796630859375,0.1911574751138687,-0.10398499667644501,0.02473488450050354
1761232208112865500,4.670865478515625,0.2019248902797699,-0.14222747087478638,0.013655602931976318
1761232208122935600,4.680935546875,0.20542508363723755,-0.17085713148117065,-0.0015360661782324314
1761232208133004500,4.691004638671875,0.2004186064004898,-0.18250499665737152,-0.022504199296236038
1761232208143074600,4.701074462890625,0.19282548129558563,-0.17885126173496246,-0.03879936784505844
1761232208153143300,4.711143310546875,0.17407362163066864,-0.16537806391716003,-0.03734394907951355
1761232208163213600,4.721213623046875,0.14740782976150513,-0.14713557064533234,-0.0291682668030262
1761232208173282300,4.7312822265625,0.11448369920253754,-0.12694509327411652,-0.015412506647408009
1761232208183352300,4.741352294921875,0.08405712991952896,-0.09492204338312149,0.003551171626895666
1761232208193421300,4.75142138671875,0.04997425526380539,-0.09181173890829086,0.01706351898610592
1761232208203490300,4.761490234375,0.016496609896421432,-0.0853826105594635,0.03704625368118286
1761232208213560300,4.771560302734375,-0.017380664125084877,-0.09114595502614975,0.05068403482437134
1761232208223629300,4.78162939453125,-0.041591744869947433,-0.0862806886434555,0.057018425315618515
1761232208233699300,4.79169921875,-0.05569691210985184,-0.05743466317653656,0.051055341958999634
1761232208243768300,4.801768310546875,-0.056399866938591,-0.029837802052497864,0.03628554567694664
1761232208253838300,4.81183837890625,-0.040109045803546906,-0.00571382325142622,0.013022301718592644
1761232208263907300,4.8219072265625,-0.007530665025115013,0.010045016184449196,-0.01743112877011299
1761232208273977300,4.831977294921875,0.02221870794892311,0.02259303256869316,-0.031039882451295853
1761232208284046300,4.84204638671875,0.03371419385075569,0.031770847737789154,-0.03196604177355766
1761232208294116400,4.852116455078125,0.0329650454223156,0.022814102470874786,-0.018184183165431023
1761232208304185300,4.862185302734375,0.025106005370616913,-0.0020290110260248184,0.008464492857456207
1761232208314254300,4.87225439453125,0.013662402518093586,-0.04064830765128136,0.03630145266652107
1761232208324324400,4.882324462890625,0.010993283241987228,-0.08487240225076675,0.0539315864443779
1761232208334393300,4.892393310546875,0.014966719783842564,-0.10204419493675232,0.054874878376722336
1761232208344463400,4.90246337890625,0.02433861419558525,-0.09219025820493698,0.040310006588697433
1761232208354532400,4.912532470703125,0.03758331388235092,-0.07116007059812546,0.01849738508462906
1761232208364602400,4.922602294921875,0.04104307293891907,-0.0435527041554451,-0.006189674139022827
1761232208374671000,4.932671142578125,0.045057520270347595,-0.008888732641935349,-0.03188944235444069
1761232208384741400,4.942741455078125,0.05191538482904434,0.00853620283305645,-0.05649369955062866
1761232208394810000,4.95281005859375,0.06014641746878624,0.011500300839543343,-0.07062496989965439
1761232208404880400,4.96288037109375,0.06851209700107574,0.009726084768772125,-0.07908961921930313
1761232208414948400,4.9729482421875,0.07838603854179382,0.005555841140449047,-0.07362321019172668
1761232208425018400,4.983018310546875,0.07986526936292648,-0.015442796982824802,-0.06887202709913254
1761232208435087000,4.993087158203125,0.0859585851430893,-0.037320930510759354,-0.06842461973428726
1761232208445157400,5.003157470703125,0.09554951637983322,-0.05808218568563461,-0.06388780474662781
1761232208455226400,5.013226318359375,0.09945956617593765,-0.07071062922477722,-0.058589983731508255
1761232208465296400,5.02329638671875,0.09344452619552612,-0.06589235365390778,-0.055817101150751114
1761232208475365400,5.033365478515625,0.07956519722938538,-0.043729789555072784,-0.05536409839987755
1761232208485435100,5.04343505859375,0.06258139759302139,-0.01737094484269619,-0.05212080851197243
1761232208495504400,5.05350439453125,0.04581839591264725,0.00814586691558361,-0.05063529685139656
1761232208505573400,5.063573486328125,0.039866480976343155,0.017501218244433403,-0.05076759681105614
1761232208515643400,5.073643310546875,0.04490251839160919,0.01438718382269144,-0.051836855709552765
1761232208525712100,5.083712158203125,0.05003257840871811,0.0029097148217260838,-0.05328255146741867
1761232208535782400,5.093782470703125,0.05473572015762329,0.004145687911659479,-0.04702438786625862
1761232208545851100,5.10385107421875,0.05728244408965111,0.010841213166713715,-0.0378652885556221
1761232208555921400,5.11392138671875,0.05312125384807587,0.011703544296324253,-0.031342677772045135
1761232208565990100,5.123990234375,0.0480365976691246,0.009349165484309196,-0.02313471958041191
1761232208576060400,5.134060302734375,0.03471360355615616,-0.007918504998087883,-0.02144254744052887
1761232208586129400,5.14412939453125,0.022899789735674858,-0.0019087204709649086,-0.011810395866632462
1761232208596199200,5.15419921875,0.00951873604208231,0.010027035139501095,-0.004329577088356018
1761232208606268400,5.164268310546875,-0.010959917679429054,0.025798585265874863,-0.000004209112375974655
1761232208616337400,5.17433740234375,-0.03614729642868042,0.051746830344200134,0.005718924570828676
1761232208626407400,5.184407470703125,-0.061436571180820465,0.06486466526985168,0.006015293765813112
1761232208636476200,5.19447607421875,-0.08037776499986649,0.07084851711988449,-0.0001139715313911438
1761232208646546400,5.20454638671875,-0.10145583003759384,0.06836307048797607,-0.015024762600660324
1761232208656615200,5.214615234375,-0.1067318245768547,0.06312969326972961,-0.035067711025476456
1761232208666685400,5.224685546875,-0.10759911686182022,0.050829414278268814,-0.05767376720905304
1761232208676754200,5.234754150390625,-0.09590970724821091,0.03924679756164551,-0.07222981005907059
1761232208686824400,5.244824462890625,-0.08249806612730026,0.029919467866420746,-0.08721742033958435
1761232208696893200,5.25489306640625,-0.06625118851661682,0.019130203872919083,-0.09666232019662857
1761232208706963200,5.264963134765625,-0.043704476207494736,0.009828289970755577,-0.09974979609251022
1761232208717032400,5.275032470703125,-0.02260931208729744,-0.004072344861924648,-0.10369020700454712
1761232208727102200,5.285102294921875,-0.007582306861877441,-0.014217535965144634,-0.10054012387990952
1761232208737171500,5.29517138671875,-0.005899988114833832,-0.01993374526500702,-0.09386757016181946
1761232208747240200,5.305240234375,-0.014368308708071709,-0.016225557774305344,-0.08755294978618622
1761232208757310500,5.315310546875,-0.025595396757125854,-0.011776748113334179,-0.08075682818889618
1761232208767379200,5.325379150390625,-0.03232841566205025,0.003151800949126482,-0.07247007638216019
1761232208777449500,5.335449462890625,-0.030084703117609024,0.013757040724158287,-0.06922900676727295
1761232208787518200,5.345518310546875,-0.018445558845996857,0.017263930290937424,-0.06772181391716003
1761232208797588200,5.355588134765625,-0.004289261065423489,-0.0034565282985568047,-0.06916205585002899
1761232208807657200,5.3656572265625,0.008663040585815907,-0.015153063461184502,-0.06654822081327438
1761232208817727200,5.375727294921875,0.021271510049700737,-0.034438878297805786,-0.05003049597144127
1761232208827796200,5.385796142578125,0.024957863613963127,-0.046971604228019714,-0.033408839255571365
1761232208837866200,5.3958662109375,0.01931063085794449,-0.05061427503824234,-0.0075415559113025665
1761232208847935200,5.405935302734375,0.012464246712625027,-0.04481295868754387,0.01877651736140251
1761232208858004200,5.416004150390625,-0.002478749956935644,-0.02268741838634014,0.036127280443906784
1761232208868074500,5.426074462890625,-0.008923504501581192,-0.015192276798188686,0.04571395367383957
1761232208878143200,5.436143310546875,-0.022962091490626335,-0.0009190645068883896,0.04709560051560402
1761232208888213500,5.446213623046875,-0.02817699871957302,-0.020056474953889847,0.04342355579137802
1761232208898282200,5.4562822265625,-0.03198026120662689,-0.012901360169053078,0.03397705778479576
1761232208908352300,5.466352294921875,-0.02928033657371998,-0.01592276245355606,0.02137511596083641
1761232208918421200,5.476421142578125,-0.025435796007514,-0.005547884851694107,0.0040291487239301205
1761232208928491300,5.4864912109375,-0.012003893963992596,-0.008719777688384056,-0.015355408191680908
1761232208938560300,5.496560302734375,0.005284548737108707,-0.00666434969753027,-0.023826656863093376
1761232208948630300,5.50663037109375,0.013062925077974796,0.00552664278075099,-0.03726677596569061
1761232208958699300,5.51669921875,0.014086377806961536,0.0012048650532960892,-0.03388109803199768
1761232208968768300,5.526768310546875,0.0025324320886284113,0.008896921761333942,-0.02816235087811947
1761232208978838300,5.53683837890625,-0.01579863764345646,0.030257603153586388,-0.02462594024837017
1761232208988907300,5.5469072265625,-0.030382586643099785,0.054573412984609604,-0.026129845529794693
1761232208998977500,5.5569775390625,-0.027738867327570915,0.07351567596197128,-0.030695568770170212
1761232209009046300,5.56704638671875,-0.011767339892685413,0.08439609408378601,-0.032193928956985474
1761232209019116300,5.5771162109375,0.0119896549731493,0.07466569542884827,-0.02693684585392475
1761232209029185300,5.587185302734375,0.03570050373673439,0.05078738182783127,-0.02234414406120777
1761232209039255300,5.59725537109375,0.04593343287706375,0.031871214509010315,-0.011174311861395836
1761232209049324300,5.60732421875,0.048365168273448944,0.019943181425333023,0.0006370730698108673
1761232209059394300,5.617394287109375,0.03998979181051254,0.015132447704672813,0.004980156663805246
1761232209069463300,5.62746337890625,0.033169906586408615,0.026290789246559143,0.008285822346806526
1761232209079532300,5.6375322265625,0.028758645057678223,0.0376579575240612,0.006114013958722353
1761232209089602300,5.647602294921875,0.023348486050963402,0.04603900760412216,0.0029195337556302547
1761232209099671300,5.65767138671875,0.018744146451354027,0.05812842771410942,-0.005028937011957169
1761232209109741300,5.6677412109375,0.015218665823340416,0.06235188990831375,-0.007061060518026352
1761232209119810300,5.677810302734375,0.016217350959777832,0.052928563207387924,-0.012000424787402153
1761232209129880300,5.68788037109375,0.024437932297587395,0.03872428834438324,-0.013243438675999641
1761232209139949300,5.69794921875,0.04493601620197296,0.013855157420039177,-0.012042885646224022
1761232209150019300,5.708019287109375,0.05736537650227547,-0.003029162995517254,-0.014159468933939934
1761232209160088300,5.71808837890625,0.06517615914344788,-0.019083764404058456,-0.014362134039402008
1761232209170158300,5.728158447265625,0.05691744387149811,-0.02726556919515133,-0.01940123364329338
1761232209180227600,5.7382275390625,0.049065910279750824,-0.02239624783396721,-0.023023664951324463
1761232209190297300,5.74829736328125,0.03344114497303963,-0.01283150352537632,-0.024300117045640945
1761232209200366600,5.75836669921875,0.02298584207892418,-0.0023823250085115433,-0.025402668863534927
1761232209210435300,5.768435302734375,0.023374052718281746,0.011579034850001335,-0.018949545919895172
1761232209220505600,5.778505615234375,0.02207016758620739,0.014889078214764595,-0.004019598942250013
1761232209230574300,5.78857421875,0.01780000887811184,0.006563798990100622,0.012646015733480453
1761232209240644400,5.798644287109375,0.008306105621159077,0.006556608248502016,0.03464292734861374
1761232209250713300,5.80871337890625,-0.0008397215278819203,-0.005369826219975948,0.050804588943719864
1761232209260783400,5.818783447265625,-0.0038144723512232304,-0.009071886539459229,0.05981618911027908
1761232209270852400,5.828852294921875,-0.015978123992681503,-0.007736958563327789,0.0640779659152031
1761232209280922400,5.83892236328125,-0.026893088594079018,0.0031287381425499916,0.059934888035058975
1761232209290991600,5.84899169921875,-0.0329388789832592,0.029694689437747,0.047834914177656174
1761232209301061400,5.859061279296875,-0.043501242995262146,0.03376772999763489,0.03770051896572113
1761232209311130600,5.869130615234375,-0.037316542118787766,0.03227473795413971,0.027233976870775223
1761232209321199400,5.879199462890625,-0.022395918145775795,0.02438672073185444,0.01776723936200142
1761232209331269400,5.889269287109375,-0.0024490165524184704,0.005903151817619801,0.004947064910084009
1761232209341338400,5.89933837890625,0.009019887074828148,-0.008863809518516064,0.003428530413657427
1761232209351408400,5.909408447265625,0.021358642727136612,-0.018842104822397232,0.002907732967287302
1761232209361477400,5.919477294921875,0.02002732828259468,-0.01858297921717167,0.0024171783588826656
1761232209371547400,5.92954736328125,0.013355442322790623,-0.005525154992938042,0.001270920503884554
1761232209381616400,5.939616455078125,-0.0014330917038023472,0.02306520938873291,-0.0035147799644619226
1761232209391686400,5.949686279296875,-0.016551969572901726,0.03578472509980202,-0.007300758734345436
1761232209401755400,5.95975537109375,-0.0270426943898201,0.03976535052061081,-0.01436053216457367
1761232209411825400,5.969825439453125,-0.02760056033730507,0.04103199020028114,-0.018911492079496384
1761232209421894700,5.979894775390625,-0.022627374157309532,0.0365658663213253,-0.03044484369456768
1761232209431963400,5.98996337890625,-0.011344087310135365,0.026078715920448303,-0.03634128347039223
1761232209442033400,6.000033447265625,-0.0007716042455285788,0.014974134042859077,-0.02978990413248539
1761232209452102400,6.010102294921875,0.003073160070925951,0.003473557997494936,-0.028666522353887558
1761232209462172400,6.02017236328125,-0.0050132619217038155,-0.002610432915389538,-0.020149467512965202
1761232209472241400,6.030241455078125,-0.014125320129096508,0.009826181456446648,-0.007797442842274904
1761232209482311400,6.0403115234375,-0.027684539556503296,0.02902917191386223,0.0021558552980422974
1761232209492380400,6.05038037109375,-0.033690743148326874,0.03916800394654274,0.01952100172638893
1761232209502450400,6.060450439453125,-0.03563325107097626,0.032043248414993286,0.026629511266946793
1761232209512519400,6.07051953125,-0.0269937627017498,0.012369529344141483,0.03012392856180668
1761232209522589400,6.08058935546875,-0.01536986231803894,0.003862327430397272,0.028903400525450706
1761232209532658400,6.090658447265625,-0.008106357418000698,0.00547513784840703,0.023888401687145233
1761232209542728400,6.100728515625,-0.014302201569080353,0.018413839861750603,0.02614489756524563
1761232209552797400,6.11079736328125,-0.023321665823459625,0.02447713539004326,0.027255404740571976
1761232209562866400,6.120866455078125,-0.03221103176474571,0.0226837620139122,0.03171965852379799
1761232209572936400,6.1309365234375,-0.04045905917882919,0.016792288050055504,0.02729686163365841
1761232209583005400,6.14100537109375,-0.04487697780132294,0.01761014387011528,0.019283941015601158
1761232209593075500,6.151075439453125,-0.03419356420636177,0.021941011771559715,0.011021852493286133
1761232209603144400,6.16114453125,-0.02612924575805664,0.033014170825481415,0.00512081990018487
1761232209613214500,6.17121435546875,-0.02134234458208084,0.040288783609867096,0.0028063002973794937
1761232209623283500,6.181283447265625,-0.015195236541330814,0.037820566445589066,0.00865167286247015
1761232209633353500,6.191353515625,-0.012650515884160995,0.0040555610321462154,0.011685196310281754
1761232209643422500,6.20142236328125,-0.013349595479667187,-0.03506840392947197,0.011339517310261726
1761232209653492500,6.211492431640625,-0.01225237362086773,-0.05107666552066803,0.009543215855956078
1761232209663561500,6.2215615234375,-0.02459372766315937,-0.04062855243682861,0.005329030100256205
1761232209673630500,6.23163037109375,-0.04268605634570122,-0.014482736587524414,-0.0010789029765874147
1761232209683700500,6.241700439453125,-0.0576666034758091,0.013408549129962921,-0.012091873213648796
1761232209693769500,6.25176953125,-0.06141507625579834,0.030240263789892197,-0.022081375122070312
1761232209703839500,6.261839599609375,-0.05244395136833191,0.026271354407072067,-0.034198224544525146
1761232209713908500,6.271908447265625,-0.033933695405721664,0.007951078936457634,-0.04527176171541214
1761232209723978500,6.281978515625,-0.00456675048917532,-0.019303711131215096,-0.04731680452823639
1761232209734047500,6.292047607421875,0.02232283167541027,-0.03835085779428482,-0.04185717552900314
1761232209744117500,6.302117431640625,0.03921393305063248,-0.04770095273852348,-0.024002013728022575
1761232209754186500,6.3121865234375,0.03315863758325577,-0.042923543602228165,-0.0015524800401180983
1761232209764256500,6.322256591796875,0.018051322549581528,-0.041718464344739914,0.021204231306910515
1761232209774325200,6.3323251953125,0.000016005360521376133,-0.027319781482219696,0.02912963181734085
1761232209784394500,6.34239453125,-0.008740467950701714,-0.0031135128811001778,0.02900046855211258
1761232209794464300,6.35246435546875,-0.006689917761832476,0.01841803640127182,0.027904795482754707
1761232209804533500,6.362533447265625,0.0011941046686843038,0.023626381531357765,0.02166660502552986
1761232209814603300,6.372603271484375,0.005430163815617561,0.0178541149944067,0.017582254484295845
1761232209824672500,6.382672607421875,0.00809678714722395,0.006665908731520176,0.0157992672175169
1761232209834742500,6.392742431640625,0.002777170855551958,-0.002285003662109375,0.01768363267183304
1761232209844811500,6.4028115234375,-0.002847691997885704,-0.005821148864924908,0.014678522944450378
1761232209854881500,6.412881591796875,-0.005274026654660702,-0.013392899185419083,0.008851976133883
1761232209864950500,6.422950439453125,0.00045070424675941467,-0.01872321590781212,0.0028532054275274277
1761232209875020500,6.4330205078125,0.01294607762247324,-0.010827259160578251,0.004409945569932461
1761232209885089300,6.44308935546875,0.026244040578603745,0.013539067469537258,0.008500294759869576
1761232209895159600,6.45315966796875,0.023430796340107918,0.034441541880369186,0.016788147389888763
1761232209905228300,6.463228271484375,0.00902495812624693,0.05159789323806763,0.029748955741524696
1761232209915297500,6.473297607421875,-0.0035693743266165257,0.06346485018730164,0.039858054369688034
1761232209925367300,6.4833671875,-0.014501649886369705,0.057674605399370193,0.04312308877706528
1761232209935436500,6.4934365234375,-0.01151054073125124,0.04702863097190857,0.03542391583323479
1761232209945506300,6.50350634765625,-0.0012821379350498319,0.04371965304017067,0.02448578178882599
1761232209955575600,6.513575439453125,0.010448907501995564,0.04887281730771065,0.010554645210504532
1761232209965645600,6.5236455078125,0.011417766101658344,0.04840489849448204,-0.0053574759513139725
1761232209975714600,6.533714599609375,0.012199800461530685,0.04031482711434364,-0.021765511482954025
1761232209985784600,6.54378466796875,0.015403316356241703,0.0293979961425066,-0.034826185554265976
1761232209995853300,6.553853271484375,0.024316279217600822,0.021946454420685768,-0.045204851776361465
1761232210005923600,6.563923583984375,0.03061545267701149,0.017117876559495926,-0.05938378721475601
1761232210015992300,6.573992431640625,0.030371034517884254,0.020672593265771866,-0.06145887449383736
1761232210026062600,6.5840625,0.026294002309441566,0.028601355850696564,-0.06088416278362274
1761232210036131300,6.59413134765625,0.020498650148510933,0.03021232970058918,-0.05777856707572937
1761232210046200600,6.60420068359375,0.018031762912869453,0.024541661143302917,-0.048123277723789215
1761232210056270300,6.614270263671875,0.017625175416469574,0.028370216488838196,-0.041374571621418
1761232210066339600,6.624339599609375,0.01455854531377554,0.02942749112844467,-0.03559338301420212
1761232210076409300,6.634409423828125,0.020427927374839783,0.031034301966428757,-0.02924269624054432
1761232210086478600,6.644478515625,0.025907646864652634,0.029146654531359673,-0.024782167747616768
1761232210096548600,6.654548583984375,0.028934726491570473,0.01825147494673729,-0.017564503476023674
1761232210106617300,6.664617431640625,0.03728240355849266,0.0034083458594977856,-0.00899658165872097
1761232210116687600,6.6746875,0.04360589757561684,-0.01590479165315628,-0.002039554063230753
1761232210126756400,6.68475634765625,0.0492805615067482,-0.02986987493932247,0.00936303660273552
1761232210136826600,6.69482666015625,0.048217564821243286,-0.025150831788778305,0.01601937599480152
1761232210146895400,6.704895263671875,0.0418747141957283,-0.015563718043267727,0.02587014250457287
1761232210156964600,6.714964599609375,0.03129079192876816,-0.001324906013906002,0.034440599381923676
1761232210167034400,6.725034423828125,0.017726244404911995,0.005603573750704527,0.04415713995695114
1761232210177103600,6.735103515625,0.006016065366566181,0.00640955800190568,0.05225801095366478
1761232210187177200,6.74517724609375,-0.0009374481160193682,-0.00028589554131031036,0.05504527688026428
1761232210197246000,6.755245849609375,-0.000029061338864266872,-0.014542928896844387,0.048419658094644547
1761232210207316200,6.765316162109375,0.007369200233370066,-0.04154285416007042,0.03498081490397453
1761232210217385000,6.775385009765625,0.020790331065654755,-0.05677393078804016,0.02537049725651741
1761232210227455200,6.785455322265625,0.02984907291829586,-0.05952497571706772,0.023880459368228912
1761232210237524000,6.79552392578125,0.03150502219796181,-0.06178078055381775,0.02580292895436287
1761232210247594200,6.80559423828125,0.03205256536602974,-0.056418776512145996,0.03303847089409828
1761232210257663000,6.8156630859375,0.02339535765349865,-0.0424349308013916,0.043197449296712875
1761232210267733000,6.82573291015625,0.008068067021667957,-0.026147838681936264,0.0500716008245945
1761232210277802000,6.835802001953125,-0.01076132245361805,-0.017208531498908997,0.053328000009059906
1761232210287871200,6.845871337890625,-0.020197967067360878,0.002085271757096052,0.0529804602265358
1761232210297941000,6.85594091796875,-0.0232534296810627,0.00808796938508749,0.05328145995736122
1761232210308010000,6.866010009765625,-0.016961177811026573,0.005391519516706467,0.04597161337733269
1761232210318080000,6.876080078125,-0.012684657238423824,0.001025333534926176,0.03805503994226456
1761232210328149000,6.88614892578125,-0.00041361013427376747,-0.00013047829270362854,0.028417324647307396
1761232210338219300,6.89621923828125,0.014619703404605389,0.0005576983094215393,0.019751710817217827
1761232210348288000,6.9062880859375,0.025224676355719566,-0.0026072021573781967,0.012156108394265175
1761232210358358300,6.916358154296875,0.03229883313179016,0.0014131059870123863,0.008557911962270737
1761232210368427000,6.926427001953125,0.02711392380297184,-0.005981161259114742,0.00729530630633235
1761232210378497000,6.9364970703125,0.02197202295064926,-0.006257254630327225,-0.00519974622875452
1761232210388566000,6.94656591796875,0.021168014034628868,-0.005775488913059235,-0.015905121341347694
1761232210398635300,6.95663525390625,0.020081136375665665,-0.014489741995930672,-0.025621777400374413
1761232210408705000,6.966705078125,0.016305306926369667,-0.01585407927632332,-0.035561759024858475
1761232210418774000,6.97677392578125,0.020378736779093742,0.009924751706421375,-0.03958802670240402
1761232210428844000,6.986843994140625,0.026670187711715698,0.028729066252708435,-0.03622205927968025
1761232210438913000,6.9969130859375,0.031244557350873947,0.03678030148148537,-0.026074716821312904
1761232210448983000,7.006983154296875,0.03825266659259796,0.035986680537462234,-0.010909080505371094
1761232210459052000,7.017052001953125,0.0439218133687973,0.026343634352087975,0.007673377636820078
1761232210469122000,7.0271220703125,0.05113605037331581,0.01476500928401947,0.027084624394774437
1761232210479191000,7.03719091796875,0.05547907575964928,-0.0026368116959929466,0.04033567011356354
1761232210489261000,7.047260986328125,0.04791915789246559,-0.0036528073251247406,0.04503375291824341
1761232210499330000,7.057330078125,0.0307413749396801,0.0023810379207134247,0.047369908541440964
1761232210509399300,7.0673994140625,0.0127232251688838,0.024168359115719795,0.04149044677615166
1761232210519469000,7.077468994140625,0.004798544105142355,0.04770825803279877,0.026495642960071564
1761232210529538000,7.0875380859375,0.0020040892995893955,0.05500425398349762,0.009652482345700264
1761232210539608000,7.097608154296875,0.009810584597289562,0.03875521570444107,-0.010457122698426247
1761232210549677000,7.107677001953125,0.016818959265947342,0.017565511167049408,-0.03263060003519058
1761232210559747000,7.1177470703125,0.018621444702148438,-0.0033060209825634956,-0.05321252718567848
1761232210569816000,7.127816162109375,0.02194879949092865,-0.007520740851759911,-0.06965888291597366
1761232210579886000,7.137885986328125,0.03109755739569664,-0.018310803920030594,-0.0796758309006691
1761232210589955000,7.147955078125,0.04174860566854477,-0.022489303722977638,-0.07180432230234146
1761232210600025000,7.158025146484375,0.05799606814980507,-0.027989180758595467,-0.06372909992933273
1761232210610094000,7.168093994140625,0.0757971704006195,-0.028273073956370354,-0.04042245075106621
1761232210620164000,7.1781640625,0.0829680934548378,-0.02165186032652855,-0.01228143647313118
1761232210630233000,7.188233154296875,0.07534559071063995,-0.0017806841060519218,0.02490188367664814
1761232210640302000,7.198302001953125,0.05879676714539528,0.02021775394678116,0.0576244592666626
1761232210650372000,7.2083720703125,0.041083283722400665,0.02630893513560295,0.07776781171560287
1761232210660441000,7.218441162109375,0.027370581403374672,0.02492653578519821,0.08677982538938522
1761232210670511000,7.228510986328125,0.02851201221346855,0.01836424134671688,0.07523901760578156
1761232210680580000,7.238580078125,0.04134060814976692,0.009206574410200119,0.05257515236735344
1761232210690650000,7.248650146484375,0.05775020644068718,-0.005934295244514942,0.02369556948542595
1761232210700719000,7.258718994140625,0.07521429657936096,-0.019401755183935165,-0.004293818026781082
1761232210710788900,7.268788818359375,0.07544200122356415,-0.02135118842124939,-0.011400463059544563
1761232210720858000,7.278858154296875,0.06578927487134933,-0.009883793070912361,-0.010164210572838783
1761232210730928000,7.28892822265625,0.05419866368174553,0.003936149179935455,-0.003915369976311922
1761232210740997000,7.2989970703125,0.05012406408786774,0.009946351870894432,0.006681287195533514
1761232210751065900,7.30906591796875,0.04989183694124222,0.010139431804418564,0.021622953936457634
1761232210761136000,7.31913623046875,0.0590897761285305,-0.011745845898985863,0.0303121916949749
1761232210771204900,7.329204833984375,0.06904200464487076,-0.05795621871948242,0.03235749900341034
1761232210781275100,7.339275146484375,0.08008808642625809,-0.09611456841230392,0.032526999711990356
1761232210791344000,7.34934423828125,0.08678673952817917,-0.10413654148578644,0.02839510701596737
1761232210801414000,7.359413818359375,0.07914908975362778,-0.0935353934764862,0.013164728879928589
1761232210811483100,7.369483154296875,0.06977396458387375,-0.07529167830944061,0.0068269395269453526
1761232210821553000,7.379552978515625,0.0504671186208725,-0.05428295582532883,0.010281126946210861
1761232210831622100,7.3896220703125,0.026749538257718086,-0.02793204039335251,0.026986336335539818
1761232210841692000,7.39969189453125,0.014385434798896313,0.0009547271765768528,0.040178537368774414
1761232210851761200,7.40976123046875,-0.0014585101744160056,-0.008493635803461075,0.0519648939371109
1761232210861831000,7.419830810546875,0.008428345434367657,-0.025311041623353958,0.04848524183034897
1761232210871900200,7.429900146484375,0.032519564032554626,-0.034979917109012604,0.04722929373383522
1761232210881969000,7.439968994140625,0.05987528711557388,-0.055471450090408325,0.044074710458517075
1761232210892039200,7.4500390625,0.07148133963346481,-0.07036331295967102,0.05103674903512001
1761232210902108000,7.46010791015625,0.07416681945323944,-0.06956860423088074,0.059284381568431854
1761232210912178000,7.470177978515625,0.0640886202454567,-0.06177779287099838,0.06943022459745407
1761232210922247200,7.4802470703125,0.04977354779839516,-0.05171725153923035,0.07162602245807648
1761232210932317000,7.49031689453125,0.037116073071956635,-0.036766260862350464,0.07065902650356293
1761232210942386200,7.50038623046875,0.027168570086359978,-0.031226515769958496,0.06887156516313553
1761232210952456000,7.5104560546875,0.027501998469233513,-0.03222972899675369,0.061273835599422455
1761232210962525200,7.520525146484375,0.029892951250076294,-0.05060741677880287,0.050328727811574936
1761232210972595000,7.530594970703125,0.039996448904275894,-0.06570274382829666,0.03856181725859642
1761232210982664200,7.540664306640625,0.04957811161875725,-0.07567891478538513,0.026213375851511955
1761232210992734000,7.55073388671875,0.06098416447639465,-0.06669154018163681,0.018563445657491684
1761232211002803200,7.56080322265625,0.06063493713736534,-0.06078673154115677,0.01570575125515461
1761232211012872000,7.570871826171875,0.05448117107152939,-0.04539526253938675,0.015303615480661392
1761232211022942000,7.58094189453125,0.04025379568338394,-0.03329143673181534,0.014886636286973953
1761232211033011000,7.591010986328125,0.026429325342178345,-0.028633037582039833,0.01822623983025551
1761232211043081000,7.6010810546875,0.01845538429915905,-0.026037313044071198,0.02081599086523056
1761232211053150200,7.611150146484375,0.01717999577522278,-0.029573988169431686,0.019754456356167793
1761232211063220000,7.621219970703125,0.0200997032225132,-0.032673269510269165,0.018502822145819664
1761232211073289200,7.631289306640625,0.03419234976172447,-0.04594699665904045,0.015931805595755577
1761232211083359000,7.64135888671875,0.040373824536800385,-0.06805527210235596,0.007447642739862204
1761232211093428200,7.65142822265625,0.03824542462825775,-0.07136265188455582,-0.0034771766513586044
1761232211103498000,7.661498046875,0.03431679680943489,-0.057592470198869705,-0.010455874726176262
1761232211113567200,7.671567138671875,0.023688655346632004,-0.03223438560962677,-0.012752850539982319
1761232211123636000,7.681635986328125,0.01977933570742607,0.00010061264038085938,-0.013770027086138725
1761232211133706000,7.6917060546875,0.022392163053154945,0.02145516872406006,-0.008717212826013565
1761232211143775000,7.70177490234375,0.029927749186754227,0.027058130130171776,0.004319306928664446
1761232211153845000,7.711844970703125,0.030287541449069977,0.016386045143008232,0.021444497630000114
1761232211163914000,7.7219140625,0.023608766496181488,0.006831103004515171,0.031990986317396164
1761232211173984000,7.73198388671875,0.013605399988591671,-0.012379343621432781,0.04112136736512184
1761232211184053800,7.7420537109375,0.009682895615696907,-0.030850455164909363,0.039155006408691406
1761232211194123800,7.752123779296875,0.006313996389508247,-0.03571977838873863,0.024112939834594727
1761232211204192500,7.762192626953125,0.008151056244969368,-0.023208294063806534,0.007035023532807827
1761232211214262800,7.7722626953125,0.006031712517142296,-0.007588055916130543,-0.013985573314130306
1761232211224331500,7.78233154296875,0.0035571514163166285,0.013561942614614964,-0.03247572481632233
1761232211234401800,7.79240185546875,0.00028705596923828125,0.03143095597624779,-0.03532849997282028
1761232211244470800,7.802470703125,-0.0018385431030765176,0.042889393866062164,-0.028346722945570946
1761232211254539800,7.812539794921875,-0.005573892965912819,0.030087312683463097,-0.022984182462096214
1761232211264609800,7.82260986328125,-0.007943319156765938,0.0006064288318157196,-0.011212080717086792
1761232211274678800,7.8326787109375,-0.006432508118450642,-0.031139250844717026,-0.010902621783316135
1761232211284748800,7.842748779296875,-0.0050480663776397705,-0.0489669032394886,-0.018895067274570465
1761232211294817800,7.85281787109375,-0.0018852963112294674,-0.05371665209531784,-0.03283991292119026
1761232211304887800,7.8628876953125,0.0009100227034650743,-0.0441015399992466,-0.04739983007311821
1761232211314956500,7.87295654296875,0.009573551826179028,-0.017597757279872894,-0.05378848686814308
1761232211325026800,7.88302685546875,0.01917692832648754,0.0019208830781280994,-0.05141833797097206
1761232211335095600,7.893095458984375,0.0245975274592638,0.012539438903331757,-0.03848709166049957
1761232211345165800,7.903165771484375,0.030613316223025322,0.025867050513625145,-0.01143683586269617
1761232211355234600,7.913234619140625,0.020624598488211632,0.03344214707612991,0.025103865191340446
1761232211365304800,7.923304931640625,0.004914955236017704,0.030781641602516174,0.05198313295841217
1761232211375373800,7.933373779296875,-0.00931058544665575,0.020003562793135643,0.07549724727869034
1761232211385442800,7.94344287109375,-0.01101518701761961,-0.004018198698759079,0.0725918561220169
1761232211395512800,7.953512939453125,-0.006387145258486271,-0.020644579082727432,0.06325561553239822
1761232211405581800,7.963581787109375,0.008915212005376816,-0.01996541954576969,0.04069933667778969
1761232211415651800,7.97365185546875,0.02771553210914135,-0.01610623300075531,0.011718017980456352
1761232211425720600,7.983720458984375,0.030084572732448578,-0.0006989454850554466,-0.005324044264853001
1761232211435790800,7.993790771484375,0.03164305537939072,0.009187772870063782,-0.01641238108277321
1761232211445859600,8.003859619140625,0.021667297929525375,0.017688099294900894,-0.020140662789344788
1761232211455929900,8.013929931640625,0.013763302005827427,0.02500300481915474,-0.011281922459602356
1761232211465998600,8.02399853515625,0.008143979124724865,0.027516944333910942,-0.0015879978891462088
1761232211476068600,8.034068603515625,0.006270178593695164,0.019309882074594498,0.0032815919257700443
1761232211486137600,8.0441376953125,0.007482684683054686,0.018040448427200317,-0.0005812929011881351
1761232211496206800,8.054206787109376,0.01708124950528145,0.00677181500941515,-0.020238617435097694
1761232211506276900,8.06427685546875,0.03207600116729736,-0.004095382057130337,-0.040295131504535675
1761232211516345900,8.074345947265625,0.05193572863936424,-0.014938708394765854,-0.06271575391292572
1761232211526416000,8.084415771484375,0.06486079096794128,-0.02411668747663498,-0.07891527563333511
1761232211536484600,8.094484619140625,0.06289404630661011,-0.021127022802829742,-0.0869353860616684
1761232211546555000,8.104554931640624,0.051831744611263275,-0.012322807684540749,-0.08684542030096054
1761232211556623600,8.11462353515625,0.029046272858977318,-0.001610507257282734,-0.07893236726522446
1761232211566694000,8.12469384765625,0.005988942924886942,0.011982882395386696,-0.06178908795118332
1761232211576762600,8.1347626953125,-0.012543728575110435,0.016791218891739845,-0.04983256012201309
1761232211586832600,8.14483251953125,-0.024305958300828934,0.023458965122699738,-0.02661115489900112
1761232211596901600,8.154901611328125,-0.028353696689009666,0.017379768192768097,-0.011541126295924187
1761232211606971600,8.1649716796875,-0.026342306286096573,0.011140451766550541,-0.007082916796207428
1761232211617040600,8.17504052734375,-0.027573751285672188,0.010727395303547382,-0.005143602844327688
1761232211627110000,8.18510986328125,-0.028029223904013634,0.010334429331123829,-0.003565064165741205
1761232211637180000,8.195179931640626,-0.034357693046331406,0.017578760161995888,-0.006115573458373547
1761232211647248600,8.20524853515625,-0.03002079389989376,0.01717349886894226,-0.004476713947951794
1761232211657319000,8.21531884765625,-0.024676630273461342,0.012561969459056854,0.0022272616624832153
1761232211667387600,8.2253876953125,-0.015798425301909447,0.005293581634759903,0.01712232641875744
1761232211677458000,8.2354580078125,-0.009719227440655231,0.004348426125943661,0.027288144454360008
1761232211687526700,8.245526611328126,-0.007857979275286198,0.007454868406057358,0.04006452113389969
1761232211697596700,8.2555966796875,-0.008166107349097729,0.0024619740433990955,0.04767956584692001
1761232211707665700,8.265665771484375,-0.005680158734321594,0.007229555398225784,0.05342290550470352
1761232211717735700,8.275735595703125,-0.0018622510833665729,0.008515862748026848,0.050862010568380356
1761232211727804700,8.2858046875,-0.0013779522851109505,0.010226866230368614,0.048587437719106674
1761232211737874000,8.2958740234375,-0.0012943290639668703,0.010983469896018505,0.046189263463020325
1761232211747943700,8.305943603515624,-0.0009828043403103948,0.009414296597242355,0.038680098950862885
1761232211758012700,8.3160126953125,-0.0009883969323709607,0.014532359316945076,0.03237772732973099
1761232211768082700,8.326082763671875,0.001912980806082487,0.025781096890568733,0.029698818922042847
1761232211778151700,8.336151611328125,0.00533274607732892,0.03509443625807762,0.02724684402346611
1761232211788222000,8.346221923828125,0.013842261396348476,0.04029548168182373,0.02524622716009617
1761232211798290700,8.356290771484375,0.01671448163688183,0.02820872887969017,0.02242274396121502
1761232211808360700,8.366360595703124,0.01965489611029625,0.008643350563943386,0.01570219360291958
1761232211818429700,8.3764296875,0.01189044862985611,-0.0029661674052476883,0.006667418871074915
1761232211828499700,8.386499755859376,0.005958468187600374,-0.007895086891949177,-0.004510200582444668
1761232211838568700,8.396568603515625,0.0040223500691354275,0.004492873791605234,-0.01839645579457283
1761232211848638700,8.406638671875,-0.0029011559672653675,0.01396298035979271,-0.02960706688463688
1761232211858707700,8.416707763671875,-0.004918767139315605,0.02738531306385994,-0.031095242127776146
1761232211868776700,8.426776611328124,-0.003881548997014761,0.023425616323947906,-0.037836283445358276
1761232211878846700,8.4368466796875,0.0042685228399932384,0.020276162773370743,-0.037895407527685165
1761232211888915700,8.446915771484376,0.012910320423543453,0.012719463557004929,-0.028786541894078255
1761232211898985700,8.45698583984375,0.012715909630060196,0.008914604783058167,-0.017608989030122757
1761232211909054700,8.4670546875,0.0045014782808721066,-0.006899415515363216,-0.012133768759667873
1761232211919124700,8.477124755859375,-0.005097619723528624,-0.02325681783258915,-0.01457961555570364
1761232211929193700,8.48719384765625,-0.010546830482780933,-0.033034466207027435,-0.018394161015748978
1761232211939263700,8.497263671875,-0.008256778120994568,-0.03268585726618767,-0.024803057312965393
1761232211949332700,8.507332763671876,-0.009099846705794334,-0.021048691123723984,-0.02984669804573059
1761232211959402800,8.51740283203125,-0.010020768269896507,0.0012598088942468166,-0.02317228354513645
1761232211969471700,8.5274716796875,-0.013704748824238777,0.023572012782096863,-0.013138629496097565
1761232211979541800,8.537541748046875,-0.01762998104095459,0.034059274941682816,0.009676139801740646
1761232211989610800,8.54761083984375,-0.024951301515102386,0.0255871694535017,0.033965591341257095
1761232211999679700,8.5576796875,-0.031182564795017242,0.017806746065616608,0.053045544773340225
1761232212009749800,8.567749755859374,-0.04221241548657417,0.01744677871465683,0.06344066560268402
1761232212019818800,8.57781884765625,-0.05056621879339218,0.022401589900255203,0.06387343257665634
1761232212029888500,8.587888427734375,-0.05309753119945526,0.028714792802929878,0.059337008744478226
1761232212039957800,8.597957763671875,-0.04683137685060501,0.02674591727554798,0.03927221894264221
1761232212050027800,8.60802783203125,-0.03907885402441025,0.016072694212198257,0.021648798137903214
1761232212060096800,8.6180966796875,-0.031018797308206558,0.008002516813576221,0.006408327259123325
1761232212070166800,8.628166748046874,-0.02923150546848774,0.0021685664542019367,-0.00584016926586628
1761232212080235800,8.63823583984375,-0.03144858777523041,0.014162911102175713,-0.006375730969011784
1761232212090305800,8.648305908203126,-0.03467467427253723,0.02773042395710945,-0.0067420657724142075
1761232212100374800,8.658374755859375,-0.031502582132816315,0.04241375997662544,-0.0010263891890645027
1761232212110443800,8.66844384765625,-0.0307504553347826,0.04169026389718056,-0.001049841521307826
1761232212120513800,8.678513671875,-0.02617913857102394,0.03269330784678459,-0.003189158858731389
1761232212130582800,8.688582763671874,-0.025575712323188782,0.031151100993156433,-0.005411483347415924
1761232212140652500,8.698652587890624,-0.0233335979282856,0.030867207795381546,-0.013639053329825401
1761232212150721800,8.7087216796875,-0.02321435883641243,0.030233224853873253,-0.02431984432041645
1761232212160791600,8.71879150390625,-0.022449232637882233,0.040115416049957275,-0.036269981414079666
1761232212170860800,8.72886083984375,-0.020504698157310486,0.043904662132263184,-0.04768957570195198
1761232212180926700,8.7389267578125,-0.019281774759292603,0.0419032983481884,-0.052902448922395706
1761232212190995700,8.74899560546875,-0.013962289318442345,0.03689638525247574,-0.051920510828495026
1761232212201065700,8.759065673828125,-0.015637950971722603,0.022353127598762512,-0.04356777295470238
1761232212211134700,8.769134765625,-0.014305729418992996,0.009264776483178139,-0.03304849937558174
1761232212221204700,8.779204833984375,-0.012066276744008064,0.010326312854886055,-0.024168724194169044
1761232212231273700,8.789273681640625,-0.010777590796351433,0.010904151946306229,-0.020929723978042603
1761232212241342700,8.7993427734375,-0.0181707926094532,0.011742249131202698,-0.019778704270720482
1761232212251412700,8.809412841796876,-0.02152375504374504,0.003316679038107395,-0.030526001006364822
1761232212261481700,8.819481689453125,-0.02929113060235977,0.00900385994464159,-0.03859058767557144
1761232212271551500,8.829551513671875,-0.034974124282598495,0.017864469438791275,-0.04071471095085144
1761232212281620700,8.839620849609375,-0.0418488085269928,0.022004883736371994,-0.03613593429327011
1761232212291690500,8.8496904296875,-0.048926182091236115,0.026145655661821365,-0.01887679286301136
1761232212301759700,8.859759765625,-0.05128654092550278,0.024534177035093307,-0.00015157461166381836
1761232212311829800,8.869829833984374,-0.04478800296783447,0.022833582013845444,0.01917981542646885
1761232212321898800,8.879898681640626,-0.03888111189007759,0.016030270606279373,0.03591858223080635
1761232212331968800,8.88996875,-0.030375730246305466,0.017789259552955627,0.045471787452697754
1761232212342037800,8.900037841796875,-0.028006315231323242,0.012438703328371048,0.04627553001046181
1761232212352107800,8.910107666015625,-0.015785742551088333,0.0075480397790670395,0.03946226090192795
1761232212362176800,8.9201767578125,0.0006382379797287285,-0.005079071968793869,0.03015531413257122
1761232212372245800,8.930245849609374,0.018366729840636253,-0.012960366904735565,0.02364780195057392
1761232212382315500,8.9403154296875,0.03362424671649933,-0.0175684355199337,0.019764911383390427
1761232212392384800,8.950384765625,0.03684832155704498,-0.021592654287815094,0.020493801683187485
1761232212402454500,8.96045458984375,0.029889747500419617,-0.02090662345290184,0.02697327360510826
1761232212412523800,8.970523681640625,0.013616638258099556,-0.013630945235490799,0.02831820212304592
1761232212422593500,8.980593505859375,0.004987197928130627,0.001182088628411293,0.026371164247393608
1761232212432662800,8.990662841796874,-0.005188083276152611,0.022285208106040955,0.01866201125085354
1761232212442732800,9.00073291015625,-0.02208584174513817,0.03798321262001991,0.010825393721461296
1761232212452801800,9.0108017578125,-0.03322765603661537,0.0536903515458107,0.009949462488293648
1761232212462871800,9.020871826171875,-0.03435790166258812,0.05908484756946564,0.008468478918075562
1761232212472940800,9.03094091796875,-0.02873855270445347,0.04231971502304077,0.0066857426427304745
1761232212483010800,9.0410107421875,-0.02194775827229023,0.02190658450126648,0.005970417056232691
1761232212493079600,9.05107958984375,-0.017192358151078224,0.004409010987728834,-0.002646723296493292
1761232212503148800,9.061148681640624,-0.013841569423675537,0.002075815573334694,-0.009060148149728775
1761232212513218600,9.071218505859376,-0.01298248115926981,0.025459464639425278,-0.015044186264276505
1761232212523287800,9.081287841796875,-0.017391344532370567,0.059505317360162735,-0.00875246711075306
1761232212533357600,9.091357666015625,-0.025927692651748657,0.08936747908592224,0.0057438211515545845
1761232212543426800,9.1014267578125,-0.03551506996154785,0.10479703545570374,0.01694081351161003
1761232212553496600,9.11149658203125,-0.04896241053938866,0.09939205646514893,0.01562093012034893
1761232212563565800,9.12156591796875,-0.06295279413461685,0.08966486155986786,0.0009572990238666534
1761232212573635600,9.131635498046874,-0.06777644157409668,0.07882758229970932,-0.027614925056695938
1761232212583704800,9.141704833984376,-0.06471274048089981,0.08417254686355591,-0.06291884928941727
1761232212593774800,9.15177490234375,-0.054734524339437485,0.09896442294120789,-0.09754616767168045
1761232212603843600,9.161843505859375,-0.03227262571454048,0.13011488318443298,-0.13145247101783752
1761232212613913900,9.171913818359375,-0.0052787791937589645,0.13496367633342743,-0.14722512662410736
1761232212623982600,9.181982666015625,0.009121199138462543,0.09070487320423126,-0.14197123050689697
1761232212634051800,9.1920517578125,0.02648838795721531,0.06213662028312683,-0.11447911709547043
1761232212644121600,9.20212158203125,0.024593548849225044,0.05414394289255142,-0.0703050047159195
1761232212654190800,9.21219091796875,0.015538245439529419,0.04970294237136841,-0.03309478983283043
1761232212664260600,9.222260498046875,0.0052523184567689896,0.05264200642704964,-0.0018620372284203768
1761232212674329900,9.232329833984375,0.00033650780096650124,0.06377999484539032,0.0201466903090477
1761232212684399600,9.242399658203125,-0.0011015991913154721,0.05670185014605522,0.028268268331885338
1761232212694468900,9.25246875,-0.0022903101053088903,0.03667857125401497,0.03146608918905258
1761232212704538600,9.26253857421875,0.0020975139923393726,0.022704167291522026,0.03434523195028305
1761232212714607600,9.272607666015626,0.004397970624268055,0.02338094636797905,0.032881494611501694
1761232212724678000,9.282677978515625,-0.0023984163999557495,0.02079874277114868,0.03437446430325508
1761232212734746600,9.29274658203125,-0.012955725193023682,0.022538209334015846,0.03814329952001572
1761232212744817000,9.30281689453125,-0.022018995136022568,0.02575823664665222,0.049521125853061676
1761232212754885600,9.3128857421875,-0.021658403798937798,0.01985400915145874,0.052945151925086975
1761232212764955000,9.322954833984374,-0.01471873838454485,0.0030124448239803314,0.05518833175301552
1761232212775024600,9.333024658203126,-0.000010555260814726353,-0.02463303692638874,0.04756341874599457
1761232212785094000,9.343093994140625,0.014071973972022533,-0.03724896162748337,0.03560822084546089
1761232212795163600,9.35316357421875,0.01600409857928753,-0.030235527083277702,0.023969676345586777
1761232212805232600,9.363232666015625,0.0034222593531012535,-0.01530398242175579,0.012476804666221142
1761232212815302700,9.373302734375,-0.018094567582011223,0.005409445613622665,0.0039016404189169407
1761232212825371600,9.38337158203125,-0.029548823833465576,0.01248013786971569,-0.00532275065779686
1761232212835441700,9.393441650390624,-0.03065970353782177,0.00446908688172698,-0.01942363940179348
1761232212845510700,9.4035107421875,-0.01892794668674469,-0.0020252978429198265,-0.022589605301618576
1761232212855581000,9.413580810546875,-0.0022366857156157494,-0.009156230837106705,-0.02139081433415413
1761232212865649700,9.423649658203125,0.006555473897606134,-0.007267249748110771,-0.013949409127235413
1761232212875718700,9.43371875,0.008976803161203861,0.007877812720835209,-0.0023414245806634426
1761232212885788700,9.44378857421875,-0.0021195244044065475,0.011960971169173717,0.004601436201483011
1761232212895858000,9.45385791015625,-0.00788357574492693,0.013143210671842098,0.0115444865077734
1761232212905927700,9.463927734375,-0.014962790533900261,0.012806586921215057,0.022479958832263947
1761232212915996700,9.47399658203125,-0.018359201028943062,0.018136799335479736,0.024749714881181717
1761232212926066700,9.484066650390625,-0.020067619159817696,0.02651670016348362,0.031411610543727875
1761232212936135700,9.4941357421875,-0.01953650265932083,0.028201788663864136,0.03791457414627075
1761232212946205700,9.504205810546875,-0.01354785356670618,0.022311143577098846,0.03784053772687912
1761232212956274700,9.514274658203124,-0.010130620561540127,0.010713154450058937,0.03631265088915825
1761232212966344700,9.5243447265625,-0.010689884424209595,0.004074426833540201,0.0333714559674263
1761232212976413700,9.53441357421875,-0.008395588956773281,0.005754280835390091,0.01890362799167633
1761232212986483500,9.5444833984375,0.0008732768474146724,0.01273362711071968,0.01222149096429348
1761232212996552700,9.554552734375,0.0044336626306176186,0.027478596195578575,0.010111268609762192
1761232213006621700,9.56462158203125,0.007570334244519472,0.030600618571043015,0.0101632010191679
1761232213016691700,9.574691650390625,0.011007041670382023,0.020559795200824738,0.012211719527840614
1761232213026760700,9.5847607421875,0.012514124624431133,0.016804471611976624,0.012108121067285538
1761232213036830700,9.594830810546876,0.006698219571262598,0.015522751025855541,0.01043848879635334
1761232213046901800,9.60490185546875,-0.0013394668931141496,0.024829966947436333,0.006483694538474083
1761232213056971800,9.6149716796875,-0.007209382019937038,0.034764908254146576,-0.0025310413911938667
1761232213067040800,9.625040771484375,-0.008176642470061779,0.038419295102357864,-0.01042917836457491
1761232213077110800,9.63511083984375,-0.005714176222681999,0.03427517041563988,-0.013203340582549572
1761232213087179800,9.6451796875,0.005182413384318352,0.017879951745271683,-0.024262916296720505
1761232213097249800,9.655249755859375,0.019212141633033752,-0.0016917679458856583,-0.019745847210288048
1761232213107318500,9.665318603515624,0.03051459789276123,-0.02534410171210766,-0.027482330799102783
1761232213117388800,9.675388916015624,0.03459528088569641,-0.034022007137537,-0.02079538255929947
1761232213127457500,9.68545751953125,0.030788293108344078,-0.028616853058338165,-0.015641899779438972
1761232213137527800,9.69552783203125,0.015555745922029018,-0.006955006159842014,-0.0036918800324201584
1761232213147596500,9.705596435546875,0.0031542032957077026,0.007122463081032038,0.0074534486047923565
1761232213157665800,9.715665771484375,-0.010952170006930828,0.021741051226854324,0.020254630595445633
1761232213167735600,9.725735595703124,-0.01310187391936779,0.017734326422214508,0.03174244239926338
1761232213177808600,9.73580859375,-0.008410703390836716,-0.00028999149799346924,0.03390852361917496
1761232213187878400,9.74587841796875,0.0009487094939686358,-0.019329728558659554,0.037803132086992264
1761232213197947400,9.755947509765624,0.010785715654492378,-0.020603567361831665,0.04350454732775688
1761232213208017400,9.766017333984376,0.013971655629575253,-0.0075471531599760056,0.051707349717617035
1761232213218086400,9.77608642578125,0.010630453936755657,0.003445576410740614,0.05512232333421707
1761232213228156400,9.786156494140625,0.00544208288192749,0.0048506599850952625,0.056832604110240936
1761232213238225400,9.796225341796875,-0.0034529631957411766,-0.001184813678264618,0.051288049668073654
1761232213248295400,9.80629541015625,-0.009274633601307869,-0.01340845599770546,0.035820674151182175
1761232213258364400,9.816364501953124,-0.011832860298454762,-0.03563188761472702,0.010622445493936539
1761232213268434400,9.826434326171874,-0.008823487907648087,-0.04166155308485031,-0.01909470371901989
1761232213278503400,9.83650341796875,-0.009548861533403397,-0.03170571103692055,-0.038344115018844604
1761232213288572700,9.84657275390625,-0.004420146346092224,-0.0128475995734334,-0.04185255989432335
1761232213298642400,9.856642333984375,0.0006793454522266984,0.0029264534823596478,-0.03021436557173729
1761232213308711400,9.86671142578125,-0.0018378744134679437,0.0031845136545598507,-0.00380060076713562
1761232213318781400,9.876781494140625,-0.006887558847665787,-0.00012503471225500107,0.03160654380917549
1761232213328850400,9.886850341796874,-0.012184586375951767,-0.011663447134196758,0.05831858143210411
1761232213338920400,9.89692041015625,-0.002957952441647649,-0.017424121499061584,0.07727552205324173
1761232213348989400,9.906989501953126,0.006197462789714336,-0.022774145007133484,0.08280744403600693
1761232213359059500,9.9170595703125,0.009713888168334961,-0.018773499876260757,0.08312049508094788
1761232213369128400,9.92712841796875,0.009331990964710712,-0.010260707698762417,0.0699911117553711
1761232213379198500,9.937198486328125,0.0024510330986231565,-0.012020936235785484,0.05374113470315933
1761232213389267500,9.947267333984374,-0.0028454617131501436,-0.016242844983935356,0.03388354182243347
1761232213399337500,9.95733740234375,-0.005061815492808819,-0.023702509701251984,0.009177747182548046
1761232213409406500,9.967406494140626,-0.003443146590143442,-0.025472979992628098,-0.00509200245141983
1761232213419476500,9.9774765625,0.0009340738179162145,-0.0206882506608963,-0.01219225488603115
1761232213429545500,9.98754541015625,0.0073746624402701855,-0.004685315303504467,-0.016243455931544304
1761232213439614500,9.997614501953125,0.01062748208642006,-0.0012349104508757591,-0.008228093385696411
1761232213449684500,10.0076845703125,0.01207757368683815,-0.0004221135750412941,-0.000009844079613685608
1761232213459753500,10.01775341796875,0.010997951962053776,-0.0023175710812211037,0.006459774915128946
1761232213469823500,10.027823486328124,0.008845319040119648,-0.010498004034161568,0.0055881221778690815
1761232213479892500,10.037892578125,0.006487605161964893,-0.006174696609377861,0.0034794961102306843
1761232213489962200,10.047962158203125,0.0007405033684335649,-0.00021560676395893097,-0.0019387053325772285
1761232213500031500,10.058031494140625,0.0001027651596814394,-0.001676131971180439,-0.009801036678254604
1761232213510101500,10.0681015625,0.005945740733295679,-0.00141168013215065,-0.018901590257883072
1761232213520170500,10.07817041015625,0.014879047870635986,0.0012954226695001125,-0.021997515112161636
1761232213530240500,10.088240478515624,0.021437082439661026,0.001478648278862238,-0.016626719385385513
1761232213540309500,10.0983095703125,0.02841148152947426,-0.0008428199216723442,-0.0019771717488765717
1761232213550378500,10.10837841796875,0.028500163927674294,-0.005923598073422909,0.0143959429115057
1761232213560448500,10.118448486328125,0.026204856112599373,-0.0103411003947258,0.030155913904309273
1761232213570517500,10.128517578125,0.023678049445152283,-0.0169563926756382,0.03489980101585388
1761232213580587300,10.138587158203125,0.019308961927890778,-0.015064421109855175,0.03378066420555115
1761232213590656500,10.148656494140624,0.008464835584163666,-0.002387773245573044,0.031050393357872963
1761232213600726300,10.158726318359374,-0.005370912607759237,0.0014724158681929111,0.02654280513525009
1761232213610795500,10.16879541015625,-0.022355755791068077,0.00809489842504263,0.020371194928884506
1761232213620865300,10.178865234375,-0.034103088080883026,0.012344427406787872,0.012072818353772163
1761232213630934500,10.1889345703125,-0.03983820602297783,0.0181565098464489,0.008097784593701363
1761232213641004300,10.19900439453125,-0.03423513099551201,0.0071191200986504555,-0.002237162785604596
1761232213651073500,10.209073486328125,-0.025906357914209366,0.0036386349238455296,-0.008000243455171585
1761232213661143600,10.2191435546875,-0.022152608260512352,0.002259298227727413,-0.01055581122636795
1761232213671212500,10.229212646484376,-0.012004101648926735,0.0019024345092475414,-0.008491594344377518
1761232213681282600,10.239282470703126,-0.012836180627346039,0.000497063621878624,-0.00670626200735569
1761232213691351300,10.249351318359375,-0.013329930603504181,-0.003052663989365101,-0.004470271989703178
1761232213701420500,10.259420654296875,-0.008409656584262848,-0.00007780641317367554,-0.0025114682503044605
1761232213711490300,10.269490234375,-0.000743747572414577,0.0023667095229029655,0.005009565036743879
1761232213721559600,10.2795595703125,0.01164316013455391,0.002570665441453457,0.010802872478961945
1761232213731629300,10.28962939453125,0.01941186562180519,-0.005319481715559959,0.020144175738096237
1761232213741698600,10.299698486328126,0.03172047436237335,-0.0074945297092199326,0.032680876553058624
1761232213751768300,10.309768310546875,0.04013979434967041,-0.00796084851026535,0.04141844063997269
1761232213761837600,10.319837646484375,0.050291646271944046,-0.0028921766206622124,0.0499095693230629
1761232213771907300,10.3299072265625,0.05788351967930794,0.00010760873556137085,0.04661017656326294
1761232213781976600,10.3399765625,0.06352375447750092,-0.0023973556235432625,0.04737185686826706
1761232213792046600,10.350046630859374,0.06430085748434067,-0.006154276430606842,0.04525304585695267
1761232213802115300,10.360115234375,0.05800172686576843,-0.0071144867688417435,0.04084243252873421
1761232213812184300,10.370184326171875,0.04475969076156616,-0.010672736912965775,0.033365074545145035
1761232213822254300,10.38025439453125,0.0334661491215229,-0.005730743519961834,0.017705321311950684
1761232213832323600,10.390323486328125,0.028615465387701988,0.0015636547468602657,0.005882749799638987
1761232213842393300,10.400393310546875,0.02292172983288765,0.0013582343235611916,0.0022935932502150536
1761232213852462600,10.410462646484374,0.034688904881477356,-0.0009102458134293556,0.007286221720278263
1761232213862532400,10.420532470703124,0.051373403519392014,0.006895938888192177,0.010507629252970219
1761232213872601600,10.4306015625,0.0633925125002861,-0.0037282099947333336,0.01873493194580078
1761232213882671400,10.44067138671875,0.07517678290605545,0.00023427791893482208,0.03248075395822525
1761232213892740600,10.45074072265625,0.07998645305633545,-0.008523526601493359,0.042015403509140015
1761232213902810400,10.460810302734375,0.08045025914907455,-0.019599733874201775,0.04909398406744003
1761232213912879400,10.47087939453125,0.07511994242668152,-0.03547057509422302,0.04685772955417633
1761232213922949600,10.48094970703125,0.0653199702501297,-0.05576044321060181,0.03188745304942131
1761232213933018400,10.491018310546876,0.056221820414066315,-0.0564909428358078,0.004337850492447615
1761232213943088600,10.501088623046876,0.043927401304244995,-0.049496643245220184,-0.019608644768595695
1761232213953157400,10.511157470703125,0.03198472037911415,-0.03468494117259979,-0.038565028458833694
1761232213963226600,10.5212265625,0.021253183484077454,-0.00429405365139246,-0.03712117671966553
1761232213973296400,10.53129638671875,0.0017918662633746862,0.010622045025229454,-0.025173969566822052
1761232213983365600,10.54136572265625,-0.011880406178534031,0.019320540130138397,-0.011725039221346378
1761232213993435400,10.551435302734374,-0.008365565910935402,0.01445893943309784,-0.00048410287126898766
1761232214003504600,10.561504638671876,0.0036199656315147877,0.004932365380227566,0.015558512881398201
1761232214013574400,10.571574462890625,0.013375923037528992,-0.006427881307899952,0.02427104488015175
1761232214023643400,10.581643310546875,0.019753146916627884,-0.023530900478363037,0.03707252815365791
1761232214033713400,10.59171337890625,0.020365141332149506,-0.022598791867494583,0.04410327225923538
1761232214043782400,10.601782470703125,0.017239650711417198,-0.014889052137732506,0.03648310527205467
1761232214053852700,10.611852783203124,0.006227478850632906,-0.008020760491490364,0.02712741680443287
1761232214063921400,10.62192138671875,0.005108904093503952,-0.0027367528527975082,0.01194295659661293
1761232214073991400,10.631991455078126,0.00567216333001852,-0.00924685038626194,-0.001052469713613391
1761232214084060400,10.642060302734375,0.015226495452225208,-0.0019361209124326706,-0.010416412726044655
1761232214094129400,10.65212939453125,0.023250333964824677,0.006954309530556202,-0.008107451722025871
1761232214104199400,10.662199462890625,0.03542223945260048,0.008634347468614578,0.0014419280923902988
1761232214114268400,10.672268310546874,0.04462132975459099,0.007319810800254345,0.0066755726002156734
1761232214124338400,10.68233837890625,0.053189922124147415,-0.0049862004816532135,0.013811013661324978
1761232214134407400,10.692407470703126,0.0545571893453598,-0.008653638884425163,0.019190333783626556
1761232214144477400,10.7024775390625,0.05888865143060684,-0.0016595963388681412,0.01541920192539692
1761232214154546400,10.71254638671875,0.059144582599401474,0.007234296761453152,0.01344153843820095
1761232214164616400,10.722616455078125,0.05611955374479294,0.017059970647096634,0.0051972526125609875
1761232214174685400,10.732685546875,0.05645005404949188,0.02684575505554676,0.0018078470602631569
1761232214184754700,10.742754638671874,0.05415307730436325,0.028004497289657593,0.0006781341508030891
1761232214194823400,10.752823486328126,0.05618932843208313,0.01684904843568802,0.0012603015638887882
1761232214204893700,10.762893798828125,0.053753335028886795,0.00515404250472784,0.0024272985756397247
1761232214214962700,10.772962646484375,0.0507812462747097,0.00772399315610528,0.0008472451008856297
1761232214225032400,10.783032470703125,0.04334742948412895,0.01789601519703865,-0.0031139743514358997
1761232214235101700,10.793101806640625,0.036639727652072906,0.022559210658073425,-0.006174478679895401
1761232214245170700,10.803170654296874,0.03008062019944191,0.02477884292602539,-0.009782330133020878
1761232214255240700,10.81324072265625,0.02267996221780777,0.026172474026679993,-0.013202628120779991
1761232214265309700,10.823309814453125,0.015817344188690186,0.026933180168271065,-0.016411151736974716
1761232214275379700,10.833379638671875,0.013544336892664433,0.025671906769275665,-0.016122199594974518
1761232214285448400,10.843448486328125,0.01058162935078144,0.018520712852478027,-0.01679832674562931
1761232214295518700,10.853518798828125,0.005584740079939365,0.011526720598340034,-0.009773707017302513
1761232214305587500,10.86358740234375,-0.0009144621435552835,0.002538371365517378,-0.013406792655587196
1761232214315657700,10.87365771484375,-0.004479636438190937,-0.00783996656537056,-0.019053226336836815
1761232214325726500,10.8837265625,-0.0022548190318048,-0.010293046943843365,-0.027377869933843613
1761232214335796500,10.89379638671875,0.00022511661518365145,-0.01714855432510376,-0.02814645692706108
1761232214345865700,10.90386572265625,-0.005700286943465471,-0.020177558064460754,-0.03230634704232216
1761232214355935500,10.913935546875,-0.011754184029996395,-0.021976523101329803,-0.022071819752454758
1761232214366004700,10.924004638671875,-0.019923247396945953,-0.01560608297586441,0.001074463129043579
1761232214376073500,10.934073486328124,-0.03439486771821976,-0.013422558084130287,0.022348059341311455
1761232214386143700,10.944143798828126,-0.050253089517354965,-0.005187355913221836,0.050117891281843185
1761232214396212500,10.95421240234375,-0.059026606380939484,0.004339304286986589,0.060950033366680145
1761232214406282800,10.96428271484375,-0.06871943920850754,0.012168687768280506,0.06927360594272614
1761232214416351500,10.9743515625,-0.067909836769104,0.008572887629270554,0.0652618259191513
1761232214426421800,10.984421875,-0.048760924488306046,0.001747405156493187,0.0567815862596035
1761232214436490500,10.994490478515624,-0.028768043965101242,-0.013077612966299057,0.05219615250825882
1761232214446560500,11.004560546875,-0.007300964556634426,-0.025705602020025253,0.04212411120533943
1761232214456629500,11.01462939453125,0.009220754727721214,-0.029988765716552734,0.040341123938560486
1761232214466699500,11.024699462890625,0.018741080537438393,-0.027747787535190582,0.034615375101566315
1761232214476768500,11.0347685546875,0.017861172556877136,-0.014985386282205582,0.03288831561803818
1761232214486838500,11.044838623046875,0.006818286143243313,-0.009988450445234776,0.030836766585707664
1761232214496907800,11.05490771484375,-0.0048727248795330524,0.007533552125096321,0.02461668848991394
1761232214506976500,11.0649765625,-0.008538530208170414,0.018552783876657486,0.01095747109502554
1761232214517046800,11.075046875,-0.0006230821600183845,0.021476134657859802,-0.003759157145395875
1761232214527115500,11.085115478515625,0.019515385851264,0.014836922287940979,-0.021833883598446846
1761232214537185800,11.095185791015625,0.04039590060710907,-0.0013814615085721016,-0.030776245519518852
1761232214547254500,11.105254638671875,0.049657776951789856,-0.01298462599515915,-0.03213457390666008
1761232214557324500,11.115324462890625,0.04593627527356148,-0.017274979501962662,-0.028988316655158997
1761232214567393500,11.1253935546875,0.04171126335859299,-0.02095993235707283,-0.022840220481157303
1761232214577463600,11.135463623046874,0.037978578358888626,-0.009664399549365044,-0.0139820147305727
1761232214587532500,11.145532470703126,0.029462149366736412,0.010560117661952972,-0.0021731960587203503
1761232214597602600,11.1556025390625,0.019013769924640656,0.0396847128868103,0.01075538620352745
1761232214607671600,11.165671630859375,0.01193472184240818,0.05775793641805649,0.015260223299264908
1761232214617741600,11.175741455078125,0.012162688188254833,0.053709667176008224,0.024499794468283653
1761232214627810800,11.185810791015625,0.014553260058164597,0.03816145658493042,0.03418687358498573
1761232214637880600,11.195880615234374,0.015476045198738575,0.019959282130002975,0.0345328189432621
1761232214647949600,11.205949462890626,0.012173537164926529,0.008991047739982605,0.02769700437784195
1761232214658018600,11.2160185546875,0.012115213088691235,0.01592911407351494,0.012407529167830944
1761232214668088600,11.226088623046875,0.009103107266128063,0.011344865895807743,-0.004492809064686298
1761232214678157600,11.236157470703125,0.00002465769648551941,0.013021325692534447,-0.014436254277825356
1761232214688227600,11.2462275390625,-0.009728832170367241,0.0183509923517704,-0.02128785103559494
1761232214698296600,11.256296630859374,-0.017751071602106094,0.015510199591517448,-0.02695053070783615
1761232214708366600,11.26636669921875,-0.016449546441435814,0.024272657930850983,-0.027899032458662987
1761232214718435600,11.276435546875,-0.007746600545942783,0.029520414769649506,-0.028296377509832382
1761232214728505600,11.286505615234375,0.003131548408418894,0.021826239302754402,-0.0232764333486557
1761232214738574600,11.29657470703125,0.01070557814091444,0.00862974300980568,-0.014029673300683498
1761232214748644600,11.30664453125,0.021025273948907852,-0.00805610790848732,-0.007275879383087158
1761232214758713600,11.316713623046875,0.019903549924492836,-0.02286967635154724,-0.0010075971949845552
1761232214768783600,11.32678369140625,0.014159100130200386,-0.028207138180732727,-0.0024607512168586254
1761232214778852600,11.3368525390625,-0.001705083530396223,-0.018199246376752853,-0.020651739090681076
1761232214788921600,11.346921630859375,-0.012835356406867504,0.0071937632746994495,-0.034731507301330566
1761232214798991600,11.35699169921875,-0.01982349157333374,0.03196568787097931,-0.04021575301885605
1761232214809060600,11.367060546875,-0.01950550451874733,0.040157414972782135,-0.03751923516392708
1761232214819130600,11.377130615234375,-0.015466553159058094,0.046358052641153336,-0.027826927602291107
1761232214829199600,11.38719970703125,-0.012347453273832798,0.04526254162192345,-0.006455791648477316
1761232214839269600,11.39726953125,-0.013086214661598206,0.048687901347875595,0.013807136565446854
1761232214849338600,11.407338623046876,-0.010478316806256771,0.03784385323524475,0.027024636045098305
1761232214859408600,11.41740869140625,-0.00036842492409050465,0.021080849692225456,0.026369499042630196
1761232214869477600,11.4274775390625,0.018010757863521576,0.0011194394901394844,0.012735329568386078
1761232214879547600,11.437547607421875,0.03186745196580887,-0.010513780638575554,-0.013836892321705818
1761232214889616600,11.44761669921875,0.03917870670557022,-0.008282056078314781,-0.03891270235180855
1761232214899686700,11.457686767578124,0.029633404687047005,0.0062675923109054565,-0.05883261561393738
1761232214909755600,11.467755615234376,0.014074217528104782,0.01878129318356514,-0.059414397925138474
1761232214919825700,11.47782568359375,-0.0022368459030985832,0.024538246914744377,-0.049731411039829254
1761232214929894700,11.487894775390625,-0.018682776018977165,0.0224820114672184,-0.0325963981449604
1761232214939963600,11.497963623046875,-0.028129540383815765,0.02334008179605007,-0.014685573987662792
1761232214950033700,11.50803369140625,-0.034303221851587296,0.019219834357500076,-0.0018847754690796137
1761232214960102700,11.5181025390625,-0.031720224767923355,0.018856044858694077,0.008324185386300087
1761232214970172700,11.528172607421874,-0.032784055918455124,0.01677936315536499,0.020899266004562378
1761232214980241700,11.53824169921875,-0.044226862490177155,0.020463580265641212,0.028051717206835747
1761232214990311700,11.548311767578125,-0.06096706539392471,0.02913094125688076,0.03218097984790802
1761232215000380400,11.55838037109375,-0.07014618068933487,0.0326969139277935,0.026979031041264534
1761232215010450700,11.56845068359375,-0.07487309724092484,0.0369410440325737,0.020206693559885025
1761232215020519400,11.57851953125,-0.06859815865755081,0.0335250087082386,0.01686788909137249
1761232215030589700,11.588589599609374,-0.0626814216375351,0.019562894478440285,0.012076197192072868
1761232215040658700,11.59865869140625,-0.054377153515815735,-0.007498016580939293,0.003282705321907997
1761232215050728400,11.608728515625,-0.043759848922491074,-0.02983144298195839,-0.00620555505156517
1761232215060797700,11.618797607421875,-0.03755388408899307,-0.042634058743715286,-0.024455131962895393
1761232215070866700,11.62886669921875,-0.038977619260549545,-0.045775216072797775,-0.04476559907197952
1761232215080936700,11.638936767578125,-0.03676985949277878,-0.030244722962379456,-0.06093178689479828
1761232215091005400,11.64900537109375,-0.03247278183698654,-0.007007960230112076,-0.0684230774641037
1761232215101075700,11.65907568359375,-0.024059053510427475,0.009540922939777374,-0.059721991419792175
1761232215111144400,11.66914453125,-0.018187174573540688,0.005964331328868866,-0.04032076522707939
1761232215121214700,11.679214599609375,-0.009827777743339539,-0.0159207284450531,-0.018196554854512215
1761232215131283500,11.689283447265625,0.0010295212268829346,-0.04752901941537857,-0.008471056818962097
1761232215141353700,11.699353759765625,0.005427731666713953,-0.07011715322732925,-0.01038214098662138
1761232215151422500,11.70942236328125,0.007565522100776434,-0.05780654028058052,-0.014795880764722824
1761232215161492500,11.719492431640624,0.0087029580026865,-0.03507539629936218,-0.01801138184964657
1761232215171561700,11.729561767578126,0.015464120544493198,-0.012837620452046394,-0.0075027309358119965
1761232215181629200,11.739629150390625,0.02007884718477726,0.0022132350131869316,0.020548077300190926
1761232215191698200,11.7496982421875,0.02255341410636902,-0.008076812140643597,0.049440331757068634
1761232215201768200,11.759768310546875,0.02985180728137493,-0.03069930151104927,0.07435180991888046
1761232215211837000,11.7698369140625,0.030646977946162224,-0.04092220216989517,0.0967404693365097
1761232215221906200,11.77990625,0.02826637774705887,-0.03134600818157196,0.10992364585399628
1761232215231976000,11.789975830078125,0.010094685479998589,-0.024983208626508713,0.10810862481594086
1761232215242045200,11.800045166015625,-0.00933627039194107,-0.015857620164752007,0.10143180936574936
1761232215252115000,11.810114990234375,-0.02551944926381111,-0.01603144034743309,0.07976644486188889
1761232215262184200,11.82018408203125,-0.024915441870689392,-0.021731406450271606,0.05632796511054039
1761232215272254000,11.83025390625,-0.048263002187013626,-0.04118243604898453,0.02644353359937668
1761232215282323200,11.8403232421875,-0.021981067955493927,-0.05677684396505356,0.003734494559466839
1761232215292393000,11.85039306640625,-0.0021246089600026608,-0.07456477731466293,-0.012920832261443138
1761232215302462200,11.860462158203125,0.0010437536984682083,-0.08936023712158203,-0.018082836642861366
1761232215312532200,11.8705322265625,-0.007619354873895645,-0.0979878231883049,-0.006661904044449329
1761232215322601000,11.88060107421875,-0.02142305113375187,-0.0822402834892273,0.007798261474817991
1761232215332671200,11.890671142578125,-0.038850974291563034,-0.07572150975465775,0.02283039130270481
1761232215342740000,11.900739990234374,-0.047273751348257065,-0.08059217035770416,0.023265285417437553
1761232215352810200,11.910810302734374,-0.054035574197769165,-0.08807104825973511,0.026023205369710922
1761232215362879000,11.92087890625,-0.06626348197460175,-0.09880439192056656,0.020424973219633102
1761232215372948200,11.9309482421875,-0.08499963581562042,-0.10551988333463669,0.014816954731941223
1761232215383018000,11.94101806640625,-0.11503902822732925,-0.10473106056451797,0.006423736456781626
1761232215393087200,11.951087158203125,-0.1541031152009964,-0.08126203715801239,-0.003830214496701956
1761232215403157000,11.961156982421874,-0.18518300354480743,-0.05431137979030609,-0.01963154785335064
1761232215413226200,11.971226318359374,-0.19656549394130707,-0.04487336426973343,-0.03492118790745735
1761232215423296000,11.9812958984375,-0.19699612259864807,-0.05384981632232666,-0.05404188483953476
1761232215433365000,11.991364990234375,-0.1919911801815033,-0.06955066323280334,-0.06356509774923325
1761232215443435000,12.00143505859375,-0.17413176596164703,-0.0964571163058281,-0.06135334447026253
1761232215453504000,12.01150390625,-0.17015372216701508,-0.14810071885585785,-0.05554161220788956
1761232215463574300,12.02157421875,-0.20220673084259033,-0.22195549309253693,-0.04256109893321991
1761232215473643000,12.03164306640625,-0.24157977104187012,-0.2713722586631775,-0.02205347642302513
1761232215483713000,12.041713134765626,-0.2938307225704193,-0.2619478702545166,-0.013882365077733994
1761232215493782000,12.051781982421875,-0.3569363057613373,-0.26279139518737793,-0.02522646263241768
1761232215503851300,12.061851318359375,-0.41829925775527954,-0.2598475515842438,-0.02866806462407112
1761232215513921000,12.071921142578125,-0.48583364486694336,-0.234136164188385,-0.0347670242190361
1761232215523990300,12.081990234375,-0.5429530739784241,-0.20044822990894318,-0.03523014858365059
1761232215534060000,12.09206005859375,-0.5761774182319641,-0.14568786323070526,-0.034070808440446854
1761232215544129000,12.10212890625,-0.5752564668655396,-0.08475925028324127,-0.02447517216205597
1761232215554199000,12.112198974609376,-0.5433515310287476,-0.020742304623126984,-0.011110449209809303
