time,seconds_elapsed,z,y,x
1761838757339041300,0.074041259765625,-0.0017135704401880503,-0.22132739424705505,0.23033466935157776
1761838757349111000,0.084111083984375,0.008621308952569962,-0.19031362235546112,0.1960105150938034
1761838757359181000,0.09418115234375,0.027407512068748474,-0.17670194804668427,0.15023450553417206
1761838757369250000,0.10425,0.039076317101716995,-0.15748925507068634,0.11106493324041367
1761838757379320000,0.114320068359375,0.04183322191238403,-0.13284648954868317,0.08273875713348389
1761838757389390300,0.124390380859375,0.03563521057367325,-0.1253984421491623,0.06484050303697586
1761838757399459000,0.134458984375,0.02907024882733822,-0.12101753801107407,0.0562981441617012
1761838757409529000,0.144529052734375,0.017335811629891396,-0.11493955552577972,0.04596972465515137
1761838757419599000,0.15459912109375,0.0036487621255218983,-0.11764426529407501,0.03322064131498337
1761838757429668000,0.164668212890625,-0.010348754934966564,-0.11089858412742615,0.022868765518069267
1761838757439738000,0.174738037109375,-0.01900961995124817,-0.10384067893028259,0.012260328978300095
1761838757449808100,0.18480810546875,-0.030172262340784073,-0.10046645253896713,0.0014923703856766224
1761838757459877400,0.19487744140625,-0.03700486570596695,-0.08022136986255646,0.0023006396368145943
1761838757469947100,0.204947021484375,-0.048503972589969635,-0.05708751454949379,-0.00384152983315289
1761838757480017200,0.21501708984375,-0.07010726630687714,-0.05000430345535278,-0.014763153158128262
1761838757490086100,0.225086181640625,-0.08889869600534439,-0.04426979646086693,-0.033561788499355316
1761838757500156200,0.23515625,-0.09966079145669937,-0.03917916491627693,-0.04484080895781517
1761838757510226200,0.24522607421875,-0.09371032565832138,-0.01270989514887333,-0.0515751913189888
1761838757520295200,0.255295166015625,-0.07818569242954254,0.012208238244056702,-0.049562908709049225
1761838757530365200,0.265365234375,-0.0520331934094429,0.04201190546154976,-0.045744508504867554
1761838757540435200,0.275435302734375,-0.005886736325919628,0.11728055775165558,-0.05195339769124985
1761838757550504200,0.285504150390625,0.02418573759496212,0.19375257194042206,-0.036782339215278625
1761838757560574000,0.295573974609375,0.0677177682518959,0.12902817130088806,-0.0078066131100058556
1761838757570644200,0.305644287109375,0.07471856474876404,0.06476816534996033,0.027236629277467728
1761838757580713000,0.315712890625,0.03605745732784271,0.017406241968274117,0.05932079628109932
1761838757590783200,0.325783203125,-0.0007085505640134215,0.02787509188055992,0.11659816652536392
1761838757600853200,0.335853271484375,0.004255848005414009,-0.01949828304350376,0.17489635944366455
1761838757610922000,0.345921875,0.030164098367094994,-0.15081028640270233,0.22129155695438385
1761838757620992300,0.3559921875,0.013934527523815632,-0.2693142890930176,0.2594408094882965
1761838757631062300,0.366062255859375,-0.03552095592021942,-0.3399014472961426,0.3146694004535675
1761838757641131300,0.37613134765625,-0.08471433073282242,-0.3663966953754425,0.37449920177459717
1761838757651201300,0.386201171875,-0.08566485345363617,-0.41951581835746765,0.42484554648399353
1761838757661271000,0.39627099609375,-0.03782276436686516,-0.4833555221557617,0.47235581278800964
1761838757671340300,0.40634033203125,0.036921706050634384,-0.49921467900276184,0.5104161500930786
1761838757681410000,0.41641015625,0.11488121747970581,-0.5108129978179932,0.5237218141555786
1761838757691480000,0.42647998046875,0.1834782361984253,-0.5001007914543152,0.5207860469818115
1761838757701549000,0.436549072265625,0.21816296875476837,-0.4416089653968811,0.47808384895324707
1761838757711619000,0.446619140625,0.23700158298015594,-0.37103134393692017,0.4218502938747406
1761838757721689300,0.456689453125,0.24810190498828888,-0.3042728304862976,0.35036519169807434
1761838757731759000,0.466759033203125,0.2526688277721405,-0.2923522889614105,0.2645547688007355
1761838757741828000,0.476828125,0.2525942623615265,-0.29778993129730225,0.18934816122055054
1761838757751898000,0.486898193359375,0.2295786291360855,-0.2799442708492279,0.13841462135314941
1761838757761968000,0.496968017578125,0.1853368580341339,-0.22789864242076874,0.1197410523891449
1761838757772037400,0.507037353515625,0.11371586471796036,-0.16658633947372437,0.13084030151367188
1761838757782107100,0.517107177734375,0.04838373139500618,-0.09641338139772415,0.1647452712059021
1761838757792177200,0.52717724609375,-0.0012401678832247853,-0.03634205460548401,0.1968517005443573
1761838757802246100,0.53724609375,-0.031341880559921265,-0.006939159706234932,0.22524818778038025
1761838757812316200,0.547316162109375,-0.03871484100818634,-0.02383878268301487,0.23893123865127563
1761838757822386200,0.55738623046875,-0.03261859714984894,-0.07270059734582901,0.25653472542762756
1761838757832455200,0.567455078125,-0.04100850597023964,-0.1225041076540947,0.26214590668678284
1761838757842525200,0.577525146484375,-0.05646656081080437,-0.16216549277305603,0.2600502669811249
1761838757852595200,0.58759521484375,-0.0716853141784668,-0.20512045919895172,0.25438714027404785
1761838757862664200,0.597664306640625,-0.08783871680498123,-0.2487473040819168,0.234168142080307
1761838757872734000,0.60773388671875,-0.10687534511089325,-0.2655945420265198,0.20336976647377014
1761838757882804200,0.61780419921875,-0.13015830516815186,-0.2471870481967926,0.16263219714164734
1761838757892873000,0.627873046875,-0.15133826434612274,-0.19906531274318695,0.12800376117229462
1761838757902943200,0.637943115234375,-0.16041351854801178,-0.15538173913955688,0.0895671471953392
1761838757913013200,0.64801318359375,-0.15897667407989502,-0.08546365797519684,0.055681828409433365
1761838757923082200,0.658082275390625,-0.15355634689331055,-0.02283569797873497,0.022366216406226158
1761838757933152300,0.66815234375,-0.14763277769088745,-0.00810232013463974,-0.008463796228170395
1761838757943222000,0.678221923828125,-0.14643356204032898,-0.057059742510318756,-0.04911668598651886
1761838757953291300,0.688291259765625,-0.14768290519714355,-0.18607106804847717,-0.10411977022886276
1761838757963361300,0.698361328125,-0.14048917591571808,-0.33876287937164307,-0.15625354647636414
1761838757973431000,0.70843115234375,-0.1305633783340454,-0.461489737033844,-0.20430345833301544
1761838757983500300,0.718500244140625,-0.12843817472457886,-0.5730751156806946,-0.25689584016799927
1761838757993570000,0.728570068359375,-0.1348789632320404,-0.6543627977371216,-0.30529162287712097
1761838758003640000,0.73864013671875,-0.14100290834903717,-0.656582772731781,-0.3383520841598511
1761838758013709000,0.748708984375,-0.14162619411945343,-0.648384153842926,-0.3349415063858032
1761838758023779000,0.758779052734375,-0.14554983377456665,-0.615581750869751,-0.280717134475708
1761838758033849300,0.768849365234375,-0.16610395908355713,-0.5347561240196228,-0.20297344028949738
1761838758043918000,0.77891796875,-0.19424638152122498,-0.40500420331954956,-0.11731338500976562
1761838758053988000,0.788988037109375,-0.2261691391468048,-0.2689734995365143,-0.030937036499381065
1761838758064058000,0.79905810546875,-0.24723953008651733,-0.16073089838027954,0.0329870879650116
1761838758074127000,0.809127197265625,-0.2684752643108368,-0.09412823617458344,0.07306487113237381
1761838758084197000,0.819197021484375,-0.2891131639480591,-0.0512516126036644,0.10172528028488159
1761838758094267100,0.82926708984375,-0.3082851767539978,-0.039684247225522995,0.11718688160181046
1761838758104336400,0.83933642578125,-0.3189697861671448,-0.05783821642398834,0.12785309553146362
1761838758114406000,0.849406005859375,-0.32864776253700256,-0.09493958950042725,0.13397222757339478
1761838758124476000,0.859475830078125,-0.3507176339626312,-0.15355442464351654,0.13652141392230988
1761838758134545200,0.869545166015625,-0.3853062689304352,-0.22421076893806458,0.13178634643554688
1761838758144615000,0.879614990234375,-0.42850273847579956,-0.28121811151504517,0.11004217714071274
1761838758154685000,0.889684814453125,-0.46876320242881775,-0.35844317078590393,0.07795754075050354
1761838758164754000,0.89975390625,-0.4259052276611328,-0.4293687343597412,0.03478318080306053
1761838758174824000,0.909823974609375,-0.27599993348121643,-0.4865490198135376,-0.018328532576560974
1761838758184894200,0.919894287109375,-0.1939508616924286,-0.5890489816665649,-0.1188008114695549
1761838758194963000,0.929962890625,-0.17721854150295258,-0.6945412158966064,-0.248291477560997
1761838758205033000,0.940032958984375,-0.18607115745544434,-0.7296192646026611,-0.412424236536026
1761838758215103000,0.95010302734375,-0.16915251314640045,-0.6720791459083557,-0.6152816414833069
1761838758225172000,0.960171875,-0.11283119022846222,-0.5072981715202332,-0.8147028684616089
1761838758235242000,0.970241943359375,-0.028253722935914993,-0.2468002736568451,-0.9735559225082397
1761838758245312000,0.98031201171875,0.0457129143178463,0.04573572799563408,-1.0970605611801147
1761838758255381000,0.990381103515625,0.08797215670347214,0.3054744303226471,-1.1771458387374878
1761838758265451000,1.000450927734375,0.09680745750665665,0.4862833619117737,-1.2268478870391846
1761838758275521000,1.01052099609375,0.09778489917516708,0.6148489117622375,-1.2535548210144043
1761838758285590000,1.020590087890625,0.1106780618429184,0.6771013736724854,-1.25553297996521
1761838758295660000,1.030659912109375,0.14162419736385345,0.6787777543067932,-1.2239264249801636
1761838758305729800,1.040729736328125,0.1826683133840561,0.5998161435127258,-1.1695427894592285
1761838758315799000,1.050799072265625,0.2118513584136963,0.4683135747909546,-1.1033380031585693
1761838758325869000,1.060869140625,0.22633148729801178,0.3134984076023102,-1.0280523300170898
1761838758335938800,1.070938720703125,0.2313741147518158,0.15877117216587067,-0.952010452747345
1761838758346008000,1.081008056640625,0.263528048992157,0.0383552722632885,-0.8712123036384583
1761838758356077800,1.091077880859375,0.3070339858531952,-0.048924770206213,-0.784799337387085
1761838758366148000,1.101148193359375,0.32136020064353943,-0.14366592466831207,-0.7154996395111084
1761838758376216800,1.111216796875,0.2690560519695282,-0.22112898528575897,-0.6647941470146179
1761838758386286800,1.121286865234375,0.14878906309604645,-0.2929467260837555,-0.6671611666679382
1761838758396357000,1.131357177734375,0.00727430172264576,-0.36946162581443787,-0.7377910017967224
1761838758406425900,1.14142578125,-0.09239183366298676,-0.4453989863395691,-0.8663788437843323
1761838758416496000,1.15149609375,-0.13705530762672424,-0.4653858244419098,-1.006517767906189
1761838758426566000,1.16156591796875,-0.16674049198627472,-0.43899551033973694,-1.1234017610549927
1761838758436635100,1.17163525390625,-0.20830269157886505,-0.3977300226688385,-1.2299059629440308
1761838758446705200,1.181705078125,-0.24076156318187714,-0.3133254051208496,-1.3149220943450928
1761838758456775000,1.19177490234375,-0.2432834357023239,-0.14744707942008972,-1.3745583295822144
1761838758466844200,1.20184423828125,-0.2004166543483734,0.04781855642795563,-1.4158501625061035
1761838758476914000,1.211913818359375,-0.11607072502374649,0.25244903564453125,-1.4290388822555542
1761838758486984000,1.22198388671875,-0.015170471742749214,0.43385186791419983,-1.4196746349334717
1761838758497053000,1.232052978515625,0.06746780872344971,0.5542681217193604,-1.393277645111084
1761838758507123000,1.242123046875,0.10758886486291885,0.6102679967880249,-1.3640161752700806
1761838758517193000,1.25219287109375,0.1118643656373024,0.6164475083351135,-1.3581364154815674
1761838758527263000,1.262262939453125,0.08500851690769196,0.6133508086204529,-1.3944315910339355
1761838758537332000,1.27233203125,0.02796769328415394,0.6218581199645996,-1.4639849662780762
1761838758547402000,1.282402099609375,-0.0039039545226842165,0.6783496141433716,-1.5203752517700195
1761838758557472000,1.292471923828125,0.0371314100921154,0.8204942941665649,-1.5239157676696777
1761838758567541000,1.302541015625,0.13615572452545166,1.0834102630615234,-1.4402493238449097
1761838758577611000,1.312611083984375,0.2512277662754059,1.399116039276123,-1.2734546661376953
1761838758587681000,1.322680908203125,0.3648645877838135,1.6507993936538696,-1.0533102750778198
1761838758597750000,1.33275,0.46375495195388794,1.761388897895813,-0.8232768774032593
1761838758607820000,1.342820068359375,0.5605161190032959,1.6713324785232544,-0.5855743288993835
1761838758617889800,1.352889892578125,0.7162776589393616,1.4505544900894165,-0.33310380578041077
1761838758627959000,1.362958984375,0.864547848701477,1.1992032527923584,-0.07823262363672256
1761838758638029000,1.373029052734375,0.9158376455307007,0.9514078497886658,0.1785409301519394
1761838758648099000,1.38309912109375,0.8638429045677185,0.729933500289917,0.44754230976104736
1761838758658168000,1.39316796875,0.7530750632286072,0.500346302986145,0.7278818488121033
1761838758668237800,1.40323779296875,0.6186666488647461,0.2517660856246948,0.9934701323509216
1761838758678308000,1.41330810546875,0.5220739245414734,0.07736054062843323,1.2190935611724854
1761838758688376800,1.423376953125,0.48545172810554504,0.039209961891174316,1.4156516790390015
1761838758698447000,1.433447021484375,0.5003068447113037,-0.021811509504914284,1.5444238185882568
1761838758708517000,1.44351708984375,0.5793704986572266,-0.19677799940109253,1.54754638671875
1761838758718585900,1.4535859375,0.7266048789024353,-0.4278446137905121,1.435983419418335
1761838758728656100,1.46365625,0.9779156446456909,-0.4945458769798279,1.2666507959365845
1761838758738726000,1.473725830078125,1.3513091802597046,-0.40613090991973877,1.0654493570327759
1761838758748795100,1.483795166015625,1.7322046756744385,-0.2761603593826294,0.8338372111320496
1761838758758865000,1.493864990234375,2.056868553161621,-0.12414626032114029,0.5831416249275208
1761838758768935000,1.503934814453125,2.3918368816375732,-0.041860975325107574,0.3510842025279999
1761838758779004200,1.514004150390625,2.722461462020874,0.04674125462770462,0.14256437122821808
1761838758789074000,1.524073974609375,2.9407501220703125,0.2727823853492737,-0.09734223037958145
1761838758799144000,1.53414404296875,2.9732470512390137,0.5948075652122498,-0.3950191140174866
1761838758809213000,1.544212890625,2.8902461528778076,0.8475359678268433,-0.8181495666503906
1761838758819283000,1.554282958984375,2.8733949661254883,1.0722121000289917,-1.2884705066680908
1761838758829353200,1.564353271484375,3.0723557472229004,1.2384754419326782,-1.722873330116272
1761838758839422000,1.574421875,3.4620327949523926,1.4603567123413086,-1.9529659748077393
1761838758849492000,1.584491943359375,3.954472303390503,1.6575748920440674,-1.93483304977417
1761838758859562000,1.59456201171875,4.3245038986206055,1.7051634788513184,-1.7356470823287964
1761838758869631000,1.604630859375,4.387912750244141,1.573754072189331,-1.4355226755142212
1761838758879701000,1.614700927734375,4.138293743133545,1.233729600906372,-1.1333715915679932
1761838758889771000,1.62477099609375,3.6189699172973633,0.8752990365028381,-0.8738963603973389
1761838758899840000,1.634840087890625,2.7531497478485107,0.6730878353118896,-0.6091715097427368
1761838758909910000,1.644909912109375,1.8159818649291992,0.3813219666481018,-0.32677364349365234
1761838758919980000,1.65497998046875,1.239862084388733,-0.0425458624958992,-0.006955140270292759
1761838758930049000,1.665049072265625,0.9629561901092529,-0.47607919573783875,0.3682539165019989
1761838758940119000,1.675119140625,0.7142384648323059,-0.9077603220939636,0.7052422761917114
1761838758950188800,1.685188720703125,0.39751696586608887,-1.2228461503982544,0.910608172416687
1761838758960258000,1.695258056640625,-0.08179273456335068,-1.251920461654663,0.9654987454414368
1761838758970328000,1.705328125,-0.7155558466911316,-0.9232719540596008,0.9542521834373474
1761838758980397800,1.715397705078125,-1.4118454456329346,-0.4613990783691406,0.9298710823059082
1761838758990467000,1.725467041015625,-2.0133862495422363,-0.19158518314361572,0.9678174257278442
1761838759000536800,1.735536865234375,-2.3854262828826904,-0.26043349504470825,1.0943586826324463
1761838759010607000,1.745607177734375,-2.466839075088501,-0.548565149307251,1.3042722940444946
1761838759020677000,1.755677001953125,-2.2619900703430176,-0.7783633470535278,1.5592418909072876
1761838759030745900,1.765745849609375,-1.9160572290420532,-0.824379563331604,1.8055355548858643
1761838759040816000,1.775816162109375,-1.4807285070419312,-0.7703989744186401,2.0743792057037354
1761838759050886000,1.785885986328125,-1.0214135646820068,-0.8122673034667969,2.372856855392456
1761838759060955100,1.795955078125,-0.6864896416664124,-1.0678508281707764,2.6849682331085205
1761838759071025000,1.80602490234375,-0.5519251823425293,-1.487878680229187,2.891904354095459
1761838759081095000,1.816094970703125,-0.571135938167572,-1.7351657152175903,2.861835479736328
1761838759091164000,1.826163818359375,-0.6388888955116272,-1.719001054763794,2.580326795578003
1761838759101234000,1.83623388671875,-0.6579354405403137,-1.4865976572036743,2.1743738651275635
1761838759111303000,1.846302978515625,-0.5297737121582031,-1.070966362953186,1.7379359006881714
1761838759121371600,1.85637158203125,-0.21720749139785767,-0.5240932106971741,1.3824167251586914
1761838759131442000,1.86644189453125,0.06071200594305992,-0.5460179448127747,0.7485396265983582
1761838759141512000,1.876511962890625,0.2459050863981247,-0.6430133581161499,0.15868280827999115
1761838759151581000,1.886580810546875,0.3651089668273926,-0.7358543872833252,-0.39286157488822937
1761838759161651000,1.89665087890625,0.4185228645801544,-0.7343384027481079,-0.8251590728759766
1761838759171720700,1.906720703125,0.42876723408699036,-0.5445300936698914,-1.0770890712738037
1761838759181790000,1.9167900390625,0.45615705847740173,-0.17881444096565247,-0.9749775528907776
1761838759191860000,1.92685986328125,0.48672720789909363,0.05378657579421997,-0.627582311630249
1761838759201929700,1.9369296875,0.3945881426334381,0.2735230028629303,-0.11124659329652786
1761838759211999000,1.9469990234375,0.31142908334732056,0.5538327097892761,0.40604954957962036
1761838759222068700,1.95706884765625,0.26411470770835876,0.8286814093589783,0.7324650883674622
1761838759232138800,1.967138671875,0.2912861406803131,0.9570955634117126,0.8324881196022034
1761838759242207700,1.977207763671875,0.3248792886734009,0.9369307160377502,0.7159504294395447
1761838759252277800,1.98727783203125,0.319755882024765,0.7703563570976257,0.4210657477378845
1761838759262348000,1.99734814453125,0.30873003602027893,0.513444185256958,0.036716852337121964
1761838759272416800,2.007416748046875,0.3505280911922455,0.23926030099391937,-0.3751881420612335
1761838759282487000,2.017487060546875,0.4569063186645508,0.04596357047557831,-0.7459393739700317
1761838759292556800,2.027556884765625,0.5979398488998413,-0.07204669713973999,-0.9654908776283264
1761838759302625800,2.037625732421875,0.7544999122619629,-0.08111821115016937,-0.9774117469787598
1761838759312695800,2.04769580078125,0.9035892486572266,0.08368591964244843,-0.816243588924408
1761838759322765800,2.057765869140625,1.0258532762527466,0.3217173218727112,-0.5447194576263428
1761838759332835000,2.0678349609375,1.1243468523025513,0.5356786251068115,-0.211191788315773
1761838759342904800,2.07790478515625,1.1583653688430786,0.5571660995483398,0.10617517679929733
1761838759352974800,2.087974853515625,1.0602973699569702,0.39462509751319885,0.32181400060653687
1761838759363044900,2.098044921875,0.8107701539993286,0.12977933883666992,0.4832385778427124
1761838759373113900,2.10811376953125,0.5063766837120056,-0.24297425150871277,0.7003365159034729
1761838759383184000,2.118183837890625,0.3159458637237549,-0.5816861987113953,1.1211676597595215
1761838759393252900,2.1282529296875,0.30720481276512146,-0.8625908493995667,1.6773509979248047
1761838759403323000,2.138322998046875,0.4912647008895874,-1.1656773090362549,2.2465338706970215
1761838759413393000,2.148392822265625,0.8864109516143799,-1.7400825023651123,2.608612537384033
1761838759423463000,2.158462890625,1.3300271034240723,-2.824718713760376,2.413504123687744
1761838759433531600,2.16853173828125,1.4147289991378784,-3.9215807914733887,1.6562130451202393
1761838759443602000,2.178601806640625,1.0601961612701416,-4.699448108673096,0.7426618337631226
1761838759453672000,2.188671875,0.49014875292778015,-4.840592384338379,0.21352000534534454
1761838759463741000,2.198740966796875,-0.18385049700737,-4.055142879486084,0.08841988444328308
1761838759473811000,2.20881103515625,-0.9849756360054016,-2.6013875007629395,0.1796209067106247
1761838759483880700,2.218880615234375,-1.794087290763855,-1.2982248067855835,-0.16189536452293396
1761838759493950000,2.228949951171875,-2.148475408554077,-0.11439722776412964,-0.9452618360519409
1761838759504020000,2.23902001953125,-1.9170794486999512,1.000261664390564,-1.9116601943969727
1761838759514089700,2.24908984375,-1.3222304582595825,1.9156129360198975,-2.8839428424835205
1761838759524159000,2.259158935546875,-0.6020918488502502,2.3340580463409424,-3.734692096710205
1761838759534228700,2.269228759765625,0.014284798875451088,2.176251173019409,-4.349617004394531
1761838759544299000,2.279299072265625,0.4840959906578064,1.5902223587036133,-4.6301798820495605
1761838759554367700,2.28936767578125,0.8350949883460999,0.7225440144538879,-4.489536762237549
1761838759564437800,2.299437744140625,1.0170326232910156,-0.14519667625427246,-3.9244208335876465
1761838759574508000,2.309508056640625,1.0362915992736816,-0.7941371202468872,-3.0860483646392822
1761838759584576800,2.31957666015625,1.0032721757888794,-1.2524350881576538,-2.2031500339508057
1761838759594647000,2.32964697265625,1.0013749599456787,-1.3120874166488647,-1.558086633682251
1761838759604716800,2.339716796875,0.966099202632904,-0.6715037822723389,-1.6615803241729736
1761838759614785800,2.349785888671875,0.8679785132408142,0.40826496481895447,-2.324430227279663
1761838759624855800,2.359855712890625,0.7395040392875671,1.1326018571853638,-2.682025194168091
1761838759634925800,2.36992578125,0.45028290152549744,1.3544906377792358,-2.330855369567871
1761838759644995000,2.3799951171875,-0.04031964763998985,1.2229923009872437,-1.5835171937942505
1761838759655064800,2.39006494140625,-0.5790984630584717,0.8733522891998291,-0.80022132396698
1761838759665134800,2.400134765625,-1.0034053325653076,0.43330612778663635,-0.14572788774967194
1761838759675203800,2.410203857421875,-1.24575674533844,0.06445514410734177,0.35724443197250366
1761838759685273900,2.42027392578125,-1.3159176111221313,-0.20659379661083221,0.775486409664154
1761838759695343900,2.43034375,-1.2552225589752197,-0.40740761160850525,1.1361011266708374
1761838759705412900,2.440412841796875,-1.1115058660507202,-0.5256817936897278,1.3935201168060303
1761838759715483000,2.45048291015625,-0.9062515497207642,-0.4598710834980011,1.518689751625061
1761838759725553000,2.460552978515625,-0.6630541086196899,-0.19255536794662476,1.4853005409240723
1761838759735622000,2.470621826171875,-0.4133356213569641,0.23512592911720276,1.347670316696167
1761838759745692000,2.48069189453125,-0.18546351790428162,0.7429261207580566,1.1410644054412842
1761838759755762000,2.490761962890625,-0.0073382668197155,1.2078183889389038,0.9253720045089722
1761838759765830700,2.50083056640625,0.11344658583402634,1.5677380561828613,0.7325313687324524
1761838759775901000,2.51090087890625,0.2055022120475769,1.7971863746643066,0.6031938791275024
1761838759785971000,2.520970947265625,0.28872090578079224,1.8879787921905518,0.5532280802726746
1761838759796040700,2.531040771484375,0.37385761737823486,1.8451473712921143,0.590847909450531
1761838759806110000,2.54110986328125,0.4362832307815552,1.6968494653701782,0.6896216869354248
1761838759816179700,2.5511796875,0.4451582133769989,1.4980380535125732,0.8182534575462341
1761838759826249700,2.561249755859375,0.3645628094673157,1.3175162076950073,0.9224980473518372
1761838759836319000,2.571319091796875,0.2723460793495178,1.0940111875534058,0.9968290328979492
1761838759846388700,2.581388671875,0.20513921976089478,0.8355098366737366,1.0532875061035156
1761838759856459000,2.591458984375,0.15518657863140106,0.5142958164215088,1.053840160369873
1761838759866527700,2.60152783203125,0.11779866367578506,0.216376394033432,1.0155906677246094
1761838759876597800,2.61159765625,0.129019632935524,0.023091629147529602,0.9469249844551086
1761838759886668000,2.62166796875,0.18983931839466095,-0.06778676807880402,0.8584088087081909
1761838759896736800,2.63173681640625,0.3031485676765442,-0.13370560109615326,0.7256297469139099
1761838759906807000,2.64180712890625,0.45022663474082947,-0.2005637139081955,0.5621514320373535
1761838759916876800,2.651876708984375,0.5929350256919861,-0.24460254609584808,0.3789701461791992
1761838759926946000,2.661946044921875,0.6992309093475342,-0.2670399248600006,0.15333352982997894
1761838759937015800,2.672015869140625,0.7691689729690552,-0.26342254877090454,-0.10914815962314606
1761838759947085800,2.6820859375,0.8303763270378113,-0.29701265692710876,-0.39371445775032043
1761838759957154800,2.69215478515625,0.9230825901031494,-0.3899468779563904,-0.6367654204368591
1761838759967224800,2.702224853515625,1.0336285829544067,-0.5532580614089966,-0.78495192527771
1761838759977294800,2.712294921875,1.1660926342010498,-0.7894346117973328,-0.776125967502594
1761838759987363800,2.72236376953125,1.2764486074447632,-0.9537692666053772,-0.5913189649581909
1761838759997433900,2.732433837890625,1.3069283962249756,-0.8106305003166199,-0.21259534358978271
1761838760007504000,2.74250390625,1.2171276807785034,-0.40407589077949524,0.2416953593492508
1761838760017572900,2.75257275390625,0.9866974949836731,0.13922414183616638,0.5755441784858704
1761838760027643000,2.762642822265625,0.6307533383369446,0.6505026817321777,0.6251944899559021
1761838760037713000,2.772712890625,0.2334052175283432,1.081910252571106,0.4295879900455475
1761838760047782000,2.782781982421875,-0.13100460171699524,1.3872183561325073,0.16655346751213074
1761838760057852000,2.792851806640625,-0.45060044527053833,1.5182794332504272,-0.05559039115905762
1761838760067922000,2.802921875,-0.7546480894088745,1.3471308946609497,-0.2593415379524231
1761838760077990700,2.81299072265625,-0.9523462653160095,0.9056906700134277,-0.4784528613090515
1761838760088061000,2.82306103515625,-1.0222036838531494,0.35978424549102783,-0.6389158368110657
1761838760098131000,2.833130859375,-1.001910924911499,-0.1426631510257721,-0.7211644053459167
1761838760108200000,2.843199951171875,-0.9047867655754089,-0.540053129196167,-0.7357242703437805
1761838760118269400,2.85326953125,-0.7397282719612122,-0.8246438503265381,-0.7037298083305359
1761838760128339500,2.86333935546875,-0.6126357913017273,-0.8565019369125366,-0.7878197431564331
1761838760138409500,2.873409423828125,-0.6236937642097473,-0.6404756307601929,-0.8787821531295776
1761838760148478500,2.883478515625,-0.7360377311706543,-0.2434549629688263,-0.825547993183136
1761838760158548500,2.893548583984375,-0.8156284689903259,0.1866370290517807,-0.5562451481819153
1761838760168618500,2.903618408203125,-0.8112936615943909,0.4549512565135956,-0.13665561378002167
1761838760178687500,2.9136875,-0.7682141065597534,0.5342122912406921,0.2889297902584076
1761838760188757500,2.923757568359375,-0.7079283595085144,0.43551525473594666,0.6282849311828613
1761838760198827500,2.93382763671875,-0.6532462239265442,0.19442833960056305,0.9046861529350281
1761838760208896500,2.943896484375,-0.5864517092704773,-0.09931547939777374,1.1794371604919434
1761838760218966500,2.953966552734375,-0.486732542514801,-0.3495767116546631,1.482064127922058
1761838760229036500,2.96403662109375,-0.3575476109981537,-0.4860724210739136,1.7659305334091187
1761838760239105500,2.97410546875,-0.21578781306743622,-0.557912290096283,1.9947065114974976
1761838760249175600,2.984175537109375,-0.07757637649774551,-0.5814589262008667,2.13543701171875
1761838760259245300,2.994245361328125,0.02716362103819847,-0.5442036986351013,2.183560371398926
1761838760269314600,3.004314453125,0.1051202118396759,-0.46991869807243347,2.1361072063446045
1761838760279384300,3.01438427734375,0.18402035534381866,-0.39004677534103394,2.0263893604278564
1761838760289454300,3.024454345703125,0.2525812089443207,-0.3355957269668579,1.8746066093444824
1761838760299523600,3.034523681640625,0.2979729175567627,-0.33359888195991516,1.674558162689209
1761838760309593300,3.04459326171875,0.2951425015926361,-0.37436896562576294,1.4367741346359253
1761838760319663600,3.05466357421875,0.23652100563049316,-0.40496787428855896,1.166242241859436
1761838760329732400,3.064732421875,0.14550502598285675,-0.39883294701576233,0.8693291544914246
1761838760339802600,3.074802734375,0.03772289678454399,-0.36067941784858704,0.5525163412094116
1761838760349872600,3.08487255859375,-0.041914403438568115,-0.33928754925727844,0.21503181755542755
1761838760359941400,3.09494140625,-0.08277341723442078,-0.3164903521537781,-0.1159096211194992
1761838760370011600,3.10501171875,-0.11340142041444778,-0.2873173952102661,-0.4576384723186493
1761838760380081400,3.115081298828125,-0.15773744881153107,-0.2512267529964447,-0.7987716197967529
1761838760390150700,3.125150634765625,-0.23310573399066925,-0.21064794063568115,-1.1181237697601318
1761838760400220400,3.135220458984375,-0.34658941626548767,-0.15121443569660187,-1.4050122499465942
1761838760410290400,3.14529052734375,-0.5070881247520447,-0.08760961890220642,-1.6667017936706543
1761838760420359400,3.155359375,-0.6624465584754944,-0.0018723458051681519,-1.882137656211853
1761838760430429400,3.165429443359375,-0.7778360843658447,0.10328785330057144,-2.0099637508392334
1761838760440499500,3.17549951171875,-0.8572536706924438,0.18883737921714783,-2.0384161472320557
1761838760450568400,3.185568359375,-0.9031041264533997,0.2715018093585968,-1.9582690000534058
1761838760460638500,3.195638427734375,-0.9105298519134521,0.34345564246177673,-1.8079948425292969
1761838760470708500,3.20570849609375,-0.8931887745857239,0.3717314600944519,-1.6281059980392456
1761838760480777500,3.215777587890625,-0.8662375807762146,0.3665348291397095,-1.424406886100769
1761838760490847500,3.225847412109375,-0.8213308453559875,0.3465149998664856,-1.2100059986114502
1761838760500917500,3.23591748046875,-0.7244027256965637,0.34415727853775024,-0.9844660758972168
1761838760510986500,3.245986572265625,-0.5181013345718384,0.3932870626449585,-0.7728535532951355
1761838760521056500,3.256056396484375,-0.2140178382396698,0.5523845553398132,-0.5782334804534912
1761838760531126500,3.26612646484375,0.20222726464271545,0.7188674807548523,-0.41567009687423706
1761838760541195500,3.276195556640625,0.7428151369094849,0.9061564207077026,-0.27916526794433594
1761838760551265500,3.286265625,1.2671558856964111,1.0367400646209717,-0.15977948904037476
1761838760561335600,3.29633544921875,1.5869003534317017,1.2982733249664307,-0.015879042446613312
1761838760571404500,3.306404541015625,1.6403974294662476,1.7452309131622314,0.13232187926769257
1761838760581474600,3.316474609375,1.3855704069137573,2.115279197692871,0.23650074005126953
1761838760591544300,3.32654443359375,0.9511223435401917,1.9904983043670654,0.3549334406852722
1761838760601613600,3.336613525390625,0.6175984144210815,1.324790358543396,0.3258839547634125
1761838760611683300,3.346683349609375,0.32248014211654663,0.32026153802871704,-0.13219735026359558
1761838760621753300,3.35675341796875,-0.023502040654420853,-0.8886271715164185,-0.9234490990638733
1761838760631823600,3.36682373046875,-0.1917428821325302,-2.3185408115386963,-1.6288331747055054
1761838760641892400,3.376892333984375,-0.0813191831111908,-3.677299976348877,-1.775248408317566
1761838760651962600,3.386962646484375,0.055537957698106766,-4.041534900665283,-1.2612234354019165
1761838760662032400,3.397032470703125,-0.1895064264535904,-2.9604239463806152,-0.8177968263626099
1761838760672101400,3.407101318359375,-0.8159500360488892,-0.7294074892997742,-1.2283804416656494
1761838760682171600,3.417171630859375,-1.2816956043243408,1.6092541217803955,-2.074406385421753
1761838760692241400,3.427241455078125,-1.1394635438919067,2.8370537757873535,-2.650118827819824
1761838760702310700,3.437310546875,-0.540948212146759,2.826555013656616,-2.8682610988616943
1761838760712380400,3.44738037109375,0.17909350991249084,2.0023694038391113,-2.658784866333008
1761838760722450400,3.457450439453125,0.7436594367027283,0.7943373322486877,-2.2006406784057617
1761838760732519400,3.46751953125,0.9320595860481262,-0.3923669457435608,-1.5993003845214844
1761838760742589400,3.47758935546875,0.7814407348632812,-1.4047287702560425,-0.8642802238464355
1761838760752659500,3.487659423828125,0.4729248583316803,-1.7798504829406738,-0.04111323133111
1761838760762728400,3.497728515625,0.22699685394763947,-1.3879966735839844,0.9488961100578308
1761838760772798500,3.507798583984375,0.127777099609375,-0.4353623390197754,1.9854284524917603
1761838760782868500,3.517868408203125,0.04636799171566963,0.34691113233566284,2.690653085708618
1761838760792937500,3.5279375,-0.24175038933753967,0.656114935874939,2.877185106277466
1761838760803007500,3.538007568359375,-0.6321740746498108,0.6098811626434326,2.5401904582977295
1761838760813077500,3.548077392578125,-0.9628196954727173,0.24217094480991364,2.0880579948425293
1761838760823146500,3.558146484375,-1.134223461151123,-0.37648776173591614,1.843268871307373
1761838760833216500,3.568216552734375,-1.1697778701782227,-0.950012743473053,1.7782857418060303
1761838760843286500,3.57828662109375,-1.1515884399414062,-1.3305625915527344,1.8466507196426392
1761838760853355500,3.58835546875,-0.9276623129844666,-1.477726936340332,1.9789848327636719
1761838760863425500,3.598425537109375,-0.4813714027404785,-1.5198984146118164,2.0543761253356934
1761838760873495600,3.60849560546875,0.09097237139940262,-1.406123399734497,1.931237816810608
1761838760883564500,3.618564453125,0.5620238184928894,-1.049355387687683,1.600466251373291
1761838760893634600,3.628634521484375,0.6612855792045593,-0.24268001317977905,1.070428490638733
1761838760903704300,3.638704345703125,0.30035504698753357,1.0339679718017578,0.4192267954349518
1761838760913773600,3.648773681640625,-0.26783034205436707,2.2573046684265137,-0.06298565119504929
1761838760923843300,3.65884326171875,-0.5805022716522217,2.883478879928589,-0.10226008296012878
1761838760933913300,3.668913330078125,-0.5114204287528992,2.8570830821990967,0.32074669003486633
1761838760943982600,3.678982666015625,-0.3687402606010437,2.3227758407592773,0.8338518142700195
1761838760954052400,3.68905224609375,-0.22787980735301971,1.5548352003097534,1.2634491920471191
1761838760964122600,3.69912255859375,-0.031435463577508926,0.7043944001197815,1.6017346382141113
1761838760974191400,3.70919140625,0.15533235669136047,-0.038596730679273605,1.7741717100143433
1761838760984261600,3.71926171875,0.24739623069763184,-0.5232491493225098,1.7268725633621216
1761838760994331600,3.72933154296875,0.23639898002147675,-0.7550230622291565,1.511488914489746
1761838761004400400,3.739400390625,0.17626479268074036,-0.8040124773979187,1.2565730810165405
1761838761014470700,3.749470703125,0.12994757294654846,-0.733047366142273,1.0308582782745361
1761838761024540400,3.75954052734375,0.13452953100204468,-0.5610689520835876,0.8443949222564697
1761838761034609700,3.769609619140625,0.22289758920669556,-0.3392534554004669,0.6808004975318909
1761838761044679400,3.779679443359375,0.4106312692165375,-0.1021391823887825,0.5013934969902039
1761838761054749400,3.78974951171875,0.6770737171173096,0.18114426732063293,0.25082942843437195
1761838761064818400,3.799818359375,0.9583549499511719,0.5078248977661133,-0.06969401240348816
1761838761074888400,3.809888427734375,1.2060714960098267,0.7977297902107239,-0.39249947667121887
1761838761084958500,3.81995849609375,1.3974111080169678,0.9572890996932983,-0.6799461841583252
1761838761095027500,3.83002734375,1.47960364818573,1.0029363632202148,-0.8824891448020935
1761838761105097500,3.840097412109375,1.4034119844436646,0.9393669366836548,-0.9657398462295532
1761838761115167700,3.850167724609375,1.173707127571106,0.8616931438446045,-0.8681833148002625
1761838761125236700,3.86023681640625,0.8197097182273865,0.8296949863433838,-0.6035359501838684
1761838761135306800,3.870306640625,0.3668360710144043,0.7954477071762085,-0.25556108355522156
1761838761145376800,3.880376708984375,-0.09548815339803696,0.5926626920700073,0.0763486996293068
1761838761155445800,3.89044580078125,-0.485312283039093,0.2514531910419464,0.39508378505706787
1761838761165515800,3.900515869140625,-0.7946075797080994,-0.12415343523025513,0.7179427742958069
1761838761175585800,3.910585693359375,-1.0162811279296875,-0.5036554932594299,0.9738293290138245
1761838761185654800,3.92065478515625,-1.1242775917053223,-0.8401176929473877,1.1154298782348633
1761838761195724800,3.930724853515625,-1.146696925163269,-1.0566047430038452,1.143650770187378
1761838761205794800,3.940794921875,-1.1389143466949463,-1.1220977306365967,1.0604419708251953
1761838761215863800,3.95086376953125,-1.051895022392273,-1.058586597442627,0.7817865014076233
1761838761225933800,3.960933837890625,-0.8430829644203186,-0.7950337529182434,0.25613367557525635
1761838761236003800,3.97100390625,-0.5952767729759216,-0.3655497133731842,-0.41669830679893494
1761838761246072800,3.98107275390625,-0.3673480153083801,0.20132063329219818,-1.0349615812301636
1761838761256142800,3.991142822265625,-0.17140938341617584,0.5467405915260315,-1.3309398889541626
1761838761266212600,4.001212646484375,0.0904371440410614,0.548639714717865,-1.1283026933670044
1761838761276281900,4.01128173828125,0.4936186671257019,0.4912337064743042,-0.5414173007011414
1761838761286349800,4.021349853515625,0.9086472988128662,0.35170137882232666,0.11241935193538666
1761838761296418600,4.03141845703125,1.177046298980713,-0.05085514113306999,0.5567256212234497
1761838761306488800,4.04148876953125,1.1199302673339844,-1.1611260175704956,0.47709494829177856
1761838761316558800,4.051558837890625,0.4399133622646332,-2.6967737674713135,-0.08592672646045685
1761838761326628600,4.061628662109375,-0.4987441301345825,-4.183241367340088,-0.4951392710208893
1761838761336697900,4.07169775390625,-1.2346909046173096,-4.596604347229004,-0.24234095215797424
1761838761346767600,4.081767578125,-1.648001790046692,-3.7066702842712402,0.5053892135620117
1761838761356837600,4.091837646484375,-2.0659706592559814,-2.0108041763305664,1.0251482725143433
1761838761366907000,4.101906982421875,-2.3433806896209717,-0.15797825157642365,0.6284888386726379
1761838761376976600,4.1119765625,-2.141347885131836,1.5361231565475464,-0.7443281412124634
1761838761387046000,4.1220458984375,-1.4260082244873047,2.7162070274353027,-2.4941718578338623
1761838761397115600,4.13211572265625,-0.596580445766449,3.037104845046997,-4.06845760345459
1761838761407186000,4.14218603515625,0.0659482404589653,2.569207191467285,-5.120818138122559
1761838761417254700,4.152254638671875,0.47671636939048767,1.4723862409591675,-5.598761081695557
1761838761427324700,4.16232470703125,0.6065422892570496,0.30967703461647034,-5.545730113983154
1761838761437395000,4.17239501953125,0.5492792725563049,-0.733162522315979,-5.128331661224365
1761838761447463700,4.182463623046875,0.5341280102729797,-1.4531930685043335,-4.569589138031006
1761838761457534000,4.192533935546875,0.6246459484100342,-1.4736422300338745,-4.2521162033081055
1761838761467603700,4.202603759765625,0.8177608251571655,-0.5130506753921509,-4.612204074859619
1761838761477672700,4.212672607421875,0.9851309061050415,1.141912817955017,-5.295461654663086
1761838761487742700,4.22274267578125,0.9246028661727905,2.0472869873046875,-4.808361053466797
1761838761497812700,4.232812744140625,0.7899025678634644,2.002195119857788,-3.61775279045105
1761838761507882000,4.242882080078125,0.48240089416503906,1.5179622173309326,-2.3103203773498535
1761838761517951700,4.25295166015625,0.07678373157978058,1.0982271432876587,-1.0821946859359741
1761838761528021800,4.263021728515625,-0.2787242829799652,0.7581474184989929,-0.06669697910547256
1761838761538090800,4.2730908203125,-0.5478228330612183,0.4810623824596405,0.7307025194168091
1761838761548160800,4.283160888671875,-0.7402212619781494,0.2588154673576355,1.3618907928466797
1761838761558230800,4.293230712890625,-0.8531522154808044,0.14801724255084991,1.8634982109069824
1761838761568299800,4.3032998046875,-0.8637933731079102,0.23909975588321686,2.2249810695648193
1761838761578369800,4.313369873046875,-0.7681747674942017,0.46931782364845276,2.41672420501709
1761838761588439800,4.323439697265625,-0.5921491384506226,0.7340363264083862,2.478602170944214
1761838761598508800,4.3335087890625,-0.34587687253952026,0.9998952746391296,2.4631385803222656
1761838761608578600,4.34357861328125,-0.09028398245573044,1.22774338722229,2.4020910263061523
1761838761618648800,4.35364892578125,0.11481234431266785,1.3946526050567627,2.336535930633545
1761838761628717600,4.363717529296875,0.2526586353778839,1.4612414836883545,2.289728879928589
1761838761638787800,4.373787841796875,0.3264254033565521,1.4115073680877686,2.261176347732544
1761838761648857900,4.38385791015625,0.36760348081588745,1.246708631515503,2.257542133331299
1761838761658926800,4.3939267578125,0.3846343457698822,0.9951869249343872,2.265934467315674
1761838761668996900,4.403996826171875,0.34679001569747925,0.6784605979919434,2.2485947608947754
1761838761679066600,4.414066650390625,0.2675570249557495,0.27091386914253235,2.1571044921875
1761838761689135900,4.424135986328125,0.20922501385211945,-0.21330073475837708,1.9787442684173584
1761838761699206000,4.434205810546875,0.15996922552585602,-0.7491747140884399,1.705796480178833
1761838761709275600,4.444275634765625,0.12676039338111877,-1.2635587453842163,1.3545825481414795
1761838761719345000,4.454344970703125,0.1180962324142456,-1.6765228509902954,0.9454732537269592
1761838761729414700,4.46441455078125,0.1362142413854599,-1.944212555885315,0.5180670619010925
1761838761739484700,4.474484619140625,0.20852594077587128,-2.0511012077331543,0.10609354823827744
1761838761749553700,4.4845537109375,0.3319200277328491,-1.9633746147155762,-0.22020015120506287
1761838761759623700,4.494623779296875,0.516498327255249,-1.6718448400497437,-0.4240577816963196
1761838761769694000,4.50469384765625,0.7767605185508728,-1.197075605392456,-0.5039118528366089
1761838761779762700,4.5147626953125,1.0238454341888428,-0.5453814268112183,-0.4928322732448578
1761838761789832700,4.524832763671875,1.1235350370407104,0.19552062451839447,-0.5140712857246399
1761838761799902700,4.53490283203125,1.0266462564468384,0.7827387452125549,-0.7272950410842896
1761838761809971700,4.5449716796875,0.7881466746330261,1.1320064067840576,-1.085761547088623
1761838761820042000,4.5550419921875,0.5045971870422363,1.2444976568222046,-1.4829645156860352
1761838761830111700,4.56511181640625,0.24773262441158295,1.1649402379989624,-1.8359318971633911
1761838761840181000,4.575180908203125,0.059215448796749115,0.9370094537734985,-2.0774481296539307
1761838761850250800,4.585250732421875,-0.06013145297765732,0.614729642868042,-2.167391300201416
1761838761860320800,4.59532080078125,-0.13916128873825073,0.27895858883857727,-2.093169689178467
1761838761870389800,4.6053896484375,-0.2186467945575714,-0.0365532785654068,-1.8924580812454224
1761838761880459800,4.615459716796875,-0.2764599323272705,-0.2518414556980133,-1.5896334648132324
1761838761890528800,4.62552880859375,-0.2890439033508301,-0.36438292264938354,-1.2240203619003296
1761838761900598800,4.635598876953125,-0.27992311120033264,-0.43146130442619324,-0.8962776064872742
1761838761910669800,4.645669921875,-0.2722526788711548,-0.514231264591217,-0.699173629283905
1761838761920738800,4.65573876953125,-0.26085758209228516,-0.5829806923866272,-0.6788785457611084
1761838761930808800,4.665808837890625,-0.2453574538230896,-0.6465860605239868,-0.747946560382843
1761838761940877600,4.675877685546875,-0.2310309261083603,-0.7092505097389221,-0.8018642663955688
1761838761950947800,4.68594775390625,-0.2169926017522812,-0.7488511800765991,-0.7169709205627441
1761838761961017900,4.696017822265625,-0.19972164928913116,-0.7557042837142944,-0.4873697757720947
1761838761971086800,4.7060869140625,-0.20438244938850403,-0.747361958026886,-0.20344750583171844
1761838761981156900,4.716156982421875,-0.2512347400188446,-0.6841519474983215,0.06255912035703659
1761838761991226600,4.7262265625,-0.3212689459323883,-0.5755119919776917,0.29992613196372986
1761838762001296000,4.7362958984375,-0.391875296831131,-0.42404836416244507,0.5035492181777954
1761838762011366000,4.746365966796875,-0.43892109394073486,-0.29566189646720886,0.6628400683403015
1761838762021435600,4.756435546875,-0.452754944562912,-0.2054128795862198,0.8011229634284973
1761838762031505000,4.7665048828125,-0.45009738206863403,-0.14387227594852448,0.9282023310661316
1761838762041574700,4.77657470703125,-0.4426060914993286,-0.12572436034679413,1.0303715467453003
1761838762051645000,4.78664501953125,-0.42648595571517944,-0.10192954540252686,1.1193333864212036
1761838762061713700,4.796713623046875,-0.40577423572540283,-0.07979060709476471,1.1946913003921509
1761838762071783700,4.80678369140625,-0.4050876796245575,-0.08970582485198975,1.256996512413025
1761838762081854000,4.81685400390625,-0.44060614705085754,-0.17042480409145355,1.2876096963882446
1761838762091922700,4.826922607421875,-0.515098512172699,-0.28522300720214844,1.2712677717208862
1761838762101993000,4.836992919921875,-0.6284027099609375,-0.4356987476348877,1.208723545074463
1761838762112062700,4.847062744140625,-0.7386594414710999,-0.5569401979446411,1.1354594230651855
1761838762122132200,4.85713232421875,-0.8416476249694824,-0.5948330760002136,1.0715305805206299
1761838762132202200,4.8672021484375,-0.9164968729019165,-0.5320988297462463,1.02325439453125
1761838762142272300,4.877272216796875,-0.9495564103126526,-0.3894140422344208,0.9787840843200684
1761838762152341200,4.88734130859375,-0.9236664772033691,-0.20749245584011078,0.9004967212677002
1761838762162411300,4.897411376953125,-0.8474409580230713,-0.014350391924381256,0.7729686498641968
1761838762172481300,4.907481201171875,-0.745316743850708,0.174149751663208,0.612088680267334
1761838762182550300,4.91755029296875,-0.6438934803009033,0.3258625864982605,0.4185551702976227
1761838762192620300,4.927620361328125,-0.5581103563308716,0.4308963119983673,0.21061180531978607
1761838762202689300,4.937689208984375,-0.4987678825855255,0.46519187092781067,0.005860626231878996
1761838762212759300,4.94775927734375,-0.48731735348701477,0.4571925103664398,-0.18370798230171204
1761838762222829300,4.957829345703125,-0.5080951452255249,0.4379335343837738,-0.32627925276756287
1761838762232898300,4.967898193359375,-0.5265932083129883,0.412034273147583,-0.42620718479156494
1761838762242968300,4.97796826171875,-0.5377198457717896,0.3852105140686035,-0.47734060883522034
1761838762253038000,4.9880380859375,-0.5314608812332153,0.35357189178466797,-0.49739527702331543
1761838762263107300,4.998107421875,-0.5200688242912292,0.3108786344528198,-0.5017052888870239
1761838762273177000,5.008177001953125,-0.50013667345047,0.27709776163101196,-0.4991006851196289
1761838762283247400,5.018247314453125,-0.4899193048477173,0.25006458163261414,-0.49154195189476013
1761838762293316000,5.028316162109375,-0.4776676893234253,0.2424226552248001,-0.49911171197891235
1761838762303386000,5.03838623046875,-0.46356385946273804,0.24520078301429749,-0.5219193696975708
1761838762313456400,5.048456298828125,-0.43993550539016724,0.2491459995508194,-0.5768473148345947
1761838762323525000,5.058525146484375,-0.3997631072998047,0.26712295413017273,-0.6586155295372009
1761838762333595400,5.068595458984375,-0.352888822555542,0.2951790690422058,-0.7688488364219666
1761838762343665200,5.0786650390625,-0.3167864680290222,0.35373738408088684,-0.9172176718711853
1761838762353734100,5.088734130859375,-0.3066989481449127,0.4681776762008667,-1.0887972116470337
1761838762363804400,5.098804443359375,-0.3530794382095337,0.6735439300537109,-1.2389990091323853
1761838762373874200,5.108874267578125,-0.457476943731308,0.9466641545295715,-1.3700664043426514
1761838762383943400,5.118943359375,-0.5862749218940735,1.2137906551361084,-1.4986869096755981
1761838762394013200,5.12901318359375,-0.7038082480430603,1.4242048263549805,-1.6345291137695312
1761838762404083200,5.139083251953125,-0.789628803730011,1.492920994758606,-1.7645764350891113
1761838762414152200,5.149152099609375,-0.8191688656806946,1.3981555700302124,-1.8414711952209473
1761838762424222200,5.15922216796875,-0.7643083930015564,1.2172093391418457,-1.8328546285629272
1761838762434292200,5.169292236328125,-0.6204209923744202,0.9139227867126465,-1.7492127418518066
1761838762444361200,5.179361328125,-0.3333437144756317,0.6036769151687622,-1.5274676084518433
1761838762454431200,5.18943115234375,0.04974135383963585,0.4529950022697449,-1.1118626594543457
1761838762464500200,5.199500244140625,0.364682137966156,0.15475817024707794,-0.7697206735610962
1761838762474570200,5.2095703125,0.45544958114624023,-0.5030530095100403,-0.6847397685050964
1761838762484640000,5.219639892578125,0.4072929620742798,-1.4681439399719238,-0.6987176537513733
1761838762494709200,5.229709228515625,0.4055137038230896,-2.3762528896331787,-0.5030632019042969
1761838762504779300,5.239779296875,0.6418238878250122,-2.946120023727417,0.05077236518263817
1761838762514849300,5.249849365234375,0.9628778100013733,-2.8200364112854004,0.8905043601989746
1761838762524918300,5.259918212890625,1.0801732540130615,-2.1923649311065674,1.5768588781356812
1761838762534988300,5.26998828125,1.0415505170822144,-1.3846261501312256,1.7660578489303589
1761838762545058300,5.280058349609375,0.9331987500190735,-0.689903974533081,1.4761277437210083
1761838762555127000,5.290126953125,0.8061054944992065,-0.3500491678714752,0.8716477751731873
1761838762565197300,5.300197265625,0.7838495969772339,-0.47973501682281494,0.19284677505493164
1761838762575267300,5.310267333984375,0.9331333637237549,-0.9738696217536926,-0.2739472985267639
1761838762585336300,5.32033642578125,1.2041709423065186,-1.552412748336792,-0.4035364091396332
1761838762595406300,5.33040625,1.3154997825622559,-2.002307891845703,-0.2473614364862442
1761838762605476000,5.34047607421875,1.165856957435608,-1.9798697233200073,0.1362311989068985
1761838762615545300,5.35054541015625,0.8951261639595032,-1.571487307548523,0.6812540292739868
1761838762625615000,5.360614990234375,0.7337554693222046,-1.2640756368637085,1.1068331003189087
1761838762635685000,5.37068505859375,0.7198449969291687,-1.10854971408844,1.2379151582717896
1761838762645754400,5.38075439453125,0.7792423367500305,-0.9173305034637451,1.1270097494125366
1761838762655824100,5.39082421875,0.7639467120170593,-0.5093989372253418,0.8995742797851562
1761838762665893400,5.400893310546875,0.5395060181617737,0.12732547521591187,0.6726725101470947
1761838762675963100,5.410963134765625,0.13650904595851898,0.885921835899353,0.6579065918922424
1761838762686033200,5.421033203125,-0.2063673436641693,1.4823015928268433,0.9025930166244507
1761838762696102100,5.43110205078125,-0.43184414505958557,1.8155832290649414,1.2271686792373657
1761838762706172200,5.441172119140625,-0.5964951515197754,1.959811806678772,1.579569697380066
1761838762716242400,5.451242431640625,-0.6643991470336914,2.081397771835327,1.9730983972549438
1761838762726311200,5.461311279296875,-0.4599156379699707,2.0866622924804688,2.455353021621704
1761838762736381200,5.471381103515625,0.029330769553780556,1.8547022342681885,3.0167579650878906
1761838762746451200,5.481451171875,0.7610185742378235,1.4788479804992676,3.6364946365356445
1761838762756520200,5.491520263671875,1.6449531316757202,1.0844998359680176,4.245686054229736
1761838762766590200,5.501590087890625,2.466310739517212,0.5773690342903137,4.683764457702637
1761838762776660200,5.51166015625,3.0022287368774414,0.08334998786449432,4.8818745613098145
1761838762786729200,5.521729248046875,3.1944291591644287,-0.437181681394577,4.859321594238281
1761838762796799200,5.53179931640625,2.9870030879974365,-0.2777472734451294,4.955901622772217
1761838762806869200,5.541869140625,2.536109209060669,-0.2844432592391968,4.998591423034668
1761838762816938200,5.551938232421875,1.5246078968048096,-0.31547683477401733,4.953742027282715
1761838762827008300,5.56200830078125,0.38904282450675964,-0.4370032250881195,4.810065746307373
1761838762837077200,5.5720771484375,-0.3836999833583832,-0.43953031301498413,4.4883599281311035
1761838762847147300,5.582147216796875,-0.6980589628219604,-0.2996387481689453,3.8472158908843994
1761838762857217300,5.59221728515625,-0.6378512978553772,-0.14149411022663116,2.8898727893829346
1761838762867286300,5.602286376953125,-0.28743934631347656,0.10903572291135788,1.8764334917068481
1761838762877356300,5.612356201171875,0.1829041987657547,0.49716880917549133,1.0572398900985718
1761838762887426000,5.622426025390625,0.6320937275886536,1.0134450197219849,0.48054999113082886
1761838762897495300,5.632495361328125,0.9830677509307861,1.5299988985061646,0.1564222276210785
1761838762907565000,5.64256494140625,1.1705163717269897,1.7144412994384766,0.02216486819088459
1761838762917635300,5.65263525390625,0.9810923337936401,1.4384698867797852,-0.007369853090494871
1761838762927704300,5.662704345703125,0.48257583379745483,0.8763642311096191,0.03941062465310097
1761838762937774000,5.672774169921875,-0.1356402486562729,0.1881866455078125,0.015944980084896088
1761838762947844400,5.68284423828125,-0.6715661287307739,-0.4799336791038513,-0.1498120129108429
1761838762957913000,5.6929130859375,-1.0234954357147217,-0.926034688949585,-0.44907596707344055
1761838762967983400,5.7029833984375,-1.1690219640731812,-1.1507302522659302,-0.8066160082817078
1761838762978052000,5.713052001953125,-1.1590337753295898,-1.2138385772705078,-1.2544499635696411
1761838762988122000,5.7231220703125,-1.0400022268295288,-1.1030476093292236,-1.850175142288208
1761838762998192400,5.7331923828125,-0.8831174969673157,-0.7967721819877625,-2.5290000438690186
1761838763008261000,5.74326123046875,-0.7714645862579346,-0.2875324785709381,-3.1435115337371826
1761838763018331400,5.753331298828125,-0.6460621356964111,0.32367339730262756,-3.475529432296753
1761838763028401200,5.763401123046875,-0.4755709171295166,0.8180657625198364,-3.478386878967285
1761838763038470100,5.77347021484375,-0.39088425040245056,1.1190760135650635,-3.318075656890869
1761838763048540200,5.7835400390625,-0.3529564142227173,1.1504733562469482,-3.065319538116455
1761838763058610200,5.793610107421875,-0.3742862045764923,0.8021739721298218,-2.989326238632202
1761838763068679400,5.803679443359375,-0.46597185730934143,0.21668043732643127,-3.0773515701293945
1761838763078749200,5.813749267578125,-0.5158770680427551,-0.49635326862335205,-3.110114336013794
1761838763088819200,5.823819091796875,-0.3952612280845642,-1.1378202438354492,-2.7652838230133057
1761838763098888200,5.83388818359375,0.012523237615823746,-1.5617414712905884,-1.8928598165512085
1761838763108958200,5.843958251953125,0.7074463367462158,-1.774267554283142,-0.6417075991630554
1761838763119028000,5.854028076171875,1.4650986194610596,-1.9245294332504272,0.4639263451099396
1761838763129097700,5.86409765625,2.0644094944000244,-2.7212612628936768,0.6675743460655212
1761838763139167700,5.874167724609375,2.073364496231079,-3.494657278060913,-0.24632349610328674
1761838763149236700,5.88423681640625,1.6230430603027344,-3.2767138481140137,-1.6071709394454956
1761838763159306800,5.894306640625,1.070008635520935,-2.504032611846924,-2.313018798828125
1761838763169376800,5.904376708984375,0.32453668117523193,-1.754016399383545,-1.700471043586731
1761838763179445800,5.91444580078125,-0.7026181221008301,-0.6700725555419922,-0.5038280487060547
1761838763189515800,5.924515869140625,-1.5288188457489014,0.47030916810035706,0.17073315382003784
1761838763199585800,5.934585693359375,-1.8430747985839844,1.2523880004882812,0.003918865695595741
1761838763209654800,5.94465478515625,-1.7322111129760742,1.7187130451202393,-0.897581934928894
1761838763219724800,5.954724853515625,-1.2741492986679077,1.889445424079895,-2.2617132663726807
1761838763229794800,5.964794921875,-0.6783512830734253,1.6842454671859741,-3.73622727394104
1761838763239863800,5.97486376953125,-0.14802831411361694,1.0180476903915405,-4.931601047515869
1761838763249933800,5.984933837890625,0.3189283311367035,0.07815491408109665,-5.520709991455078
1761838763260002800,5.9950029296875,0.7426236867904663,-0.8016629815101624,-5.398377418518066
1761838763270072600,6.005072509765625,1.0333510637283325,-1.347216248512268,-4.695934772491455
1761838763280142800,6.015142822265625,1.0795739889144897,-1.3292665481567383,-3.7698020935058594
1761838763290211600,6.025211669921875,0.9399489164352417,-0.814842700958252,-3.0830094814300537
1761838763300281900,6.03528173828125,0.6489239931106567,0.13379181921482086,-2.972252130508423
1761838763310352000,6.045351806640625,0.30464968085289,1.1594222784042358,-3.2434260845184326
1761838763320420900,6.0554208984375,-0.20435282588005066,1.4469190835952759,-2.6204400062561035
1761838763330491000,6.065490966796875,-0.5988563895225525,1.2409348487854004,-1.4521465301513672
1761838763340560600,6.075560546875,-0.8898645639419556,0.8734665513038635,-0.1488470882177353
1761838763350630000,6.0856298828125,-1.1756776571273804,0.47987911105155945,0.9841358065605164
1761838763360700000,6.095699951171875,-1.348995566368103,0.18778279423713684,1.8142521381378174
1761838763370769000,6.105768798828125,-1.3768959045410156,0.014198350720107555,2.3617660999298096
1761838763380839000,6.1158388671875,-1.3149566650390625,-0.009773828089237213,2.6857690811157227
1761838763390908700,6.12590869140625,-1.2132182121276855,0.126754492521286,2.833333730697632
1761838763400978000,6.13597802734375,-1.0693621635437012,0.40344518423080444,2.8600902557373047
1761838763411047700,6.146047607421875,-0.913203775882721,0.731787919998169,2.7956175804138184
1761838763421117700,6.15611767578125,-0.7508662939071655,1.054852843284607,2.6864888668060303
1761838763431186700,6.166186767578125,-0.5802164077758789,1.3372719287872314,2.5471343994140625
1761838763441256700,6.176256591796875,-0.41311851143836975,1.5405163764953613,2.3922016620635986
1761838763451326700,6.18632666015625,-0.24453823268413544,1.6366379261016846,2.237244129180908
1761838763461395700,6.196395751953125,-0.08470223098993301,1.5980069637298584,2.0953009128570557
1761838763471465700,6.2064658203125,0.0490344800055027,1.3990668058395386,1.9602850675582886
1761838763481534700,6.21653466796875,0.16200977563858032,1.0667105913162231,1.827417016029358
1761838763491604700,6.226604736328125,0.2108546495437622,0.7110122442245483,1.6776313781738281
1761838763501675000,6.236675048828125,0.28075331449508667,0.2914711534976959,1.537834882736206
1761838763511743700,6.24674365234375,0.39466723799705505,-0.13681553304195404,1.4182161092758179
1761838763521813800,6.256813720703125,0.5373029708862305,-0.5570077300071716,1.2913473844528198
1761838763531883800,6.2668837890625,0.6486273407936096,-0.9657701253890991,1.0989118814468384
1761838763541952800,6.276952880859375,0.713891863822937,-1.347798466682434,0.8118029832839966
1761838763552022800,6.287022705078125,0.7419825792312622,-1.6766042709350586,0.4424595534801483
1761838763562091800,6.297091796875,0.7323667407035828,-1.8575190305709839,0.006392491515725851
1761838763572161800,6.307161865234375,0.6869860887527466,-1.839706301689148,-0.45103418827056885
1761838763582231800,6.317231689453125,0.6226432919502258,-1.6225382089614868,-0.9171238541603088
1761838763592300800,6.32730078125,0.5134047865867615,-1.2164026498794556,-1.380218267440796
1761838763602370800,6.337370849609375,0.317602276802063,-0.70097416639328,-1.8044843673706055
1761838763612440800,6.34744091796875,0.022494163364171982,-0.15799885988235474,-2.1376495361328125
1761838763622509800,6.357509765625,-0.296562135219574,0.3818630278110504,-2.346376657485962
1761838763632579800,6.367579833984375,-0.5465837717056274,0.8186005353927612,-2.449613094329834
1761838763642649900,6.37764990234375,-0.6383908987045288,1.094765305519104,-2.4907000064849854
1761838763652718800,6.38771875,-0.5673859119415283,1.2087088823318481,-2.4619696140289307
1761838763662788900,6.397788818359375,-0.39030754566192627,1.2007875442504883,-2.356825113296509
1761838763672857900,6.40785791015625,-0.17925286293029785,1.1039044857025146,-2.1835010051727295
1761838763682927900,6.417927978515625,0.015391459688544273,0.8982601761817932,-1.9912195205688477
1761838763692997600,6.42799755859375,0.1606523096561432,0.642306387424469,-1.790394902229309
1761838763703067000,6.43806689453125,0.23762458562850952,0.44561833143234253,-1.572751522064209
1761838763713136600,6.44813671875,0.21464788913726807,0.31658419966697693,-1.3480361700057983
1761838763723206700,6.45820654296875,0.08552319556474686,0.21347564458847046,-1.0881998538970947
1761838763733276000,6.46827587890625,-0.09009427577257156,0.1470762938261032,-0.8020363450050354
1761838763743345700,6.478345703125,-0.2814141809940338,0.10456585884094238,-0.504531979560852
1761838763753416000,6.488416015625,-0.47372332215309143,0.06022663414478302,-0.25498807430267334
1761838763763484700,6.498484619140625,-0.6417765021324158,0.005715185776352882,-0.06401678919792175
1761838763773554700,6.5085546875,-0.7533266544342041,-0.006203684955835342,0.11847048997879028
1761838763783623700,6.518623779296875,-0.8394559025764465,-0.009256999008357525,0.31408578157424927
1761838763793693700,6.528693603515625,-0.916601300239563,0.0024326518177986145,0.4889887869358063
1761838763803764000,6.538763916015625,-0.9686551690101624,0.03579886257648468,0.6334258913993835
1761838763813832700,6.548832763671875,-0.9823417067527771,0.0825163722038269,0.7511979341506958
1761838763823902700,6.55890283203125,-0.9616103172302246,0.1155579462647438,0.85862797498703
1761838763833972700,6.56897265625,-0.9026249647140503,0.12238731980323792,0.9551458954811096
1761838763844041700,6.579041748046875,-0.8247682452201843,0.10346502810716629,1.022230625152588
1761838763854111700,6.58911181640625,-0.7391753792762756,0.08718950301408768,1.0782724618911743
1761838763864180700,6.5991806640625,-0.6491378545761108,0.08636285364627838,1.1308789253234863
1761838763874251000,6.6092509765625,-0.5499703884124756,0.06505938619375229,1.1726200580596924
1761838763884320800,6.61932080078125,-0.44342267513275146,0.016237255185842514,1.1805120706558228
1761838763894389800,6.6293896484375,-0.34837955236434937,-0.04774610325694084,1.1486239433288574
1761838763904459800,6.639459716796875,-0.2603442370891571,-0.09261371195316315,1.0639886856079102
1761838763914529800,6.64952978515625,-0.17396137118339539,-0.1104111522436142,0.9312528967857361
1761838763924598800,6.659598876953125,-0.0755879282951355,-0.11085457354784012,0.7656511068344116
1761838763934668800,6.669668701171875,0.02284681610763073,-0.09965643286705017,0.5751086473464966
1761838763944737800,6.67973779296875,0.10913936048746109,-0.07603712379932404,0.3744780421257019
1761838763954807800,6.689807861328125,0.1608186960220337,-0.024002566933631897,0.16877862811088562
1761838763964877800,6.6998779296875,0.18163582682609558,0.056225959211587906,-0.020028050988912582
1761838763974946800,6.70994677734375,0.17728033661842346,0.13491417467594147,-0.1938352733850479
1761838763985016800,6.720016845703125,0.16142280399799347,0.19459374248981476,-0.35426223278045654
1761838763995086600,6.730086669921875,0.13608907163143158,0.2678736448287964,-0.5049702525138855
1761838764005155800,6.74015576171875,0.086708202958107,0.35561734437942505,-0.6865187883377075
1761838764015225900,6.750225830078125,0.021723764017224312,0.44459545612335205,-0.8954007029533386
1761838764025294800,6.760294921875,-0.058648575097322464,0.5195837020874023,-1.099496603012085
1761838764035364900,6.77036474609375,-0.14768657088279724,0.5652256011962891,-1.2360730171203613
1761838764045434600,6.7804345703125,-0.23361027240753174,0.5698896050453186,-1.301692247390747
1761838764055504000,6.79050390625,-0.29168879985809326,0.5611200332641602,-1.3001796007156372
1761838764065573600,6.80057373046875,-0.34324997663497925,0.5504255890846252,-1.2536810636520386
1761838764075644000,6.810643798828125,-0.39125412702560425,0.5493621826171875,-1.198357343673706
1761838764085712600,6.820712646484375,-0.4400094151496887,0.5581818222999573,-1.1720749139785767
1761838764095782700,6.83078271484375,-0.49339908361434937,0.5083026885986328,-1.1837859153747559
1761838764105852000,6.840851806640625,-0.5475919842720032,0.4341144561767578,-1.2292585372924805
1761838764115921700,6.850921630859375,-0.5854619741439819,0.3449344038963318,-1.2937878370285034
1761838764125991700,6.86099169921875,-0.6159250736236572,0.25400716066360474,-1.3833931684494019
1761838764136060700,6.871060791015625,-0.6500228643417358,0.20738784968852997,-1.4911226034164429
1761838764146130700,6.881130615234375,-0.6806204319000244,0.1974603831768036,-1.5927568674087524
1761838764156200700,6.89120068359375,-0.7049039602279663,0.18282878398895264,-1.6570234298706055
1761838764166269400,6.90126953125,-0.6749840974807739,0.16002734005451202,-1.6210951805114746
1761838764176339700,6.911339599609375,-0.5745347142219543,0.14927037060260773,-1.4527662992477417
1761838764186408700,6.92140869140625,-0.44200757145881653,0.1446753442287445,-1.1790552139282227
1761838764196478700,6.931478759765625,-0.3153517544269562,0.12508410215377808,-0.841291069984436
1761838764206548700,6.941548828125,-0.23013724386692047,0.08590953052043915,-0.46045824885368347
1761838764216617500,6.951617431640625,-0.2236262410879135,-0.014604244381189346,-0.05939025804400444
1761838764226687700,6.961687744140625,-0.1995438039302826,-0.09267933666706085,0.3366449475288391
1761838764236757800,6.9717578125,-0.08984596282243729,-0.16292810440063477,0.7147675156593323
1761838764246826800,6.98182666015625,0.011014068499207497,-0.267586886882782,0.9973806142807007
1761838764256896800,6.991896728515625,0.038317859172821045,-0.4755299389362335,1.074983835220337
1761838764266965500,7.001965576171875,0.057998888194561005,-0.7864963412284851,1.0195029973983765
1761838764277035800,7.012035888671875,0.12012601643800735,-1.1888909339904785,0.8345694541931152
1761838764287105500,7.02210546875,0.2188592404127121,-1.7622753381729126,0.5156024098396301
1761838764297174800,7.0321748046875,0.2266576737165451,-2.273481845855713,0.07301640510559082
1761838764307244500,7.04224462890625,0.05329042300581932,-2.5721256732940674,-0.4619101285934448
1761838764317314600,7.052314453125,-0.29447197914123535,-2.557955503463745,-0.9393975734710693
1761838764327383800,7.0623837890625,-0.645601749420166,-2.1264352798461914,-1.113286018371582
1761838764337453600,7.07245361328125,-0.7294041514396667,-1.2136155366897583,-0.7298773527145386
1761838764347522800,7.082522705078125,-0.39704322814941406,-0.15757843852043152,0.17285728454589844
1761838764357592600,7.092592529296875,0.2533090114593506,0.6267876625061035,1.241145133972168
1761838764367662600,7.10266259765625,0.8521819710731506,0.8065457344055176,2.000702142715454
1761838764377731600,7.112731689453125,1.1628252267837524,0.3259974420070648,2.274855375289917
1761838764387801600,7.122801513671875,1.246233344078064,-0.5777508020401001,2.21464204788208
1761838764397870600,7.13287060546875,1.3202413320541382,-1.4411145448684692,2.2367446422576904
1761838764407940600,7.142940673828125,1.521638035774231,-2.0400006771087646,2.578467845916748
1761838764418010600,7.1530107421875,1.7355968952178955,-2.3626534938812256,3.1217308044433594
1761838764428079600,7.16307958984375,1.8121609687805176,-2.505079984664917,3.5784406661987305
1761838764438149600,7.173149658203125,1.7902679443359375,-2.5623691082000732,3.732349157333374
1761838764448219600,7.1832197265625,1.7010976076126099,-2.4297502040863037,3.5576767921447754
1761838764458288600,7.19328857421875,1.5704586505889893,-2.0446691513061523,3.172893762588501
1761838764468358700,7.203358642578125,1.5008656978607178,-1.3884940147399902,2.7403194904327393
1761838764478427600,7.213427734375,1.500666856765747,-0.5376462340354919,2.425462484359741
1761838764488497700,7.22349755859375,1.5587135553359985,0.36512061953544617,2.2877869606018066
1761838764498567700,7.233567626953125,1.6358630657196045,1.2177238464355469,2.305072784423828
1761838764508636700,7.24363671875,1.720847725868225,1.7880158424377441,2.420996904373169
1761838764518706700,7.253706787109375,1.7826279401779175,2.0014617443084717,2.5806872844696045
1761838764528776700,7.263776611328125,1.8616743087768555,1.9971919059753418,2.772850513458252
1761838764538845400,7.273845458984375,1.8678900003433228,1.8645274639129639,3.0000674724578857
1761838764548915700,7.283915771484375,1.6357556581497192,1.6231495141983032,3.2011215686798096
1761838764558984700,7.293984619140625,1.070116639137268,1.313705563545227,3.277083396911621
1761838764569054700,7.3040546875,0.22863341867923737,1.1185929775238037,3.17807674407959
1761838764579124700,7.314124755859375,-0.7203116416931152,1.2808506488800049,3.0015690326690674
1761838764589193500,7.324193359375,-1.5594062805175781,1.7812786102294922,2.9425313472747803
1761838764599263700,7.334263671875,-2.1506378650665283,2.3709280490875244,3.0461342334747314
1761838764609332500,7.34433251953125,-2.4479494094848633,2.7775075435638428,3.2497165203094482
1761838764619402800,7.35440283203125,-2.507817268371582,2.8921024799346924,3.468419313430786
1761838764629472800,7.36447265625,-2.486578941345215,2.757960557937622,3.631096601486206
1761838764639541500,7.37454150390625,-2.4631922245025635,2.347543239593506,3.650085687637329
1761838764649611800,7.38461181640625,-2.4291512966156006,1.6643017530441284,3.5678207874298096
1761838764659681500,7.394681640625,-2.376272678375244,0.8346094489097595,3.4243037700653076
1761838764669750800,7.404750732421875,-2.3087918758392334,-0.03763599693775177,3.2416489124298096
1761838764679820500,7.414820556640625,-2.228139877319336,-0.8673991560935974,2.9603331089019775
1761838764689889800,7.424889892578125,-2.0994603633880615,-1.4824689626693726,2.5173871517181396
1761838764699959800,7.434959716796875,-1.9126312732696533,-1.7650024890899658,1.9169425964355469
1761838764710029600,7.445029541015625,-1.717117428779602,-1.6575762033462524,1.2329237461090088
1761838764720098800,7.455098876953125,-1.5967339277267456,-1.276317834854126,0.5274433493614197
1761838764730168600,7.46516845703125,-1.5467959642410278,-0.7928212881088257,-0.1116037592291832
1761838764740237800,7.47523779296875,-1.5134528875350952,-0.3946462869644165,-0.5943014621734619
1761838764750307600,7.4853076171875,-1.4790682792663574,-0.18245333433151245,-0.9037301540374756
1761838764760377600,7.495377685546875,-1.4416941404342651,-0.22263625264167786,-1.0229507684707642
1761838764770446600,7.505446533203125,-1.3799989223480225,-0.4847632050514221,-1.0158365964889526
1761838764780516600,7.5155166015625,-1.2559096813201904,-0.8630000948905945,-0.9322888851165771
1761838764790586600,7.525586669921875,-1.074375867843628,-1.2279826402664185,-0.8129390478134155
1761838764800655600,7.535655517578125,-0.8527235984802246,-1.540039300918579,-0.6912448406219482
1761838764810725600,7.5457255859375,-0.6422531604766846,-1.7570629119873047,-0.6509594321250916
1761838764820794600,7.555794677734375,-0.46861469745635986,-1.8896340131759644,-0.6666198372840881
1761838764830864600,7.56586474609375,-0.36233434081077576,-1.9476581811904907,-0.6716183423995972
1761838764840934700,7.5759345703125,-0.28205418586730957,-1.9600985050201416,-0.6416655778884888
1761838764851003600,7.586003662109375,-0.19656483829021454,-1.9631065130233765,-0.6159274578094482
1761838764861073700,7.59607373046875,-0.1122041568160057,-1.9276412725448608,-0.6260883808135986
1761838764871142700,7.606142578125,-0.022238852456212044,-1.7895454168319702,-0.6926397085189819
1761838764881212700,7.616212646484375,0.06724005937576294,-1.4987705945968628,-0.8108123540878296
1761838764891282400,7.626282470703125,0.15077728033065796,-1.1297757625579834,-0.9560763239860535
1761838764901351700,7.6363515625,0.2226872742176056,-0.789849579334259,-1.1612067222595215
1761838764911421400,7.64642138671875,0.3036617338657379,-0.512798547744751,-1.4982565641403198
1761838764921490700,7.65649072265625,0.40828558802604675,-0.3557354211807251,-1.9798437356948853
1761838764931560700,7.666560791015625,0.5459156036376953,-0.38405200839042664,-2.5251550674438477
1761838764941630700,7.676630615234375,0.7056703567504883,-0.5314761400222778,-3.02854585647583
1761838764951699700,7.68669970703125,0.8350017070770264,-0.769891083240509,-3.3987724781036377
1761838764961769500,7.69676953125,1.0008352994918823,-0.9302836656570435,-3.4438085556030273
1761838764971839700,7.70683984375,1.3306074142456055,-0.92867112159729,-3.064234495162964
1761838764981908500,7.716908447265625,1.7836977243423462,-0.7009903192520142,-2.4316439628601074
1761838764991978800,7.726978759765625,2.124567747116089,-1.2678183317184448,-2.2019407749176025
1761838765002047500,7.737047607421875,2.0908873081207275,-2.0019874572753906,-2.3282084465026855
1761838765012117500,7.747117431640625,1.667630910873413,-3.0433075428009033,-2.5240964889526367
1761838765022187800,7.757187744140625,0.9582860469818115,-3.282202959060669,-2.0562267303466797
1761838765032256500,7.767256591796875,-0.2666192054748535,-2.579777717590332,-1.0575110912322998
1761838765042326800,7.777326904296875,-1.5946348905563354,-1.7848236560821533,-0.5004566311836243
1761838765052395500,7.7873955078125,-2.3206124305725098,-0.9726777076721191,-0.595824658870697
1761838765062465800,7.7974658203125,-2.3295390605926514,-0.16940189898014069,-1.085986614227295
1761838765072535800,7.807535888671875,-1.800021767616272,0.4827761650085449,-1.6779167652130127
1761838765082604500,7.8176044921875,-1.0640658140182495,0.8727708458900452,-2.197380304336548
1761838765092674800,7.8276748046875,-0.41431060433387756,0.9506936073303223,-2.6363730430603027
1761838765102743600,7.83774365234375,0.03059282898902893,0.8702839612960815,-2.945162534713745
1761838765112813800,7.847813720703125,0.29396161437034607,0.7810800671577454,-2.9957425594329834
1761838765122883300,7.85788330078125,0.4430924654006958,0.6818953156471252,-2.718451499938965
1761838765132952600,7.86795263671875,0.5296773910522461,0.5001998543739319,-2.237898826599121
1761838765143022300,7.878022216796875,0.5627549290657043,0.2621731758117676,-1.6677502393722534
1761838765153091300,7.88809130859375,0.5511901378631592,0.057585135102272034,-1.0869497060775757
1761838765163161300,7.898161376953125,0.5333664417266846,-0.037749581038951874,-0.5198514461517334
1761838765173231400,7.9082314453125,0.4785972535610199,0.08276591449975967,-0.02732829377055168
1761838765183300400,7.91830029296875,0.34550905227661133,0.35540375113487244,0.26874756813049316
1761838765193370400,7.928370361328125,0.1844823658466339,0.6796814203262329,0.3431254029273987
1761838765203439400,7.938439453125,0.059353798627853394,0.9479438066482544,0.2673889696598053
1761838765213509400,7.94850927734375,-0.04665013402700424,1.0897539854049683,0.09836503863334656
1761838765223579400,7.958579345703125,-0.15502816438674927,1.1033239364624023,-0.07741805911064148
1761838765233648400,7.9686484375,-0.2443908005952835,1.0719166994094849,-0.17338693141937256
1761838765243718400,7.978718505859375,-0.2778110206127167,1.0579763650894165,-0.1250220686197281
1761838765253788400,7.988788330078125,-0.26567232608795166,1.027146339416504,0.06999988853931427
1761838765263857400,7.998857421875,-0.22092191874980927,0.9362002611160278,0.3633532226085663
1761838765273927400,8.008927490234376,-0.15834535658359528,0.7796183228492737,0.684541642665863
1761838765283996400,8.018996337890625,-0.08356953412294388,0.6023647785186768,0.9859683513641357
1761838765294065400,8.0290654296875,-0.028666337952017784,0.3793061375617981,1.2032334804534912
1761838765304135400,8.039135498046875,-0.005125273484736681,0.13385024666786194,1.359572410583496
1761838765314204400,8.049204345703124,0.014848168008029461,-0.03708527609705925,1.4695367813110352
1761838765324274200,8.059274169921874,0.024151016026735306,-0.16130834817886353,1.5275194644927979
1761838765334344400,8.069344482421876,0.016930388286709785,-0.2541879713535309,1.4895318746566772
1761838765344413200,8.0794130859375,-0.01816086284816265,-0.2822903096675873,1.3666458129882812
1761838765354483500,8.0894833984375,-0.08008015900850296,-0.2824122905731201,1.1823018789291382
1761838765364552200,8.09955224609375,-0.12043524533510208,-0.23861190676689148,1.0013161897659302
1761838765374622500,8.10962255859375,-0.13069534301757812,-0.16276055574417114,0.8450497388839722
1761838765384692500,8.1196923828125,-0.11469491571187973,-0.10365892946720123,0.7326589822769165
1761838765394761200,8.12976123046875,-0.07805461436510086,-0.04041285067796707,0.66259765625
1761838765404831500,8.13983154296875,-0.041373398154973984,0.036868032068014145,0.6117899417877197
1761838765414901200,8.1499013671875,-0.042462095618247986,0.15461863577365875,0.5782532691955566
1761838765424970500,8.159970458984375,-0.07852929085493088,0.269553005695343,0.5754306316375732
1761838765435040500,8.17004052734375,-0.13807490468025208,0.32001593708992004,0.600615382194519
1761838765445109200,8.180109130859375,-0.1980380117893219,0.3269653916358948,0.6476806998252869
1761838765455179500,8.190179443359375,-0.26108622550964355,0.2881772518157959,0.676069438457489
1761838765465249300,8.200249267578124,-0.35505834221839905,0.2512996792793274,0.6259902119636536
1761838765475318500,8.210318603515624,-0.4872547388076782,0.2950703203678131,0.46810096502304077
1761838765485388300,8.22038818359375,-0.6219195127487183,0.3672733008861542,0.2140815407037735
1761838765495457500,8.23045751953125,-0.7055199146270752,0.4051450490951538,-0.07517796009778976
1761838765505527300,8.24052734375,-0.7153976559638977,0.42977553606033325,-0.31844615936279297
1761838765515597300,8.250597412109375,-0.6642056107521057,0.40296441316604614,-0.4849392771720886
1761838765525666600,8.26066650390625,-0.5707970857620239,0.3163038492202759,-0.5843755602836609
1761838765535736300,8.270736328125,-0.45076683163642883,0.20500531792640686,-0.6232225298881531
1761838765545805600,8.2808056640625,-0.33899426460266113,0.0885285958647728,-0.6117068529129028
1761838765555875300,8.290875244140626,-0.23346252739429474,-0.020100940018892288,-0.5352177023887634
1761838765565945300,8.3009453125,-0.1413564383983612,-0.09781841188669205,-0.38021141290664673
1761838765576014300,8.311014404296875,-0.05805596709251404,-0.10723668336868286,-0.14462657272815704
1761838765586084400,8.32108447265625,0.02056959830224514,-0.09522604942321777,0.1280674785375595
1761838765596153300,8.3311533203125,0.10429032146930695,-0.1292268931865692,0.37342798709869385
1761838765606223400,8.341223388671875,0.17998859286308289,-0.19986484944820404,0.5464394092559814
1761838765616293400,8.35129345703125,0.24531488120555878,-0.26038384437561035,0.6247419118881226
1761838765626362400,8.3613623046875,0.30337968468666077,-0.29864805936813354,0.6268265843391418
1761838765636432400,8.371432373046876,0.322380006313324,-0.28568726778030396,0.5710054039955139
1761838765646501400,8.38150146484375,0.30598184466362,-0.19988252222537994,0.5058048963546753
1761838765656571400,8.3915712890625,0.26871225237846375,-0.06212040036916733,0.45778515934944153
1761838765666641400,8.401641357421875,0.21246767044067383,0.05681901425123215,0.4258338510990143
1761838765676710400,8.41171044921875,0.1476663053035736,0.15558207035064697,0.4086149036884308
1761838765686780400,8.421780517578124,0.0738639235496521,0.2191632091999054,0.39415451884269714
1761838765696849400,8.431849365234376,0.0017966554732993245,0.2306792438030243,0.38025760650634766
1761838765706919400,8.44191943359375,-0.07516241073608398,0.19773882627487183,0.3603646755218506
1761838765716989200,8.4519892578125,-0.16925162076950073,0.12135642766952515,0.3466176986694336
1761838765727058400,8.462058349609375,-0.25888311862945557,0.024852577596902847,0.34009259939193726
1761838765737128200,8.472128173828125,-0.32871466875076294,-0.08119262754917145,0.34895721077919006
1761838765747197400,8.482197509765625,-0.3736878037452698,-0.18028244376182556,0.36042967438697815
1761838765757267500,8.492267333984374,-0.40733686089515686,-0.2698237895965576,0.352402925491333
1761838765767337200,8.502337158203124,-0.42764467000961304,-0.32630810141563416,0.32668277621269226
1761838765777406500,8.512406494140626,-0.43378910422325134,-0.36114436388015747,0.29431793093681335
1761838765787476200,8.522476318359375,-0.4308072328567505,-0.35079774260520935,0.25551867485046387
1761838765797545500,8.53254541015625,-0.42123502492904663,-0.30860021710395813,0.22407393157482147
1761838765807615200,8.542615234375,-0.4128405451774597,-0.2429560273885727,0.19391697645187378
1761838765817685200,8.552685302734375,-0.41390764713287354,-0.14438340067863464,0.15236766636371613
1761838765827754200,8.562754150390624,-0.41773542761802673,-0.0347832590341568,0.10037229210138321
1761838765837824300,8.57282421875,-0.42511478066444397,0.07389448583126068,0.031807880848646164
1761838765847893500,8.5828935546875,-0.4258504807949066,0.16332273185253143,-0.06219164654612541
1761838765857963300,8.59296337890625,-0.4179973602294922,0.24244818091392517,-0.1729477196931839
1761838765868033500,8.603033447265625,-0.4061239957809448,0.313912034034729,-0.2643698751926422
1761838765878104600,8.6131044921875,-0.38321253657341003,0.36995694041252136,-0.3251357674598694
1761838765888174300,8.62317431640625,-0.35004085302352905,0.39537137746810913,-0.35840776562690735
1761838765898243300,8.633243408203125,-0.30766862630844116,0.39781323075294495,-0.3561054468154907
1761838765908313300,8.643313232421875,-0.2567751705646515,0.38497382402420044,-0.32872432470321655
1761838765918383400,8.65338330078125,-0.19556456804275513,0.3440149426460266,-0.28043854236602783
1761838765928452400,8.663452392578124,-0.13664990663528442,0.2825794219970703,-0.21495893597602844
1761838765938522400,8.6735224609375,-0.08016132563352585,0.21568293869495392,-0.14951655268669128
1761838765948591400,8.68359130859375,-0.03493792563676834,0.1466166079044342,-0.09789111465215683
1761838765958661400,8.693661376953125,-0.0022430941462516785,0.06703256815671921,-0.06464101374149323
1761838765968731400,8.7037314453125,0.01488428097218275,-0.005172893404960632,-0.06262020766735077
1761838765978800400,8.71380029296875,0.007168038748204708,-0.05720147490501404,-0.07679115980863571
1761838765988870400,8.723870361328125,-0.013749601319432259,-0.10522213578224182,-0.10632912814617157
1761838765998939400,8.733939453125,-0.03378802165389061,-0.13406097888946533,-0.1491764634847641
1761838766009009400,8.744009521484376,-0.046953149139881134,-0.1524224430322647,-0.19867423176765442
1761838766019079400,8.754079345703126,-0.049607522785663605,-0.16742855310440063,-0.25064823031425476
1761838766029148400,8.7641484375,-0.055050116032361984,-0.1394151896238327,-0.29180973768234253
1761838766039218400,8.774218505859375,-0.05584613233804703,-0.061449550092220306,-0.31847062706947327
1761838766049287400,8.784287353515625,-0.06658133119344711,0.006773399189114571,-0.334394246339798
1761838766059357400,8.794357421875,-0.07819804549217224,0.007502573076635599,-0.3599182367324829
1761838766069427200,8.80442724609375,-0.09925736486911774,-0.07792262732982635,-0.37534424662590027
1761838766079496400,8.814496337890626,-0.14451459050178528,-0.21665361523628235,-0.3556688129901886
1761838766089566500,8.82456640625,-0.32449474930763245,-0.3887117803096771,-0.29981184005737305
1761838766099635500,8.834635498046875,-0.5604441165924072,-0.5594342350959778,-0.24911993741989136
1761838766109705500,8.84470556640625,-0.7158758640289307,-0.6025806665420532,-0.18104484677314758
1761838766119774500,8.8547744140625,-0.7664924263954163,-0.5666817426681519,-0.12518319487571716
1761838766129843700,8.86484375,-0.8143429160118103,-0.532705545425415,-0.055469825863838196
1761838766139913500,8.87491357421875,-0.8958375453948975,-0.4961371421813965,-0.014307741075754166
1761838766149982700,8.884982666015626,-0.9652958512306213,-0.41213181614875793,-0.01797574572265148
1761838766160052500,8.895052490234375,-0.970548152923584,-0.3334202170372009,-0.05315983295440674
1761838766170122500,8.90512255859375,-0.9113683104515076,-0.329670250415802,-0.10462423413991928
1761838766180191700,8.915191650390625,-0.828097403049469,-0.390152245759964,-0.1582096964120865
1761838766190261500,8.925261474609375,-0.7506437301635742,-0.5041700601577759,-0.19221194088459015
1761838766200330800,8.935330810546875,-0.7142921090126038,-0.5275622010231018,-0.18982520699501038
1761838766210400500,8.945400390625,-0.7170461416244507,-0.4277649521827698,-0.16705282032489777
1761838766220470800,8.955470703125,-0.7325326800346375,-0.2836275100708008,-0.15842629969120026
1761838766230539500,8.96553955078125,-0.7404192090034485,-0.11564866453409195,-0.16631965339183807
1761838766240609500,8.975609619140625,-0.7294754981994629,-0.01407703012228012,-0.19669567048549652
1761838766250678500,8.985678466796875,-0.6949681043624878,0.011310511268675327,-0.22210079431533813
1761838766260748500,8.99574853515625,-0.6340120434761047,0.0002280334010720253,-0.23801212012767792
1761838766270818800,9.00581884765625,-0.5577945709228516,-0.025932935997843742,-0.22002044320106506
1761838766280887600,9.015887451171874,-0.4993288815021515,-0.09860660135746002,-0.15901035070419312
1761838766290957600,9.02595751953125,-0.47902020812034607,-0.18785791099071503,-0.08324313908815384
1761838766301026600,9.036026611328126,-0.4999025762081146,-0.3150787055492401,0.04385596141219139
1761838766311096600,9.0460966796875,-0.5125652551651001,-0.33618471026420593,0.1662764549255371
1761838766321166800,9.056166748046875,-0.47331294417381287,-0.35727372765541077,0.2806195318698883
1761838766331235600,9.066235595703125,-0.39699941873550415,-0.39188823103904724,0.3852107524871826
1761838766341305900,9.076305908203125,-0.3034292459487915,-0.3796643316745758,0.49913811683654785
1761838766351374600,9.08637451171875,-0.21669861674308777,-0.3338061273097992,0.5981884002685547
1761838766361444600,9.096444580078124,-0.134995236992836,-0.28918325901031494,0.6904227137565613
1761838766371514600,9.1065146484375,-0.04483151435852051,-0.19937889277935028,0.7514529824256897
1761838766381583600,9.11658349609375,0.055322252213954926,-0.069587342441082,0.7437124848365784
1761838766391653600,9.126653564453125,0.15811309218406677,0.0688999593257904,0.6856499910354614
1761838766401722600,9.13672265625,0.25949403643608093,0.22062397003173828,0.5956096053123474
1761838766411792600,9.146792724609375,0.36173495650291443,0.3887697756290436,0.5045432448387146
1761838766421861600,9.156861572265624,0.4515570104122162,0.5814347863197327,0.4354041516780853
1761838766431931600,9.166931640625,0.5280144214630127,0.7799925208091736,0.38564532995224
1761838766442001700,9.177001708984376,0.5545331239700317,0.9172276258468628,0.3326798379421234
1761838766452070700,9.187070556640625,0.5080363750457764,0.9702737927436829,0.2738313376903534
1761838766462140700,9.197140625,0.4366096258163452,0.9554250836372375,0.22779354453086853
1761838766472210700,9.207210693359375,0.3683903217315674,0.8953731656074524,0.19507566094398499
1761838766482279400,9.217279541015625,0.3134940266609192,0.8132221102714539,0.17698054015636444
1761838766492349700,9.227349609375,0.27690523862838745,0.7552213072776794,0.18893767893314362
1761838766502418700,9.237418701171874,0.2615867555141449,0.7121710777282715,0.22226446866989136
1761838766512488700,9.24748876953125,0.25511565804481506,0.6907092928886414,0.25693249702453613
1761838766522557700,9.2575576171875,0.25102874636650085,0.7310628294944763,0.27431520819664
1761838766532627500,9.26762744140625,0.2414432317018509,0.8279197812080383,0.2587801516056061
1761838766542697700,9.27769775390625,0.22206899523735046,0.939265251159668,0.1895182728767395
1761838766552766500,9.287766357421875,0.1942313015460968,1.002350926399231,0.08389167487621307
1761838766562836700,9.297836669921875,0.15200315415859222,0.978168785572052,-0.01969676837325096
1761838766572905500,9.307905517578124,0.10744702070951462,0.9466313719749451,-0.09668147563934326
1761838766582975700,9.317975830078124,0.08219599723815918,0.9345003962516785,-0.14938543736934662
1761838766593045800,9.328045654296876,0.0738784670829773,0.8050153851509094,-0.13008736073970795
1761838766603114500,9.338114501953125,0.07765402644872665,0.6974325180053711,-0.08793112635612488
1761838766613184800,9.348184814453125,0.10304514318704605,0.5600972771644592,-0.05892235040664673
1761838766623253500,9.35825341796875,0.14637930691242218,0.4482751786708832,-0.045659542083740234
1761838766633323800,9.36832373046875,0.20774902403354645,0.376586377620697,-0.05311674624681473
1761838766643393800,9.378393798828125,0.25988492369651794,0.34238526225090027,-0.07940933853387833
1761838766653462500,9.388462646484374,0.2961708605289459,0.3285650312900543,-0.11409121006727219
1761838766663532800,9.39853271484375,0.31636375188827515,0.3234517574310303,-0.13503164052963257
1761838766673601500,9.4086015625,0.31250983476638794,0.3125583827495575,-0.13856269419193268
1761838766683671800,9.418671875,0.2893826961517334,0.28668203949928284,-0.1438370794057846
1761838766693741600,9.428741455078125,0.26296237111091614,0.23299111425876617,-0.15837594866752625
1761838766703810800,9.438810791015625,0.25254541635513306,0.2004116028547287,-0.19713346660137177
1761838766713880600,9.448880615234375,0.26385703682899475,0.17055940628051758,-0.24546918272972107
1761838766723949600,9.458949462890626,0.29949331283569336,0.11478109657764435,-0.28602245450019836
1761838766734019800,9.469019775390626,0.3388967216014862,0.05591389536857605,-0.30069029331207275
1761838766744089600,9.479089599609376,0.37851443886756897,0.03192973509430885,-0.287641316652298
1761838766754158800,9.489158935546875,0.3996269702911377,0.06875617057085037,-0.24701404571533203
1761838766764228600,9.499228515625,0.39662665128707886,0.10237245261669159,-0.1864771991968155
1761838766774297600,9.509297607421875,0.36241811513900757,0.13041122257709503,-0.11513445526361465
1761838766784367600,9.51936767578125,0.3098861873149872,0.15334555506706238,-0.05354859307408333
1761838766794437600,9.529437744140624,0.2542842924594879,0.16273130476474762,-0.005717569496482611
1761838766804506600,9.539506591796876,0.20631544291973114,0.15792830288410187,0.026190295815467834
1761838766814576600,9.54957666015625,0.16074183583259583,0.14929118752479553,0.039157792925834656
1761838766824645600,9.559645751953125,0.13189421594142914,0.13316947221755981,0.058761052787303925
1761838766834715600,9.569715576171875,0.12706631422042847,0.10931187868118286,0.08638406544923782
1761838766844785700,9.57978564453125,0.13769392669200897,0.057114992290735245,0.12590856850147247
1761838766854854700,9.589854736328125,0.14845134317874908,-0.0018799221143126488,0.16021180152893066
1761838766864924700,9.599924560546874,0.14613653719425201,-0.047438617795705795,0.18042786419391632
1761838766874993700,9.60999365234375,0.1323523223400116,-0.05515008419752121,0.17156030237674713
1761838766885063700,9.620063720703126,0.10714896023273468,-0.03389832377433777,0.15440234541893005
1761838766895132400,9.63013232421875,0.0734095349907875,-0.024549972265958786,0.12721408903598785
1761838766905202700,9.64020263671875,0.03827924281358719,-0.02879931405186653,0.11429882049560547
1761838766915272700,9.650272705078125,0.016556745395064354,-0.050044409930706024,0.12950880825519562
1761838766925341700,9.660341796875,0.0003434212412685156,-0.04870031028985977,0.16444522142410278
1761838766935411700,9.67041162109375,-0.01074928417801857,-0.04129553213715553,0.19155429303646088
1761838766945480700,9.680480712890626,-0.011908025480806828,-0.04542582854628563,0.2065204530954361
1761838766955550700,9.69055078125,-0.012328537181019783,-0.06818532943725586,0.21064771711826324
1761838766965620700,9.700620849609376,-0.005247991532087326,-0.10147164762020111,0.20823010802268982
1761838766975689700,9.710689697265625,-0.0042039779946208,-0.11454135924577713,0.20343348383903503
1761838766985759700,9.720759765625,0.002496002707630396,-0.08396640419960022,0.21701587736606598
1761838766995828700,9.730828857421875,0.010080259293317795,-0.057365186512470245,0.24747030436992645
1761838767005898800,9.740898681640624,0.00481705367565155,-0.049343742430210114,0.2847742736339569
1761838767015968500,9.750968505859374,-0.008136932738125324,-0.05184610188007355,0.3081526458263397
1761838767026037800,9.761037841796876,-0.017811130732297897,-0.05380646139383316,0.3271505832672119
1761838767036107500,9.771107421875,-0.021654820069670677,-0.041875556111335754,0.33057793974876404
1761838767046176800,9.7811767578125,-0.013300217688083649,-0.035078637301921844,0.33631065487861633
1761838767056246800,9.791246826171875,0.0006201250944286585,-0.03563656657934189,0.3381732702255249
1761838767066316500,9.801316650390625,0.004597822669893503,-0.027245482429862022,0.33956342935562134
1761838767076385800,9.8113857421875,0.003460282925516367,-0.0177301075309515,0.31777137517929077
1761838767086455600,9.82145556640625,-0.00046388478949666023,-0.008984552696347237,0.2801526188850403
1761838767096524800,9.83152490234375,-0.015027277171611786,0.01755683124065399,0.2423127442598343
1761838767106594600,9.841594482421876,-0.03298976644873619,0.03427828848361969,0.19799694418907166
1761838767116663800,9.851663818359375,-0.04230406880378723,0.042093828320503235,0.16652514040470123
1761838767126738200,9.86173828125,-0.03946726769208908,0.04803001880645752,0.1479778289794922
1761838767136808200,9.87180810546875,-0.02603081986308098,0.03491208702325821,0.13938887417316437
1761838767146877000,9.881876953125,-0.014098526909947395,-0.0031506121158599854,0.11724655330181122
1761838767156947200,9.891947265625,-0.00782822072505951,-0.028165603056550026,0.09334113448858261
1761838767167017200,9.902017333984375,-0.01758204773068428,-0.03745497763156891,0.0630444809794426
1761838767177086200,9.912086181640625,-0.023931076750159264,-0.02314481884241104,0.06140740588307381
1761838767187156200,9.92215625,-0.027547117322683334,0.006793373264372349,0.08001305162906647
1761838767197225200,9.93222509765625,-0.03019174374639988,0.01950170285999775,0.10369319468736649
1761838767207295200,9.942295166015626,-0.03622353821992874,0.009131353348493576,0.12945501506328583
1761838767217365000,9.952364990234376,-0.04144732654094696,0.009601090103387833,0.14596445858478546
1761838767227434200,9.962434326171875,-0.04218582063913345,0.030019279569387436,0.16314691305160522
1761838767237504000,9.97250390625,-0.04390436038374901,0.04759494587779045,0.17039690911769867
1761838767247573200,9.9825732421875,-0.049297526478767395,0.04848657175898552,0.16952313482761383
1761838767257643300,9.992643310546875,-0.0487307533621788,0.06678033620119095,0.1593032330274582
1761838767267712000,10.0027119140625,-0.04683031886816025,0.08669652044773102,0.14609289169311523
1761838767277782300,10.0127822265625,-0.040271807461977005,0.11464135348796844,0.14244037866592407
1761838767287852000,10.02285205078125,-0.02128746546804905,0.14963768422603607,0.13870157301425934
1761838767297921300,10.03292138671875,-0.008309236727654934,0.17529454827308655,0.14373648166656494
1761838767307991000,10.042990966796875,-0.01545023638755083,0.20396773517131805,0.18159492313861847
1761838767318060000,10.05306005859375,-0.03315706551074982,0.17986226081848145,0.2336169332265854
1761838767328130000,10.063130126953125,-0.0428517684340477,0.10068835318088531,0.2926347255706787
1761838767338200000,10.073199951171874,-0.04572995752096176,0.025193143635988235,0.32702162861824036
1761838767348269300,10.083269287109376,-0.04152669012546539,-0.022658532485365868,0.34953173995018005
1761838767358339000,10.093339111328126,-0.03807113319635391,-0.05820107087492943,0.34073731303215027
1761838767368408300,10.103408203125,-0.023089785128831863,-0.08985806256532669,0.29744070768356323
1761838767378478000,10.11347802734375,-0.006874062120914459,-0.1199614629149437,0.22754013538360596
1761838767388548000,10.123548095703125,0.0012110283132642508,-0.12684227526187897,0.13175901770591736
1761838767398617000,10.1336171875,-0.005394944455474615,-0.09247857332229614,0.035897284746170044
1761838767408687000,10.14368701171875,-0.03728842735290527,-0.01180716510862112,-0.042258769273757935
1761838767418756000,10.153756103515626,-0.06784623116254807,0.08384054154157639,-0.07701864093542099
