time,seconds_elapsed,z,y,x
1761838621861713400,0.07471337890625,0.2948848605155945,-0.13857363164424896,0.635627031326294
1761838621871783200,0.084783203125,0.23450219631195068,-0.09174644201993942,0.554680347442627
1761838621881853400,0.094853515625,0.1855117529630661,-0.044642314314842224,0.42630907893180847
1761838621891923500,0.10492333984375,0.14580754935741425,-0.01733759604394436,0.25097280740737915
1761838621901993200,0.1149931640625,0.12101245671510696,-0.019063057377934456,0.04466410353779793
1761838621912062500,0.1250625,0.10729744285345078,-0.048359163105487823,-0.17921480536460876
1761838621922132200,0.13513232421875,0.11329248547554016,-0.08915799111127853,-0.395961195230484
1761838621932202200,0.1452021484375,0.12912310659885406,-0.13332119584083557,-0.5712169408798218
1761838621942272500,0.1552724609375,0.1404828131198883,-0.16697290539741516,-0.686781644821167
1761838621952341200,0.16534130859375,0.15477153658866882,-0.1533866673707962,-0.7219837307929993
1761838621962411500,0.17541162109375,0.18175841867923737,-0.11016116291284561,-0.6774423718452454
1761838621972481300,0.185481201171875,0.2123350203037262,-0.0640726387500763,-0.5791913270950317
1761838621982555400,0.195555419921875,0.24971941113471985,-0.029015585780143738,-0.44549286365509033
1761838621992625400,0.20562548828125,0.3018467128276825,-0.017616409808397293,-0.32270348072052
1761838622002694400,0.2156943359375,0.36165890097618103,-0.06518765538930893,-0.21917226910591125
1761838622012764400,0.225764404296875,0.41570940613746643,-0.14796070754528046,-0.1252507120370865
1761838622022834200,0.235834228515625,0.4776252508163452,-0.20971249043941498,-0.030947638675570488
1761838622032904400,0.245904541015625,0.5465693473815918,-0.257625013589859,0.06345004588365555
1761838622042973400,0.255973388671875,0.6334818601608276,-0.3121263384819031,0.1466836780309677
1761838622053043500,0.26604345703125,0.7305923104286194,-0.39015987515449524,0.21169531345367432
1761838622063113500,0.276113525390625,0.8103857040405273,-0.4841865003108978,0.23670825362205505
1761838622073183200,0.286183349609375,0.8600479960441589,-0.5751245021820068,0.22703100740909576
1761838622083253500,0.29625341796875,0.8803927302360535,-0.6458879113197327,0.1885262280702591
1761838622093322500,0.306322509765625,0.894901692867279,-0.6521157622337341,0.14511950314044952
1761838622103392300,0.316392333984375,0.9238052368164062,-0.5511824488639832,0.11495546996593475
1761838622113462500,0.326462646484375,0.9701176285743713,-0.34286731481552124,0.10379081964492798
1761838622123532500,0.336532470703125,1.0239161252975464,-0.08999352157115936,0.10141848027706146
1761838622133601500,0.3466015625,1.0722962617874146,0.13031311333179474,0.09979979693889618
1761838622143671600,0.356671630859375,1.1080747842788696,0.2741011679172516,0.08710957318544388
1761838622153741300,0.3667412109375,1.135312557220459,0.38072824478149414,0.07374870032072067
1761838622163811300,0.376811279296875,1.1575597524642944,0.4488636255264282,0.05633615702390671
1761838622173881600,0.386881591796875,1.1820122003555298,0.45384636521339417,0.029655437916517258
1761838622183950300,0.396950439453125,1.2254900932312012,0.42634496092796326,0.019404130056500435
1761838622194020600,0.4070205078125,1.2785899639129639,0.40466153621673584,0.03326931595802307
1761838622204090400,0.41709033203125,1.3342819213867188,0.4140094816684723,0.0648123249411583
1761838622214160400,0.427160400390625,1.390440583229065,0.45798683166503906,0.11025046557188034
1761838622224229400,0.4372294921875,1.441667079925537,0.5456013083457947,0.1525779515504837
1761838622234299400,0.44729931640625,1.4900439977645874,0.6725608706474304,0.1839328408241272
1761838622244369400,0.457369384765625,1.5442938804626465,0.8447861671447754,0.20501123368740082
1761838622254439400,0.467439453125,1.6281567811965942,1.0844920873641968,0.23135338723659515
1761838622264508400,0.47750830078125,1.7253954410552979,1.2520949840545654,0.22741563618183136
1761838622274578400,0.487578369140625,1.8478236198425293,1.1628161668777466,0.16869854927062988
1761838622284648400,0.4976484375,2.0082859992980957,0.8896462917327881,0.11612322181463242
1761838622294718500,0.507718505859375,2.1889688968658447,0.6833776831626892,0.09957537800073624
1761838622304788200,0.517788330078125,2.373440980911255,0.5746519565582275,0.09113369137048721
1761838622314857500,0.527857421875,2.534593343734741,0.41585060954093933,0.012231411412358284
1761838622324927200,0.53792724609375,2.649045467376709,0.1756609082221985,-0.15181425213813782
1761838622334997500,0.54799755859375,2.6823387145996094,-0.015857428312301636,-0.34773916006088257
1761838622345067500,0.558067626953125,2.6190295219421387,-0.064853735268116,-0.5359457731246948
1761838622355136500,0.568136474609375,2.485086679458618,0.02172914147377014,-0.662303626537323
1761838622365206500,0.57820654296875,2.334202766418457,0.210997074842453,-0.6761472821235657
1761838622375276300,0.5882763671875,2.194765090942383,0.46428918838500977,-0.5640672445297241
1761838622385346300,0.59834619140625,2.0727009773254395,0.7487640380859375,-0.3478734493255615
1761838622395416600,0.60841650390625,1.9569991827011108,0.98016756772995,-0.06558813899755478
1761838622405485300,0.6184853515625,1.8436793088912964,1.1728925704956055,0.23992277681827545
1761838622415555600,0.6285556640625,1.7342896461486816,1.31387197971344,0.5044549703598022
1761838622425625300,0.638625244140625,1.651872992515564,1.4155676364898682,0.6950404047966003
1761838622435695400,0.6486953125,1.6003481149673462,1.520115613937378,0.8066312670707703
1761838622445764400,0.658764404296875,1.5758748054504395,1.6069180965423584,0.8339089155197144
1761838622455834400,0.66883447265625,1.5752437114715576,1.6740868091583252,0.7917110919952393
1761838622465904400,0.678904296875,1.5782504081726074,1.7076572179794312,0.6956479549407959
1761838622475974400,0.688974365234375,1.5830974578857422,1.6693482398986816,0.5538347959518433
1761838622486043400,0.69904345703125,1.5778017044067383,1.542138934135437,0.3795253336429596
1761838622496113400,0.709113525390625,1.5729809999465942,1.3518619537353516,0.186346635222435
1761838622506183400,0.719183349609375,1.564937949180603,1.1465797424316406,0.0073230876587331295
1761838622516253400,0.72925341796875,1.5548596382141113,0.9656681418418884,-0.154196098446846
1761838622526323200,0.7393232421875,1.540922999382019,0.8166463971138,-0.289567768573761
1761838622536392400,0.749392333984375,1.4989655017852783,0.700221061706543,-0.39234036207199097
1761838622546462200,0.759462158203125,1.4290133714675903,0.6122262477874756,-0.45536914467811584
1761838622556532500,0.769532470703125,1.334716558456421,0.5396976470947266,-0.48886051774024963
1761838622566602500,0.7796025390625,1.244901418685913,0.47646811604499817,-0.5101274847984314
1761838622576671500,0.78967138671875,1.1478573083877563,0.43865978717803955,-0.5378722548484802
1761838622586741500,0.799741455078125,1.0271577835083008,0.43976259231567383,-0.5920433402061462
1761838622596811500,0.8098115234375,0.8844214677810669,0.5063280463218689,-0.6752639412879944
1761838622606881300,0.81988134765625,0.7600915431976318,0.6588557958602905,-0.7793591618537903
1761838622616950500,0.829950439453125,0.6608246564865112,0.8624091148376465,-0.8898162841796875
1761838622627020300,0.840020263671875,0.5843639969825745,1.1010209321975708,-0.9984202980995178
1761838622637090600,0.850090576171875,0.5346358418464661,1.3024369478225708,-1.0882172584533691
1761838622647160600,0.86016064453125,0.5363909006118774,1.3773170709609985,-1.141231656074524
1761838622657230300,0.870230224609375,0.5871404409408569,1.28861403465271,-1.149915337562561
1761838622667299600,0.880299560546875,0.6836051940917969,1.08612060546875,-1.0891568660736084
1761838622677369300,0.890369384765625,0.7897149324417114,0.8817614912986755,-0.9610568881034851
1761838622687439400,0.900439453125,0.8693506717681885,0.6817993521690369,-0.8050497174263
1761838622697509600,0.910509521484375,0.8974707126617432,0.4601089656352997,-0.6695618033409119
1761838622707578400,0.920578369140625,0.8748956322669983,0.18006053566932678,-0.5983179807662964
1761838622717648400,0.9306484375,0.8200212121009827,-0.17212265729904175,-0.5612574815750122
1761838622727718400,0.940718505859375,0.7458780407905579,-0.5784813761711121,-0.544089138507843
1761838622737788400,0.950788330078125,0.6819266080856323,-0.9618706107139587,-0.49111247062683105
1761838622747857400,0.960857421875,0.6373428702354431,-1.1848366260528564,-0.37442341446876526
1761838622757927400,0.970927490234375,0.5847746133804321,-1.230462908744812,-0.17944663763046265
1761838622767997400,0.98099755859375,0.5038470029830933,-1.1407105922698975,0.04447006806731224
1761838622778067500,0.9910673828125,0.3956018388271332,-0.9943261742591858,0.251937597990036
1761838622788137500,1.001137451171875,0.2774949073791504,-0.8495463132858276,0.39485853910446167
1761838622798206200,1.011206298828125,0.17232292890548706,-0.7194557189941406,0.45507073402404785
1761838622808276500,1.0212763671875,0.0868501141667366,-0.6407390236854553,0.42696988582611084
1761838622818346500,1.031346435546875,0.029764244332909584,-0.5711649060249329,0.33534345030784607
1761838622828416300,1.041416259765625,0.015249750576913357,-0.4699435234069824,0.20761212706565857
1761838622838485500,1.051485595703125,0.04176376760005951,-0.3394305408000946,0.0645211786031723
1761838622848555300,1.06155517578125,0.1210431456565857,-0.22616443037986755,-0.09232116490602493
1761838622858625500,1.07162548828125,0.25227653980255127,-0.14181089401245117,-0.23315514624118805
1761838622868695600,1.081695556640625,0.4077441692352295,-0.13579002022743225,-0.3427751064300537
1761838622878764300,1.091764404296875,0.552909255027771,-0.22377364337444305,-0.41333600878715515
1761838622888834600,1.10183447265625,0.6493979692459106,-0.3645366132259369,-0.4315813183784485
1761838622898904300,1.111904296875,0.668302059173584,-0.48731446266174316,-0.3990612030029297
1761838622908974300,1.121974365234375,0.6259175539016724,-0.5882496237754822,-0.316481351852417
1761838622919043300,1.132043212890625,0.540892481803894,-0.6586893796920776,-0.1945013552904129
1761838622929113300,1.14211328125,0.45591187477111816,-0.6821129322052002,-0.06285251677036285
1761838622939183400,1.152183349609375,0.3984394967556,-0.6574321389198303,0.06171506270766258
1761838622949253400,1.16225341796875,0.37176287174224854,-0.6113144755363464,0.13902875781059265
1761838622959323400,1.172323486328125,0.3652692437171936,-0.5398092269897461,0.16210418939590454
1761838622969392400,1.182392333984375,0.3816141188144684,-0.4412411153316498,0.12018975615501404
1761838622979458300,1.192458251953125,0.424993097782135,-0.3484761118888855,0.036960143595933914
1761838622989528000,1.202528076171875,0.4853675067424774,-0.2890724539756775,-0.07978538423776627
1761838622999598300,1.212598388671875,0.5472352504730225,-0.25937917828559875,-0.19277454912662506
1761838623009667300,1.222667236328125,0.5980702042579651,-0.21253417432308197,-0.28906992077827454
1761838623019737300,1.2327373046875,0.6339696049690247,-0.14185026288032532,-0.3514890670776367
1761838623029807400,1.242807373046875,0.6454925537109375,-0.05717212334275246,-0.3852156102657318
1761838623039877000,1.252877197265625,0.6488077640533447,0.009409255348145962,-0.3909304440021515
1761838623049946400,1.2629462890625,0.6501113772392273,0.04077409952878952,-0.3728931248188019
1761838623060016400,1.273016357421875,0.6288172006607056,0.026832569390535355,-0.3362998366355896
1761838623070086100,1.283086181640625,0.6059872508049011,0.0021794200874865055,-0.2795340418815613
1761838623080156400,1.293156494140625,0.5792686343193054,-0.02136678621172905,-0.20691324770450592
1761838623090225200,1.30322509765625,0.56501704454422,-0.051188331097364426,-0.13118253648281097
1761838623100295400,1.31329541015625,0.5807263255119324,-0.08178146183490753,-0.06959499418735504
1761838623110365400,1.323365478515625,0.6398934721946716,-0.05872141197323799,-0.027396943420171738
1761838623120435200,1.333435302734375,0.7555073499679565,0.016286659985780716,-0.0018419278785586357
1761838623130505200,1.343505126953125,0.907604455947876,0.17292021214962006,0.024716446176171303
1761838623140574200,1.35357421875,1.080430507659912,0.4115924537181854,0.05484331399202347
1761838623150644200,1.363644287109375,1.2406046390533447,0.6560037732124329,0.07480636984109879
1761838623160714500,1.373714599609375,1.3808406591415405,0.8931628465652466,0.0782703086733818
1761838623170784300,1.3837841796875,1.5114620923995972,1.1184649467468262,0.09650497138500214
1761838623180853200,1.393853271484375,1.6283361911773682,1.282233715057373,0.1327817291021347
1761838623190923300,1.40392333984375,1.7417213916778564,1.3261798620224,0.20096664130687714
1761838623200993300,1.4139931640625,1.8422000408172607,1.3182644844055176,0.31104978919029236
1761838623211063300,1.424063232421875,1.9048327207565308,1.3004354238510132,0.43058979511260986
1761838623221132300,1.43413232421875,1.912704586982727,1.2461713552474976,0.5466992259025574
1761838623231202300,1.444202392578125,1.873623013496399,1.142714262008667,0.6484674215316772
1761838623241272300,1.454272216796875,1.8058111667633057,1.0002397298812866,0.7396339774131775
1761838623251342300,1.46434228515625,1.7286535501480103,0.8046251535415649,0.8255834579467773
1761838623261412400,1.474412353515625,1.6383781433105469,0.5525710582733154,0.9165668487548828
1761838623271481300,1.4844814453125,1.5312793254852295,0.26280927658081055,1.0186107158660889
1761838623281551400,1.49455126953125,1.4127765893936157,-0.023985963314771652,1.1240696907043457
1761838623291621000,1.50462109375,1.3060942888259888,-0.1814301759004593,1.2325458526611328
1761838623301691400,1.51469140625,1.2155812978744507,-0.12985998392105103,1.3294649124145508
1761838623311760100,1.524760009765625,1.110520362854004,0.14018455147743225,1.3584859371185303
1761838623321830400,1.534830322265625,1.008791446685791,0.6413618326187134,1.2889764308929443
1761838623331900400,1.544900390625,0.9397266507148743,1.1921805143356323,1.1047637462615967
1761838623341970200,1.55497021484375,0.9062741994857788,1.5882023572921753,0.7950266003608704
1761838623352039400,1.565039306640625,0.895876944065094,1.7375596761703491,0.397244393825531
1761838623362109200,1.575109130859375,0.886347234249115,1.6234561204910278,-0.05344238132238388
1761838623372179200,1.58517919921875,0.852062463760376,1.299331545829773,-0.4951135218143463
1761838623382249500,1.59524951171875,0.7917510867118835,0.9044302701950073,-0.8777042627334595
1761838623392318200,1.605318115234375,0.6978799700737,0.5874645709991455,-1.1817957162857056
1761838623402388200,1.61538818359375,0.6201465129852295,0.43818220496177673,-1.368789792060852
1761838623412458200,1.625458251953125,0.59380704164505,0.4459224343299866,-1.4443446397781372
1761838623422528300,1.6355283203125,0.6031582355499268,0.6157078742980957,-1.3669415712356567
1761838623432597500,1.645597412109375,0.6039800643920898,0.9880327582359314,-1.1302027702331543
1761838623442667300,1.655667236328125,0.5726785659790039,1.474779725074768,-0.7828933000564575
1761838623452737300,1.6657373046875,0.45512691140174866,1.909938931465149,-0.4168732464313507
1761838623462807300,1.675807373046875,0.24561341106891632,2.1510720252990723,-0.08804138004779816
1761838623472877300,1.685877197265625,-0.013688203878700733,2.15753173828125,0.1738232523202896
1761838623482946300,1.6959462890625,-0.2906661033630371,1.9702681303024292,0.37482813000679016
1761838623493016300,1.706016357421875,-0.5745851993560791,1.6676069498062134,0.5241278409957886
1761838623503086300,1.71608642578125,-0.8728705048561096,1.3648022413253784,0.6301791071891785
1761838623513156000,1.726156005859375,-1.1949641704559326,1.1955474615097046,0.6872181296348572
1761838623523225300,1.736225341796875,-1.5364943742752075,1.199797511100769,0.6772175431251526
1761838623533295400,1.74629541015625,-1.8439863920211792,1.2851020097732544,0.606792151927948
1761838623543365000,1.756365234375,-2.066937208175659,1.3507133722305298,0.4895792603492737
1761838623553435400,1.766435302734375,-2.1809067726135254,1.3199843168258667,0.37581780552864075
1761838623563504000,1.776504150390625,-2.170698881149292,1.1418670415878296,0.34632405638694763
1761838623573574400,1.786574462890625,-2.0869715213775635,0.8034828901290894,0.43835917115211487
1761838623583644400,1.79664453125,-2.0209264755249023,0.34328845143318176,0.6853259801864624
1761838623593714200,1.806714111328125,-2.011293649673462,-0.2688039541244507,1.041175127029419
1761838623603783400,1.816783447265625,-2.016599416732788,-1.045453667640686,1.44861900806427
1761838623613853200,1.826853271484375,-1.9966816902160645,-1.8321083784103394,1.8198208808898926
1761838623623923200,1.836923095703125,-1.9793740510940552,-2.586113691329956,2.001333475112915
1761838623633993500,1.846993408203125,-1.9886434078216553,-3.2794439792633057,1.8398774862289429
1761838623644062200,1.857062255859375,-1.9594112634658813,-3.7592813968658447,1.2776036262512207
1761838623654132500,1.867132568359375,-1.810454249382019,-4.0428690910339355,0.3499446213245392
1761838623664202200,1.8772021484375,-1.4463412761688232,-3.998163938522339,-0.7028647661209106
1761838623674272300,1.887272216796875,-0.9166233539581299,-3.55499005317688,-1.593245267868042
1761838623684341200,1.89734130859375,-0.45748433470726013,-2.961554765701294,-2.119570732116699
1761838623694411300,1.907411376953125,-0.2678731083869934,-2.4232845306396484,-2.1990015506744385
1761838623704481300,1.917481201171875,-0.31845998764038086,-2.0688366889953613,-1.8844646215438843
1761838623714551300,1.92755126953125,-0.5190026760101318,-1.9868237972259521,-1.3153833150863647
1761838623724620300,1.937620361328125,-0.7636991143226624,-2.023160696029663,-0.6685977578163147
1761838623734690300,1.947690185546875,-1.0081850290298462,-2.1133711338043213,-0.09255892038345337
1761838623744760300,1.95776025390625,-1.1799954175949097,-2.183548927307129,0.3372596800327301
1761838623754830300,1.967830322265625,-1.265288233757019,-2.1890952587127686,0.594254195690155
1761838623764900000,1.977900146484375,-1.3038233518600464,-2.116246223449707,0.6654374599456787
1761838623774969300,1.98796923828125,-1.270013451576233,-1.958491325378418,0.6067988872528076
1761838623785039000,1.9980390625,-1.1980293989181519,-1.7878391742706299,0.47590357065200806
1761838623795109400,2.008109375,-1.0973970890045166,-1.6328767538070679,0.31677940487861633
1761838623805179400,2.018179443359375,-0.950797975063324,-1.441067099571228,0.17667536437511444
1761838623815248100,2.028248046875,-0.8170649409294128,-1.226056456565857,0.07926812022924423
1761838623825318400,2.038318359375,-0.7499071359634399,-1.0165717601776123,0.03282492607831955
1761838623835388200,2.04838818359375,-0.7855439782142639,-0.7529149055480957,0.021073728799819946
1761838623845458200,2.058458251953125,-0.9141867756843567,-0.4446602165699005,0.025203663855791092
1761838623855527400,2.06852734375,-1.051037073135376,-0.14621996879577637,0.047682344913482666
1761838623865597200,2.07859716796875,-1.1509543657302856,0.1285635232925415,0.09811229258775711
1761838623875667500,2.08866748046875,-1.203791856765747,0.3394986391067505,0.16025182604789734
1761838623885737200,2.0987373046875,-1.1968454122543335,0.45046719908714294,0.2073095291852951
1761838623895806200,2.10880615234375,-1.1153281927108765,0.47005075216293335,0.2241782546043396
1761838623905876500,2.11887646484375,-0.9493759870529175,0.4279896020889282,0.21293918788433075
1761838623915946200,2.1289462890625,-0.7186793684959412,0.34372371435165405,0.1873304843902588
1761838623926016300,2.139016357421875,-0.43217554688453674,0.1889936923980713,0.16637268662452698
1761838623936085200,2.149085205078125,-0.12491012364625931,-0.015343734994530678,0.17922455072402954
1761838623946155300,2.1591552734375,0.1572498083114624,-0.16418403387069702,0.24733291566371918
1761838623956225300,2.169225341796875,0.3980530798435211,-0.20628248155117035,0.39228692650794983
1761838623966295300,2.17929541015625,0.5980259776115417,-0.09239135682582855,0.631898045539856
1761838623976364300,2.1893642578125,0.7765880227088928,0.3131537437438965,0.9546425342559814
1761838623986434800,2.199434814453125,0.9747987985610962,0.9306855797767639,1.3307373523712158
1761838623996505000,2.209505126953125,1.1903678178787231,1.5263417959213257,1.6689499616622925
1761838624006575000,2.2195751953125,1.4308953285217285,2.0038623809814453,1.922146201133728
1761838624016644000,2.22964404296875,1.6946039199829102,2.1978776454925537,2.0207579135894775
1761838624026714000,2.239714111328125,1.847611665725708,1.9972484111785889,1.8872323036193848
1761838624036783900,2.249783935546875,1.7907575368881226,1.4272725582122803,1.5087922811508179
1761838624046854100,2.259854248046875,1.5909794569015503,0.6975012421607971,1.014915943145752
1761838624056923100,2.269923095703125,1.3306878805160522,0.11809250712394714,0.5246996283531189
1761838624066993000,2.279992919921875,1.112828016281128,-0.2071985900402069,0.1535862237215042
1761838624077063200,2.290063232421875,0.9258106350898743,-0.1716616451740265,-0.03655814379453659
1761838624087133000,2.3001328125,0.6907783150672913,0.41624411940574646,-0.015530731528997421
1761838624097202200,2.3102021484375,0.42039576172828674,1.350820541381836,0.1606096625328064
1761838624107272200,2.320272216796875,0.15287476778030396,2.2852752208709717,0.36418217420578003
1761838624117342000,2.330342041015625,-0.11851121485233307,2.8972816467285156,0.4414348900318146
1761838624127412000,2.340411865234375,-0.31989607214927673,3.086092233657837,0.3617856800556183
1761838624137481000,2.35048095703125,-0.42797034978866577,2.9406564235687256,0.15205644071102142
1761838624147551000,2.360551025390625,-0.3984544575214386,2.627695083618164,-0.1186075210571289
1761838624157621200,2.370621337890625,-0.2245635986328125,2.301661968231201,-0.36611396074295044
1761838624167691000,2.38069091796875,0.05233354493975639,2.016468048095703,-0.5459887981414795
1761838624177760000,2.390760009765625,0.35090479254722595,1.829396367073059,-0.646160364151001
1761838624187830000,2.400830078125,0.6098960041999817,1.7458915710449219,-0.6688980460166931
1761838624197900000,2.410900146484375,0.7754279375076294,1.7923264503479004,-0.6202290058135986
1761838624207970000,2.420969970703125,0.828902006149292,1.9345883131027222,-0.5207112431526184
1761838624218039000,2.4310390625,0.7467858195304871,2.09334135055542,-0.3979550004005432
1761838624228109000,2.441109130859375,0.540920078754425,2.2645936012268066,-0.2797776162624359
1761838624238179000,2.451178955078125,0.2853202819824219,2.4021880626678467,-0.1994691640138626
1761838624248249000,2.4612490234375,0.032515749335289,2.447800636291504,-0.1584283411502838
1761838624258317800,2.47131787109375,-0.20623265206813812,2.4181625843048096,-0.15720407664775848
1761838624268388000,2.48138818359375,-0.4488767981529236,2.332686185836792,-0.2171880453824997
1761838624278458000,2.4914580078125,-0.6681007742881775,2.1520893573760986,-0.3097321093082428
1761838624288528000,2.50152783203125,-0.8393221497535706,1.880180835723877,-0.42919236421585083
1761838624298598100,2.51159814453125,-0.9784611463546753,1.5227586030960083,-0.5470516681671143
1761838624308667000,2.5216669921875,-1.106154441833496,1.2643486261367798,-0.6052021384239197
1761838624318737200,2.531737060546875,-1.1874521970748901,1.1216200590133667,-0.5925886034965515
1761838624328807200,2.54180712890625,-1.1423105001449585,0.9789129495620728,-0.46513810753822327
1761838624338876000,2.5518759765625,-0.9866871237754822,0.916742742061615,-0.18943622708320618
1761838624348946200,2.5619462890625,-0.8201956152915955,0.9218185544013977,0.2417675107717514
1761838624359016000,2.572015869140625,-0.6696098446846008,0.9961220622062683,0.797041654586792
1761838624369086000,2.5820859375,-0.5290204286575317,0.9021310210227966,1.411940574645996
1761838624379155200,2.5921552734375,-0.5051299929618835,0.6286446452140808,1.9652512073516846
1761838624389225000,2.602224853515625,-0.6037065982818604,0.1603209376335144,2.3884389400482178
1761838624399295000,2.612294921875,-0.8095532059669495,-0.3976951837539673,2.6789045333862305
1761838624409365000,2.622364990234375,-1.1963293552398682,-0.9748414754867554,2.799513816833496
1761838624419434000,2.63243408203125,-1.727428913116455,-1.6180717945098877,2.7003684043884277
1761838624429504300,2.642504150390625,-2.2983620166778564,-2.366821050643921,2.4252378940582275
1761838624439574000,2.652573974609375,-2.602128028869629,-3.0297837257385254,2.1177587509155273
1761838624449644000,2.66264404296875,-2.4081223011016846,-3.2433784008026123,1.8674299716949463
1761838624459714000,2.672714111328125,-1.8938523530960083,-3.10896635055542,1.5505092144012451
1761838624469783000,2.682782958984375,-1.643662452697754,-3.3809685707092285,0.8963682055473328
1761838624479853000,2.69285302734375,-1.8046761751174927,-4.085388660430908,0.07593271136283875
1761838624489923000,2.702923095703125,-2.313950777053833,-5.026543617248535,-0.6733522415161133
1761838624499993000,2.7129931640625,-2.9554731845855713,-5.897937297821045,-1.1528890132904053
1761838624510062000,2.72306201171875,-3.530251979827881,-6.463163375854492,-1.2954621315002441
1761838624520132000,2.733132080078125,-3.761018991470337,-6.603501319885254,-1.062511682510376
1761838624530202000,2.7432021484375,-3.607856273651123,-6.313678741455078,-0.5595383048057556
1761838624540271900,2.75327197265625,-3.266272783279419,-5.8209099769592285,-0.04690112546086311
1761838624550341000,2.763341064453125,-3.003654956817627,-5.19742488861084,0.40298697352409363
1761838624560411000,2.773410888671875,-2.8376126289367676,-4.124213218688965,0.8680720925331116
1761838624570481200,2.783481201171875,-2.687983989715576,-3.1804423332214355,1.1817214488983154
1761838624580550000,2.7935498046875,-2.5393288135528564,-2.430013656616211,1.236061692237854
1761838624590620200,2.8036201171875,-2.3557918071746826,-1.7247408628463745,1.0751680135726929
1761838624600690200,2.813690185546875,-2.2316322326660156,-1.1033564805984497,0.7767746448516846
1761838624610760000,2.823760009765625,-2.1740520000457764,-0.7266411781311035,0.4406469166278839
1761838624620829200,2.8338291015625,-2.2009434700012207,-0.7029649019241333,0.14650796353816986
1761838624630899000,2.84389892578125,-2.297233819961548,-0.8870339393615723,-0.047808099538087845
1761838624640969000,2.853968994140625,-2.400804281234741,-1.1290595531463623,-0.15913303196430206
1761838624651039200,2.864039306640625,-2.5001392364501953,-1.3858522176742554,-0.25327005982398987
1761838624661108000,2.87410791015625,-2.634216785430908,-1.671172857284546,-0.37856754660606384
1761838624671178000,2.884177978515625,-2.75339674949646,-1.9464884996414185,-0.5368010997772217
1761838624681248000,2.894248046875,-2.838930606842041,-2.0822181701660156,-0.713254988193512
1761838624691318000,2.904318115234375,-2.9114725589752197,-2.015857458114624,-0.8847292065620422
1761838624701387000,2.914386962890625,-2.9516360759735107,-1.766753077507019,-1.0288794040679932
1761838624711457000,2.92445703125,-2.94277024269104,-1.4436898231506348,-1.1306400299072266
1761838624721527000,2.934527099609375,-2.8457577228546143,-1.007614254951477,-1.1582013368606567
1761838624731597000,2.94459716796875,-2.664266586303711,-0.3944874405860901,-1.1015324592590332
1761838624741666000,2.954666015625,-2.4167327880859375,0.2742179334163666,-0.9559995532035828
1761838624751735800,2.96473583984375,-2.1350924968719482,0.9281809329986572,-0.7415891885757446
1761838624761806000,2.97480615234375,-1.8153595924377441,1.5280003547668457,-0.4592941403388977
1761838624771876000,2.9848759765625,-1.4918324947357178,1.9301611185073853,-0.18762962520122528
1761838624781945000,2.994945068359375,-1.1668660640716553,2.0765297412872314,0.0029792082495987415
1761838624792015000,3.00501513671875,-0.8356872200965881,1.9702259302139282,0.03269902244210243
1761838624802084900,3.0150849609375,-0.550586998462677,1.5728237628936768,-0.14389145374298096
1761838624812155100,3.025155029296875,-0.37148261070251465,0.9421678781509399,-0.43862035870552063
1761838624822224100,3.03522412109375,-0.25397995114326477,0.43857213854789734,-0.6627219319343567
1761838624832294000,3.0452939453125,-0.2124178409576416,0.31009700894355774,-0.6849156022071838
1761838624842364200,3.0553642578125,-0.32024574279785156,0.3242186903953552,-0.5777830481529236
1761838624852434200,3.06543408203125,-0.5833479166030884,0.4119100570678711,-0.43630436062812805
1761838624862503200,3.075503173828125,-0.9976282119750977,0.6351995468139648,-0.23620909452438354
1761838624872573200,3.0855732421875,-1.4496893882751465,1.0332233905792236,-0.0014046025462448597
1761838624882643000,3.095642822265625,-1.7413678169250488,1.4150484800338745,0.20504577457904816
1761838624892713000,3.105712890625,-1.7914917469024658,1.6386841535568237,0.3132675290107727
1761838624902782000,3.115781982421875,-1.6080952882766724,1.628701090812683,0.3063129484653473
1761838624912852000,3.12585205078125,-1.3473730087280273,1.4001739025115967,0.26412999629974365
1761838624922922200,3.135922119140625,-1.088714838027954,1.2122948169708252,0.3178776204586029
1761838624932992000,3.145991943359375,-0.8146524429321289,1.1256272792816162,0.47794511914253235
1761838624943061000,3.15606103515625,-0.597065806388855,1.023148536682129,0.6988628506660461
1761838624953131000,3.166131103515625,-0.46245747804641724,0.9071076512336731,0.9455040693283081
1761838624963201000,3.176200927734375,-0.43585464358329773,0.7803720831871033,1.174411416053772
1761838624973271000,3.18627099609375,-0.5154184103012085,0.6300157308578491,1.34785795211792
1761838624983343900,3.19634375,-0.6538891792297363,0.5252549648284912,1.4267584085464478
1761838624993414000,3.206413818359375,-0.7951436638832092,0.48514866828918457,1.4082163572311401
1761838625003483600,3.216483642578125,-0.9155158996582031,0.4915599822998047,1.2962206602096558
1761838625013554000,3.226553955078125,-1.0237642526626587,0.4972693622112274,1.13844895362854
1761838625023622700,3.23662255859375,-1.1408051252365112,0.47757449746131897,0.9897181391716003
1761838625033693000,3.24669287109375,-1.2789456844329834,0.42297235131263733,0.8745397925376892
1761838625043763000,3.256762939453125,-1.42638099193573,0.3613191246986389,0.8105584383010864
1761838625053832700,3.266832763671875,-1.5948987007141113,0.3092631995677948,0.7860320210456848
1761838625063902000,3.27690185546875,-1.7846693992614746,0.2617209851741791,0.7646534442901611
1761838625073971700,3.2869716796875,-1.9684398174285889,0.1740625947713852,0.7239890694618225
1761838625084041700,3.297041748046875,-2.1015982627868652,0.07171624898910522,0.6791890859603882
1761838625094112000,3.307112060546875,-2.194185972213745,-0.043830156326293945,0.6695078015327454
1761838625104180700,3.3171806640625,-2.27907657623291,-0.15332308411598206,0.7260376214981079
1761838625114251000,3.3272509765625,-2.3915045261383057,-0.29146304726600647,0.8480467796325684
1761838625124320800,3.33732080078125,-2.5108513832092285,-0.5017212629318237,1.019097089767456
1761838625134390800,3.347390869140625,-2.5772626399993896,-0.7484010457992554,1.2182915210723877
1761838625144459800,3.357459716796875,-2.5995492935180664,-1.0486105680465698,1.459975242614746
1761838625154529800,3.36752978515625,-2.559415578842163,-1.3537534475326538,1.7413057088851929
1761838625164599800,3.377599853515625,-2.354520320892334,-1.5768307447433472,2.119255304336548
1761838625174669800,3.387669921875,-2.0024592876434326,-1.7619434595108032,2.5546774864196777
1761838625184738800,3.39773876953125,-1.6844569444656372,-2.205350875854492,2.866785764694214
1761838625194808800,3.407808837890625,-1.6311990022659302,-3.0583958625793457,2.904294729232788
1761838625204878800,3.41787890625,-1.7823337316513062,-4.288030624389648,2.6616876125335693
1761838625214947800,3.42794775390625,-1.9315351247787476,-5.577846050262451,2.268453359603882
1761838625225017900,3.438017822265625,-2.0030064582824707,-6.371456146240234,1.8944588899612427
1761838625235088000,3.448087890625,-2.0563578605651855,-6.310105800628662,1.6544134616851807
1761838625245157600,3.45815771484375,-2.1581976413726807,-5.59664249420166,1.519988775253296
1761838625255227000,3.468226806640625,-2.217193365097046,-4.515627384185791,1.3709726333618164
1761838625265297000,3.478296875,-2.1909866333007812,-3.5750720500946045,1.0390716791152954
1761838625275366700,3.48836669921875,-2.236583709716797,-3.279676675796509,0.48215779662132263
1761838625285437000,3.49843701171875,-2.3842837810516357,-3.3949620723724365,-0.10215596854686737
1761838625295505700,3.508505615234375,-2.5838942527770996,-3.4283831119537354,-0.4926578104496002
1761838625305576000,3.518575927734375,-2.7503390312194824,-3.242516040802002,-0.6117530465126038
1761838625315646000,3.52864599609375,-2.798705816268921,-2.883173704147339,-0.5453309416770935
1761838625325715700,3.5387158203125,-2.724937915802002,-2.437864065170288,-0.43024104833602905
1761838625335785000,3.548784912109375,-2.5806283950805664,-1.9786819219589233,-0.3549678325653076
1761838625345854700,3.558854736328125,-2.433349847793579,-1.547271966934204,-0.4072518050670624
1761838625355924700,3.5689248046875,-2.373136520385742,-1.2138631343841553,-0.5895822048187256
1761838625365995000,3.5789951171875,-2.43566632270813,-1.1229881048202515,-0.8483400344848633
1761838625376063700,3.589063720703125,-2.5447964668273926,-1.118600845336914,-1.0290559530258179
1761838625386134000,3.599134033203125,-2.558349370956421,-0.907669186592102,-1.04127037525177
1761838625396203800,3.609203857421875,-2.458869218826294,-0.5908471941947937,-0.9220118522644043
1761838625406273800,3.619273681640625,-2.301673412322998,-0.33256423473358154,-0.7551831603050232
1761838625416342800,3.6293427734375,-2.1247785091400146,-0.23713825643062592,-0.5749279260635376
1761838625426412800,3.639412841796875,-1.9523963928222656,-0.27601373195648193,-0.4257645606994629
1761838625436482800,3.64948291015625,-1.8018076419830322,-0.4025329053401947,-0.3313635587692261
1761838625446552800,3.659552734375,-1.6748443841934204,-0.6140329241752625,-0.3014056384563446
1761838625456621800,3.669621826171875,-1.5883259773254395,-0.9068413376808167,-0.31765231490135193
1761838625466691800,3.67969189453125,-1.5364521741867065,-1.1593403816223145,-0.34129348397254944
1761838625476761900,3.689761962890625,-1.4767102003097534,-1.2772138118743896,-0.33626851439476013
1761838625486831900,3.699831787109375,-1.4244755506515503,-1.2706656455993652,-0.32611095905303955
1761838625496900900,3.70990087890625,-1.3877547979354858,-1.1984025239944458,-0.3172781765460968
1761838625506971000,3.719970947265625,-1.3724712133407593,-1.056444764137268,-0.29817506670951843
1761838625517040600,3.73004052734375,-1.406008005142212,-0.8693749904632568,-0.25309738516807556
1761838625527110000,3.74010986328125,-1.4684340953826904,-0.6302044987678528,-0.1696682572364807
1761838625537180000,3.750179931640625,-1.5532361268997192,-0.31026825308799744,-0.049940478056669235
1761838625547250000,3.76025,-1.619994044303894,0.10360641777515411,0.06803169846534729
1761838625557320000,3.77031982421875,-1.6379156112670898,0.5454956889152527,0.1516830027103424
1761838625567388700,3.780388671875,-1.5815913677215576,0.9942966103553772,0.16956400871276855
1761838625577459000,3.790458984375,-1.4326189756393433,1.401214599609375,0.09818411618471146
1761838625587529000,3.800529052734375,-1.181085467338562,1.6233017444610596,-0.09386734664440155
1761838625597598700,3.8105986328125,-0.8640784025192261,1.4091322422027588,-0.39116108417510986
1761838625607668000,3.82066796875,-0.6113255023956299,0.8178539872169495,-0.6706872582435608
1761838625617737700,3.83073779296875,-0.4842916429042816,0.3045921325683594,-0.7166244983673096
1761838625627807700,3.840807861328125,-0.46655258536338806,-0.03185485675930977,-0.4772140383720398
1761838625637878000,3.8508779296875,-0.6210229992866516,-0.22139859199523926,-0.07208013534545898
1761838625647946800,3.86094677734375,-0.9270564317703247,-0.25545963644981384,0.3492681682109833
1761838625658017000,3.87101708984375,-1.2579103708267212,-0.12159599363803864,0.699822723865509
1761838625668086800,3.881086669921875,-1.4649834632873535,0.07549284398555756,0.9047939777374268
1761838625678156800,3.89115673828125,-1.4929335117340088,0.3012109398841858,0.9240429401397705
1761838625688225800,3.901225830078125,-1.3701726198196411,0.6012855172157288,0.7929077744483948
1761838625698295800,3.9112958984375,-1.123465657234192,0.9691976308822632,0.5910756587982178
1761838625708365800,3.92136572265625,-0.7966260313987732,1.327110767364502,0.3903180956840515
1761838625718435800,3.931435791015625,-0.43491217494010925,1.6899452209472656,0.24383224546909332
1761838625728504800,3.9415048828125,-0.10444717109203339,2.009864568710327,0.18006019294261932
1761838625738574800,3.951574951171875,0.1762191206216812,2.1444966793060303,0.16575586795806885
1761838625748644900,3.961644775390625,0.399915874004364,1.9992687702178955,0.17225876450538635
1761838625758715000,3.97171484375,0.5466099977493286,1.6226117610931396,0.1793922334909439
1761838625768784000,3.981783935546875,0.5825232267379761,1.0904735326766968,0.1892952024936676
1761838625778854000,3.99185400390625,0.5231713652610779,0.5327876210212708,0.18782491981983185
1761838625788923600,4.001923583984375,0.39331191778182983,0.027498897165060043,0.16396832466125488
1761838625798990800,4.011990966796875,0.2517583668231964,-0.34350958466529846,0.1061464324593544
1761838625809060900,4.022060791015625,0.1255016177892685,-0.5274327993392944,0.019551347941160202
1761838625819131000,4.032130859375,-0.005367618054151535,-0.562113344669342,-0.10637997835874557
1761838625829200600,4.04220068359375,-0.14921826124191284,-0.5296393036842346,-0.2733820080757141
1761838625839270000,4.052269775390625,-0.31271177530288696,-0.5210498571395874,-0.46271300315856934
1761838625849339600,4.062339599609375,-0.49691542983055115,-0.5447986125946045,-0.6696760654449463
1761838625859410000,4.072409912109375,-0.6993558406829834,-0.6097133159637451,-0.8747342824935913
1761838625869480000,4.08247998046875,-0.9013012051582336,-0.7162905931472778,-1.0703390836715698
1761838625879548700,4.092548583984375,-1.0714335441589355,-0.7947801947593689,-1.2331486940383911
1761838625889619000,4.102618896484375,-1.1787816286087036,-0.8150377869606018,-1.3663419485092163
1761838625899688700,4.112688720703125,-1.228244662284851,-0.7609734535217285,-1.4573259353637695
1761838625909758700,4.1227587890625,-1.212563157081604,-0.699886679649353,-1.5083582401275635
1761838625919828000,4.132827880859375,-1.1660394668579102,-0.6330915093421936,-1.4977105855941772
1761838625929897700,4.142897705078125,-1.117394208908081,-0.5564907193183899,-1.4274885654449463
1761838625939967700,4.1529677734375,-1.0602240562438965,-0.5110349059104919,-1.2869964838027954
1761838625950036700,4.16303662109375,-0.9888142347335815,-0.5081802606582642,-1.086483120918274
1761838625960106800,4.173106689453125,-0.896271824836731,-0.49523451924324036,-0.8163172602653503
1761838625970177000,4.183177001953125,-0.838281512260437,-0.5121652483940125,-0.5122985243797302
1761838625980246800,4.193246826171875,-0.8476304411888123,-0.5712412595748901,-0.1872824877500534
1761838625990312400,4.2033125,-0.9568719863891602,-0.7295041084289551,0.11574023962020874
1761838626000382200,4.21338232421875,-1.1384305953979492,-0.9903780817985535,0.3586392104625702
1761838626010452200,4.2234521484375,-1.3951441049575806,-1.372283935546875,0.515296220779419
1761838626020522200,4.233522216796875,-1.7630703449249268,-1.9426738023757935,0.5434043407440186
1761838626030591200,4.24359130859375,-2.2002735137939453,-2.6014833450317383,0.4549700915813446
1761838626040661200,4.2536611328125,-2.570369243621826,-3.061087131500244,0.2940768599510193
1761838626050731300,4.263731201171875,-2.769848108291626,-3.10001277923584,0.10966865718364716
1761838626060801300,4.27380126953125,-2.782529830932617,-2.832158327102661,-0.056344736367464066
1761838626070870300,4.283870361328125,-2.6746883392333984,-2.47871994972229,-0.18678449094295502
1761838626080940300,4.293940185546875,-2.477273941040039,-2.0630099773406982,-0.243974506855011
1761838626091010300,4.30401025390625,-2.2003283500671387,-1.5711257457733154,-0.20748306810855865
1761838626101080000,4.314080078125,-1.8566235303878784,-1.1626611948013306,-0.06309542804956436
1761838626111149300,4.3241494140625,-1.477447271347046,-1.011329174041748,0.1872590333223343
1761838626121219300,4.33421923828125,-1.130471110343933,-1.1633069515228271,0.48708686232566833
1761838626131289300,4.344289306640625,-0.855536162853241,-1.5805366039276123,0.8170772790908813
1761838626141359400,4.354359375,-0.6124944686889648,-2.0908968448638916,1.1857610940933228
1761838626151428000,4.364427978515625,-0.3437170386314392,-2.5307722091674805,1.608701467514038
1761838626161498400,4.374498291015625,-0.12319479137659073,-2.6847920417785645,1.9785614013671875
1761838626171568400,4.384568359375,-0.032848648726940155,-2.518387794494629,2.1330957412719727
1761838626181638100,4.39463818359375,-0.0371461845934391,-2.1418569087982178,2.0623743534088135
1761838626191707400,4.404707275390625,-0.12079527229070663,-1.6471554040908813,1.8023449182510376
1761838626201777200,4.414777099609375,-0.24899910390377045,-1.1008830070495605,1.4134104251861572
1761838626211847400,4.424847412109375,-0.3625592291355133,-0.5523082613945007,0.9420446753501892
1761838626221916200,4.434916259765625,-0.4167781472206116,-0.05103853717446327,0.4597567319869995
1761838626231986200,4.444986083984375,-0.41614672541618347,0.33542609214782715,0.01880437694489956
1761838626242056400,4.455056396484375,-0.3815540075302124,0.5608498454093933,-0.3435499370098114
1761838626252126200,4.465126220703125,-0.33365944027900696,0.6455759406089783,-0.6035732626914978
1761838626262195500,4.475195556640625,-0.3172675371170044,0.5984802842140198,-0.7565287947654724
1761838626272265200,4.48526513671875,-0.33172211050987244,0.4614492356777191,-0.795487105846405
1761838626282335200,4.495335205078125,-0.34040218591690063,0.325141966342926,-0.7292612791061401
1761838626292405200,4.5054052734375,-0.31858769059181213,0.21188144385814667,-0.5722399950027466
1761838626302474200,4.51547412109375,-0.2475220263004303,0.13397681713104248,-0.34039899706840515
1761838626312544300,4.525544189453125,-0.12908487021923065,0.11335329711437225,-0.06746625155210495
1761838626322614300,4.5356142578125,0.03301612660288811,0.1133633628487587,0.21889030933380127
1761838626332684300,4.545684326171875,0.22439807653427124,0.08174525201320648,0.47413352131843567
1761838626342753500,4.55575341796875,0.4136441648006439,-0.055013157427310944,0.6902098655700684
1761838626352823300,4.5658232421875,0.5775100588798523,-0.2525478005409241,0.8781164288520813
1761838626362893300,4.575893310546875,0.7193763852119446,-0.3928172290325165,1.0415955781936646
1761838626372963000,4.585963134765625,0.8243909478187561,-0.4274292588233948,1.174336314201355
1761838626383032300,4.5960322265625,0.8950715065002441,-0.31969064474105835,1.2770086526870728
1761838626393102300,4.606102294921875,0.9289588928222656,-0.113944411277771,1.3249380588531494
1761838626403172400,4.61617236328125,0.9448846578598022,0.10993891954421997,1.3177369832992554
1761838626413242400,4.626242431640625,0.9359715580940247,0.34498631954193115,1.2682828903198242
1761838626423311400,4.636311279296875,0.9101822972297668,0.47450006008148193,1.207745909690857
1761838626433381400,4.64638134765625,0.8995360732078552,0.46467381715774536,1.1329208612442017
1761838626443451400,4.656451416015625,0.9140369296073914,0.42849069833755493,1.0470266342163086
1761838626453521200,4.666521240234375,0.965771496295929,0.6684306263923645,0.9883946180343628
1761838626463590400,4.67659033203125,1.000742793083191,1.077027440071106,0.8571179509162903
1761838626473660200,4.68666015625,0.9760311245918274,1.3114190101623535,0.5882689356803894
1761838626483730400,4.69673046875,0.9209080934524536,1.2728482484817505,0.24200542271137238
1761838626493799200,4.706799072265625,0.8385428786277771,1.1707165241241455,-0.07355519384145737
1761838626503869200,4.716869140625,0.7247956991195679,1.2540980577468872,-0.24797610938549042
1761838626513939500,4.726939453125,0.6046234965324402,1.5651510953903198,-0.26963746547698975
1761838626524009200,4.73700927734375,0.5164957642555237,2.113039970397949,-0.17683330178260803
1761838626534078500,4.747078369140625,0.5088863372802734,2.7196879386901855,-0.06473392248153687
1761838626544148200,4.757148193359375,0.5614292621612549,3.052976608276367,-0.06547542661428452
1761838626554218200,4.76721826171875,0.6475095748901367,3.176025629043579,-0.17158988118171692
1761838626564288300,4.777288330078125,0.7564801573753357,3.2358834743499756,-0.3410624861717224
1761838626574357200,4.787357177734375,0.8892866373062134,3.2296502590179443,-0.5708461403846741
1761838626584427300,4.79742724609375,1.0221061706542969,3.1470835208892822,-0.8506227135658264
1761838626594497300,4.807497314453125,1.1083112955093384,2.963819980621338,-1.1679327487945557
1761838626604567300,4.8175673828125,1.1302942037582397,2.671604871749878,-1.4774082899093628
1761838626614636300,4.82763623046875,1.0865753889083862,2.2914693355560303,-1.6997178792953491
1761838626624706300,4.837706298828125,1.023573398590088,1.9916961193084717,-1.7533437013626099
1761838626634776300,4.8477763671875,1.0137274265289307,1.8622406721115112,-1.6114050149917603
1761838626644846000,4.85784619140625,1.0428022146224976,1.8618029356002808,-1.3166276216506958
1761838626654915300,4.867915283203125,1.0572474002838135,1.8609907627105713,-0.9449971914291382
1761838626664985000,4.877985107421875,1.0085275173187256,1.7942332029342651,-0.5368037819862366
1761838626675055400,4.888055419921875,0.8962481021881104,1.6325803995132446,-0.1426575481891632
1761838626685125400,4.89812548828125,0.7408716678619385,1.3928555250167847,0.23059266805648804
1761838626695194400,4.9081943359375,0.5699830055236816,1.093342900276184,0.5883997678756714
1761838626705264400,4.918264404296875,0.387483686208725,0.8239371180534363,0.9535604119300842
1761838626715334100,4.928334228515625,0.1688501536846161,0.596290111541748,1.3267254829406738
1761838626725404200,4.938404052734375,-0.07089865952730179,0.4232152998447418,1.6902488470077515
1761838626735473400,4.948473388671875,-0.30549439787864685,0.28889158368110657,2.0149903297424316
1761838626745543200,4.958543212890625,-0.47992148995399475,0.25469887256622314,2.279513359069824
1761838626755613400,4.968613525390625,-0.5560245513916016,0.3736761212348938,2.4275646209716797
1761838626765682200,4.97868212890625,-0.550337016582489,0.5741912126541138,2.4105048179626465
1761838626775752200,4.988752197265625,-0.5033972263336182,0.7735027074813843,2.235590696334839
1761838626785822500,4.998822509765625,-0.4708835482597351,0.8875117301940918,1.956154465675354
1761838626795892200,5.008892333984375,-0.5208849310874939,0.827865719795227,1.653058409690857
1761838626805961500,5.01896142578125,-0.6438875794410706,0.7017226815223694,1.348860740661621
1761838626816031200,5.02903125,-0.8212743401527405,0.48224490880966187,1.0406821966171265
1761838626826101200,5.039101318359375,-1.0313392877578735,0.14331136643886566,0.74681556224823
1761838626836171300,5.049171142578125,-1.2708022594451904,-0.33724913001060486,0.44392362236976624
1761838626846240300,5.059240234375,-1.5757821798324585,-0.9980535507202148,0.08683756738901138
1761838626856310300,5.069310302734375,-1.9108331203460693,-1.797582983970642,-0.3051949441432953
1761838626866380300,5.07938037109375,-2.2424986362457275,-2.5139336585998535,-0.6727859377861023
1761838626876450300,5.0894501953125,-2.5220091342926025,-2.996300458908081,-1.005158543586731
1761838626886519300,5.099519287109375,-2.6238768100738525,-3.2978999614715576,-1.3754150867462158
1761838626896589300,5.10958935546875,-2.5512568950653076,-3.700561761856079,-1.7688422203063965
1761838626906659300,5.119659423828125,-2.3882129192352295,-3.9529736042022705,-1.9379210472106934
1761838626916729000,5.12972900390625,-2.146940231323242,-3.8409574031829834,-1.7788517475128174
1761838626926798300,5.13979833984375,-1.7701668739318848,-3.5124154090881348,-1.3795735836029053
1761838626936868000,5.1498681640625,-1.439314842224121,-3.2943742275238037,-0.8605740070343018
1761838626946938400,5.1599384765625,-1.3162046670913696,-3.164738178253174,-0.28347092866897583
1761838626957008400,5.17000830078125,-1.325756311416626,-2.9243953227996826,0.2742634415626526
1761838626967077400,5.180077392578125,-1.3418834209442139,-2.6266047954559326,0.6970699429512024
1761838626977147400,5.1901474609375,-1.3197245597839355,-2.3565263748168945,0.9304597973823547
1761838626987217000,5.200216796875,-1.2601853609085083,-2.0499112606048584,0.9930300712585449
1761838626997286000,5.210285888671875,-1.1734567880630493,-1.6866154670715332,0.926296591758728
1761838627007356000,5.22035595703125,-1.050620198249817,-1.3342565298080444,0.7813605070114136
1761838627017426000,5.230426025390625,-0.9128596782684326,-1.0068187713623047,0.6166282892227173
1761838627027496000,5.240495849609375,-0.7914137244224548,-0.7072609066963196,0.45507535338401794
1761838627037565000,5.25056494140625,-0.6795207262039185,-0.45652639865875244,0.3095264136791229
1761838627047635000,5.260635009765625,-0.5792449712753296,-0.24222546815872192,0.18516051769256592
1761838627057705000,5.270705078125,-0.4884937107563019,-0.09615934640169144,0.07615680247545242
1761838627067775000,5.28077490234375,-0.4016207456588745,-0.05206223577260971,-0.039534784853458405
1761838627077844000,5.290843994140625,-0.3307793438434601,-0.0822686105966568,-0.15402701497077942
1761838627087914000,5.3009140625,-0.2808435261249542,-0.15616902709007263,-0.2608147859573364
1761838627097983700,5.310983642578125,-0.2723355293273926,-0.24851122498512268,-0.35815703868865967
1761838627108054000,5.321053955078125,-0.29290491342544556,-0.30967432260513306,-0.44273892045021057
1761838627118122800,5.331122802734375,-0.3334193229675293,-0.3071562945842743,-0.5219301581382751
1761838627128193000,5.341193115234375,-0.3515128493309021,-0.26683762669563293,-0.5995922684669495
1761838627138263000,5.351262939453125,-0.30372536182403564,-0.1998191624879837,-0.6458122730255127
1761838627148332800,5.361332763671875,-0.16622528433799744,-0.11239295452833176,-0.6527491807937622
1761838627158402000,5.371402099609375,0.03816886618733406,-0.04422295093536377,-0.5915856957435608
1761838627168471800,5.381471923828125,0.2841493487358093,0.031446825712919235,-0.44385582208633423
1761838627178541800,5.391541748046875,0.5634824633598328,0.14666955173015594,-0.20226208865642548
1761838627188612000,5.401612060546875,0.8583316206932068,0.30918964743614197,0.10897371172904968
1761838627198680800,5.411680908203125,1.181522250175476,0.5226574540138245,0.45033398270606995
1761838627208750800,5.421750732421875,1.5467270612716675,0.8106182217597961,0.7821006178855896
1761838627218820900,5.43182080078125,1.915286898612976,1.1545389890670776,1.0930688381195068
1761838627228891000,5.441890869140625,2.2433438301086426,1.4612901210784912,1.361953854560852
1761838627238960000,5.451960205078125,2.5073046684265137,1.595866084098816,1.594564437866211
1761838627249030000,5.46202978515625,2.7390265464782715,1.5165935754776,1.8136227130889893
1761838627259100000,5.472099853515625,2.9185855388641357,1.204895257949829,1.9807387590408325
1761838627269170000,5.482169921875,2.9990127086639404,0.6791801452636719,2.0715291500091553
1761838627279239000,5.492239013671875,2.9255239963531494,0.0925196036696434,2.113147258758545
1761838627289309000,5.502308837890625,2.730564594268799,-0.364591121673584,2.1558303833007812
1761838627299379000,5.51237890625,2.4512581825256348,-0.6294553279876709,2.176889419555664
1761838627309448000,5.522447998046875,2.1090571880340576,-0.5728453397750854,2.1136226654052734
1761838627319518000,5.53251806640625,1.722468614578247,-0.24296729266643524,1.9519332647323608
1761838627329588000,5.542587890625,1.321673035621643,0.45065513253211975,1.718299388885498
1761838627339658000,5.552657958984375,0.9887822270393372,1.4903748035430908,1.4029054641723633
1761838627349727000,5.56272705078125,0.7958655953407288,2.5617287158966064,0.984289824962616
1761838627359797000,5.572796875,0.7080569267272949,3.4047060012817383,0.4497790038585663
1761838627369866800,5.58286669921875,0.6616680026054382,3.851491928100586,-0.18269109725952148
1761838627379937000,5.59293701171875,0.6580713987350464,4.018397331237793,-0.789873480796814
1761838627390005800,5.603005859375,0.6904534101486206,4.032233715057373,-1.2589672803878784
1761838627400076000,5.613075927734375,0.7093067169189453,3.97097110748291,-1.5486122369766235
1761838627410146000,5.62314599609375,0.7062206268310547,3.861267566680908,-1.6307010650634766
1761838627420215800,5.6332158203125,0.6904265284538269,3.7899444103240967,-1.5417543649673462
1761838627430285000,5.64328515625,0.6811566352844238,3.762399911880493,-1.3420754671096802
1761838627440354800,5.653354736328125,0.6794876456260681,3.748198986053467,-1.1047760248184204
1761838627450424800,5.6634248046875,0.6795663237571716,3.6656646728515625,-0.8882536888122559
1761838627460495000,5.6734951171875,0.6840971112251282,3.5002260208129883,-0.6961700320243835
1761838627470563800,5.683563720703125,0.6924633383750916,3.3104352951049805,-0.5077012181282043
1761838627480633900,5.6936337890625,0.7145209908485413,3.088831663131714,-0.3129567801952362
1761838627490704000,5.703703857421875,0.7587254047393799,2.8371057510375977,-0.0979229211807251
1761838627500774000,5.71377392578125,0.803547739982605,2.5588831901550293,0.1454109102487564
1761838627510843000,5.7238427734375,0.8489314317703247,2.2653732299804688,0.4153977334499359
1761838627520913000,5.733912841796875,0.8950701951980591,2.005866289138794,0.6966137290000916
1761838627530983000,5.74398291015625,0.9490048885345459,1.7561850547790527,0.9679247736930847
1761838627541052000,5.754052001953125,1.032317042350769,1.4896188974380493,1.201464056968689
1761838627551122000,5.764121826171875,1.1315243244171143,1.2264041900634766,1.3993664979934692
1761838627561191700,5.774191650390625,1.2296878099441528,0.961293637752533,1.5564618110656738
1761838627571262000,5.784261962890625,1.3104346990585327,0.73172527551651,1.695436716079712
1761838627581331000,5.7943310546875,1.3707197904586792,0.551655650138855,1.8017373085021973
1761838627591401000,5.80440087890625,1.3806877136230469,0.5309983491897583,1.8156965970993042
1761838627601471000,5.814470947265625,1.3862110376358032,0.5821012258529663,1.727816104888916
1761838627611541000,5.824541015625,1.3852449655532837,0.551030158996582,1.5293724536895752
1761838627621610000,5.83460986328125,1.440596103668213,0.4617413282394409,1.2617770433425903
1761838627631680000,5.844679931640625,1.5365393161773682,0.1644468903541565,0.8872118592262268
1761838627641749800,5.854749755859375,1.6638085842132568,-0.5479098558425903,0.32917550206184387
1761838627651820000,5.864820068359375,1.7585961818695068,-1.5143191814422607,-0.41888365149497986
1761838627661888800,5.874888671875,1.8083027601242065,-2.2092533111572266,-1.1721054315567017
1761838627671959000,5.884958984375,1.6845556497573853,-2.709049701690674,-1.8073811531066895
1761838627682029000,5.895029052734375,1.2787400484085083,-3.3265204429626465,-2.3554065227508545
1761838627692098800,5.905098876953125,0.679813802242279,-3.8877968788146973,-2.7697196006774902
1761838627702168000,5.91516796875,0.05984508618712425,-3.8746330738067627,-2.960141897201538
1761838627712237800,5.92523779296875,-0.3985571563243866,-3.0268852710723877,-3.016303062438965
1761838627722307800,5.935307861328125,-0.5252718925476074,-1.4895936250686646,-3.064682960510254
1761838627732378000,5.945378173828125,-0.5880276560783386,0.039398983120918274,-3.2076830863952637
1761838627742446800,5.95544677734375,-0.6710205078125,1.2570399045944214,-3.336979389190674
1761838627752516900,5.965516845703125,-0.5928017497062683,1.5584276914596558,-3.4048187732696533
1761838627762587000,5.9755869140625,-0.45322227478027344,1.1589229106903076,-3.3682785034179688
1761838627772657000,5.985656982421875,-0.2410367727279663,0.6171737313270569,-3.1077582836151123
1761838627782726000,5.995725830078125,0.05041744187474251,-0.046737708151340485,-2.6221060752868652
1761838627792796000,6.0057958984375,0.38385671377182007,-0.7993687987327576,-1.9504472017288208
1761838627802866000,6.015865966796875,0.7063828110694885,-1.5444223880767822,-1.163892149925232
1761838627812936000,6.02593603515625,0.9697249531745911,-2.161180257797241,-0.35878637433052063
1761838627823005000,6.0360048828125,1.1426535844802856,-2.566068649291992,0.3439328670501709
1761838627833074700,6.04607470703125,1.218169093132019,-2.7617034912109375,0.8353396058082581
1761838627843145000,6.05614501953125,1.047620177268982,-2.8211450576782227,1.147794485092163
1761838627853215000,6.066215087890625,0.9434213042259216,-2.8321337699890137,1.2276510000228882
1761838627863284000,6.076283935546875,0.8934697508811951,-2.8895092010498047,1.0943257808685303
1761838627873354000,6.08635400390625,0.9066259264945984,-3.0035300254821777,0.8400644063949585
1761838627883423700,6.096423828125,1.0292285680770874,-3.22918438911438,0.5866110920906067
1761838627893493000,6.106492919921875,1.2818876504898071,-3.6303517818450928,0.4452027380466461
1761838627903563000,6.11656298828125,1.6586171388626099,-4.044561862945557,0.53917396068573
1761838627913632800,6.1266328125,2.118452310562134,-4.359795570373535,0.9398626685142517
1761838627923703000,6.136703125,2.527388572692871,-4.433828353881836,1.6259506940841675
1761838627933771800,6.146771728515625,2.6712474822998047,-4.041579723358154,2.411447763442993
1761838627943842000,6.156842041015625,2.3913698196411133,-3.23525071144104,3.1089749336242676
1761838627953912000,6.166912109375,2.028035879135132,-2.2137057781219482,3.440310478210449
1761838627963981800,6.17698193359375,1.5905516147613525,-1.205580711364746,3.3703227043151855
1761838627974051000,6.187051025390625,1.193214774131775,-0.25745779275894165,2.9096715450286865
1761838627984120800,6.197120849609375,0.9072009325027466,0.6430504322052002,2.1572229862213135
1761838627994190600,6.207190673828125,0.7375364899635315,1.4132719039916992,1.2977856397628784
1761838628004260600,6.217260498046875,0.6864088177680969,2.0061304569244385,0.5570724010467529
1761838628014329600,6.22732958984375,0.7102522253990173,2.458831310272217,0.11035897582769394
1761838628024399600,6.237399658203125,0.7866290211677551,2.8077316284179688,0.036258917301893234
1761838628034469600,6.2474697265625,0.865994393825531,3.133410930633545,0.27764174342155457
1761838628044539600,6.25753955078125,0.989648163318634,3.437931776046753,0.7592871785163879
1761838628054608600,6.267608642578125,1.2481268644332886,3.7162342071533203,1.3572156429290771
1761838628064678700,6.2776787109375,1.6878414154052734,3.7279748916625977,1.8105884790420532
1761838628074748400,6.28774853515625,2.0920026302337646,3.199799060821533,1.9039398431777954
1761838628084818700,6.297818603515625,2.360680103302002,2.7410218715667725,1.8861368894577026
1761838628094887400,6.307887451171875,2.569288492202759,2.5995123386383057,2.0193936824798584
1761838628104957700,6.317957763671875,2.6808528900146484,2.7563304901123047,2.2951860427856445
1761838628115027700,6.32802783203125,2.6900479793548584,3.0195116996765137,2.5987205505371094
1761838628125096400,6.338096435546875,2.6216025352478027,3.322957992553711,2.783015727996826
1761838628135166700,6.348166748046875,2.4273781776428223,3.8605751991271973,2.7424862384796143
1761838628145236500,6.358236572265625,2.2199296951293945,4.37039852142334,2.410362482070923
1761838628155306500,6.368306396484375,2.114305019378662,4.661966323852539,1.849124789237976
1761838628165375500,6.37837548828125,2.156730890274048,4.8066792488098145,1.2647931575775146
1761838628175445500,6.388445556640625,2.30712890625,4.950860023498535,0.812322735786438
1761838628185515500,6.398515625,2.5332300662994385,5.129589080810547,0.5572033524513245
1761838628195585500,6.40858544921875,2.7799224853515625,5.322911739349365,0.4654310345649719
1761838628205654500,6.418654541015625,2.9947361946105957,5.492748260498047,0.469353586435318
1761838628215724500,6.428724609375,3.1713600158691406,5.565033435821533,0.5208062529563904
1761838628225794600,6.438794677734375,3.3086297512054443,5.554288387298584,0.6020116209983826
1761838628235864600,6.448864501953125,3.3892104625701904,5.410885810852051,0.7401296496391296
1761838628245933600,6.45893359375,3.35886287689209,5.218503475189209,0.9328354597091675
1761838628256003600,6.469003662109375,3.1810972690582275,5.133976459503174,1.1366993188858032
1761838628266073300,6.4790732421875,2.924747943878174,5.148172855377197,1.2419782876968384
1761838628276143600,6.4891435546875,2.62557315826416,5.206689357757568,1.1669909954071045
1761838628286212600,6.499212646484375,2.2706549167633057,5.31924295425415,0.916732668876648
1761838628296282600,6.50928271484375,1.9035468101501465,5.459934711456299,0.5383204221725464
1761838628306352600,6.5193525390625,1.5932035446166992,5.563828945159912,0.0338820144534111
1761838628316422700,6.529422607421875,1.4235011339187622,5.551957130432129,-0.5194443464279175
1761838628326491600,6.53949169921875,1.3755567073822021,5.540128231048584,-1.0737022161483765
1761838628336561700,6.549561767578125,1.3923976421356201,5.496801376342773,-1.5826537609100342
1761838628346631400,6.55963134765625,1.4332046508789062,5.357538223266602,-2.0193898677825928
1761838628356701700,6.56970166015625,1.4872260093688965,5.123093128204346,-2.3786051273345947
1761838628366770400,6.5797705078125,1.6023880243301392,4.799275875091553,-2.648110866546631
1761838628376840700,6.5898408203125,1.7858604192733765,4.409660816192627,-2.7802772521972656
1761838628386910700,6.59991064453125,1.9743787050247192,3.918693780899048,-2.7720119953155518
1761838628396980500,6.60998046875,2.113943576812744,3.3680951595306396,-2.6181399822235107
1761838628407049700,6.6200498046875,2.1919286251068115,2.8769495487213135,-2.3334357738494873
1761838628417119500,6.630119384765625,2.1904308795928955,2.434507369995117,-1.98531973361969
1761838628427189500,6.640189453125,2.132878065109253,2.011841297149658,-1.6439504623413086
1761838628437259800,6.650259765625,2.03169584274292,1.6122092008590698,-1.4032365083694458
1761838628447328500,6.66032861328125,1.9267674684524536,1.2157026529312134,-1.297873854637146
1761838628457398500,6.6703984375,1.884658932685852,0.8415029644966125,-1.3078570365905762
1761838628467468500,6.680468505859375,1.89200758934021,0.5009200572967529,-1.3734346628189087
1761838628477537500,6.69053759765625,1.9259921312332153,0.10581051558256149,-1.4439136981964111
1761838628487607600,6.700607666015625,1.9570165872573853,-0.3571621775627136,-1.4947454929351807
1761838628497677600,6.710677490234375,1.980757236480713,-0.8998590111732483,-1.5291975736618042
1761838628507747600,6.72074755859375,1.9456253051757812,-1.5684266090393066,-1.5604987144470215
1761838628517816600,6.730816650390625,1.7537145614624023,-2.27008056640625,-1.5576539039611816
1761838628527886600,6.740886474609375,1.390367865562439,-2.9271602630615234,-1.5682774782180786
1761838628537956400,6.750956298828125,0.902822732925415,-3.4608232975006104,-1.663462519645691
1761838628548026600,6.761026611328125,0.43075528740882874,-3.6284258365631104,-1.8494411706924438
1761838628558095600,6.771095703125,0.1292831152677536,-3.4233789443969727,-2.1146016120910645
1761838628568165600,6.78116552734375,0.14715559780597687,-2.937516689300537,-2.365152597427368
1761838628578235600,6.791235595703125,0.4969387650489807,-2.291271448135376,-2.4311115741729736
1761838628588305400,6.801305419921875,1.0513620376586914,-1.7710620164871216,-2.2415771484375
1761838628598374700,6.811374755859375,1.6704164743423462,-1.5338481664657593,-1.7980135679244995
1761838628608444700,6.821444580078125,2.188629627227783,-1.5933144092559814,-1.1209077835083008
1761838628618514400,6.831514404296875,2.531702995300293,-1.7830387353897095,-0.2694248557090759
1761838628628584700,6.841584716796875,2.708975315093994,-1.8939833641052246,0.6285754442214966
1761838628638653400,6.8516533203125,2.709658622741699,-1.7583069801330566,1.3749140501022339
1761838628648723700,6.8617236328125,2.534512996673584,-1.3689568042755127,1.78800368309021
1761838628658793700,6.871793701171875,2.2593226432800293,-0.8676157593727112,1.829083800315857
1761838628668863500,6.881863525390625,1.9790387153625488,-0.3324021100997925,1.5780282020568848
1761838628678932700,6.8919326171875,1.7283200025558472,0.22271165251731873,1.1661962270736694
1761838628689002500,6.90200244140625,1.5222108364105225,0.7947608232498169,0.6968902349472046
1761838628699072500,6.912072509765625,1.377009391784668,1.315757155418396,0.26264017820358276
1761838628709141500,6.9221416015625,1.2402454614639282,1.719467043876648,-0.08138111978769302
1761838628719211500,6.93221142578125,1.085777997970581,1.9406658411026,-0.31940460205078125
1761838628729281500,6.942281494140625,0.94215327501297,1.967890739440918,-0.4934735894203186
1761838628739351600,6.9523515625,0.8333488702774048,1.9142643213272095,-0.5578081607818604
1761838628749420500,6.962420654296875,0.7524830102920532,1.823754906654358,-0.4926011562347412
1761838628759490600,6.972490478515625,0.706615686416626,1.6738725900650024,-0.33769136667251587
1761838628769560600,6.982560546875,0.7072184085845947,1.4737331867218018,-0.15470238029956818
1761838628779630600,6.992630615234375,0.7114617228507996,1.2675187587738037,0.05908409506082535
1761838628789699600,7.002699462890625,0.704314112663269,1.0135892629623413,0.2827800214290619
1761838628799769600,7.01276953125,0.7160733938217163,0.738193154335022,0.4958128035068512
1761838628809839400,7.02283935546875,0.7706460952758789,0.4516698122024536,0.6855185627937317
1761838628819909600,7.03290966796875,0.8513141870498657,0.17027834057807922,0.8470384478569031
1761838628829978400,7.042978271484375,0.9336823225021362,-0.002337374724447727,0.9849318861961365
1761838628840048600,7.053048583984375,1.012599229812622,0.03539048507809639,1.1183828115463257
1761838628850118700,7.06311865234375,1.0996744632720947,0.31741389632225037,1.229624629020691
1761838628860188400,7.0731884765625,1.226946234703064,0.8366782069206238,1.3272206783294678
1761838628870257700,7.083257568359375,1.431910753250122,1.4462124109268188,1.4070247411727905
1761838628880327700,7.09332763671875,1.6837329864501953,2.030709743499756,1.474212646484375
1761838628890397400,7.1033974609375,1.8888647556304932,2.5263967514038086,1.4835014343261719
1761838628900467700,7.1134677734375,1.9942820072174072,2.8425774574279785,1.3873696327209473
1761838628910536400,7.123536376953125,1.9550544023513794,3.004998207092285,1.1839549541473389
1761838628920606700,7.133606689453125,1.810670256614685,3.160139560699463,0.9217742681503296
1761838628930676700,7.1436767578125,1.6494464874267578,3.351750135421753,0.7114884257316589
1761838628940746500,7.15374658203125,1.462077260017395,3.4927890300750732,0.5572840571403503
1761838628950815700,7.163815673828125,1.2040660381317139,3.486151695251465,0.44641029834747314
1761838628960885500,7.173885498046875,0.9102581739425659,3.3530027866363525,0.3832991421222687
1761838628970955500,7.18395556640625,0.6074641942977905,3.088778495788574,0.35545793175697327
1761838628981024500,7.1940244140625,0.3399871289730072,2.728663682937622,0.316586971282959
1761838628991094800,7.2040947265625,0.13500578701496124,2.4063661098480225,0.2919713854789734
1761838629001164800,7.214164794921875,0.00805640034377575,2.1883671283721924,0.29400768876075745
1761838629011235000,7.224235107421875,-0.06400394439697266,2.0825276374816895,0.3213178813457489
1761838629021303800,7.2343037109375,-0.09646621346473694,2.0635509490966797,0.3796822130680084
1761838629031374000,7.2443740234375,-0.14737199246883392,2.1119470596313477,0.42988118529319763
1761838629041443800,7.25444384765625,-0.2543928623199463,2.206139087677002,0.4324229657649994
1761838629051513900,7.264513916015625,-0.41595885157585144,2.2872936725616455,0.3588041365146637
1761838629061582800,7.274582763671875,-0.6161651015281677,2.3265116214752197,0.20071983337402344
1761838629071652900,7.28465283203125,-0.8144859075546265,2.3958981037139893,-0.023936446756124496
1761838629081723000,7.294722900390625,-1.0045347213745117,2.5753238201141357,-0.29930582642555237
1761838629091793000,7.30479296875,-1.1818655729293823,2.775085210800171,-0.6111220717430115
1761838629101862000,7.31486181640625,-1.3295927047729492,2.886981248855591,-0.9206103086471558
1761838629111932000,7.324931884765625,-1.439850926399231,2.888450860977173,-1.1978654861450195
1761838629122002000,7.335001953125,-1.510135531425476,2.819634437561035,-1.4080889225006104
1761838629132071000,7.34507080078125,-1.5273698568344116,2.730768918991089,-1.5386559963226318
1761838629142141000,7.355140869140625,-1.4675594568252563,2.6648974418640137,-1.5945109128952026
1761838629152211000,7.3652109375,-1.3193111419677734,2.5682132244110107,-1.6136223077774048
1761838629162280700,7.37528076171875,-1.0914074182510376,2.3736374378204346,-1.6160222291946411
1761838629172350000,7.385349853515625,-0.786162793636322,2.0689849853515625,-1.6100172996520996
1761838629182420000,7.395419921875,-0.43891438841819763,1.671357274055481,-1.6053167581558228
1761838629192490000,7.405489990234375,-0.11014024168252945,1.2141807079315186,-1.5735386610031128
1761838629202560000,7.41556005859375,0.14274674654006958,0.7786915898323059,-1.4822869300842285
1761838629212628700,7.425628662109375,0.2750970423221588,0.3658493757247925,-1.2898881435394287
1761838629222699000,7.435698974609375,0.2888065576553345,0.023169180378317833,-0.9724170565605164
1761838629232769000,7.44576904296875,0.21549907326698303,-0.3232577443122864,-0.579287588596344
1761838629242838800,7.4558388671875,0.11434976756572723,-0.7082740664482117,-0.17836736142635345
1761838629252908000,7.465907958984375,0.02796720340847969,-1.0746761560440063,0.20038315653800964
1761838629262977800,7.475977783203125,-0.04128995165228844,-1.3621565103530884,0.5187227129936218
1761838629273047800,7.4860478515625,-0.12273314595222473,-1.6777498722076416,0.7464088797569275
1761838629283118000,7.4961181640625,-0.24041199684143066,-2.1383092403411865,0.8567901849746704
1761838629293186800,7.506186767578125,-0.41038984060287476,-2.688408613204956,0.8222169876098633
1761838629303257000,7.516257080078125,-0.6389731764793396,-3.2177860736846924,0.6316515803337097
1761838629313326800,7.526326904296875,-0.9148974418640137,-3.587266445159912,0.34375160932540894
1761838629323396900,7.53639697265625,-1.2395329475402832,-3.74965238571167,0.0407138466835022
1761838629333465900,7.5464658203125,-1.5719541311264038,-3.7269937992095947,-0.21396423876285553
1761838629343535900,7.556535888671875,-1.7606518268585205,-3.455409049987793,-0.39153796434402466
1761838629353606000,7.56660595703125,-1.8187968730926514,-3.1358954906463623,-0.5776975154876709
1761838629363675000,7.5766748046875,-1.7335058450698853,-2.7061634063720703,-0.7608137130737305
1761838629373745000,7.586744873046875,-1.4264169931411743,-2.3764843940734863,-0.9166531562805176
1761838629383815000,7.59681494140625,-0.9803698658943176,-2.2046825885772705,-1.0117448568344116
1761838629393885000,7.606885009765625,-0.5500227808952332,-2.289067029953003,-1.0101778507232666
1761838629403954000,7.616953857421875,-0.20772238075733185,-2.580610513687134,-0.8760034441947937
1761838629414024000,7.62702392578125,0.09309524297714233,-2.7809507846832275,-0.6780802607536316
1761838629424094000,7.637093994140625,0.4668186604976654,-3.3364930152893066,-0.46866288781166077
1761838629434163700,7.647163818359375,0.8217812776565552,-3.3893706798553467,-0.1368441879749298
1761838629444233000,7.65723291015625,0.9162165522575378,-3.3208577632904053,0.1700190156698227
1761838629454303000,7.667302978515625,0.7808709740638733,-3.058739423751831,0.42595359683036804
1761838629464373000,7.677373046875,0.48163336515426636,-2.7037899494171143,0.5547232031822205
1761838629474443000,7.687443115234375,0.10178671777248383,-2.23024582862854,0.5810075402259827
1761838629484511700,7.69751171875,-0.26011747121810913,-1.669580101966858,0.5787265300750732
1761838629494582000,7.70758203125,-0.5545957088470459,-1.1388670206069946,0.5685620307922363
1761838629504652000,7.717652099609375,-0.7129514813423157,-0.41190725564956665,0.6417840719223022
1761838629514721000,7.727720947265625,-0.8070140480995178,0.08421462029218674,0.6934581995010376
1761838629524791000,7.737791015625,-0.843772828578949,0.3990383744239807,0.7026915550231934
1761838629534860800,7.74786083984375,-0.8355311751365662,0.6049470901489258,0.6560186147689819
1761838629544930800,7.757930908203125,-0.8037891387939453,0.7757598161697388,0.580284833908081
1761838629554999800,7.767999755859375,-0.7612680196762085,0.9324213266372681,0.47583648562431335
1761838629565069800,7.77806982421875,-0.7184014320373535,1.0518752336502075,0.32836058735847473
1761838629575140000,7.78814013671875,-0.6672874093055725,1.1183804273605347,0.1458757519721985
1761838629585209900,7.7982099609375,-0.5784123539924622,1.1553188562393188,-0.03513191267848015
1761838629595279000,7.808279052734375,-0.4638980031013489,1.169588327407837,-0.19179634749889374
1761838629605348900,7.818348876953125,-0.3333947956562042,1.1525380611419678,-0.29773423075675964
1761838629615419000,7.8284189453125,-0.187837615609169,1.0835626125335693,-0.35374370217323303
1761838629625489000,7.838489013671875,-0.05269242078065872,1.0247284173965454,-0.33224785327911377
1761838629635558000,7.848557861328125,0.023648157715797424,0.9830850958824158,-0.24806585907936096
1761838629645628000,7.8586279296875,0.05075942724943161,0.9549072980880737,-0.1565438061952591
1761838629655698000,7.868697998046875,0.04223757982254028,0.9079962968826294,-0.05693944916129112
1761838629665767000,7.878766845703125,0.029377276077866554,0.8685257434844971,0.06437906622886658
1761838629675837000,7.8888369140625,0.04383557662367821,0.8966854810714722,0.22766759991645813
1761838629685907000,7.898906982421875,0.0980476438999176,0.9803277850151062,0.4011390507221222
1761838629695977000,7.90897705078125,0.17345105111598969,1.0189212560653687,0.5490996837615967
1761838629706046000,7.9190458984375,0.2616252899169922,0.9769771099090576,0.6406326293945312
1761838629716116000,7.929115966796875,0.35899630188941956,0.8154851198196411,0.6653486490249634
1761838629726185700,7.939185791015625,0.4410892426967621,0.5711605548858643,0.6631523370742798
1761838629736256000,7.949256103515625,0.49932727217674255,0.36449921131134033,0.6513957977294922
1761838629746325000,7.959324951171875,0.5411420464515686,0.2718890309333801,0.6631312370300293
1761838629756394800,7.969394775390625,0.5548666715621948,0.23280394077301025,0.6623168587684631
1761838629766465000,7.979465087890625,0.5290012955665588,0.19612836837768555,0.6196804046630859
1761838629776533800,7.98953369140625,0.4518335461616516,0.14690355956554413,0.5363578200340271
1761838629786604000,7.99960400390625,0.347331166267395,0.1395179033279419,0.42993593215942383
1761838629796674000,8.009674072265625,0.2125251591205597,0.12732967734336853,0.2865510880947113
1761838629806743800,8.019743896484375,0.0661080852150917,0.04690208658576012,0.10778384655714035
1761838629816813000,8.02981298828125,-0.06057608872652054,-0.09610246866941452,-0.09920582175254822
1761838629826882800,8.0398828125,-0.17517784237861633,-0.24797360599040985,-0.32701095938682556
1761838629836952800,8.049952880859376,-0.2770986258983612,-0.2689252197742462,-0.5401759743690491
1761838629847023000,8.060023193359376,-0.3408706784248352,-0.14450585842132568,-0.725981593132019
1761838629857091800,8.070091796875,-0.34243741631507874,0.062009766697883606,-0.8675647974014282
1761838629867162000,8.080162109375,-0.2933007478713989,0.31043803691864014,-0.9509477615356445
1761838629877231900,8.09023193359375,-0.2216302901506424,0.5666311979293823,-0.9908933043479919
1761838629887300900,8.10030078125,-0.10842669010162354,0.7425293922424316,-1.0147979259490967
1761838629897371000,8.110370849609374,0.0660974457859993,0.8781253099441528,-1.0044959783554077
1761838629907441000,8.12044091796875,0.26455098390579224,0.9524996876716614,-0.973912239074707
1761838629917511000,8.130510986328124,0.43228593468666077,0.9866137504577637,-0.9180495142936707
1761838629927580000,8.140579833984376,0.5298116207122803,1.0270742177963257,-0.8322892785072327
1761838629937650000,8.15064990234375,0.523796558380127,1.0899170637130737,-0.7350418567657471
1761838629947720000,8.160719970703125,0.4281139671802521,1.1756888628005981,-0.6258042454719543
1761838629957790000,8.1707900390625,0.2802683115005493,1.3079488277435303,-0.5274771451950073
1761838629967859000,8.18085888671875,0.10528367757797241,1.4569005966186523,-0.45484456419944763
1761838629977929000,8.190928955078125,-0.06224673241376877,1.5586546659469604,-0.4168183505535126
1761838629987999700,8.200999755859375,-0.20380428433418274,1.5890074968338013,-0.3928638994693756
1761838629998068500,8.211068359375,-0.3054411709308624,1.5566314458847046,-0.3786942958831787
1761838630008138800,8.221138671875,-0.36352038383483887,1.4751859903335571,-0.3506658673286438
1761838630018208800,8.231208740234376,-0.3617861270904541,1.3137341737747192,-0.31061750650405884
1761838630028278500,8.241278564453125,-0.28683847188949585,1.0254008769989014,-0.24209614098072052
1761838630038347800,8.25134765625,-0.15660643577575684,0.6414303183555603,-0.16229264438152313
1761838630048417500,8.26141748046875,-0.03528132289648056,0.26082783937454224,-0.06349218636751175
1761838630058487600,8.271487548828125,0.04733099788427353,-0.038806017488241196,0.045073967427015305
1761838630068557800,8.281557861328125,0.09621192514896393,-0.26669174432754517,0.13873982429504395
1761838630078626600,8.29162646484375,0.13908934593200684,-0.41806846857070923,0.22509415447711945
1761838630088696800,8.30169677734375,0.1973419487476349,-0.47161656618118286,0.3252356946468353
1761838630098766600,8.3117666015625,0.23919379711151123,-0.47857990860939026,0.43535980582237244
1761838630108835600,8.321835693359375,0.21655431389808655,-0.52632737159729,0.5481351017951965
1761838630118905900,8.33190576171875,0.11764876544475555,-0.6760370135307312,0.6467298269271851
1761838630128975600,8.3419755859375,-0.05311395227909088,-0.9324866533279419,0.7304141521453857
1761838630139045600,8.352045654296875,-0.296703964471817,-1.2550835609436035,0.7965729236602783
1761838630149114600,8.362114501953124,-0.6170443892478943,-1.5888391733169556,0.8142417669296265
1761838630159184600,8.3721845703125,-1.0023678541183472,-1.854583978652954,0.773556113243103
1761838630169254700,8.382254638671874,-1.4525762796401978,-2.0416982173919678,0.6356738805770874
1761838630179324700,8.39232470703125,-1.9004526138305664,-2.1042394638061523,0.3632378578186035
1761838630189393700,8.4023935546875,-2.2189383506774902,-2.0513863563537598,-0.02277829498052597
1761838630199463700,8.412463623046875,-2.2945103645324707,-1.8980989456176758,-0.46244487166404724
1761838630209533700,8.42253369140625,-2.0808145999908447,-1.6486613750457764,-0.8821204304695129
1761838630219602700,8.432602783203125,-1.6229904890060425,-1.3197569847106934,-1.1887166500091553
1761838630229672700,8.442672607421875,-1.1057991981506348,-1.2192517518997192,-1.4032998085021973
1761838630239742700,8.45274267578125,-0.7029182314872742,-1.6344995498657227,-1.593632459640503
1761838630249812500,8.4628125,-0.4663524031639099,-2.436920166015625,-1.757134199142456
1761838630259881700,8.4728818359375,-0.33709803223609924,-3.2655858993530273,-1.8501181602478027
1761838630269951500,8.482951416015625,-0.2561592161655426,-3.8303098678588867,-1.8096474409103394
1761838630280021800,8.493021728515625,-0.1868339478969574,-4.076648235321045,-1.6131149530410767
1761838630290090500,8.503090576171875,-0.12922054529190063,-4.005263328552246,-1.272361159324646
1761838630300160800,8.513160888671875,-0.13392794132232666,-3.590888023376465,-0.852469801902771
1761838630310230800,8.523230712890625,-0.25184836983680725,-2.9133474826812744,-0.41294005513191223
1761838630320300500,8.533300537109374,-0.5097360610961914,-2.117806911468506,-0.04137635603547096
1761838630330369800,8.543369873046874,-0.8302211165428162,-1.3798400163650513,0.2045532464981079
1761838630340439600,8.553439453125,-1.1189632415771484,-0.8195958137512207,0.33322495222091675
1761838630350509600,8.563509521484375,-1.291945457458496,-0.43584367632865906,0.4014880657196045
1761838630360579800,8.573579833984375,-1.320511817932129,-0.14790454506874084,0.43989643454551697
1761838630370648600,8.583648681640625,-1.2225098609924316,0.12475964426994324,0.4634486436843872
1761838630380718600,8.593718505859375,-1.0833823680877686,0.3861006796360016,0.45528656244277954
1761838630390788600,8.60378857421875,-0.952913224697113,0.5871352553367615,0.4135358929634094
1761838630400857600,8.613857666015624,-0.8410159945487976,0.6929187178611755,0.3489297330379486
1761838630410927900,8.623927978515624,-0.7385597229003906,0.6933179497718811,0.27431198954582214
1761838630420997600,8.63399755859375,-0.6356621384620667,0.6331233382225037,0.2130393385887146
1761838630431067600,8.644067626953126,-0.5127982497215271,0.5623686909675598,0.2078588753938675
1761838630441136600,8.65413671875,-0.3927929699420929,0.5218401551246643,0.2783772349357605
1761838630451206700,8.66420654296875,-0.3016413152217865,0.5216667056083679,0.4217032790184021
1761838630461276700,8.674276611328125,-0.2490668147802353,0.5153834819793701,0.6409496068954468
1761838630471345700,8.684345703125,-0.22215838730335236,0.5139500498771667,0.9161366820335388
1761838630481415700,8.694415771484374,-0.19200661778450012,0.4814957082271576,1.2300547361373901
1761838630491485700,8.704485595703124,-0.1374559998512268,0.4025818109512329,1.5719938278198242
1761838630501555700,8.7145556640625,-0.049540527164936066,0.37268808484077454,1.9155868291854858
1761838630511624400,8.72462451171875,0.046345435082912445,0.5422545075416565,2.2432332038879395
1761838630521694700,8.73469482421875,0.15380080044269562,0.876796543598175,2.497047185897827
1761838630531764700,8.7447646484375,0.24535708129405975,1.2577447891235352,2.6289656162261963
1761838630541833700,8.754833740234375,0.3605124354362488,1.4710050821304321,2.571593761444092
1761838630551903700,8.76490380859375,0.49130645394325256,1.3941659927368164,2.266275644302368
1761838630561973500,8.774973388671874,0.6716618537902832,1.069477915763855,1.7231117486953735
1761838630572043800,8.785043701171874,0.9507275819778442,0.6570900678634644,1.126950979232788
1761838630582112500,8.795112548828126,1.3105835914611816,0.3750096261501312,0.7329275608062744
1761838630592182500,8.8051826171875,1.574039101600647,0.23677873611450195,0.6168838739395142
1761838630602252800,8.815252685546875,1.5552513599395752,-0.0007291641086339951,0.6755144000053406
1761838630612321500,8.825321533203125,1.241369366645813,-0.3695121705532074,0.8029964566230774
1761838630622391800,8.835391845703125,0.5277122259140015,-0.7483202219009399,0.9054232239723206
1761838630632461600,8.845461669921875,-0.47018536925315857,-0.8198531270027161,0.9725727438926697
1761838630642531600,8.855531494140624,-1.4590234756469727,-0.5130931735038757,1.006521463394165
1761838630652600800,8.865600830078124,-2.1545732021331787,0.06895165890455246,0.9703384041786194
1761838630662670600,8.875670654296876,-2.4319353103637695,0.6608988642692566,0.8334428668022156
1761838630672740600,8.88574072265625,-2.3761682510375977,1.0771756172180176,0.5386021733283997
1761838630682811000,8.895810791015625,-2.118987798690796,1.3703584671020508,0.1307837963104248
1761838630692879600,8.905879638671875,-1.8023890256881714,1.525156855583191,-0.3195190727710724
1761838630702950000,8.915949951171875,-1.5110548734664917,1.5493125915527344,-0.7338483333587646
1761838630713019600,8.92601953125,-1.2860416173934937,1.4756195545196533,-1.0349924564361572
1761838630723088600,8.936088623046874,-1.1491296291351318,1.2835558652877808,-1.2164509296417236
1761838630733158700,8.94615869140625,-1.088672161102295,0.9754732847213745,-1.2828956842422485
1761838630743228700,8.956228759765626,-1.0862102508544922,0.5923786163330078,-1.2383787631988525
1761838630753298700,8.966298583984376,-1.1115776300430298,0.2747669219970703,-1.0715126991271973
1761838630763367700,8.97636767578125,-1.139803171157837,0.14256253838539124,-0.7907482385635376
1761838630773437700,8.986437744140625,-1.1807026863098145,0.13810493052005768,-0.4351910352706909
1761838630783507700,8.9965078125,-1.2479584217071533,0.2051854431629181,-0.07395056635141373
1761838630793576700,9.00657666015625,-1.3496809005737305,0.2428528219461441,0.22426189482212067
1761838630803646500,9.016646484375,-1.4807326793670654,0.15602603554725647,0.4237864315509796
1761838630813716700,9.026716796875,-1.6299214363098145,-0.020782165229320526,0.5249261260032654
1761838630823786800,9.036786865234374,-1.79733407497406,-0.22017383575439453,0.5509281754493713
1761838630833855700,9.046855712890626,-1.972299337387085,-0.4247822165489197,0.5141831636428833
1761838630843925800,9.05692578125,-2.146191120147705,-0.6570351123809814,0.43222543597221375
1761838630853995500,9.06699560546875,-2.30037784576416,-0.8658695816993713,0.36454397439956665
1761838630864064800,9.077064697265625,-2.4111881256103516,-0.9889855980873108,0.3491911292076111
1761838630874134800,9.087134765625,-2.4864752292633057,-1.0641186237335205,0.3882291316986084
1761838630884204500,9.09720458984375,-2.5251121520996094,-1.1448462009429932,0.4661058187484741
1761838630894274800,9.10727490234375,-2.516267776489258,-1.2335807085037231,0.5729315876960754
1761838630904343600,9.117343505859376,-2.4828860759735107,-1.3231723308563232,0.7257000803947449
1761838630914413600,9.12741357421875,-2.447798728942871,-1.3931920528411865,0.9296460151672363
1761838630924483800,9.13748388671875,-2.4289028644561768,-1.555054783821106,1.1478627920150757
1761838630934552600,9.147552490234375,-2.513975143432617,-1.965973138809204,1.3512753248214722
1761838630944622800,9.157622802734375,-2.811384677886963,-2.5783467292785645,1.513765811920166
1761838630954692600,9.167692626953125,-3.3254101276397705,-3.4245612621307373,1.5587166547775269
1761838630964762600,9.1777626953125,-3.8955447673797607,-4.373981475830078,1.4053419828414917
1761838630974831600,9.18783154296875,-4.229620933532715,-5.082329750061035,1.0156033039093018
1761838630984901600,9.197901611328126,-4.214409828186035,-5.428562164306641,0.35943537950515747
1761838630994970600,9.207970703125,-3.900880813598633,-5.322038173675537,-0.475751668214798
1761838631005039400,9.218039306640625,-3.3951683044433594,-4.838677406311035,-1.3138508796691895
1761838631015109600,9.228109619140625,-2.879673957824707,-4.119721412658691,-1.9962033033370972
1761838631025179600,9.2381796875,-2.4094293117523193,-3.3565924167633057,-2.346989870071411
1761838631035248600,9.24824853515625,-1.9761773347854614,-2.7698400020599365,-2.2777037620544434
1761838631045318700,9.258318603515624,-1.6278544664382935,-2.5914578437805176,-1.8741569519042969
1761838631055388400,9.268388427734376,-1.46873140335083,-2.6859498023986816,-1.2208397388458252
1761838631065458400,9.27845849609375,-1.5608242750167847,-2.7434206008911133,-0.41973933577537537
1761838631075527400,9.28852734375,-1.817116379737854,-2.5848491191864014,0.31097665429115295
1761838631085597400,9.298597412109375,-2.2078025341033936,-2.37284255027771,0.7631968259811401
1761838631095667700,9.308667724609375,-2.6529805660247803,-1.8550113439559937,1.0263422727584839
1761838631105736400,9.318736328125,-2.886467933654785,-1.2387428283691406,1.129892349243164
1761838631115806500,9.328806396484374,-2.915260076522827,-0.6256011128425598,1.0725460052490234
1761838631125876500,9.33887646484375,-2.791257858276367,-0.10127820074558258,0.8933382034301758
1761838631135946500,9.348946533203126,-2.595831871032715,0.2894359529018402,0.6337814927101135
1761838631146015700,9.359015625,-2.411508560180664,0.6065760850906372,0.3739648163318634
1761838631156085500,9.36908544921875,-2.284276008605957,0.8351883888244629,0.1432257443666458
1761838631166155500,9.379155517578125,-2.2230427265167236,0.9595047235488892,-0.037624724209308624
1761838631176224500,9.389224609375,-2.240485906600952,0.9673181772232056,-0.16609065234661102
1761838631186294500,9.39929443359375,-2.3078410625457764,0.8575512170791626,-0.26874005794525146
1761838631196364500,9.409364501953124,-2.392780303955078,0.6565810441970825,-0.32458287477493286
1761838631206434600,9.4194345703125,-2.4691898822784424,0.41986653208732605,-0.3433115482330322
1761838631216503600,9.429503662109376,-2.5145082473754883,0.20790080726146698,-0.3238285779953003
1761838631226573600,9.439573486328126,-2.5077691078186035,0.042798664420843124,-0.28102704882621765
1761838631236643600,9.4496435546875,-2.456303596496582,-0.0817050039768219,-0.20606718957424164
1761838631246712300,9.45971240234375,-2.381417989730835,-0.14583659172058105,-0.11706461012363434
1761838631256782600,9.469782470703125,-2.2893483638763428,-0.18796983361244202,-0.00248650461435318
1761838631266852600,9.4798525390625,-2.232896566390991,-0.2348473221063614,0.10267800092697144
1761838631276921600,9.489921630859374,-2.223694086074829,-0.26587367057800293,0.18952235579490662
1761838631286991600,9.49999169921875,-2.2499122619628906,-0.2552439570426941,0.2484501302242279
1761838631297061400,9.510061279296876,-2.3010759353637695,-0.2269899845123291,0.28962963819503784
1761838631307131600,9.520131591796876,-2.3253870010375977,-0.1568005084991455,0.331946462392807
1761838631317200400,9.530200439453125,-2.300123691558838,-0.06371374428272247,0.38746950030326843
1761838631327270400,9.5402705078125,-2.2286741733551025,0.010485915467143059,0.4630633294582367
1761838631337340700,9.550340576171875,-2.1134886741638184,0.10258278250694275,0.5633012056350708
1761838631347409400,9.560409423828125,-1.9697256088256836,0.23740850389003754,0.6933473348617554
1761838631357479700,9.570479736328124,-1.8089632987976074,0.3291438817977905,0.7960629463195801
1761838631367549700,9.5805498046875,-1.624650239944458,0.25302061438560486,0.8337852954864502
1761838631377618400,9.590618408203126,-1.4872710704803467,-0.21852247416973114,0.7714478373527527
1761838631387688700,9.600688720703126,-1.507896900177002,-1.1443978548049927,0.5715235471725464
1761838631397758500,9.610758544921875,-1.6511304378509521,-2.072049140930176,0.34244510531425476
1761838631407828500,9.620828369140625,-1.8062288761138916,-2.5835235118865967,0.21025539934635162
1761838631417897500,9.6308974609375,-1.96578049659729,-2.6459786891937256,0.1448046863079071
1761838631427967500,9.640967529296875,-2.117866039276123,-2.4039530754089355,0.07385434210300446
1761838631438037800,9.651037841796875,-2.2083303928375244,-1.8078502416610718,0.012326760217547417
1761838631448106500,9.6611064453125,-2.1587936878204346,-0.8556130528450012,-0.02737537957727909
1761838631458176500,9.671176513671876,-1.9896048307418823,0.08141359686851501,-0.10797453671693802
1761838631468246500,9.68124658203125,-1.7431522607803345,0.6476922035217285,-0.269240140914917
1761838631478316500,9.691316650390625,-1.4818999767303467,0.7197508215904236,-0.504615843296051
1761838631488385500,9.701385498046875,-1.2403382062911987,0.43765518069267273,-0.7508615851402283
1761838631498455600,9.71145556640625,-0.9893719553947449,0.09604859352111816,-0.8904558420181274
1761838631508525600,9.721525634765625,-0.7848259806632996,-0.1522568166255951,-0.8593511581420898
1761838631518594600,9.731594482421874,-0.6552274823188782,-0.24186040461063385,-0.6747101545333862
1761838631528664600,9.74166455078125,-0.6582581400871277,-0.2458181232213974,-0.42505019903182983
1761838631538734300,9.751734375,-0.7788426280021667,-0.2688807249069214,-0.18509800732135773
1761838631548803600,9.761803466796875,-0.9600012302398682,-0.33893197774887085,-0.018625937402248383
1761838631558873600,9.77187353515625,-1.140200138092041,-0.4311254918575287,0.0644880011677742
1761838631568943600,9.781943603515625,-1.282781958580017,-0.4795268476009369,0.05839734897017479
1761838631579013600,9.792013671875,-1.3618865013122559,-0.4785696566104889,-0.00943637266755104
1761838631589082400,9.802082275390624,-1.398409366607666,-0.41441649198532104,-0.107192762196064
1761838631599152600,9.812152587890624,-1.3938051462173462,-0.2966657876968384,-0.21191345155239105
1761838631609222700,9.82222265625,-1.3720585107803345,-0.15256401896476746,-0.3072911202907562
1761838631619291600,9.832291748046876,-1.3658376932144165,-0.011203061789274216,-0.3587366044521332
1761838631629361700,9.842361572265625,-1.396000623703003,0.10856328904628754,-0.3690369129180908
1761838631639431400,9.852431396484375,-1.467734932899475,0.18790298700332642,-0.33106759190559387
1761838631649500700,9.862500732421875,-1.5663424730300903,0.2165530025959015,-0.2526713013648987
1761838631659570400,9.8725703125,-1.6680164337158203,0.20779766142368317,-0.14977547526359558
1761838631669640400,9.882640380859375,-1.7636412382125854,0.1782861053943634,-0.05271550267934799
1761838631679709400,9.89270947265625,-1.8544081449508667,0.12365468591451645,0.025559596717357635
1761838631689779500,9.902779541015626,-1.9207730293273926,0.04628986120223999,0.09067495167255402
1761838631699849700,9.912849609375,-1.9617527723312378,-0.06163909286260605,0.14569413661956787
1761838631709919500,9.92291943359375,-1.9868874549865723,-0.10907292366027832,0.21104517579078674
1761838631719988500,9.932988525390625,-1.967506766319275,-0.037315741181373596,0.287344366312027
1761838631730058500,9.94305859375,-1.8617281913757324,-0.32146117091178894,0.3407079875469208
1761838631740128500,9.95312841796875,-1.7778059244155884,-0.7259914875030518,0.3999876379966736
1761838631750197800,9.96319775390625,-1.7639966011047363,-0.9008820652961731,0.515097439289093
1761838631760267500,9.973267578125,-1.7762196063995361,-0.6694703102111816,0.7198002934455872
1761838631770337500,9.983337646484374,-1.8013478517532349,-0.2890055477619171,0.9671043753623962
1761838631780406500,9.993406494140626,-1.8981146812438965,-0.301483154296875,1.1128301620483398
1761838631790476500,10.0034765625,-2.0907998085021973,-0.7316083908081055,1.1030981540679932
1761838631800546600,10.013546630859375,-2.3536195755004883,-1.278752326965332,0.9740697741508484
1761838631810616600,10.023616455078125,-2.6971614360809326,-1.9383875131607056,0.6945483684539795
1761838631820685600,10.033685546875,-3.041729688644409,-2.6436893939971924,0.27950799465179443
1761838631830755600,10.043755615234375,-3.2400472164154053,-2.934720516204834,-0.09138699620962143
1761838631840825600,10.05382568359375,-3.217625617980957,-2.5082616806030273,-0.3022853434085846
1761838631850894300,10.063894287109376,-3.0488617420196533,-1.6040374040603638,-0.36506378650665283
1761838631860964600,10.073964599609376,-2.767242193222046,-0.40286388993263245,-0.291048526763916
1761838631871034600,10.08403466796875,-2.473191738128662,0.6654506921768188,-0.1900380253791809
1761838631881103600,10.094103515625,-2.2764556407928467,1.249604344367981,-0.1781531423330307
1761838631891173600,10.104173583984375,-2.1348278522491455,1.3233776092529297,-0.2525157928466797
1761838631901243400,10.114243408203125,-1.9968807697296143,1.0093642473220825,-0.345029354095459
1761838631911313400,10.1243134765625,-1.8268243074417114,0.45759832859039307,-0.3613303005695343
1761838631921382400,10.13438232421875,-1.6299676895141602,-0.09245464205741882,-0.25170519948005676
1761838631931452400,10.144452392578126,-1.4398974180221558,-0.5026498436927795,-0.035924725234508514
1761838631941522700,10.154522705078126,-1.2728190422058105,-0.7178820371627808,0.19863325357437134
1761838631951591400,10.16459130859375,-1.1238652467727661,-0.7509084343910217,0.41861194372177124
1761838631961661700,10.17466162109375,-0.9834631085395813,-0.6690157055854797,0.60490882396698
1761838631971731500,10.1847314453125,-0.8612746000289917,-0.4964386224746704,0.7573750615119934
1761838631981800400,10.194800537109375,-0.7763198018074036,-0.27889615297317505,0.8625907897949219
1761838631991874600,10.20487451171875,-0.7495904564857483,-0.062239740043878555,0.9057241082191467
1761838632001944600,10.214944580078125,-0.7651688456535339,0.08972742408514023,0.86639803647995
1761838632012013300,10.225013427734375,-0.8052654266357422,0.18798980116844177,0.7662935256958008
1761838632022083600,10.23508349609375,-0.8685002326965332,0.24509282410144806,0.6100802421569824
1761838632032153600,10.245153564453124,-0.9081230163574219,0.29312241077423096,0.3950786888599396
1761838632042222600,10.25522265625,-0.8780056834220886,0.3353342115879059,0.15554378926753998
1761838632052292600,10.265292724609376,-0.789585530757904,0.34348905086517334,-0.09582797437906265
1761838632062362400,10.2753623046875,-0.663914680480957,0.3018231689929962,-0.3327195346355438
1761838632072432600,10.2854326171875,-0.5475279092788696,0.2725542485713959,-0.43097180128097534
1761838632082501600,10.295501708984375,-0.522818386554718,0.0908593013882637,-0.43355146050453186
1761838632092571400,10.3055712890625,-0.4504014551639557,-0.09457074105739594,-0.41498205065727234
1761838632102641700,10.3156416015625,-0.2742195427417755,-0.20441775023937225,-0.3515973687171936
1761838632112710400,10.32571044921875,-0.12694458663463593,-0.2449776828289032,-0.240986168384552
1761838632122780700,10.33578076171875,-0.03515796735882759,-0.23815912008285522,-0.11585018038749695
1761838632132850700,10.3458505859375,-0.045481178909540176,-0.25675782561302185,0.004413910210132599
1761838632142919400,10.35591943359375,-0.12544949352741241,-0.3062567710876465,0.1814018189907074
