time,seconds_elapsed,z,y,x
1761384980471922200,0.072922119140625,-0.019265256962180136,0.9305798911690711,-0.05547507285401225
1761384980481991200,0.0829912109375,0.10507657749950886,0.941839244069159,-0.07387348385378718
1761384980492060200,0.09306005859375,-0.020870938593149185,0.9338450304448604,-0.18739231100603937
1761384980502129400,0.10312939453125,-0.05525076257884502,0.9121291654601693,-0.31539500606283544
1761384980512198100,0.1131982421875,0.21114859577715395,0.8738210621148347,-0.4226628099963069
1761384980522267100,0.12326708984375,0.10949088681042193,0.795301944412291,-0.5242537373371422
1761384980532336000,0.133336181640625,0.2109159560650587,0.5964145720541477,-0.5681504544697702
1761384980542404000,0.143404052734375,0.571215833389759,0.05893938796371221,-0.3474050321772694
1761384980552473300,0.153473388671875,0.41423955730497836,-0.277374925878644,0.07037482808306812
1761384980562542000,0.1635419921875,0.046211716076731676,-0.20880174039006233,0.29846257596239445
1761384980572611000,0.173611083984375,0.00039046062231063843,-0.13579115697592495,0.2940093959458172
1761384980582680300,0.183680419921875,0.2928893058747053,-0.24356764108389614,0.19314575996622443
1761384980592749000,0.1937490234375,0.5802513727605343,-0.5282090508341789,0.20389482525661587
1761384980602818300,0.203818359375,0.7128174302101135,-0.8135355202391743,0.338283129697293
1761384980612886300,0.21388623046875,0.46332244490385055,-0.9910086409077048,0.4429173702567816
1761384980622955000,0.223955078125,0.21711188809573648,-1.085310434153676,0.580028085398674
1761384980633024300,0.234024169921875,0.18725158736109732,-1.0398764244511722,0.6862627468921244
1761384980643093000,0.244093017578125,0.04811024317443371,-0.8954062864571809,0.6905978534869849
1761384980653162200,0.254162353515625,-0.10798048224747181,-0.6892939312815666,0.5567198366560041
1761384980663231200,0.264231201171875,-0.09605623569786548,-0.4913344874233007,0.34074601267948745
1761384980673300200,0.27430029296875,-0.050104047340154646,-0.22834259942322968,0.11994053076282143
1761384980683368200,0.2843681640625,0.03426993387043476,-0.0035091771647334097,-0.009794687175005673
1761384980693437200,0.294437255859375,0.21883505862653255,0.06502279953062534,-0.08994301351457834
1761384980703506200,0.304506103515625,0.16984043383300304,0.3093409667208791,-0.07808584085181355
1761384980713574700,0.31457470703125,0.0691851799070835,0.26422464466542006,0.10933350429162382
1761384980723644000,0.324643798828125,0.04994213477671146,0.022638532787561415,0.3248534470207989
1761384980733712600,0.334712646484375,0.2903700165301561,0.42621845665127034,0.3946829892460257
1761384980743781600,0.34478173828125,0.1254693771868944,0.6321947643570601,0.432672528161481
1761384980753849900,0.354849853515625,0.08308218783438205,0.22758885844647883,0.4490294964615255
1761384980763918600,0.364918701171875,0.28905834940969943,-0.010698211885988712,0.47145007564947006
1761384980773987800,0.37498779296875,0.3847644564956426,-0.14553002231046558,0.6846924288354813
1761384980784056600,0.385056640625,0.1765349630355835,-0.2640412509225309,0.8893450867220759
1761384980794125600,0.39512548828125,-0.23357962329387663,-0.42477169190905983,0.8734350584719329
1761384980804194800,0.40519482421875,-0.3562789512455463,-0.5304009348552674,0.8796979182589799
1761384980814263600,0.415263671875,-0.48403030188977714,-0.6704254916172474,0.6726244629662483
1761384980824331800,0.425331787109375,-0.47853111995160574,-0.9033612640496342,0.36808169030733406
1761384980834400800,0.43540087890625,-0.3653793725460768,-0.9112160692032426,0.18505955720953643
1761384980844469500,0.445469482421875,-0.34781858141422267,-1.043721920898184,0.12576119060716592
1761384980854538800,0.455538818359375,-0.34644320140779017,-1.2299556364536284,0.16266334527786822
1761384980864607500,0.465607421875,-0.3261632144451141,-1.1603363029129803,0.24573177858153356
1761384980874676700,0.4756767578125,-0.39026539199948307,-0.7476921250406652,0.3096308165129274
1761384980884745500,0.485745361328125,-0.46984044849574563,-0.689075758486241,0.39699901110343633
1761384980894813700,0.495813720703125,-0.553792989423871,-0.8559528124690056,0.36639552731867875
1761384980904882700,0.505882568359375,-0.6495172166883945,-0.9199011146359145,0.21197125553796067
1761384980914951700,0.51595166015625,-0.753781308761239,-0.8522433634918183,0.022032255723793057
1761384980925020700,0.526020751953125,-1.0439356367141008,-0.577210470694676,-0.21762694321209564
1761384980935089700,0.536089599609375,-1.1694067674666642,-0.3864277135327458,-0.21640823333840817
1761384980945158700,0.54615869140625,-1.2366542573094368,-0.3905279153931886,-0.31157135612145065
1761384980955227600,0.5562275390625,-1.079549386408925,-0.30475846123620864,-0.47268999270796774
1761384980965295600,0.566295654296875,-0.8477584000974893,-0.14707432914301752,-0.553133466069214
1761384980975364600,0.576364501953125,-0.6418190634012222,-0.08631459388434887,-0.5595445021552965
1761384980985433600,0.58643359375,-0.46003158666491506,-0.1855130000654608,-0.49131322543956335
1761384980995502600,0.596502685546875,-0.44363633218109605,-0.3832566092159599,-0.28218022553483024
1761384981005571600,0.606571533203125,-0.54325756688416,-0.5068632612708955,-0.027169846941111606
1761384981015640800,0.616640869140625,-0.25927637460827824,-0.6626848874278366,0.1586074574831873
1761384981025709600,0.62670947265625,-0.32876784398555753,-0.6234471750821918,0.13333731581671163
1761384981035777500,0.636777587890625,-0.37312779471576213,-0.5657629017461091,0.06415214047620538
1761384981045846800,0.6468466796875,-0.29284955838620663,-0.5218708607885987,-0.04469085861842614
1761384981055915500,0.65691552734375,-0.27155074976980687,-0.4144506427723914,-0.17670122298058122
1761384981065984800,0.66698486328125,-0.370727747836709,-0.20937866349518297,-0.30419839793434367
1761384981076053500,0.677053466796875,-0.22728373802006244,-0.15594159927479923,-0.24408143582493066
1761384981086122800,0.687122802734375,-0.11735855144560337,-0.2024322053581476,-0.18217114229165016
1761384981096191700,0.697191650390625,-0.26669629547595974,-0.13413096867874263,-0.16255124493921175
1761384981106259700,0.707259765625,-0.06491933915615082,-0.25083164073750375,-0.1217758929638192
1761384981116328700,0.71732861328125,0.11824117949903011,-0.3484266303099692,-0.18181100374236703
1761384981126397700,0.727397705078125,0.1816284867823124,-0.40817974580936134,-0.19339915020540355
1761384981136466700,0.737466796875,0.299551686373353,-0.5418125557076185,-0.14245171084366737
1761384981146535700,0.74753564453125,0.38102410092353817,-0.6444799531735479,-0.017848211504798383
1761384981156604700,0.757604736328125,0.26851883472800253,-0.6447642500076443,0.08722918797861784
1761384981166673700,0.767673583984375,0.14510931268036364,-0.5862991284921765,0.12005464039547369
1761384981176741600,0.77774169921875,0.10138123011291027,-0.49231151576191184,0.07504190657865256
1761384981186810600,0.787810546875,0.07502221549749374,-0.37793176093138753,0.005647741829697042
1761384981196879600,0.797879638671875,0.09687631990909576,-0.29849289803542195,-0.0820584342772141
1761384981206948900,0.807948974609375,0.07142039161324501,-0.2217607368148863,-0.1709237720903009
1761384981217017600,0.818017578125,-0.023633389043807983,-0.06016250001788139,-0.21086579678039996
1761384981227086600,0.828086669921875,-0.03263210353553295,0.13363938576951623,-0.17717044792752712
1761384981237155600,0.838155517578125,-0.12369067707657813,0.2715690160788595,-0.13984967511910945
1761384981247223600,0.8482236328125,-0.21492051553130148,0.23690862158611414,0.06336913230577483
1761384981257292800,0.858292724609375,-0.2287368594378233,0.009453910913318394,0.20641005948055535
1761384981267361500,0.868361572265625,-0.4349234488934278,0.06613748277425766,0.23820761188808828
1761384981277430800,0.8784306640625,-0.37713703035712237,0.22442937150225042,0.29005740691702814
1761384981287499800,0.888499755859375,-0.2613274619191885,0.3045788668856025,0.27192820478007196
1761384981297568500,0.898568603515625,-0.06785480808615683,0.32065599533095956,0.29991880265269427
1761384981307637800,0.9086376953125,-0.0282031811773777,0.2523610422618687,0.4101798335853964
1761384981317705700,0.918705810546875,-0.15348200422823427,0.1737133297435939,0.4927871704496443
1761384981327774700,0.928774658203125,0.03037175738811493,0.21952245636880396,0.458695881081745
1761384981337843700,0.93884375,0.22948212484717367,0.2564095870003104,0.34143059741016474
1761384981347912400,0.948912353515625,0.24609423695206642,0.2327329433366656,0.21694677892820907
1761384981357981700,0.958981689453125,0.3004880904406309,0.28258725369945165,0.10502603462236001
1761384981368050700,0.96905078125,0.3490641975611448,0.3462042780853808,0.024013310005795208
1761384981378119700,0.97911962890625,0.3949474123358726,0.38467546303793787,0.01567894117431715
1761384981388187600,0.989187744140625,0.36820728944838044,0.3345557797372341,0.19962337674880398
1761384981398257000,0.9992568359375,0.2786602895140648,0.281021904078871,0.23745451023215428
1761384981408325600,1.00932568359375,0.3338625367760658,0.2049535405293107,0.19820346348090095
1761384981418394600,1.01939453125,0.3977642233222723,0.1297520229421556,0.15019087199466302
1761384981428463600,1.029463623046875,0.2945756515264511,0.16609262560680507,0.16999220859492198
1761384981438532600,1.03953271484375,0.20135785412490367,0.22855127373784778,0.19358665386782958
1761384981448601600,1.0496015625,0.17234394108653067,0.24136004803702235,0.22354396696984766
1761384981458669600,1.059669677734375,0.10914309628605842,0.22916458333060144,0.236236914603319
1761384981468738600,1.069738525390625,0.004085223487019538,0.17705650269165635,0.2552611841501668
1761384981478807800,1.079807861328125,-0.034223756641149516,0.1181399110816419,0.218596427565068
1761384981488876500,1.08987646484375,0.03326747882962227,0.12972761915326117,0.20725177100170403
1761384981498945800,1.09994580078125,0.05127484468519687,0.15350333927720783,0.2544775960244238
1761384981509014500,1.1100146484375,0.04586860172748566,0.11627221751362085,0.2767995006108656
1761384981519083800,1.120083740234375,0.08032675164639949,0.08412658232077956,0.2852471936237067
1761384981529151700,1.13015185546875,0.09420680843889713,0.13800941754728555,0.2564292780814692
1761384981539220500,1.140220458984375,0.13357143509984015,0.15489888528883455,0.25868275609668345
1761384981549289700,1.150289794921875,0.13212123629152775,0.08271364678293466,0.24351170964557675
1761384981559358700,1.160358642578125,0.05209142176508903,0.0013178046002984046,0.18467903345935047
1761384981569427700,1.170427734375,0.06218845288753509,0.0028695640869438647,0.1360208740785718
1761384981579496700,1.18049658203125,-0.0015489830076694487,0.049924160728603596,0.04102145395725965
1761384981589565700,1.190565673828125,-0.0794984841287136,0.009998977575451136,-0.10157141892276704
1761384981599634700,1.200634765625,-0.04489887991249561,-0.03342325391322374,-0.15680435358397662
1761384981609702700,1.21070263671875,-0.15934066712856293,-0.03384732454419136,-0.19790143006071448
1761384981619771600,1.220771728515625,-0.21471359478235244,0.007590162868052721,-0.21151143774017692
1761384981629840600,1.230840576171875,-0.13188275136053562,0.023888386718183753,-0.22027875462882218
1761384981639909600,1.24090966796875,-0.11480594435334204,-0.0721055973984301,-0.24033340840302406
1761384981649978600,1.250978515625,-0.058571431434154504,-0.16880553782731295,-0.2830087670471519
1761384981660048000,1.2610478515625,0.0476093079149723,-0.1972900201641023,-0.32914266864731906
1761384981670116600,1.27111669921875,0.14460077863633633,-0.18534692278355358,-0.3247905378524214
1761384981680184600,1.2811845703125,0.25778701283335687,-0.20132848189994693,-0.29288229161202906
1761384981690253800,1.29125390625,0.35360242551267146,-0.24556933629512787,-0.30252244581244886
1761384981700322600,1.301322509765625,0.35940088265836234,-0.2774855466462672,-0.24659919079951942
1761384981710395400,1.3113955078125,0.3279880917847156,-0.2863544242132455,-0.17277108045741915
1761384981720464400,1.32146435546875,0.3144967420488596,-0.29112843368202446,-0.1571141867181286
1761384981730533400,1.331533447265625,0.25463234819471836,-0.2891435434751212,-0.18664269821513443
1761384981740602400,1.341602294921875,0.1437391933709383,-0.29611645122766495,-0.14244137211274355
1761384981750670300,1.35167041015625,0.2562000359028578,-0.34400654884539544,-0.08724391062371432
1761384981760739300,1.3617392578125,0.08230068206787108,-0.1258574266564101,-0.09647595894727855
1761384981770808600,1.37180859375,0.012336919003725052,0.09697006260715424,-0.04855137453805655
1761384981780877300,1.381877197265625,0.04857143094539642,0.1328021312277764,0.05689217311032116
1761384981790946600,1.391946533203125,-0.039947394984960555,0.039280017117410894,0.13772738573551177
1761384981801015300,1.402015380859375,-0.13113573238551615,-0.06957907459549606,0.18843239464350042
1761384981811084500,1.41208447265625,-0.1989770964682102,-0.11987228783220052,0.17255363831445575
1761384981821152500,1.422152587890625,-0.28737551088929175,-0.06207176770530641,0.12570742372646926
1761384981831221200,1.43222119140625,-0.17269991491734982,-0.08385222235880792,0.15589213410988448
1761384981841290500,1.44229052734375,-0.18542846358716486,-0.07625438764095306,0.07010967434085905
1761384981851359500,1.452359375,-0.23439853846132755,-0.08317454229295253,0.06688092155270278
1761384981861428500,1.462428466796875,-0.29734920789301394,-0.17709084335267541,0.12526121432892978
1761384981871497500,1.47249755859375,-0.2611421684801578,-0.33520364918671547,0.17540734724514184
1761384981881566500,1.48256640625,-0.17292904749810695,-0.3842222393777221,0.10065057775080204
1761384981891635500,1.492635498046875,-0.12457447417378426,-0.3289391088992357,0.015105945325642823
1761384981901703400,1.502703369140625,-0.07870879505574703,-0.3236408563606441,-0.025514818876236675
1761384981911772400,1.5127724609375,-0.1389759244918823,-0.33459077798537906,-0.06839212983325123
1761384981921841400,1.52284130859375,-0.19934183812737463,-0.3207638396196067,-0.14118958195336162
1761384981931910400,1.532910400390625,-0.19601240144371984,-0.12841953222937882,-0.18808913416378198
1761384981941979400,1.5429794921875,-0.11271510955393314,0.08764087405204772,-0.23892763325832783
1761384981952048400,1.55304833984375,-0.02957213144302368,0.2070018513612449,-0.27752536720000204
1761384981962117400,1.563117431640625,0.055583940055966376,0.15339863679371774,-0.23965631285905836
1761384981972185300,1.573185302734375,-0.03200374250411987,0.046510772088542575,-0.21354506245963273
1761384981982254600,1.583254638671875,-0.01970657098889351,-0.09697795365266501,-0.11384265227913856
1761384981992323300,1.5933232421875,-0.1084253034055233,-0.14713460796289146,-0.11635624253526329
1761384982002392300,1.603392333984375,-0.14114976139962673,-0.09150350429695099,-0.13163681377544997
1761384982012461300,1.61346142578125,-0.06868833630084992,-0.03104793961662799,-0.18327026263996957
1761384982022530300,1.6235302734375,-0.025397476106882092,-0.004834288288652897,-0.2275460422180593
1761384982032599600,1.633599609375,-0.0183387897670269,-0.052846331785619254,-0.19698051582351325
1761384982042667300,1.643667236328125,-0.08146189315617083,-0.12590762247368692,-0.13063684295266867
1761384982052736500,1.653736572265625,-0.154618314781785,-0.2264065533267334,-0.107807609898597
1761384982062805500,1.663805419921875,-0.08434884676933288,-0.24495504032168536,-0.11429799483120441
1761384982072874200,1.673874267578125,-0.020738836646080016,-0.18777509977854787,-0.129688748447597
1761384982082943500,1.683943603515625,-0.00019698387682437897,-0.11635985926445573,-0.11818564991950987
1761384982093012200,1.69401220703125,0.034305005183815955,-0.101314594617486,-0.09212678729444741
1761384982103081500,1.70408154296875,0.0010205752193927764,-0.1432086301581934,-0.06694887222237884
1761384982113150500,1.714150390625,-0.0455921228736639,-0.20128734617196023,-0.053132016859203574
1761384982123218200,1.72421826171875,-0.10098960044682025,-0.23464568162281066,-0.03747742467485368
1761384982133287400,1.734287353515625,-0.17740297804176805,-0.2321023538155481,-0.016212810589000582
1761384982143356400,1.7443564453125,-0.15945347985327243,-0.15086842419635504,-0.026090280676633118
1761384982153425400,1.75442529296875,-0.11473171007335185,-0.06319700887557118,-0.04292429190389812
1761384982163494400,1.764494384765625,-0.10817454351484775,-0.05524400404449552,-0.0679517656546086
1761384982173563400,1.7745634765625,-0.11180793158113955,-0.0937590281387791,-0.0834220873132348
1761384982183632400,1.78463232421875,-0.12553367459475995,-0.08689666808862238,-0.07771941869221627
1761384982193700400,1.794700439453125,-0.22000644049346446,-0.08383030278794466,-0.05961838320381939
1761384982203769300,1.804769287109375,-0.2577577867388725,-0.06964775591753423,-0.05258190869577229
1761384982213838300,1.81483837890625,-0.20096330184936523,-0.03298442410454154,-0.03832330091446638
1761384982223907600,1.824907470703125,-0.17712474562227726,-0.02840422017481178,0.007051672077178954
1761384982233976300,1.834976318359375,-0.18417524865567683,-0.08219313004016876,0.06849003724977373
1761384982244045600,1.845045654296875,-0.19538813206553457,-0.14175934466533363,0.10795585926286876
1761384982254114300,1.8551142578125,-0.14112287339270113,-0.1682862266609445,0.0992008903991431
1761384982264183600,1.86518359375,-0.06829319950342178,-0.14853738743290304,0.05944485326781868
1761384982274251500,1.87525146484375,0.01209726502895355,-0.14695296778567135,0.012364683793485164
1761384982284320300,1.8853203125,0.06781272251009941,-0.19287304397206753,-0.02488769995383918
1761384982294389500,1.895389404296875,0.10624854388833045,-0.21749902424979953,-0.030843612683564423
1761384982304458500,1.90545849609375,0.1643085186690092,-0.15993359152041375,-0.04190167085789144
1761384982314527500,1.915527587890625,0.17995733869969843,-0.08460190821494906,-0.06545293457619845
1761384982324596500,1.925596435546875,0.12590601503849028,-0.07694204111155122,-0.08043795693591237
1761384982334665200,1.935665283203125,0.11367430997490882,-0.11351389524880796,-0.09609569092541932
1761384982344733400,1.9457333984375,0.04722352346777916,-0.11690861572101711,-0.12248802328854798
1761384982354802400,1.955802490234375,0.013016717961430549,-0.0961778527835384,-0.1339330349538475
1761384982364871400,1.965871337890625,-0.01876665979027748,-0.0426082482246682,-0.14596950970627368
1761384982374940400,1.9759404296875,-0.04358019852936268,-0.019610088344477115,-0.15332199136093258
1761384982385009400,1.986009521484375,-0.07294365565776824,-0.03445091646052897,-0.13202997781150042
1761384982395078400,1.996078369140625,-0.08956687367856501,-0.04123933449164033,-0.09439619353115558
1761384982405147400,2.0061474609375,-0.1297919165611267,-0.0193183388562873,-0.06333674613982439
1761384982415216400,2.01621630859375,-0.13440496331453322,-0.021847857333905995,-0.03605550211295485
1761384982425284400,2.026284423828125,-0.1869265931904316,-0.044312458326667546,-0.04703377304933965
1761384982435353600,2.036353515625,-0.13083645717799663,-0.028694289162568748,-0.06835011732243002
1761384982445422300,2.04642236328125,-0.08447218088805675,0.045056079768203194,-0.09283888108655809
1761384982455491300,2.0564912109375,-0.0685235011279583,0.08816420380640774,-0.08580036075189709
1761384982465560300,2.066560302734375,-0.05186521179378032,0.0791777642743662,-0.07941847769506276
1761384982475629300,2.07662939453125,-0.014207389050722122,0.035357327248342334,-0.029563436679914592
1761384982485698600,2.086698486328125,-0.014451719200611113,0.01549308147970587,0.028675109538063404
1761384982495766500,2.0967666015625,-0.04236614656448364,0.024531908786110578,0.08209383438415825
1761384982505835300,2.106835205078125,-0.008617606219649314,0.05512114484980702,0.0956290232617408
1761384982515904500,2.116904541015625,0.030292262411117554,0.09549560614041984,0.10376944042369722
1761384982525973200,2.12697314453125,0.04387479756176471,0.0879984553180635,0.12155972946248948
1761384982536042500,2.13704248046875,0.05752689081728458,0.033874504812061786,0.14589067231640218
1761384982546111200,2.147111328125,0.08638649007678031,0.023471184219419954,0.16712627950347958
1761384982556180500,2.157180419921875,0.11687573636472225,0.03971212492436171,0.16426687148436903
1761384982566249500,2.16724951171875,0.10053659598231315,0.0535311722446233,0.1659624964211136
1761384982576317200,2.177317138671875,0.12992168042063712,0.07131627365164458,0.15672690443359313
1761384982586386400,2.187386474609375,0.15649112291634082,0.10148469048738479,0.13870229518227278
1761384982596455400,2.197455322265625,0.13303075235188005,0.0944665918862447,0.14236702823489902
1761384982606524400,2.2075244140625,0.14293722933828829,0.07369567960146814,0.15149181679170579
1761384982616593400,2.217593505859375,0.13074527176320552,0.07146810321249067,0.16802216889727858
1761384982626662400,2.227662353515625,0.0856114140510559,0.062081521914340555,0.1908535939084366
1761384982636731400,2.2377314453125,0.0377536843329668,0.037794381669536234,0.18146233643516896
1761384982646799400,2.24779931640625,0.015802549287676812,0.03865980285983532,0.20214286702275275
1761384982656868400,2.257868408203125,0.012502338698506355,0.052516807570308445,0.18730824945177882
1761384982666937300,2.267937255859375,0.010769815817475319,0.0611562602955848,0.15053104546815155
1761384982677006600,2.278006591796875,0.03641396016180515,0.012065920042619109,0.1184524841621518
1761384982687075300,2.288075439453125,0.04846212535202503,-0.031262641813233495,0.08543459617942571
1761384982697144600,2.29814453125,0.012622165685892105,-0.08450337974391878,0.09441953787412494
1761384982707213300,2.30821337890625,-0.0013397241711616515,-0.0783454416360706,0.08506152508333324
1761384982717279200,2.318279296875,0.002994505640864372,-0.040284225723892446,0.05679057589937001
1761384982727347200,2.32834716796875,-0.02582768421769142,-0.017726722283288837,0.041315322337299586
1761384982737416200,2.338416259765625,-0.047507016584277154,-0.02267645364515483,0.022065409074723718
1761384982747485200,2.348485107421875,-0.0429255340129137,-0.03335968715772033,0.005813946975767612
1761384982757554200,2.35855419921875,-0.06149754801392555,-0.038549876211956144,-0.022431758169084787
1761384982767623200,2.368623046875,-0.01843815848827362,-0.0539423103287816,-0.050081104855984444
1761384982777692200,2.378692138671875,0.018711130210757255,-0.063292249410972,-0.05566058548875153
1761384982787761200,2.38876123046875,0.0523456887871027,-0.06348075772039592,-0.07763013297356665
1761384982797830100,2.398830078125,0.07706979567706584,-0.07395283270031214,-0.09640084788445383
1761384982807898000,2.408898193359375,0.04170037613213062,-0.08546674488335847,-0.08717033393085002
1761384982817967000,2.418967041015625,-0.001810264292359352,-0.0966855465773493,-0.07776632657386362
1761384982828036000,2.4290361328125,-0.0250181214004755,-0.07889014297202229,-0.07184248948283493
1761384982838105000,2.43910498046875,-0.025589783808588982,-0.0874915287092328,-0.07164324058368801
1761384982848174000,2.449174072265625,0.0056336219727993,-0.06871624722108244,-0.08516030928269028
1761384982858243300,2.459243408203125,0.01691664800941944,-0.07819171237908304,-0.09744995507858693
1761384982868312000,2.46931201171875,0.00029459903240203856,-0.11551708829738198,-0.09970613650754094
1761384982878380000,2.479380126953125,-0.024207974061369895,-0.1274290598873049,-0.09449928857944906
1761384982888449300,2.48944921875,-0.013386720317602158,-0.11617160668335855,-0.04768069265075028
1761384982898518000,2.49951806640625,-0.06564005464613437,-0.11042100726738571,-0.020849019022285937
1761384982908587300,2.509587158203125,-0.10360065972805023,-0.14458660398051143,-0.02621105751208961
1761384982918656000,2.519656005859375,-0.08506020990908146,-0.1486911166898906,-0.03961239087693393
1761384982928725200,2.529725341796875,-0.10903846686780452,-0.10934680216461419,-0.05826543422490358
1761384982938794200,2.539794189453125,-0.08884615818858146,-0.07122209256216883,-0.07439509657509624
1761384982948863200,2.54986328125,-0.08971300415098667,-0.05331584899351,-0.0898076966971159
1761384982958931200,2.55993115234375,-0.05461071110963821,-0.023917028290778398,-0.08084851049818098
1761384982969000200,2.570000244140625,-0.004667407289147376,-0.006163856391981244,-0.07294577454961836
1761384982979069200,2.580069091796875,-0.007556114467978477,-0.02920278667397797,-0.0385293448805809
1761384982989138200,2.59013818359375,0.02460077277123928,-0.05085501183792948,0.0050594022814184425
1761384982999207200,2.600207275390625,0.0707715723156929,-0.03527808799967169,0.024151933025196193
1761384983009276200,2.610276123046875,0.10616846438944338,-0.02957841505333781,0.04655804529637098
1761384983019345200,2.62034521484375,0.08374328209161758,-0.026519612004607913,0.06101129886694252
1761384983029414100,2.6304140625,0.03474456564486027,-0.031681086421012875,0.06927351577766239
1761384983039482000,2.640482177734375,-0.0013584288716316222,-0.019242679804190994,0.06251702725477516
1761384983049551400,2.65055126953125,-0.02071253316104412,0.00942329657934606,0.04178052869625389
1761384983059620000,2.6606201171875,0.010498013138771056,0.029373613196238872,0.011582812700793147
1761384983069689300,2.670689453125,0.03487783663570881,0.027314123383164406,0.020262378240749238
1761384983079758000,2.680758056640625,0.01723813504874706,0.009932780471444129,0.02811024219691753
1761384983089827000,2.6908271484375,0.03972118501365184,-0.018541545797511935,0.06052044661007821
1761384983099896300,2.700896240234375,0.04367372203171253,-0.02281578905060887,0.07539024509228766
1761384983109964000,2.710964111328125,0.01433072316944599,-0.036865503321588035,0.08636742005012929
1761384983120033300,2.721033203125,0.02466390113532543,-0.021938787020370363,0.06412563149519264
1761384983130102300,2.731102294921875,0.039733459973335265,0.004966097974777222,0.02918488569110632
1761384983140171000,2.7411708984375,0.026899697363376617,0.019401888953894376,0.002987418312951922
1761384983150240300,2.751240234375,-0.004562193349003791,0.006954714508727192,0.003881079217046499
1761384983160309000,2.76130908203125,-0.021877485287189483,-0.009788622760400175,-0.019218933602422474
1761384983170378200,2.771378173828125,-0.03971417075097561,-0.010332885704934597,-0.03378879928998649
1761384983180447000,2.781447021484375,-0.02198036113977432,-0.011063976458460092,-0.04199417144693434
1761384983190515000,2.791514892578125,0.027397125491499898,0.002933715364336967,-0.036695553582161665
1761384983200584200,2.801584228515625,0.028481413596868514,-0.01746682923808694,-0.013623451682925223
1761384983210653200,2.811653076171875,0.023399580287933347,-0.052808191732317204,0.02905621781013906
1761384983220722200,2.82172216796875,-0.01903846246898174,-0.08383432137593627,0.06294336290806532
1761384983230791200,2.831791259765625,-0.04003448874652386,-0.0785087424390018,0.07707863657064735
1761384983240860200,2.841860107421875,-0.05811258175075054,-0.06542129732891917,0.06556143645197153
1761384983250929200,2.85192919921875,-0.08113572994172573,-0.03285984787680209,0.028515973453596234
1761384983260998100,2.861998046875,-0.06344166781902313,-0.007846183455735444,-0.00048697979934513567
1761384983271066000,2.872066162109375,-0.05005085584819317,0.004566211936995387,-0.012370894338563084
1761384983281135000,2.882135009765625,-0.025758710634708405,-0.012191519183665513,-0.01870703855752945
1761384983291204000,2.8922041015625,0.008456278178095817,-0.04592018578425049,-0.012951689901202917
1761384983301273000,2.902273193359375,-0.00005143792629241943,-0.07223090427853167,-0.003568140810355544
1761384983311342300,2.91234228515625,0.011456629037857055,-0.06447722141183912,-0.009015884822234511
1761384983321411000,2.9224111328125,0.06588087766468524,-0.039657325997203584,-0.002247194404900074
1761384983331480300,2.932480224609375,0.07600421227216721,-0.03126139970421791,0.023708280910924074
1761384983341548300,2.94254833984375,0.08243161497116089,-0.05744337725229561,0.03290083747431636
1761384983351617000,2.952616943359375,0.08180150037407874,-0.06512669829651713,0.009025237172469495
1761384983361686300,2.962686279296875,0.0695949297517538,-0.04544211994372308,-0.0219093417301774
1761384983371755000,2.972755126953125,0.05443652358651161,-0.022437676453217863,-0.07401902980431914
1761384983381824300,2.98282421875,0.026926585370302198,-0.014522884740680456,-0.10826719023436307
1761384983391893200,2.992893310546875,0.017732056045532227,-0.04309299953430891,-0.11458937899321317
1761384983401962000,3.0029619140625,0.018109072664380072,-0.051081441004946826,-0.12694617174118755
1761384983412031200,3.01303125,0.020308044013381002,-0.05378069002628326,-0.1223700229320675
1761384983422099200,3.02309912109375,-0.01897708767056465,-0.058400312650948756,-0.1010169268451631
1761384983432168200,3.033168212890625,-0.035896073767542835,-0.04618965037539601,-0.05227225822471082
1761384983442237200,3.0432373046875,-0.06271452258825302,-0.022396759920939802,-0.02885572680197656
1761384983452306200,3.05330615234375,-0.08883271418511866,-0.04515066271647811,0.00018324761241674423
1761384983462375200,3.063375244140625,-0.10594050085246562,-0.058064358694851395,0.026571196061372756
1761384983472444200,3.073444091796875,-0.12122457922399044,-0.05810206035673618,0.06381327761039138
1761384983482513200,3.08351318359375,-0.1296300039976835,-0.043140784198790784,0.08495470370799303
1761384983492582100,3.09358203125,-0.10685820021927356,-0.0382478245254606,0.11170987803414463
1761384983502650400,3.103650390625,-0.11275953321754932,-0.05702361747026443,0.13533216116204858
1761384983512719000,3.113718994140625,-0.11673486658930778,-0.06922434287369252,0.13353358730748294
1761384983522788000,3.1237880859375,-0.06811316676139831,-0.08868504934273659,0.15835194835215807
1761384983532857000,3.133857177734375,-0.024599603727459906,-0.0734449562434107,0.1592709628932178
1761384983542926000,3.143926025390625,0.01551847164928913,-0.051985842498764395,0.1510491510581225
1761384983552995300,3.153995361328125,0.04634498706758022,-0.03755794256515801,0.14209361812099813
1761384983563064000,3.16406396484375,0.00852583628296852,-0.024261823140457273,0.12772519328966736
1761384983573132300,3.17413232421875,0.042488311639428136,0.028537454633042216,0.09284662600159645
1761384983583201300,3.184201171875,0.032086744612455365,0.07102379351109266,0.06794117119535803
1761384983593270000,3.19427001953125,0.010950433081388473,0.044389980542287225,0.06805376472435891
1761384983603339300,3.20433935546875,0.005826514196395874,0.012409691978991031,0.08411971418857574
1761384983613408000,3.214407958984375,0.007478957578539848,0.012752952458709478,0.07906462275609373
1761384983623477200,3.224477294921875,0.03445873444080352,0.01335157593898475,0.0850254308566451
1761384983633546200,3.234546142578125,0.05696925693452358,-0.009683774146437644,0.054623497525975104
1761384983643615200,3.244615234375,0.01614624815881252,-0.04352503427602351,0.01892287326529622
1761384983653683200,3.25468310546875,-0.007936638218164444,-0.05624861450977623,-0.028631635722517965
1761384983663752200,3.264752197265625,-0.010926467683911322,-0.024791180776804683,-0.03754318338744342
1761384983673821200,3.2748212890625,-0.04266717533767223,0.00312573080509901,-0.04156038313955068
1761384983683890200,3.28489013671875,-0.046696284723281856,0.000008767828345298767,-0.06371653923764825
1761384983693959200,3.294959228515625,-0.006222235515713691,-0.018433920704573392,-0.07905636638440192
1761384983704028200,3.305028076171875,-0.0013379706054925918,-0.04288176793642342,-0.074982102682814
1761384983714096600,3.3150966796875,-0.00269873756468296,-0.05968516482971608,-0.048007294256612654
1761384983724165400,3.325165283203125,0.01913257049322128,-0.06061784256994724,-0.05035634160079062
1761384983734233600,3.335233642578125,0.06564122368991375,-0.05586546041108668,-0.03560074408277869
1761384983744302600,3.345302490234375,0.0587198999941349,-0.06703070528693497,-0.02918415503874421
1761384983754371600,3.35537158203125,0.05102993001341819,-0.06782032129466534,-0.02192008231990039
1761384983764440600,3.365440673828125,0.062007835623621936,-0.04914543144106864,-0.01652845240943134
1761384983774509300,3.37550927734375,0.03731003221869469,-0.0320269041839987,-0.038326808045804496
1761384983784578600,3.38557861328125,0.015851064604520796,-0.031017215684801338,-0.036675533707439895
1761384983794647600,3.3956474609375,-0.03934475291669368,-0.04955401224195957,-0.045465720015019175
1761384983804715500,3.405715576171875,-0.08094809841513634,-0.06735431121811271,-0.04088642940074205
1761384983814784500,3.415784423828125,-0.09221300427317619,-0.06925685690380633,-0.06383855818212032
1761384983824853500,3.425853515625,-0.06443535503149032,-0.055526437715068454,-0.07686141362339258
1761384983834922500,3.435922607421875,-0.07154489477574826,-0.05933225973881781,-0.06941577379256486
1761384983844991500,3.445991455078125,-0.08054127117991447,-0.07447495687827467,-0.052125324034690855
1761384983855060500,3.456060546875,-0.08161328432559967,-0.07966353849731385,-0.02975939764343202
1761384983865129500,3.46612939453125,-0.08703764746189117,-0.0690069007307291,-0.023877061606571076
1761384983875198700,3.47619873046875,-0.04444470640420913,-0.06382255689539015,-0.006833207020908593
1761384983885266400,3.486266357421875,0.004403203395009041,-0.05846161438412964,0.014889379965513944
1761384983895335400,3.49633544921875,0.014266425761580466,-0.07394019241444766,0.02462846449576318
1761384983905404700,3.50640478515625,-0.006953472399711609,-0.08177322412766516,0.04886771047823131
1761384983915473400,3.516473388671875,-0.0234539408236742,-0.07229805123060941,0.07135207561738789
1761384983925542700,3.526542724609375,-0.021706804895401,-0.03838715993091464,0.06347820043712854
1761384983935611400,3.536611328125,-0.0008797054439783096,-0.002298486200720072,0.06148519998900592
1761384983945680600,3.5466806640625,0.0370914210319519,0.037680326835811136,0.05036956640854478
1761384983955749600,3.55674951171875,0.04368307438194752,0.03505684646442532,0.04327120564542711
1761384983965817300,3.5668173828125,0.04498305106461048,0.008273907348513602,0.03315751564912498
1761384983975886600,3.576886474609375,0.035813656181097026,0.008940408433228731,0.05370090278834104
1761384983985955600,3.58695556640625,0.02622983527779579,0.023651436157152057,0.05124912572205066
1761384983996024600,3.597024658203125,0.06526654515862465,0.0414160062327981,0.04038907433785498
1761384984006093600,3.607093505859375,0.08146423124372959,0.061074500296264884,0.007003741282224655
1761384984016162600,3.61716259765625,0.05599485894441604,0.03584266307987272,0.008639416192658246
1761384984026231600,3.6272314453125,0.07115326510965823,0.006111614748090505,-0.0002690261997282505
1761384984036300500,3.637300537109375,0.09965981314778327,-0.023558424111455676,-0.0007127879118546843
1761384984046368500,3.647368408203125,0.09264087429642677,-0.056870472735166544,0.012046776950731872
1761384984056437500,3.6574375,0.06565349864959716,-0.08284772149138152,-0.015257117299363016
1761384984066506800,3.6675068359375,0.07706102784872054,-0.09342157634533942,-0.032822657671570776
1761384984076575500,3.677575439453125,0.0703664986461401,-0.04915376087799668,-0.033159853736683724
1761384984086644700,3.687644775390625,0.06137655198276042,0.012715543057769537,-0.032587168415263296
1761384984096713500,3.69771337890625,0.049985973918437954,0.029605303060263394,-0.018203326819092033
1761384984106782500,3.707782470703125,-0.020840543454885483,-0.0006918547216802835,0.0060106385916471475
1761384984116850700,3.7178505859375,-0.0613689531981945,-0.04063471966199576,0.01947510032057762
1761384984126919400,3.72791943359375,-0.11560673934221267,-0.04432824041768908,-0.004702624733000993
1761384984136988700,3.73798876953125,-0.10973346339464186,-0.013740429126098751,-0.03384842052273452
1761384984147057400,3.748057373046875,-0.14438041388392447,0.004777662730589508,-0.04640475443080067
1761384984157126400,3.75812646484375,-0.1478910523533821,0.008332432602718471,-0.027528935177624225
1761384984167195600,3.768195556640625,-0.11695055516660213,0.013071297692880034,-0.024791326907277107
1761384984177264400,3.778264404296875,-0.04762509000599384,-0.003890577697753906,-0.019060491637699305
1761384984187333600,3.788333740234375,0.013591887500882149,-0.040070948299393054,-0.0011122720908373594
1761384984197401600,3.798401611328125,0.06207505564093589,-0.06023724575452506,0.023290786151215433
1761384984207470300,3.80847021484375,0.06341711789965629,-0.055882996067777274,0.06307246918044984
1761384984217539600,3.81853955078125,0.08452478785812854,-0.04057539069019258,0.07451390064917504
1761384984227608300,3.8286083984375,0.10706044479310511,-0.03352240343876183,0.05848930610865354
1761384984237677600,3.838677490234375,0.0795727184087038,-0.018727350693196056,0.03386891532149166
1761384984247746600,3.84874658203125,0.05622282248139381,-0.0009832388836890458,0.012300313320383428
1761384984257815600,3.858815673828125,0.05899754789173603,0.003367722867429256,0.013040098837018012
1761384984267884500,3.868884521484375,0.01201543196439743,0.022923852534964678,0.008149659914337097
1761384984277952500,3.878952392578125,-0.0027215339183807373,0.03844539292417466,0.008442614978924394
1761384984288021500,3.889021484375,-0.008052958074212075,0.027398732926696538,0.02159907020460814
1761384984298090500,3.899090576171875,-0.06303893223702907,-0.0008040098592638969,0.03835888368450105
1761384984308159500,3.909159423828125,-0.06971534126102924,-0.06246895032934844,0.052016602963209146
1761384984318228500,3.919228515625,-0.057441550621390336,-0.09067088939771055,0.04361563516892492
1761384984328297700,3.929297607421875,-0.052394204103946684,-0.07757284982837737,0.04229527328535914
1761384984338366500,3.939366455078125,-0.043886487999558445,-0.068634998678416,0.03503492689356208
1761384984348435700,3.949435791015625,0.0009592004209756851,-0.06054514265991747,0.015472184822149574
1761384984358503700,3.959503662109375,0.0002449146717786789,-0.07178637538142502,-0.0015003946255892514
1761384984368572400,3.969572509765625,-0.010613163951039313,-0.08135485258512198,-0.012924655763804912
1761384984378641700,3.9796416015625,0.01907470282614231,-0.05930566399283707,-0.03993694665618241
1761384984388710400,3.98971044921875,0.007323474755883216,-0.05106485519632697,-0.06095467330887913
1761384984398779600,3.999779541015625,0.021148001968860623,-0.030094474816694854,-0.06771649559400976
1761384984408848600,4.0098486328125,0.02640110019147396,-0.003809986742213368,-0.06071702862810343
1761384984418917400,4.01991748046875,-0.02363397356569767,0.002455138067156076,-0.014606873229704796
1761384984428985600,4.029985595703125,-0.061089551734924315,-0.022474282136559484,0.018074476275034248
1761384984439054600,4.0400546875,-0.05289221675395965,-0.007866641721874476,0.009130597243085504
1761384984449123600,4.05012353515625,-0.04014554790556431,0.005585325851663947,0.004776895545609295
1761384984459192600,4.060192626953125,-0.04185702799856662,0.011840440723672508,0.010662044594064354
1761384984469261600,4.070261474609375,-0.030168928292393683,-0.011509893595054745,-0.003924078108556568
1761384984479330600,4.08033056640625,-0.02174596786201,-0.029050080330297347,0.009302337080799042
1761384984489399600,4.090399658203125,-0.010000585010647774,-0.03261705209687352,0.02030837280694395
1761384984499468500,4.100468505859375,0.012694061878323554,-0.03914543095231056,0.01645659274961799
1761384984509536500,4.11053662109375,0.02362345217168331,-0.06722907740324735,0.02233227984998375
1761384984519605800,4.120605712890625,-0.0032101942181587215,-0.10059716706313192,0.012797631850652396
1761384984529674500,4.130674560546875,-0.014463409638404845,-0.11119440279267728,0.0021631693832576274
1761384984539743500,4.140743408203125,-0.03190963447988033,-0.11637333980053663,0.010386625186167656
1761384984549812500,4.1508125,-0.05566168146729469,-0.10595650213919579,0.03067947163041681
1761384984559881500,4.160881591796875,-0.1001858828485012,-0.08811967054493725,0.057766727455146605
1761384984569950500,4.170950439453125,-0.08792144455909728,-0.060739130862057206,0.04703110616821796
1761384984580019500,4.18101953125,-0.03285363733172417,-0.04748232053443789,0.022941095930710434
1761384984590087700,4.191087646484375,-0.03286298968195915,-0.05352101617679,0.019471775852330026
1761384984600156700,4.20115673828125,-0.015081833797693251,-0.06897877061478794,0.04191241144761443
1761384984610225400,4.211225341796875,0.003338204512000084,-0.0751596512068063,0.046080965836532414
1761384984620294700,4.221294677734375,-0.0004974281281232833,-0.06888210530728102,0.038969416798278686
1761384984630363400,4.23136328125,0.0072188453376293175,-0.0425900184482336,0.01079520598705858
1761384984640432600,4.2414326171875,0.006689268505573272,-0.029962592065334318,-0.008136654302291572
1761384984650501400,4.25150146484375,-0.0007744915038347244,-0.01225428222157061,-0.02674209564886987
1761384984660569300,4.2615693359375,0.034763270345330236,0.010538564344868063,-0.03084131112862378
1761384984670638600,4.271638671875,0.03026186727285385,0.018805019039288162,-0.015856982888653875
1761384984680707300,4.281707275390625,0.039735213539004326,0.0019594635047018526,-0.009571399813145398
1761384984690776600,4.291776611328125,0.06266951440274715,-0.024378727518394587,-0.014709529886581002
1761384984700845600,4.301845458984375,0.058737435650825495,-0.047096316891536115,-0.02282656617294997
1761384984710915300,4.311915283203125,0.04372165282666683,-0.026167145305126902,-0.02398739011324942
1761384984720984300,4.321984375,0.040804304075241084,-0.011214344714581966,-0.006805442231148481
1761384984731053300,4.33205322265625,0.004161795854568481,-0.005788520273566245,-0.010873824181221426
1761384984741121300,4.342121337890625,-0.05364566546976566,0.008981690291687846,0.011084544322453439
1761384984751190300,4.352190185546875,-0.10654197387695312,0.011396569413691758,0.028085290418751536
1761384984761259300,4.36225927734375,-0.12145546537041664,0.04514218714907765,0.03969648896381259
1761384984771328300,4.372328369140625,-0.14957038374245166,0.05398066957779228,0.03131035341247916
1761384984781397200,4.382397216796875,-0.15114508571326732,0.03801642692238092,0.045516281158477064
1761384984791466200,4.39246630859375,-0.15885259135067462,0.013614464658871292,0.04920760995708406
1761384984801535500,4.402535400390625,-0.1395212834149599,-0.022391937615349886,0.05316069496441632
1761384984811604200,4.412604248046875,-0.08193360232114791,-0.05758081296160817,0.026778701332211493
1761384984821672200,4.422672119140625,-0.04020341557264328,-0.07692256922610104,0.01676744879707694
1761384984831741400,4.432741455078125,0.004760346269607543,-0.09013488282486797,0.026747612074203786
1761384984841810200,4.44281005859375,0.06679214729070664,-0.10259082509838044,0.02197846144363284
1761384984851879400,4.45287939453125,0.11301964545845984,-0.12922317676246164,0.00807440272103995
1761384984861948200,4.4629482421875,0.13584230264127253,-0.15287570889815688,0.0021994097404181958
1761384984872017400,4.473017333984375,0.13854279377162457,-0.1430127787925303,-0.009016396278887987
1761384984882086400,4.48308642578125,0.15346213048398494,-0.11718472924865782,-0.02291015280317515
1761384984892154000,4.493154052734375,0.18213877439200876,-0.09620923430249094,-0.05876023200452327
1761384984902223400,4.503223388671875,0.17868834167718886,-0.04257504007481038,-0.07836750733740627
1761384984912292400,4.513292236328125,0.1700590450197458,-0.006751154760643839,-0.056187312776595354
1761384984922361300,4.523361328125,0.09934007967412471,-0.0003606500059366226,-0.03283946267589927
1761384984932430300,4.533430419921875,0.04338379917442799,0.01761449408046901,-0.006902801658399403
1761384984942499300,4.543499267578125,0.015870938348770142,0.056362523213028905,0.012633344667032361
1761384984952568300,4.553568359375,-0.03746668408513069,0.08488171153701841,0.030770510914735493
1761384984962637300,4.56363720703125,-0.06971943291425704,0.0664219257388264,0.04749412057008594
1761384984972705300,4.573705322265625,-0.08410510114133357,0.05974390927962958,0.04867087273187935
1761384984982774300,4.583774169921875,-0.10766074877381324,0.04760886952355504,0.034825302730873225
1761384984992843300,4.59384326171875,-0.08820844480693339,0.04831234161779284,0.013744630377180874
1761384985002912300,4.603912353515625,-0.07892039197981357,0.05164660060703754,0.013734730037674307
1761384985012981200,4.613981201171875,-0.08947451921999454,0.049613925735652445,0.028610994793288408
1761384985023050200,4.62405029296875,-0.08438917877972126,0.021348054585605857,0.036387254817970095
1761384985033119200,4.634119140625,-0.09750935711562633,-0.023269378037005663,0.03175930275637656
1761384985043188200,4.644188232421875,-0.06961012732088566,-0.02942095946930349,0.020830971908941863
1761384985053256200,4.654256103515625,-0.019773791006207464,-0.03513999470323324,0.013510675490833818
1761384985063325200,4.6643251953125,-0.01583645155727863,-0.05406191812045872,0.010751622573658824
1761384985073394200,4.674394287109375,-0.009891863939166069,-0.0730857675421983,0.023678104968369005
1761384985083463200,4.684463134765625,0.010821253743767738,-0.06392762470506132,0.02429280280061066
1761384985093532400,4.694532470703125,0.02382394317984581,-0.05487520726472139,0.016101641832105815
1761384985103601200,4.70460107421875,0.060190557068586344,-0.01610167836472392,0.01051079955510795
1761384985113670400,4.71467041015625,0.084352353900671,-0.0012447393640875816,0.010741283842734992
1761384985123738400,4.72473828125,0.07113982110619545,-0.005258212789148092,0.006578976531513035
1761384985133807000,4.73480712890625,0.0761439130038023,-0.009360387410968542,0.0028762130234390496
1761384985143876400,4.74487646484375,0.07203647768497466,-0.008478343879431485,0.0012508768439292908
1761384985153945000,4.754945068359375,0.04109013527929783,-0.0357804114986211,0.011918766656890512
1761384985164014300,4.765014404296875,-0.005636544582247734,-0.05572327546142041,0.016651421201974152
1761384985174083300,4.775083251953125,-0.02582300804257393,-0.0591931435290724,0.01192457534316927
1761384985184152300,4.78515234375,-0.049402621072530746,-0.08846402700319886,0.006343487275205552
1761384985194221300,4.79522119140625,-0.08660802387297153,-0.09613171208687125,0.008254691191390157
1761384985204289300,4.805289306640625,-0.09400456386506557,-0.06835903128124773,-0.013681976937130092
1761384985214358300,4.815358154296875,-0.0799561647683382,-0.04707965801768005,-0.032490649238228794
1761384985224427300,4.82542724609375,-0.06475333493947982,-0.056027226844057434,-0.026410233346000313
1761384985234496300,4.835496337890625,-0.027706922093033787,-0.045330841588974,-0.011112820568867027
1761384985244565200,4.845565185546875,-0.01381049868762493,-0.041963630178198215,0.0017910116026178002
1761384985254634500,4.855634521484375,-0.02465337974131107,-0.0663780865970999,-0.004131766042485833
1761384985264703200,4.865703125,0.0355664034217596,-0.0677964289624244,-0.008692461554147303
1761384985274772200,4.875772216796875,0.057927872833609576,-0.04651186806708574,-0.005641220757365227
1761384985284840400,4.88584033203125,0.03671440441310406,-0.02048077023178339,0.02170822966750711
1761384985294909200,4.8959091796875,0.03779401634335518,-0.025047201364487407,0.032580556011386215
1761384985304978400,4.905978515625,0.007265607088804245,-0.019162381109595297,0.038347302844561636
1761384985315047200,4.916047119140625,-0.014420739540457724,-0.016255846013128756,0.03413107338901609
1761384985325116400,4.926116455078125,-0.031411037307977674,0.002514320908486843,0.006414104826003313
1761384985335185400,4.936185302734375,-0.04921966572105884,-0.007515271000936627,0.017386530543491242
1761384985345254100,4.946254150390625,-0.07044833171069621,-0.027014482849463818,0.030940168393217025
1761384985355322400,4.956322265625,-0.07127133853137493,-0.030252880248799918,0.03884801890831441
1761384985365391400,4.966391357421875,-0.042024785780906675,-0.007196779636293649,0.023691950830630956
1761384985375460400,4.97646044921875,0.007680033108592033,0.020727949925884604,0.017796609181724488
1761384985385529300,4.986529296875,0.04234744186401367,0.02902801462896168,0.024312676544860003
1761384985395598000,4.99659814453125,0.04537117359936237,0.008374225917831062,0.03335669148303568
1761384985405667300,5.006667236328125,0.019461071795225143,0.004040507562458515,0.05037026052828878
1761384985415736300,5.016736328125,0.03548398583531379,0.015129107005521654,0.04822623423691839
1761384985425805300,5.026805419921875,0.05033727157413959,0.001015387587621808,0.03516509261187166
1761384985435872300,5.036872314453125,0.04680032961964607,0.004971066410839557,0.027276202525570985
1761384985445940200,5.046940185546875,0.018463292929530143,-0.01860774290151894,0.050608964654989534
1761384985456009500,5.057009521484375,0.0008487257838249206,-0.03835289233513176,0.07053842114694416
1761384985466078200,5.067078125,-0.033952538484334945,-0.0548813447445631,0.06509520717971026
1761384985476147200,5.077147216796875,-0.05816401967704296,-0.0359207698173821,0.05173658044543117
1761384985486216200,5.08721630859375,-0.04303717769384384,-0.028758476972579956,0.05048603239506483
1761384985496285200,5.09728515625,-0.05003448923528194,-0.035357436846196647,0.04087959780115634
1761384985506354400,5.1073544921875,-0.024468086302280423,-0.07038892967365681,0.04658255868311971
1761384985516423200,5.117423095703125,0.00903086319565773,-0.13049750754721462,0.04955225867629051
1761384985526491400,5.127491455078125,0.030454174974560735,-0.17297142533510923,0.050289340779185294
1761384985536560400,5.137560302734375,0.04712006309330463,-0.1702978222116828,0.06802322345562278
1761384985546629000,5.147629150390625,0.025064883151650428,-0.12253909588865936,0.06903430019430816
1761384985556698400,5.157698486328125,0.01713584371805191,-0.042306379201263185,0.08178140743412077
1761384985566767000,5.16776708984375,-0.010426116946339607,0.012457038252055644,0.056768108339235186
1761384985576836400,5.17783642578125,-0.03126139970421791,0.024711831930279732,0.0020708514573052525
1761384985586905300,5.1879052734375,-0.04318038555681705,0.040733869187533855,-0.054522850163094695
1761384985596974300,5.197974365234375,-0.09952595763504504,0.027121011963859198,-0.048475277094542975
1761384985607042300,5.208042236328125,-0.12230185306668281,0.025511019483953713,-0.06188344205897301
1761384985617111300,5.218111328125,-0.07863923695087432,0.03245323983728885,-0.05058346488755196
1761384985627180300,5.22818017578125,-0.08768354414999484,0.014453472766280173,-0.04267871964499354
1761384985637249300,5.238249267578125,-0.06995090358257293,-0.018484701043739914,-0.039209947555884715
1761384985647318300,5.248318359375,-0.015931728625297546,-0.040288390442356464,-0.02738357189018279
1761384985657387300,5.25838720703125,-0.02057049434185028,-0.036273894103989006,-0.010115626225061715
1761384985667456500,5.26845654296875,0.018164017722010612,-0.023071444312110542,-0.0161555639764294
1761384985677524200,5.278524169921875,0.031070261046290397,-0.015211013135313986,-0.020498853877745568
1761384985687593200,5.28859326171875,0.0013736264407634734,-0.008710033743456006,-0.020113909680768847
1761384985697662500,5.298662353515625,0.009401450073719024,-0.033348288980871436,0.007494155147671699
1761384985707731200,5.308731201171875,0.0288654444783926,-0.051454073709622024,0.027425109476968645
1761384985717800400,5.318800537109375,-0.00331657720208168,-0.05973243803754449,0.04878226068448275
1761384985727869200,5.328869140625,0.030760464444756507,-0.03999671401940286,0.044593686420843
1761384985737938400,5.3389384765625,0.04184416851699352,0.002802051808685064,0.03690601799506694
1761384985748007400,5.34900732421875,0.022594109123945234,0.01860964259766042,0.048815797627903515
1761384985758075100,5.3590751953125,0.02985094838440418,0.008427709670737386,0.06792495071291924
1761384985768144400,5.369144287109375,0.017556114956736563,-0.006451587292179465,0.06792626588717103
1761384985778213400,5.37921337890625,0.011098901641368866,-0.009367620869353412,0.07955087190307676
1761384985788282400,5.389282470703125,0.042457916501164435,0.014812076945602893,0.049964163945429026
1761384985798351400,5.399351318359375,0.06961421897411346,0.02726202786974609,0.028086240266822278
1761384985808420400,5.40942041015625,0.0522451510220766,0.009453399456664919,0.03309530060049146
1761384985818489300,5.4194892578125,0.04862696052491665,-0.012497589458152651,0.038445246793702245
1761384985828557300,5.429557373046875,0.03158990100622177,-0.01964716895185411,0.04634706942681223
1761384985838626300,5.439626220703125,-0.022344518277049065,-0.022861162562295794,0.04655296726245433
1761384985848695300,5.4496953125,-0.037843700703978536,-0.029355785278603434,0.029457053695991633
1761384985858764300,5.459764404296875,-0.018110826230049133,-0.05772760102115571,-0.030218356924690305
1761384985868833300,5.469833251953125,-0.013254033848643302,-0.07803973668776452,-0.0618921368220821
1761384985878902500,5.479902587890625,-0.005622516056895256,-0.06529226412177086,-0.06388787721656262
1761384985888971300,5.48997119140625,-0.01827741496860981,-0.06838372733108698,-0.04091908956132829
1761384985899040300,5.500040283203125,-0.004966097974777222,-0.05756912252381444,-0.04506999869570136
1761384985909108500,5.5101083984375,0.022283143478631973,-0.03221636234149337,-0.06338149859700351
1761384985919177200,5.52017724609375,-0.009189268627762794,-0.057664326526597136,-0.014303944760374724
1761384985929246500,5.53024658203125,-0.0241641349196434,-0.07001520099043845,-0.003246069249138236
1761384985939315200,5.540315185546875,0.008489011403918266,-0.07951105134934186,-0.03786963886283338
1761384985949384200,5.55038427734375,0.0037818566262722013,-0.06889942176826298,-0.05113572847545147
1761384985959453400,5.560453369140625,-0.02030161427259445,-0.03739069623947144,-0.036739904180541634
1761384985969522200,5.570522216796875,-0.02321604041457176,-0.005534472447261214,-0.03304934256691486
1761384985979590400,5.58059033203125,-0.03367079893350601,-0.00042187867388129234,-0.026607728679478165
1761384985989659400,5.590659423828125,-0.05283318004310131,-0.027212124313414094,-0.017932510521076618
1761384985999728400,5.600728271484375,-0.06854337487220764,-0.06514912932403386,-0.01140913663432002
1761384986009797400,5.61079736328125,-0.06029518648684024,-0.06804660433121025,-0.006443878909759223
1761384986019866000,5.6208662109375,-0.05546820472180843,-0.04291377050988376,0.017336517389304935
1761384986029935400,5.630935302734375,-0.033544542205333705,-0.03221935801617801,0.009041969111561774
1761384986040004400,5.64100439453125,-0.03477262269556522,-0.04491130100265145,0.005342712734825909
1761384986050073300,5.6510732421875,-0.0042751931011676784,-0.05994958791956305,0.007755180704034865
1761384986060142300,5.661142333984375,-0.01376432145833969,-0.08271934587135911,0.026069858943112194
1761384986070211300,5.67121142578125,-0.01809562866091728,-0.09178235777094959,0.07455971255227924
1761384986080280300,5.6812802734375,-0.027616321200132368,-0.08211991867348552,0.10803509851153939
1761384986090349300,5.691349365234375,-0.030748774006962774,-0.05303082150705159,0.1101151561886072
1761384986100418300,5.701418212890625,-0.02939969748556614,-0.015438465215638278,0.09699172644969076
1761384986110486300,5.711486328125,-0.029763270100951193,0.0319364494215697,0.051427295300550756
1761384986120555500,5.721555419921875,-0.006375380250811576,0.06036554830931127,0.03622694968972355
1761384986130624300,5.731624267578125,0.005566401955485344,0.06225662275291979,0.017976714988984167
1761384986140693500,5.741693603515625,0.0144043729275465,0.050257411270961165,0.022271891432255504
1761384986150762200,5.75176220703125,0.024118542212247848,0.02745133989676833,0.046583800792135296
1761384986160831200,5.761831298828125,0.04845335752367973,0.03900923735201359,0.07140333088058978
1761384986170900200,5.771900146484375,0.08951368218660354,0.06890950477086007,0.07071494675762952
1761384986180968200,5.78196826171875,0.09418342756330966,0.08739457114078104,0.051045602506585415
1761384986191037400,5.792037353515625,0.10109072273373604,0.07019684116765856,0.05541691292598843
1761384986201106400,5.8021064453125,0.08692541925907135,0.03945785790234804,0.04907068570442497
1761384986211175400,5.812175537109375,0.0677566084086895,0.03711056412383914,0.04249320701025426
1761384986221244400,5.822244384765625,0.05602759217023849,0.05077727042660117,0.03116575731001794
1761384986231313200,5.832313232421875,0.05552841047644615,0.06836041952073574,0.023535006703250108
1761384986241382400,5.84238232421875,0.05669511616826057,0.09108378104753792,0.017335019551962615
1761384986251451100,5.852451171875,0.04990414085388183,0.05698701178692281,0.01411393861360848
1761384986261519400,5.862519287109375,0.03563654604852199,0.006704539139941334,0.019804551470652222
1761384986271588400,5.87258837890625,0.02924363014101982,0.004056216588243842,0.019086868187971413
1761384986281657300,5.8826572265625,-0.0023708207845687863,0.002582856100052595,0.011333258386515081
1761384986291726300,5.892726318359375,0.0020610241830348965,-0.01722644461095333,-0.02364438536185771
1761384986301795300,5.90279541015625,-0.003101473146677017,-0.03781995450221002,-0.030256423912756143
1761384986311864300,5.9128642578125,-0.0063064066678285595,-0.047197731439396734,-0.012060695878230035
1761384986321933300,5.922933349609375,-0.02125321590900421,-0.03429623735547065,0.0077664692830294365
1761384986332002300,5.933002197265625,-0.012996844217181206,-0.006150120127573609,-0.0020349033610895274
1761384986342070300,5.9430703125,-0.0006926584392786026,0.006702274117618799,0.01247252808213234
1761384986352139300,5.95313916015625,-0.036598084557056425,-0.0015032441698014736,0.027629874801449475
1761384986362208300,5.963208251953125,-0.075333181142807,-0.024465309823304412,0.04435275380443782
1761384986372277200,5.97327734375,-0.08028817320168018,-0.05276186837255954,0.013758147445879877
1761384986382346500,5.983346435546875,-0.08113222281038761,-0.03938165086098015,-0.012856303235329688
1761384986392415200,5.993415283203125,-0.0725146165907383,-0.02493380411788821,-0.039503194881416855
1761384986402484500,6.003484375,-0.06701660369634628,-0.014102175110578536,-0.04497380831222981
1761384986412552400,6.013552490234375,-0.0848445213317871,-0.04714161733798682,-0.027035452572256324
1761384986422621200,6.02362109375,-0.029271687191724776,-0.049575785682350396,-0.006504778784140944
1761384986432690400,6.0336904296875,0.01640460683405399,-0.0409110523853451,-0.002702975348383188
1761384986442759200,6.04375927734375,-0.00048690673410892486,-0.04967288938127458,0.011224975706450641
1761384986452828400,6.053828369140625,0.008064063990116119,-0.035319077597185965,0.030933884782902894
1761384986462897400,6.0638974609375,-0.00043371524214744564,-0.023028993409872054,0.03815371650122106
1761384986472966400,6.07396630859375,-0.03761164551377296,-0.0046686493981629605,0.0650252472160384
1761384986483035400,6.084035400390625,-0.0875935277789831,-0.011421703854948282,0.0664671531200409
1761384986493103400,6.094103271484375,-0.10591828902065753,0.0038470308169722555,0.07277516722306608
1761384986503172400,6.10417236328125,-0.14111644365191459,0.03369922131039202,0.05682586640845984
1761384986513241300,6.114241455078125,-0.1073532902598381,0.04127703615352511,0.02699877382367849
1761384986523310300,6.124310302734375,-0.04135784630477428,0.034588425235077734,0.0029901947919279337
1761384986533379300,6.13437939453125,-0.02277589543163776,0.027229002382978797,0.003229227712191641
1761384986543448300,6.1444482421875,0.0601490560144186,-0.01450549521446228,0.004456175691261887
1761384986553517300,6.154517333984375,0.08459785309433937,-0.07700900540053844,0.0050805911999195815
1761384986563585300,6.164585205078125,0.062273793083429334,-0.10094693034887313,0.04499123437106609
1761384986573654500,6.174654541015625,0.09906009368896483,-0.07694558477550745,0.057122292071767146
1761384986583723300,6.18472314453125,0.12407236987054347,-0.052374695685878395,0.09476320021264255
1761384986593792500,6.19479248046875,0.08032733616828917,-0.07933554865196346,0.09824212836958468
1761384986603861200,6.204861328125,0.08428338031768798,-0.10740363220758735,0.08202971963938326
1761384986613930200,6.21493017578125,0.13073182775974274,-0.07585296723321079,0.04904756055716425
1761384986623999200,6.224999267578125,0.13387772457003594,-0.02845978628695011,-0.006667677728272974
1761384986634068200,6.235068115234375,0.10875964992642402,-0.0371858943823725,-0.024840664208028464
1761384986644136400,6.245136474609375,0.12382336354553698,-0.05994483867920935,-0.015531532060261815
1761384986654205400,6.255205322265625,0.08909867164492606,-0.07521393867731094,-0.027900179642811416
1761384986664274200,6.265274169921875,0.119392103099823,-0.08656747266687452,-0.03918196357041597
1761384986674343400,6.275343505859375,0.1536947701960802,-0.09203340992256999,-0.013443692935537547
1761384986684412200,6.285412109375,0.13854396281540393,-0.09558883738182485,0.025458704774826764
1761384986694481400,6.2954814453125,0.13358078745007515,-0.10597221116498112,0.04178551539862528
1761384986704550100,6.305550048828125,0.11185761594176291,-0.110555228106305,0.04930409260150045
1761384986714618400,6.315618408203125,-0.0004915829092264175,-0.10862243341282009,0.06964096085056662
1761384986724686800,6.325686767578125,-0.11212065079212188,-0.0813948192693293,0.05932930059675127
1761384986734755800,6.335755859375,-0.16986965992748737,-0.019888211166113615,0.03271240223012865
1761384986744824800,6.345824951171875,-0.24321605116724967,0.020391776774078607,-0.011944777880981564
1761384986754893800,6.355893798828125,-0.2643751590520143,0.020281594397872686,-0.05013356569558382
1761384986764962600,6.365962646484375,-0.2786643811672926,0.03640943011716008,-0.08262775859776884
1761384986775031800,6.37603173828125,-0.28984453135132787,0.05378602378852665,-0.12208525117393583
1761384986785100800,6.386100830078125,-0.2600362530648708,0.05609758866652846,-0.1281791110696271
1761384986795168800,6.396168701171875,-0.22081249617934226,0.03951061100289226,-0.1252182519700378
1761384986805237800,6.40623779296875,-0.16884440853297708,0.031031244210153817,-0.10412110340557992
1761384986815307000,6.41630712890625,-0.10887129360735416,-0.017587971399724484,-0.10131477728057652
1761384986825375700,6.426375732421875,-0.07105389638841152,-0.05960479306988418,-0.09736048669684677
1761384986835444700,6.43644482421875,-0.00845218652486801,-0.06134038469083607,-0.06442797544263303
1761384986845513700,6.446513671875,0.05821487308144569,-0.049576151008531445,-0.024861871392838655
1761384986855582700,6.456582763671875,0.0730763421267271,-0.050777124296128746,-0.0037218700673431154
1761384986865652000,6.46665185546875,0.11714753904342651,-0.08071845437772572,-0.01319306090902537
1761384986875719700,6.4767197265625,0.17121756740510463,-0.0915980141799897,0.012712108991667628
1761384986885788700,6.48678857421875,0.16624971586465834,-0.061475701508298515,0.06809004161413759
1761384986895858000,6.49685791015625,0.1548281581401825,-0.03733070968054235,0.09404504200592637
1761384986905926700,6.5069267578125,0.14330840073823928,-0.029436960756033657,0.11065346431639045
1761384986915996000,6.516995849609375,0.08525777830779552,0.011600421422719954,0.10379713214822113
1761384986926064600,6.527064697265625,0.05006020819842815,0.06773804983869194,0.10334065708499401
1761384986936134000,6.5371337890625,0.04229951106905937,0.10449008284844458,0.11294858951624483
1761384986946201900,6.547201904296875,0.011344400835037231,0.09876132993809879,0.10277041944898664
1761384986956270600,6.5572705078125,-0.01725567070543766,0.10335464907772839,0.085287406261079
1761384986966339800,6.56733984375,-0.01518646321594715,0.1250784051079303,0.07237049541231244
1761384986976408800,6.577408935546875,-0.019942717832326887,0.127067971489951,0.08468655429109931
1761384986986477800,6.587477783203125,0.03143208009600639,0.11563479639291763,0.06714647715371101
1761384986996546800,6.597546875,0.02421381928026676,0.07413805307410656,0.044527452784217894
1761384987006615800,6.60761572265625,0.010938158121705054,0.03311791429109871,0.0213787054521963
1761384987016684800,6.617684814453125,0.03072363956570625,0.011414616527035832,-0.026791158954985437
1761384987026752800,6.627752685546875,0.025036241579055783,0.03276194046027958,-0.06804839442949742
1761384987036821800,6.63782177734375,0.03245966957807541,0.07313216396719217,-0.06557349221594631
1761384987046890800,6.647890869140625,0.023648586612939834,0.07839256871342659,-0.08421411447376012
1761384987056959700,6.657959716796875,0.012390110495686531,0.03922894451729953,-0.08105396994240581
1761384987067028700,6.66802880859375,-0.02979308071732521,0.004114814907684922,-0.08518211925569921
1761384987077098000,6.678097900390625,-0.03920563670694828,-0.016535393606871365,-0.1211838453548029
1761384987087166700,6.688166748046875,-0.06710019032657145,-0.029343802579864856,-0.14905392212029545
1761384987097235700,6.698235595703125,-0.13178104455173015,-0.07798336685802787,-0.1488626007992774
1761384987107304000,6.708303955078125,-0.151703304117918,-0.10780508914794772,-0.14272570547945795
1761384987117372700,6.71837255859375,-0.182839616137743,-0.1073721776233986,-0.15175302501115948
1761384987127442000,6.72844189453125,-0.17760346904993057,-0.11000859054159372,-0.17354009206853807
1761384987137510700,6.7385107421875,-0.12096271341741084,-0.11899265545345843,-0.18733115540333092
1761384987147579600,6.74857958984375,-0.11853227140009402,-0.11315021303556859,-0.16671408197339624
1761384987157649000,6.75864892578125,-0.14022738585770128,-0.10278137923441827,-0.13386508428417146
1761384987167717600,6.768717529296875,-0.11061433788239955,-0.11841975093632935,-0.11025986188892274
1761384987177785900,6.778785888671875,-0.10210603725612163,-0.16465535934530198,-0.08557605047672986
1761384987187854800,6.788854736328125,-0.09374035997092724,-0.16513137935921549,-0.06812511292751879
1761384987197923800,6.798923828125,-0.04301788847148418,-0.1410793995771557,-0.0479002536855638
1761384987207992800,6.808992919921875,-0.036277766561508176,-0.11968144143521785,-0.017079802681878208
1761384987218061600,6.8190615234375,-0.014262918630242347,-0.10096979976780712,0.014385997020639479
1761384987228130800,6.829130859375,0.013043021446466446,-0.10070486522130667,0.07795052403435111
1761384987238199800,6.83919970703125,0.014974866291880606,-0.07821611616797745,0.1165770091464743
1761384987248267800,6.849267822265625,0.009458733218908309,-0.09002331220917403,0.17172292311135678
1761384987258336800,6.859336669921875,0.008418868777155876,-0.10379691295251249,0.2046276695758104
1761384987268405800,6.86940576171875,0.01183072304725647,-0.09968575130663812,0.22125655015241352
1761384987278474800,6.879474853515625,0.0013204349488019943,-0.07805537264831364,0.22500519862882792
1761384987288543700,6.889543701171875,-0.008112579306960105,-0.06645867755264044,0.21571071606092154
1761384987298612700,6.89961279296875,-0.005819499933719634,-0.028759499885886906,0.17653353826347737
1761384987308681700,6.909681640625,-0.02770516852736473,-0.010054214894026517,0.16991934428811073
1761384987318751000,6.9197509765625,-0.04370820882320404,0.012940145593881605,0.1485971913287416
1761384987328818700,6.929818603515625,-0.04192658610343933,0.016048925264179704,0.11552172793988137
1761384987338887700,6.9398876953125,-0.016600421667098998,0.01791252717897296,0.08085760712008923
1761384987348957000,6.94995703125,-0.032601708397269245,-0.014718626508489251,0.04922328245025128
1761384987359025700,6.960025634765625,-0.0631768794029951,-0.025479966758564114,0.023121165205352005
1761384987369095000,6.970094970703125,-0.05141571446061134,-0.00823459825143218,0.002154438087530434
1761384987379163600,6.98016357421875,-0.017560791131854055,0.05950995439328253,-0.043235440212301905
1761384987389233000,6.99023291015625,0.035353637453913685,0.10537672948986292,-0.09493665708340704
1761384987399302000,7.000302001953125,0.07090075165331364,0.08172405122369528,-0.10909713825248181
1761384987409369600,7.01036962890625,0.03705108902156353,0.02456628597974777,-0.09614559448175132
1761384987419438800,7.02043896484375,0.048421208819746965,0.004466550954803824,-0.10202592122461646
1761384987429507800,7.0305078125,0.10616028108298778,0.004824351416528224,-0.09726130063869058
1761384987439576800,7.040576904296875,0.11187398255467414,0.008963643178343772,-0.09057148414384573
1761384987449645800,7.050645751953125,0.13557926779091356,-0.008029284937679767,-0.08540692272121087
1761384987459714800,7.06071484375,0.15596622225940227,-0.06473207295574247,-0.0633618440484628
1761384987469783800,7.07078369140625,0.09562895019650458,-0.08576565476469696,-0.03607501053102314
1761384987479851800,7.080851806640625,0.08381459376215934,-0.12540135345198214,-0.02244938515732065
1761384987489920800,7.090920654296875,0.09804770177602767,-0.16476466493867337,-0.012110763831343501
1761384987499989800,7.10098974609375,0.09569266308248042,-0.17066665552407503,-0.019044746079295873
1761384987510058800,7.111058837890625,0.12216332137882709,-0.17728724270761012,-0.05234307670490816
1761384987520127700,7.121127685546875,0.13188450492620468,-0.17049407543614506,-0.05401247122185304
1761384987530196700,7.13119677734375,0.1084340712338686,-0.13743987403102217,-0.04933375708740204
1761384987540265700,7.141265625,0.10034954897761345,-0.09267331526130437,-0.039098340407572686
1761384987550334700,7.151334716796875,0.05614215846061706,-0.07113667930103838,-0.01071048684567213
1761384987560403000,7.16140283203125,-0.01761690523326397,-0.09171616066694259,-0.0010726342001929879
1761384987570471700,7.1714716796875,-0.02324877364039421,-0.10072766157500446,0.01586154946591705
1761384987580541000,7.181541015625,0.009003975188732147,-0.05388312748745083,-0.00044251960311084983
1761384987590609700,7.191609619140625,0.03466156353652477,-0.0324745018210262,0.023181626688316463
1761384987600678700,7.2016787109375,0.0038759646505117412,-0.047156011189520355,0.06354998703170567
1761384987610748000,7.211747802734375,0.007189034721255302,-0.06521233075335621,0.08306090758433565
1761384987620816600,7.221816650390625,0.02753390361368656,-0.05944894492104649,0.10717194234356284
1761384987630884900,7.231884765625,0.00969838719367981,-0.06178630182743072,0.12114751366609706
1761384987640953900,7.241953857421875,-0.006790975314378738,-0.08694580445997417,0.12485354684349148
1761384987651022600,7.252022705078125,0.0181862295538187,-0.11744937153421342,0.10498922800961881
1761384987661091800,7.262091796875,0.038977088648080825,-0.06884250394925474,0.1252316229082644
1761384987671160600,7.27216064453125,-0.023942601123452187,-0.03066409139819443,0.11539141609109937
1761384987681229800,7.282229736328125,-0.07144143440127372,-0.10440919963195919,0.10094247336946427
1761384987691298800,7.292298828125,-0.04666004436612129,-0.12007095220945775,0.09322484819684176
1761384987701367800,7.302367919921875,-0.08475976565778255,-0.04165697538182139,0.11139661083389073
1761384987711435800,7.312435791015625,-0.09787351425290107,-0.02403707447387278,0.12292948344573378
1761384987721505000,7.322505126953125,-0.0712812754034996,-0.06824044640287756,0.10318765848036855
1761384987731573800,7.33257373046875,-0.05713350758552551,-0.08061419028565286,0.09393785530440509
1761384987741642800,7.342642822265625,-0.051524435532093044,-0.08830445252731442,0.08173146734517067
1761384987751711700,7.352711669921875,-0.06885550956130028,-0.12235095290541648,0.07488112652637063
1761384987761780700,7.36278076171875,-0.12294482714533805,-0.15269114611148835,0.09919453372359276
1761384987771850000,7.37285009765625,-0.1835486411899328,-0.15535970773361624,0.10229586073979735
1761384987781918700,7.382918701171875,-0.1924286977380514,-0.1281073975402862,0.05442655018176883
1761384987791987000,7.392987060546875,-0.19459376681745053,-0.07185885609574616,-0.022354637812264263
1761384987802056000,7.403055908203125,-0.22627485323846339,-0.04032404627762735,-0.07352079795859753
1761384987812124700,7.413124755859375,-0.2820879258751869,-0.015988500313833354,-0.08848981903158128
1761384987822194000,7.42319384765625,-0.2708645210713148,0.029872502629086372,-0.11266571745425462
1761384987832262700,7.4332626953125,-0.2688637026429176,0.05259893289580941,-0.12956322237178683
1761384987842332000,7.443331787109375,-0.24762685334682463,0.06950301368460059,-0.16915194011218845
1761384987852401000,7.45340087890625,-0.19411328982412815,0.0549934268169105,-0.17183347081374375
1761384987862468600,7.463468505859375,-0.13931728527545928,0.00048135377615690227,-0.1373759054167196
1761384987872537900,7.473537841796875,-0.1713315491735935,-0.06967815105579793,-0.09721892280168831
1761384987882606800,7.48360693359375,-0.12362111897170543,-0.1112000288158655,-0.07282693394292146
1761384987892675800,7.49367578125,-0.044133740758895874,-0.1033878206949681,-0.057531566992402076
1761384987902744800,7.503744873046875,-0.003657353463768959,-0.07132211887054145,-0.047096609152480956
1761384987912813800,7.513813720703125,0.038192660272121426,-0.06523330047614873,-0.03245060948878527
1761384987922882800,7.5238828125,0.09240589649677276,-0.05952420211434364,-0.013113675529882312
1761384987932951800,7.533951904296875,0.15007657969892024,-0.02618446176610887,0.003344378524459898
1761384987943019800,7.544019775390625,0.1605529655277729,0.012892068668454885,-0.0021765768541023136
1761384987953088800,7.5540888671875,0.1890484076499939,0.032204598838463425,0.0039202056510373945
1761384987963158000,7.564157958984375,0.13604980791211127,0.05454860565885901,0.019101590833067894
1761384987973226800,7.574226806640625,0.0673819298774004,0.07500847923308611,0.06088062169197946
1761384987983296000,7.5842958984375,0.04873626611828804,0.09742533209398388,0.0944827027708292
1761384987993364700,7.59436474609375,0.025039748710393904,0.12700360101684927,0.10859824881963431
1761384988003434000,7.60443408203125,-0.004167056551575661,0.15365962581746279,0.08634239520672708
1761384988013502000,7.614501953125,0.03971300170719623,0.201510122077167,0.0644709743341431
1761384988023570700,7.62457080078125,0.052749593412876127,0.24751236012168226,0.05141385129708796
1761384988033640000,7.634639892578125,0.0247568401157856,0.24227708981670437,0.06435746748968958
1761384988043709000,7.644708984375,0.02565115860700607,0.2316884757850319,0.08212130691297352
1761384988053778000,7.65477783203125,0.05260287841856479,0.2695771846745163,0.08337273174617439
1761384988063847000,7.664846923828125,0.07925181589126587,0.2731746977098286,0.09750248898342251
1761384988073915600,7.67491552734375,0.07573474768102169,0.2549465287104249,0.11357910597212612
1761384988083985000,7.68498486328125,0.07011164710223675,0.24466829580217597,0.10656027671862393
1761384988094052900,7.695052978515625,0.11378712269961833,0.27817528247609735,0.09863236979618668
1761384988104121900,7.705121826171875,0.10125906503796576,0.27053492379076777,0.09575973696932195
1761384988114190800,7.71519091796875,0.08462006492614746,0.2286635750059038,0.09194072667043655
1761384988124259600,7.725259521484375,0.10511690950989723,0.1738989885088056,0.08442472501713782
1761384988134328800,7.735328857421875,0.08683774097561836,0.11027619196921587,0.07016608070321381
1761384988144397800,7.745397705078125,0.041027006915211675,0.06560768674649298,0.03742109137773514
1761384988154466800,7.755466796875,0.04906126028895378,0.0703152799155563,0.005090564604662358
1761384988164534800,7.76553466796875,0.053471477946639055,0.059197089051827786,-0.0248479889979586
1761384988174604000,7.77560400390625,0.01892915687561035,0.004759615617245435,-0.030659269092604517
1761384988184672800,7.7856728515625,-0.01740589283108711,-0.06466251485086977,-0.05299005110524595
1761384988194741800,7.79574169921875,-0.019942717832326887,-0.10433460002578794,-0.07818663434516639
1761384988204810800,7.805810791015625,-0.007125906357169151,-0.11296031648665666,-0.10062632009238004
1761384988214879700,7.815879638671875,0.011154431220889091,-0.12438596586436032,-0.09980747799016534
1761384988224949000,7.825948974609375,-0.01075929442346096,-0.12471607460156083,-0.0747026646869257
1761384988235016700,7.8360166015625,-0.056528527429699896,-0.12638963383696972,-0.08609452139288186
1761384988245085700,7.846085693359375,-0.005919453176856041,-0.08406725334897637,-0.13029102518968283
1761384988255155000,7.856155029296875,-0.0006283610314130782,-0.07934365889318287,-0.16505272463243453
1761384988265223700,7.8662236328125,-0.031088965746760365,-0.1074437450222671,-0.1931443351941183
1761384988275293000,7.87629296875,-0.052367900618910786,-0.13317512925863265,-0.18471322798989712
1761384988285361700,7.886361572265625,-0.08804185606837273,-0.0876406548563391,-0.17967055764757095
1761384988295431000,7.896430908203125,-0.06378828929960727,0.001888297964632511,-0.17614453894589097
1761384988305500000,7.9065,-0.062469023394584655,0.044111601992323994,-0.1789857171885669
1761384988315567600,7.916567626953125,-0.09083353261351584,0.05715688846111297,-0.18593889732733368
1761384988325636900,7.926636962890625,-0.06107844581902027,0.08439034782350063,-0.20637159063369034
1761384988335705900,7.936705810546875,-0.012011340311169624,0.11561492264866828,-0.18429401619713753
1761384988345774800,7.94677490234375,0.002333411383628845,0.10468611687719821,-0.1443914467345923
1761384988355843800,7.95684375,0.010351298144459724,0.0509894518725574,-0.09336739847268909
1761384988365912800,7.966912841796875,0.06854688200354575,0.007476034969091415,-0.028013467291556297
1761384988375981800,7.97698193359375,0.09177052120268345,0.008572232707962393,0.021223880216665564
1761384988386049800,7.9870498046875,0.11260171230733394,0.038893209756910796,0.037719928193837404
1761384988396118800,7.997118896484375,0.1535948169529438,0.04872771748565137,0.08245948935877531
1761384988406187800,8.007187744140625,0.16169921295344827,0.04894640173763037,0.12895513694342225
1761384988416257000,8.017257080078124,0.1793015051394701,0.0164789141792804,0.14862744033653288
1761384988426325800,8.02732568359375,0.17592647574841974,0.026576749019324778,0.1391533634180203
1761384988436395000,8.03739501953125,0.16395780553519726,0.07357917708232999,0.11575714413095264
1761384988446463700,8.047463623046875,0.15800269652307034,0.08574110484533011,0.12492971735224127
1761384988456532700,8.05753271484375,0.10005027377009391,0.07336670337542892,0.14045465527493506
1761384988466601000,8.06760107421875,0.0362812736928463,0.024128844410553574,0.1718147295806557
1761384988476669700,8.077669677734375,-0.02467968322634697,0.0004768237315118313,0.1835809725569561
1761384988486739000,8.087739013671875,-0.01739946309030056,0.019250278588756917,0.16622775976117699
1761384988496808000,8.097807861328125,-0.04318097007870674,0.010656564701348542,0.16780037937276066
1761384988506877000,8.107876953125,-0.0986088427901268,-0.010535130278766154,0.15987481053788213
1761384988516946000,8.11794580078125,-0.161671740424633,-0.0695361122366041,0.1146475754538551
1761384988527014700,8.1280146484375,-0.1582306600600481,-0.12247224119752645,0.10856599051784724
1761384988537083000,8.138082763671875,-0.20412322718501089,-0.12533581393510101,0.12880553587228058
1761384988547152000,8.14815185546875,-0.2315980940878391,-0.1417491155322641,0.11600443342290818
1761384988557220900,8.158220947265624,-0.23179800057411193,-0.15203896581307053,0.07777871113140136
1761384988567289900,8.168289794921876,-0.21532792728841305,-0.16197518035061656,0.0613541209552437
1761384988577358800,8.17835888671875,-0.18127192842960357,-0.14861585949659348,0.024541736060380934
1761384988587427800,8.188427734375,-0.1611006625384092,-0.15280878114178775,-0.02070559196360409
1761384988597496800,8.198496826171874,-0.18228432034254072,-0.15898184375353155,-0.04817490590848028
1761384988607565800,8.20856591796875,-0.19806056614518164,-0.13376030873544514,-0.0764895846363157
1761384988617633800,8.2186337890625,-0.14179156643450258,-0.08002988759167493,-0.12110387545377016
1761384988627702800,8.228702880859375,-0.05977671557068824,-0.008411562253534793,-0.14268804035019128
1761384988637771800,8.238771728515625,0.03604454232752323,0.03760843064337969,-0.16038272352740168
1761384988647840800,8.2488408203125,0.11206395216882228,0.04380889271870255,-0.16330325061660259
1761384988657909800,8.25890966796875,0.15597966626286505,0.02507503921948373,-0.14668138430267572
1761384988667978800,8.268978759765625,0.17952128536999223,0.0028195874653756618,-0.08052282220777124
1761384988678048000,8.279048095703125,0.19030805232226847,-0.011125424322113393,-0.004494681070744991
1761384988688115700,8.28911572265625,0.16708675121068953,-0.021069676035642623,0.05242182276323437
1761384988698184700,8.299184814453126,0.1640256100744009,-0.03410363739281892,0.09525719427466392
1761384988708254000,8.30925390625,0.12206745978891849,-0.03424450716823339,0.12325590238850563
1761384988718323000,8.319322998046875,0.06834989812672138,-0.031278058578073975,0.14626301276013254
1761384988728392200,8.32939208984375,0.014877835658192633,-0.02673581203855574,0.17482187550738454
1761384988738461000,8.3394609375,-0.00841302355825901,-0.026678528893366454,0.19197116322889923
1761384988748530200,8.3495302734375,-0.03417465680241585,-0.03233290139324963,0.19648078614044934
1761384988758599200,8.35959912109375,-0.04989537302553653,-0.038489889653027055,0.17961999650411306
1761384988768667000,8.3696669921875,-0.10646423246562481,-0.02517952250726521,0.14561594702824948
1761384988778736000,8.379736083984374,-0.16730302430987357,0.0037901129979640243,0.12792005827464162
1761384988788805000,8.38980517578125,-0.1655892061293125,-0.019151129063218832,0.09720588065702468
1761384988798874000,8.3998740234375,-0.16976678407490253,-0.035790275305509565,0.07004230819307267
1761384988808943000,8.409943115234375,-0.1833709465354681,-0.017299363716691732,0.04606916580088436
1761384988819011800,8.42001171875,-0.22598317681550978,-0.008595832779258489,0.054961424243450165
1761384988829081000,8.4300810546875,-0.2698661576837301,0.028189591043442486,0.026249928217753765
1761384988839149000,8.440149169921876,-0.28508886125683786,0.03813669230118394,-0.03223528623767197
1761384988849218000,8.450218017578125,-0.2795581151366234,0.030366204430162906,-0.11393858693428337
1761384988859287000,8.460287109375,-0.2199135015130043,0.04798310966342687,-0.1921915645139292
1761384988869356000,8.47035595703125,-0.14145897347927092,0.08922770485207437,-0.24707068076878785
1761384988879425000,8.480425048828126,-0.057985155978798865,0.10320040836408734,-0.24996793658025562
1761384988889494000,8.490493896484375,-0.026054478710889815,0.09883242241293191,-0.24555256782341747
1761384988899563000,8.50056298828125,0.054524786391854284,0.1359865334175527,-0.25363398480713367
1761384988909632000,8.510632080078125,0.15767068808972834,0.19880232442319393,-0.24895832114629446
1761384988919700200,8.5207001953125,0.23885376430451868,0.19316285723149776,-0.2513105102956295
1761384988929769000,8.53076904296875,0.2786293098539114,0.12809285755828023,-0.24040819067228583
1761384988939838000,8.540837890625,0.27838673326969143,0.11497867057174443,-0.23326310469061134
1761384988949907000,8.550906982421875,0.3026315322101116,0.09719488433897494,-0.20411413056310265
1761384988959976000,8.560975830078124,0.324516616281867,0.09564692424461245,-0.1733196177182719
1761384988970045200,8.571045166015624,0.2992582563847303,0.08260843284279108,-0.09456267267186194
1761384988980114000,8.581114013671876,0.23907705166637896,0.018352379900962112,-0.0024325243765488266
1761384988990182000,8.591181884765625,0.21000702452659606,-0.043157589203119275,0.06521339019928127
1761384989000251100,8.601251220703125,0.2098918737143278,-0.06808394066691398,0.099954302582331
1761384989010320000,8.61131982421875,0.1846551411271095,-0.0706716190725565,0.1207126111138612
1761384989020389000,8.62138916015625,0.11026245570480823,-0.09158829650357365,0.12178692581448704
1761384989030457900,8.631457763671875,0.0772241094559431,-0.13281930155828595,0.0675048986699432
1761384989040527000,8.641527099609375,0.11028232944905757,-0.10745265898108482,0.0448738185364753
1761384989050596000,8.65159619140625,0.05991115560531616,-0.09488120056912303,0.04609459250308573
1761384989060664000,8.6616640625,0.06616495530307293,-0.1535975934319198,0.07157331715263426
1761384989070733000,8.671733154296875,0.032839024284482,-0.1996642019495368,0.10821999009177088
1761384989080802000,8.681802001953125,0.01938625299334526,-0.1849744362093508,0.1443205003902316
1761384989090871000,8.69187109375,-0.008632803788781165,-0.12945654712691904,0.18422412929870188
1761384989100940000,8.70193994140625,-0.01803425386250019,-0.12754143422059713,0.17272468403242527
1761384989111009000,8.712009033203126,-0.05276537550389766,-0.18909458487927913,0.15578326690793037
1761384989121078000,8.722078125,-0.07298457219004631,-0.25038389697000385,0.09730703947655855
1761384989131146000,8.73214599609375,-0.11365735884010791,-0.23505751382671294,0.1503504647368565
1761384989141215000,8.742215087890624,0.04107259962260723,-0.319750205597654,0.2679375277087092
1761384989151284000,8.752283935546876,-0.07612579282522201,-0.24273447819538413,0.23892164190895854
1761384989161353200,8.762353271484375,-0.11553601219356059,-0.20384806350544094,0.23955519057214258
1761384989171422000,8.772421875,-0.025234979021549222,-0.1746170005850494,0.16648721441496162
1761384989181491200,8.7824912109375,0.03985211791694164,-0.1311230920996517,0.11566201319340616
1761384989191560000,8.792559814453124,0.03018354133963585,-0.05555193748250603,0.08518818367030472
1761384989201629000,8.80262890625,-0.007620996397733688,-0.031443186011910436,0.07112911704909056
1761384989211697200,8.812697265625,-0.09224339941143989,-0.05506342331320047,0.08458959672264754
1761384989221766000,8.822765869140625,-0.09972118794620037,-0.09061886694952845,0.10462218479551375
1761384989231835100,8.832835205078124,-0.06914601694047451,-0.062181584755331275,0.09876162219904362
1761384989241904000,8.842904052734376,-0.06488076071143149,-0.00996390626206994,0.06810659089013933
1761384989251973000,8.85297314453125,-0.06833996125459671,0.016918255444616077,0.012977408864349126
1761384989262042000,8.8630419921875,-0.028422376886010167,0.010384981218352914,-0.031491920524463056
1761384989272110800,8.87311083984375,-0.005819499933719634,-0.006620733314007521,-0.08496208329685032
1761384989282179000,8.883178955078124,0.022810382223129273,-0.040023894287273286,-0.12673976244889198
1761384989292248000,8.893248046875,0.010083587118983267,-0.08256649339720606,-0.10494820187948643
1761384989302317000,8.903317138671875,-0.051688686183094974,-0.07088029338717461,-0.06802958013117313
1761384989312386000,8.913385986328125,-0.013851999741792678,-0.040329453105106945,-0.05289068238399922
1761384989322455000,8.923455078125,0.03588730593919754,-0.005559314627572894,-0.029218349569290876
1761384989332524000,8.93352392578125,0.032362638944387435,-0.0030195670168846845,-0.04450301246270537
1761384989342593000,8.943593017578126,0.06925766062140465,-0.035464112091064454,-0.1041864967919886
1761384989352662000,8.953662109375,0.07955576727390289,-0.08310980649366974,-0.1254835518427193
1761384989362730000,8.96372998046875,0.06984978129565715,-0.11858312480449676,-0.11027801860012114
1761384989372799000,8.973799072265624,0.008057634249329567,-0.13317819799855352,-0.06508914276510476
1761384989382868000,8.983867919921876,-0.03994797950685024,-0.1034175582461059,-0.007322671038284897
1761384989392937000,8.99393701171875,-0.07110416527092456,-0.20499241123497486,0.012826967542991041
1761384989403006000,9.004005859375,-0.03205810303986072,-0.3668604048840701,0.039089389916136856
1761384989413075000,9.014074951171875,-0.10815233168303966,-0.1530973157595843,0.048140565247461194
1761384989423144200,9.024144287109374,-0.14079086495935916,0.05978431435525417,-0.018402867979183793
1761384989433212200,9.034212158203125,0.006775777745246887,0.010201733605936169,-0.027805925488099455
1761384989443281000,9.044281005859375,0.033517654198408124,-0.10051789128184319,-0.07117416176721453
1761384989453350100,9.05435009765625,-0.06063479370474815,-0.10547872855961322,-0.08531886084526777
1761384989463418000,9.064418212890626,-0.1466886908262968,-0.06440905154645443,-0.1293720106486231
1761384989473487000,9.074487060546875,-0.055204000827670095,-0.030461262302473185,-0.2295180729433894
1761384989483556000,9.08455615234375,0.15401450366973876,0.0017396102089434862,-0.31014431899301703
1761384989493624800,9.094624755859375,0.27469840014576913,0.04583184991367161,-0.3302467574317008
1761384989503694000,9.104694091796874,0.1776227582722902,0.11425729749463498,-0.2500480160791427
1761384989513763000,9.11476318359375,-0.005822422543168068,0.07594649073556065,-0.1223388971414417
1761384989523832000,9.12483203125,-0.0655687429755926,-0.10869834819324314,-0.00593720802925527
1761384989533900000,9.134900146484375,-0.0066501055389642716,-0.2401345248300582,0.060600306913256644
1761384989543969300,9.14496923828125,0.058553311255574225,-0.30088132754191754,0.10860825875699519
1761384989554038000,9.1550380859375,0.12138590726554394,-0.3487333581715822,0.13405753811635077
1761384989564107000,9.16510693359375,0.20347733049690722,-0.39755189574584365,0.10431523773819208
1761384989574176000,9.175176025390625,0.2915028199523687,-0.4014266182873398,0.11678842340745031
1761384989584245000,9.185244873046875,0.23528818077743052,-0.3248318197108805,0.16880977561101315
1761384989594314000,9.19531396484375,0.19653554853498933,-0.23967706338614225,0.19281097505390643
1761384989604383000,9.205383056640626,0.22707389466166494,-0.9341722165726125,0.2816625400699675
1761384989614451000,9.215450927734375,-0.17547405580580233,-0.8146366133488714,0.22241583972275256
1761384989624520000,9.22552001953125,-0.21487492282390594,-0.17404449792671947,0.17024141584932803
1761384989634589000,9.2355888671875,0.10560381624400615,0.1519388664394617,0.17473507400676608
1761384989644658200,9.245658203125,0.12267477803230285,0.46118594433180987,0.09245835733637213
1761384989654727000,9.255726806640626,0.02676934898197651,0.570267592754215,-0.09495704228430986
1761384989664796200,9.265796142578125,0.13133154721856116,0.5281956433633342,-0.2189076854713261
1761384989674865000,9.275864990234375,0.2010860514461994,0.396259663978219,-0.2576490656673908
1761384989684932900,9.285932861328124,0.1309206283301115,0.08366733077857642,-0.16319953451380131
1761384989695002000,9.296002197265626,-0.15476561429798602,-0.17715146923242137,0.031234511697292328
1761384989705070800,9.30607080078125,-0.2770949398934841,-0.17757575905909762,0.1309448859885335
1761384989715140000,9.31614013671875,-0.20450316641330718,-0.08971424626000225,0.11655249575972557
1761384989725209600,9.326209716796875,-0.06707271779775618,-0.09364943028446286,-0.02570683431699872
1761384989735278600,9.336278564453124,0.17290274401307104,-0.04834701107237488,-0.16894019705764948
1761384989745347600,9.34634765625,0.5369663577854633,0.223004818591848,-0.17179383292309938
1761384989755416600,9.35641650390625,-0.22665596151053904,0.4733054211925715,-0.005869330424815416
1761384989765484500,9.366484619140625,-1.4109317968070507,0.4296097065247595,0.09062083971090615
1761384989775553500,9.376553466796874,-1.512145269137621,0.18268926614793016,0.27101773887164887
1761384989785622500,9.38662255859375,-0.7745347584545612,0.07573082042457535,0.19240597444958984
1761384989795691500,9.39669140625,-0.240291103631258,0.18814848140189422,0.10129866639599204
1761384989805760500,9.406760498046875,0.011848258703947066,0.2160302120725624,0.1535719475340098
1761384989815829500,9.41682958984375,0.14954466477930545,0.04958853556606918,0.19652466181479394
1761384989825898800,9.426898681640624,0.2611830850124359,-0.1950661701021716,0.1943999247457832
1761384989835966500,9.436966552734376,0.24813538739085195,-0.31411271116733547,0.10853526658602058
1761384989846035500,9.447035400390625,0.09958499434590339,-0.3150719846535474,0.002308715333789587
1761384989856104700,9.457104736328125,-0.018199089035391806,-0.3710270961094647,-0.010178279665112495
