time,seconds_elapsed,z,y,x
1761384980471922200,0.072922119140625,0.3512529134750366,-0.3142436742782593,0.6670033931732178
1761384980481991200,0.0829912109375,0.3545757532119751,-0.2603093385696411,0.6815099120140076
1761384980492060200,0.09306005859375,0.35446447134017944,-0.18740448355674744,0.6741513013839722
1761384980502129400,0.10312939453125,0.378069132566452,-0.05406906455755234,0.6328608393669128
1761384980512198100,0.1131982421875,0.45150089263916016,0.02774966135621071,0.5312091708183289
1761384980522267100,0.12326708984375,0.5698291659355164,0.07641467452049255,0.43259361386299133
1761384980532336000,0.133336181640625,0.6693467497825623,0.1375180035829544,0.3677159547805786
1761384980542404000,0.143404052734375,0.6816739439964294,0.14505714178085327,0.2869127094745636
1761384980552473300,0.153473388671875,0.6271598935127258,0.05446460843086243,0.15439651906490326
1761384980562542000,0.1635419921875,0.5698297619819641,-0.03301198035478592,0.01682986132800579
1761384980572611000,0.173611083984375,0.5566556453704834,-0.06225377693772316,-0.1169881522655487
1761384980582680300,0.183680419921875,0.5701099038124084,-0.028847884386777878,-0.23947225511074066
1761384980592749000,0.1937490234375,0.5837761759757996,0.018777254968881607,-0.3586839437484741
1761384980602818300,0.203818359375,0.5717371106147766,-0.0027093933895230293,-0.4665273129940033
1761384980612886300,0.21388623046875,0.49297183752059937,-0.08737867325544357,-0.5559888482093811
1761384980622955000,0.223955078125,0.34077855944633484,-0.1777370572090149,-0.6141892671585083
1761384980633024300,0.234024169921875,0.15436430275440216,-0.279598206281662,-0.6587017774581909
1761384980643093000,0.244093017578125,-0.039670154452323914,-0.35649991035461426,-0.6855922341346741
1761384980653162200,0.254162353515625,-0.20646168291568756,-0.3296479880809784,-0.6978859305381775
1761384980663231200,0.264231201171875,-0.31951019167900085,-0.14590078592300415,-0.6867907047271729
1761384980673300200,0.27430029296875,-0.36191654205322266,0.17521418631076813,-0.6787222623825073
1761384980683368200,0.2843681640625,-0.3335442841053009,0.6059176325798035,-0.7016454339027405
1761384980693437200,0.294437255859375,-0.3017130196094513,0.9727880954742432,-0.7265273928642273
1761384980703506200,0.304506103515625,-0.2654000222682953,1.2080305814743042,-0.7481815218925476
1761384980713574700,0.31457470703125,-0.23307372629642487,1.3018945455551147,-0.787931501865387
1761384980723644000,0.324643798828125,-0.29573336243629456,1.3354912996292114,-0.8535613417625427
1761384980733712600,0.334712646484375,-0.42118147015571594,1.2519161701202393,-0.9627297520637512
1761384980743781600,0.34478173828125,-0.4925749599933624,1.1175124645233154,-1.035806655883789
1761384980753849900,0.354849853515625,-0.5062624216079712,1.0453206300735474,-1.079274296760559
1761384980763918600,0.364918701171875,-0.4755817949771881,1.0260841846466064,-1.1310818195343018
1761384980773987800,0.37498779296875,-0.4045087397098541,0.9773621559143066,-1.18025803565979
1761384980784056600,0.385056640625,-0.3140164017677307,0.8322893381118774,-1.2110313177108765
1761384980794125600,0.39512548828125,-0.20547017455101013,0.7149332165718079,-1.2041682004928589
1761384980804194800,0.40519482421875,-0.11260388791561127,0.6444886326789856,-1.137526035308838
1761384980814263600,0.415263671875,-0.020077180117368698,0.6288284063339233,-1.024417757987976
1761384980824331800,0.425331787109375,0.06529390811920166,0.639316201210022,-0.8675139546394348
1761384980834400800,0.43540087890625,0.18215875327587128,0.6011642813682556,-0.7001475691795349
1761384980844469500,0.445469482421875,0.32964617013931274,0.49068352580070496,-0.5561134815216064
1761384980854538800,0.455538818359375,0.4611320197582245,0.32115185260772705,-0.42676499485969543
1761384980864607500,0.465607421875,0.49439942836761475,0.08362159132957458,-0.32561519742012024
1761384980874676700,0.4756767578125,0.4544420540332794,-0.1745157688856125,-0.24829769134521484
1761384980884745500,0.485745361328125,0.40576133131980896,-0.4247781038284302,-0.17233048379421234
1761384980894813700,0.495813720703125,0.3643207848072052,-0.5956458449363708,-0.09423922747373581
1761384980904882700,0.505882568359375,0.32736170291900635,-0.6409619450569153,-0.0009830559138208628
1761384980914951700,0.51595166015625,0.28904852271080017,-0.6519748568534851,0.11182816326618195
1761384980925020700,0.526020751953125,0.2412104308605194,-0.5664120316505432,0.2412615269422531
1761384980935089700,0.536089599609375,0.19700884819030762,-0.4168308973312378,0.36169469356536865
1761384980945158700,0.54615869140625,0.15809766948223114,-0.19732064008712769,0.4676765203475952
1761384980955227600,0.5562275390625,0.13096512854099274,0.05552682280540466,0.5359383821487427
1761384980965295600,0.566295654296875,0.11059434711933136,0.30858173966407776,0.527260422706604
1761384980975364600,0.576364501953125,0.12052331864833832,0.5145924687385559,0.4617166817188263
1761384980985433600,0.58643359375,0.14871792495250702,0.6347777247428894,0.35464349389076233
1761384980995502600,0.596502685546875,0.19325298070907593,0.6470527052879333,0.23511384427547455
1761384981005571600,0.606571533203125,0.24720916152000427,0.6599658131599426,0.13864056766033173
1761384981015640800,0.616640869140625,0.29158350825309753,0.5908471345901489,0.05522218719124794
1761384981025709600,0.62670947265625,0.30486947298049927,0.47476762533187866,-0.0022701346315443516
1761384981035777500,0.636777587890625,0.2926744818687439,0.40510094165802,-0.026686877012252808
1761384981045846800,0.6468466796875,0.26718536019325256,0.38315513730049133,-0.004221782553941011
1761384981055915500,0.65691552734375,0.2124032974243164,0.35018447041511536,0.044320061802864075
1761384981065984800,0.66698486328125,0.14512252807617188,0.3547033369541168,0.10769237577915192
1761384981076053500,0.677053466796875,0.07989189028739929,0.35986801981925964,0.18173271417617798
1761384981086122800,0.687122802734375,0.013832446187734604,0.28681114315986633,0.24204212427139282
1761384981096191700,0.697191650390625,-0.03356017544865608,0.23086178302764893,0.2876139283180237
1761384981106259700,0.707259765625,-0.04989360645413399,0.18788714706897736,0.3051944971084595
1761384981116328700,0.71732861328125,-0.041863515973091125,0.13167981803417206,0.2982037663459778
1761384981126397700,0.727397705078125,-0.013448119163513184,0.06985533237457275,0.2709263563156128
1761384981136466700,0.737466796875,0.010230312123894691,-0.0004590442404150963,0.2438814342021942
1761384981146535700,0.74753564453125,0.017777709290385246,-0.10845208913087845,0.21490676701068878
1761384981156604700,0.757604736328125,-0.003395993495360017,-0.23902012407779694,0.19024476408958435
1761384981166673700,0.767673583984375,-0.047329626977443695,-0.36700525879859924,0.1697472184896469
1761384981176741600,0.77774169921875,-0.09547442197799683,-0.46021953225135803,0.15987156331539154
1761384981186810600,0.787810546875,-0.13445617258548737,-0.5015789866447449,0.14907777309417725
1761384981196879600,0.797879638671875,-0.15705551207065582,-0.47415465116500854,0.1394844353199005
1761384981206948900,0.807948974609375,-0.1487022340297699,-0.40313106775283813,0.1367240697145462
1761384981217017600,0.818017578125,-0.11812383681535721,-0.29805997014045715,0.13672690093517303
1761384981227086600,0.828086669921875,-0.07045858353376389,-0.2155379205942154,0.1377362459897995
1761384981237155600,0.838155517578125,-0.018080297857522964,-0.16048529744148254,0.14505399763584137
1761384981247223600,0.8482236328125,0.05963233858346939,-0.11541210114955902,0.1633821427822113
1761384981257292800,0.858292724609375,0.12612494826316833,-0.1342567801475525,0.19667023420333862
1761384981267361500,0.868361572265625,0.1653844714164734,-0.13434334099292755,0.234521746635437
1761384981277430800,0.8784306640625,0.1911195069551468,-0.10938005894422531,0.2701190412044525
1761384981287499800,0.888499755859375,0.2082473635673523,-0.058730460703372955,0.29943299293518066
1761384981297568500,0.898568603515625,0.20971868932247162,-0.03373069316148758,0.30667027831077576
1761384981307637800,0.9086376953125,0.20515376329421997,-0.09397592395544052,0.28151780366897583
1761384981317705700,0.918705810546875,0.20260336995124817,-0.14914962649345398,0.24878299236297607
1761384981327774700,0.928774658203125,0.2087707221508026,-0.16367611289024353,0.2034440040588379
1761384981337843700,0.93884375,0.23252005875110626,-0.15551693737506866,0.16195590794086456
1761384981347912400,0.948912353515625,0.2579343318939209,-0.10831719636917114,0.11831788718700409
1761384981357981700,0.958981689453125,0.26964810490608215,-0.041411496698856354,0.06474767625331879
1761384981368050700,0.96905078125,0.2648967504501343,0.03378339111804962,-0.0012198812328279018
1761384981378119700,0.97911962890625,0.25104784965515137,0.06785883009433746,-0.07111025601625443
1761384981388187600,0.989187744140625,0.2555488646030426,0.05261942371726036,-0.12666326761245728
1761384981398257000,0.9992568359375,0.28628265857696533,0.03606744110584259,-0.16273507475852966
1761384981408325600,1.00932568359375,0.3304727375507355,0.0250448826700449,-0.16519343852996826
1761384981418394600,1.01939453125,0.35489600896835327,-0.010860092006623745,-0.1521671712398529
1761384981428463600,1.029463623046875,0.3551929295063019,-0.06451933085918427,-0.1267337054014206
1761384981438532600,1.03953271484375,0.34768322110176086,-0.1107783392071724,-0.08801206201314926
1761384981448601600,1.0496015625,0.3535464406013489,-0.16004575788974762,-0.04351916164159775
1761384981458669600,1.059669677734375,0.37280789017677307,-0.20627814531326294,0.0012565786018967628
1761384981468738600,1.069738525390625,0.40085285902023315,-0.262393593788147,0.04688185453414917
1761384981478807800,1.079807861328125,0.43286988139152527,-0.2881802022457123,0.07368654757738113
1761384981488876500,1.08987646484375,0.45987698435783386,-0.3069373667240143,0.07728554308414459
1761384981498945800,1.09994580078125,0.4774862229824066,-0.3208310902118683,0.06659092754125595
1761384981509014500,1.1100146484375,0.4797445833683014,-0.3090769648551941,0.049633514136075974
1761384981519083800,1.120083740234375,0.47102734446525574,-0.2893419861793518,0.03171608969569206
1761384981529151700,1.13015185546875,0.46540674567222595,-0.26384833455085754,0.004031998571008444
1761384981539220500,1.140220458984375,0.4664190113544464,-0.23744410276412964,-0.02803894877433777
1761384981549289700,1.150289794921875,0.46614283323287964,-0.20808753371238708,-0.07678278535604477
1761384981559358700,1.160358642578125,0.44663697481155396,-0.16730952262878418,-0.1243935078382492
1761384981569427700,1.170427734375,0.4104377031326294,-0.11746340990066528,-0.151250958442688
1761384981579496700,1.18049658203125,0.37916961312294006,-0.06279999017715454,-0.16177764534950256
1761384981589565700,1.190565673828125,0.33203405141830444,0.00734288152307272,-0.1435946375131607
1761384981599634700,1.200634765625,0.28518056869506836,0.04713149741292,-0.11219418793916702
1761384981609702700,1.21070263671875,0.2368745654821396,0.06929512321949005,-0.0774146318435669
1761384981619771600,1.220771728515625,0.19584180414676666,0.09223231673240662,-0.06243370473384857
1761384981629840600,1.230840576171875,0.1626226007938385,0.11074315011501312,-0.050889432430267334
1761384981639909600,1.24090966796875,0.13717631995677948,0.11433902382850647,-0.04427646845579147
1761384981649978600,1.250978515625,0.10906373709440231,0.10624487698078156,-0.04857481271028519
1761384981660048000,1.2610478515625,0.07552942633628845,0.0925300195813179,-0.07458789646625519
1761384981670116600,1.27111669921875,0.04462184011936188,0.09138086438179016,-0.1176176518201828
1761384981680184600,1.2811845703125,0.026219746097922325,0.09542971104383469,-0.17207391560077667
1761384981690253800,1.29125390625,0.030622217804193497,0.08386945724487305,-0.23557433485984802
1761384981700322600,1.301322509765625,0.04908755421638489,0.06697795540094376,-0.2999064326286316
1761384981710395400,1.3113955078125,0.0698666051030159,0.03456834703683853,-0.349265456199646
1761384981720464400,1.32146435546875,0.08821120113134384,-0.00984380953013897,-0.37047234177589417
1761384981730533400,1.331533447265625,0.08817338198423386,-0.06818381696939468,-0.35768836736679077
1761384981740602400,1.341602294921875,0.07983896881341934,-0.05821039527654648,-0.3077664375305176
1761384981750670300,1.35167041015625,0.06255478411912918,-0.05774940550327301,-0.25861701369285583
1761384981760739300,1.3617392578125,0.03444897010922432,-0.048206426203250885,-0.2386472225189209
1761384981770808600,1.37180859375,0.011431001126766205,-0.024431589990854263,-0.2430526316165924
1761384981780877300,1.381877197265625,0.01693139784038067,-0.015250752680003643,-0.2751734256744385
1761384981790946600,1.391946533203125,0.02916276454925537,-0.02128440886735916,-0.31482362747192383
1761384981801015300,1.402015380859375,0.04728494957089424,-0.02594853937625885,-0.33601322770118713
1761384981811084500,1.41208447265625,0.05110738426446915,-0.05491281673312187,-0.3361431956291199
1761384981821152500,1.422152587890625,0.04981295391917229,-0.06028984487056732,-0.31061261892318726
1761384981831221200,1.43222119140625,0.058224018663167953,-0.0907638669013977,-0.28677013516426086
1761384981841290500,1.44229052734375,0.06940629333257675,-0.15303580462932587,-0.2799643874168396
1761384981851359500,1.452359375,0.07347746938467026,-0.25205984711647034,-0.29092541337013245
1761384981861428500,1.462428466796875,0.06669409573078156,-0.3335355818271637,-0.3033728003501892
1761384981871497500,1.47249755859375,0.047712940722703934,-0.4024598002433777,-0.30830150842666626
1761384981881566500,1.48256640625,0.021084483712911606,-0.47590428590774536,-0.3016721308231354
1761384981891635500,1.492635498046875,-0.0015049806097522378,-0.5497297644615173,-0.2834731638431549
1761384981901703400,1.502703369140625,-0.015553699806332588,-0.6075355410575867,-0.24375301599502563
1761384981911772400,1.5127724609375,-0.008867833763360977,-0.6233818531036377,-0.1833871454000473
1761384981921841400,1.52284130859375,-0.01353979017585516,-0.6114661693572998,-0.10932576656341553
1761384981931910400,1.532910400390625,-0.034068234264850616,-0.55729079246521,-0.042518503963947296
1761384981941979400,1.5429794921875,-0.06297583878040314,-0.47974449396133423,0.001036838162690401
1761384981952048400,1.55304833984375,-0.07221248000860214,-0.38098010420799255,0.020257404074072838
1761384981962117400,1.563117431640625,-0.06002761796116829,-0.3139347434043884,0.015504082664847374
1761384981972185300,1.573185302734375,-0.027438784018158913,-0.2563638687133789,-0.003792649367824197
1761384981982254600,1.583254638671875,0.008073162287473679,-0.21342991292476654,-0.02639683149755001
1761384981992323300,1.5933232421875,0.02843063324689865,-0.17133598029613495,-0.041280969977378845
1761384982002392300,1.603392333984375,0.028834229335188866,-0.10135690122842789,-0.05628327652812004
1761384982012461300,1.61346142578125,0.027377212420105934,-0.020096398890018463,-0.06597158312797546
1761384982022530300,1.6235302734375,0.023988185450434685,0.04628056287765503,-0.08404327929019928
1761384982032599600,1.633599609375,0.022293349727988243,0.0740450844168663,-0.10363561660051346
1761384982042667300,1.643667236328125,0.020196087658405304,0.06266983598470688,-0.10389627516269684
1761384982052736500,1.653736572265625,0.01454192865639925,0.062104180455207825,-0.0900406464934349
1761384982062805500,1.663805419921875,0.0023787664249539375,0.07020943611860275,-0.07515257596969604
1761384982072874200,1.673874267578125,-0.012874222360551357,0.08547148108482361,-0.06659345328807831
1761384982082943500,1.683943603515625,-0.01773844286799431,0.10885735601186752,-0.07330538332462311
1761384982093012200,1.69401220703125,-0.012721845880150795,0.1288108229637146,-0.09686051309108734
1761384982103081500,1.70408154296875,-0.0041950237937271595,0.14229415357112885,-0.11996056139469147
1761384982113150500,1.714150390625,0.00694657675921917,0.14043526351451874,-0.13097326457500458
1761384982123218200,1.72421826171875,0.005648579448461533,0.12700779736042023,-0.12816503643989563
1761384982133287400,1.734287353515625,-0.005098340567201376,0.11864974349737167,-0.12438946962356567
1761384982143356400,1.7443564453125,-0.029830949380993843,0.12719078361988068,-0.11473513394594193
1761384982153425400,1.75442529296875,-0.05284332484006882,0.14890353381633759,-0.11785715818405151
1761384982163494400,1.764494384765625,-0.0622909739613533,0.1840541958808899,-0.1185898408293724
1761384982173563400,1.7745634765625,-0.05776200070977211,0.22935323417186737,-0.11605850607156754
1761384982183632400,1.78463232421875,-0.039272792637348175,0.2628524899482727,-0.11241889744997025
1761384982193700400,1.794700439453125,-0.02281898446381092,0.29210811853408813,-0.09242574870586395
1761384982203769300,1.804769287109375,-0.00341191329061985,0.3224387466907501,-0.07171695679426193
1761384982213838300,1.81483837890625,0.009209872223436832,0.3244640529155731,-0.047534383833408356
1761384982223907600,1.824907470703125,0.016827775165438652,0.29059791564941406,-0.024427691474556923
1761384982233976300,1.834976318359375,0.017076512798666954,0.23504066467285156,0.005044714082032442
1761384982244045600,1.845045654296875,0.011852581053972244,0.17812320590019226,0.03748849034309387
1761384982254114300,1.8551142578125,0.00003400526475161314,0.13012878596782684,0.07183022052049637
1761384982264183600,1.86518359375,-0.008103115484118462,0.08373574912548065,0.10464926064014435
1761384982274251500,1.87525146484375,-0.01837466098368168,0.04345570504665375,0.12811145186424255
1761384982284320300,1.8853203125,-0.026116831228137016,0.010467257350683212,0.13889256119728088
1761384982294389500,1.895389404296875,-0.04478319361805916,-0.007037700153887272,0.12659995257854462
1761384982304458500,1.90545849609375,-0.06634878367185593,-0.004890036769211292,0.09561008960008621
1761384982314527500,1.915527587890625,-0.08428198099136353,0.006408690474927425,0.05472470819950104
1761384982324596500,1.925596435546875,-0.08012591302394867,0.02405218780040741,0.0147975729778409
1761384982334665200,1.935665283203125,-0.06702689081430435,0.05252484232187271,-0.005034720525145531
1761384982344733400,1.9457333984375,-0.05271920561790466,0.06573641300201416,-0.01781061850488186
1761384982354802400,1.955802490234375,-0.043039679527282715,0.06723551452159882,-0.01541164331138134
1761384982364871400,1.965871337890625,-0.03133692219853401,0.05437023565173149,-0.000003994908183813095
1761384982374940400,1.9759404296875,-0.027678007259964943,0.03982138633728027,0.016026636585593224
1761384982385009400,1.986009521484375,-0.026758262887597084,0.020660139620304108,0.03540540859103203
1761384982395078400,1.996078369140625,-0.028792917728424072,0.0018406454473733902,0.05434900522232056
1761384982405147400,2.0061474609375,-0.030082564800977707,-0.02025100588798523,0.0707341879606247
1761384982415216400,2.01621630859375,-0.0321638248860836,-0.03687019646167755,0.0948650911450386
1761384982425284400,2.026284423828125,-0.0328340083360672,-0.02470157854259014,0.12260465323925018
1761384982435353600,2.036353515625,-0.03649558871984482,0.020000379532575607,0.14214639365673065
1761384982445422300,2.04642236328125,-0.04232930392026901,0.06755116581916809,0.15111926198005676
1761384982455491300,2.0564912109375,-0.04633815959095955,0.11873286217451096,0.14521290361881256
1761384982465560300,2.066560302734375,-0.045244693756103516,0.15755853056907654,0.1298697143793106
1761384982475629300,2.07662939453125,-0.04700877517461777,0.17980630695819855,0.10667730122804642
1761384982485698600,2.086698486328125,-0.05716044828295708,0.18697796761989594,0.0751560628414154
1761384982495766500,2.0967666015625,-0.07602627575397491,0.19315622746944427,0.05080518126487732
1761384982505835300,2.106835205078125,-0.09523367881774902,0.2037256956100464,0.03314734250307083
1761384982515904500,2.116904541015625,-0.10502053052186966,0.20078423619270325,0.02068614587187767
1761384982525973200,2.12697314453125,-0.10158905386924744,0.18775567412376404,0.014397889375686646
1761384982536042500,2.13704248046875,-0.09226000308990479,0.17760370671749115,0.008219089359045029
1761384982546111200,2.147111328125,-0.08688364177942276,0.16729751229286194,-0.003903815057128668
1761384982556180500,2.157180419921875,-0.08012187480926514,0.15747177600860596,-0.015072047710418701
1761384982566249500,2.16724951171875,-0.07693704217672348,0.15856365859508514,-0.02420911379158497
1761384982576317200,2.177317138671875,-0.06570196151733398,0.1658490002155304,-0.03492807224392891
1761384982586386400,2.187386474609375,-0.04763954505324364,0.16146016120910645,-0.04070061072707176
1761384982596455400,2.197455322265625,-0.030154559761285782,0.15324857831001282,-0.036326635628938675
1761384982606524400,2.2075244140625,-0.011538396589457989,0.1359831988811493,-0.02321651205420494
1761384982616593400,2.217593505859375,0.0073119900189340115,0.10431341081857681,-0.011962792836129665
1761384982626662400,2.227662353515625,0.020577168092131615,0.06923060119152069,0.010303167626261711
1761384982636731400,2.2377314453125,0.029436439275741577,0.03884579613804817,0.03550439327955246
1761384982646799400,2.24779931640625,0.03140293434262276,0.013011736795306206,0.05211036652326584
1761384982656868400,2.257868408203125,0.033138517290353775,-0.004401075653731823,0.05807610973715782
1761384982666937300,2.267937255859375,0.043148960918188095,-0.006082131527364254,0.05974353104829788
1761384982677006600,2.278006591796875,0.05648926645517349,-0.01072109118103981,0.05375727638602257
1761384982687075300,2.288075439453125,0.06870968639850616,-0.026106471195816994,0.03820822015404701
1761384982697144600,2.29814453125,0.07566266506910324,-0.045721448957920074,0.023129666224122047
1761384982707213300,2.30821337890625,0.07825534790754318,-0.051698941737413406,0.0068113007582724094
1761384982717279200,2.318279296875,0.06998942792415619,-0.05184035748243332,-0.0006711166352033615
1761384982727347200,2.32834716796875,0.06615560501813889,-0.045496851205825806,-0.006224213168025017
1761384982737416200,2.338416259765625,0.06296193599700928,-0.030047588050365448,-0.009858628734946251
1761384982747485200,2.348485107421875,0.06385486572980881,-0.025216542184352875,-0.012496420182287693
1761384982757554200,2.35855419921875,0.06575769186019897,-0.017714418470859528,-0.010891333222389221
1761384982767623200,2.368623046875,0.06727293878793716,-0.017177393659949303,-0.005653316620737314
1761384982777692200,2.378692138671875,0.06758080422878265,-0.025665687397122383,-0.000766682205721736
1761384982787761200,2.38876123046875,0.06898416578769684,-0.03353506699204445,0.004324665293097496
1761384982797830100,2.398830078125,0.0704164057970047,-0.043689433485269547,0.008241376839578152
1761384982807898000,2.408898193359375,0.0691557377576828,-0.050913743674755096,0.010902897454798222
1761384982817967000,2.418967041015625,0.06619030982255936,-0.0587996244430542,0.012219030410051346
1761384982828036000,2.4290361328125,0.05328875035047531,-0.05455838143825531,0.01665487512946129
1761384982838105000,2.43910498046875,0.044695526361465454,-0.04472944885492325,0.01690254919230938
1761384982848174000,2.449174072265625,0.03839530423283577,-0.03472109138965607,0.009679091162979603
1761384982858243300,2.459243408203125,0.03817319869995117,-0.0314781591296196,-0.0041946470737457275
1761384982868312000,2.46931201171875,0.03594247251749039,-0.027299610897898674,-0.006566851399838924
1761384982878380000,2.479380126953125,0.03308117389678955,-0.024545105174183846,-0.016241583973169327
1761384982888449300,2.48944921875,0.031942084431648254,-0.0336323007941246,-0.015551149845123291
1761384982898518000,2.49951806640625,0.030636070296168327,-0.04613716900348663,-0.016547173261642456
1761384982908587300,2.509587158203125,0.03317558765411377,-0.048679742962121964,-0.007909966632723808
1761384982918656000,2.519656005859375,0.02836858294904232,-0.047969210892915726,-0.00016682595014572144
1761384982928725200,2.529725341796875,0.02214236743748188,-0.030229084193706512,0.014967554248869419
1761384982938794200,2.539794189453125,0.011516355909407139,-0.013176330365240574,0.027836482971906662
1761384982948863200,2.54986328125,-0.0020210822112858295,0.01533152163028717,0.04634878411889076
1761384982958931200,2.55993115234375,-0.01461383979767561,0.026609476655721664,0.05556492134928703
1761384982969000200,2.570000244140625,-0.025036921724677086,0.026950255036354065,0.051725439727306366
1761384982979069200,2.580069091796875,-0.030923038721084595,0.013275722041726112,0.040478646755218506
1761384982989138200,2.59013818359375,-0.02897137962281704,0.007854566909372807,0.024055354297161102
1761384982999207200,2.600207275390625,-0.025938836857676506,0.007191705983132124,0.0018701567314565182
1761384983009276200,2.610276123046875,-0.019097132608294487,0.00372945424169302,-0.019732046872377396
1761384983019345200,2.62034521484375,-0.012325779534876347,0.001320092473179102,-0.03215968981385231
1761384983029414100,2.6304140625,-0.009042280726134777,0.00033018365502357483,-0.03888783976435661
1761384983039482000,2.640482177734375,-0.010420466773211956,0.007017381489276886,-0.033316776156425476
1761384983049551400,2.65055126953125,-0.01222243532538414,0.02320098504424095,-0.01741446554660797
1761384983059620000,2.6606201171875,-0.010323068127036095,0.03481503203511238,0.0012465696781873703
1761384983069689300,2.670689453125,-0.011820267885923386,0.03350265696644783,0.021073732525110245
1761384983079758000,2.680758056640625,-0.0015218238113448024,0.025417033582925797,0.029979344457387924
1761384983089827000,2.6908271484375,0.013712522573769093,0.0026326249353587627,0.029815558344125748
1761384983099896300,2.700896240234375,0.023677539080381393,-0.01739754155278206,0.025008555501699448
1761384983109964000,2.710964111328125,0.03433644771575928,-0.03318876028060913,0.017790503799915314
1761384983120033300,2.721033203125,0.036734890192747116,-0.02848322130739689,0.009596223942935467
1761384983130102300,2.731102294921875,0.03250160068273544,-0.017214538529515266,0.006694402080029249
1761384983140171000,2.7411708984375,0.024065770208835602,-0.007741142064332962,0.0066480631940066814
1761384983150240300,2.751240234375,0.012668714858591557,0.006820268929004669,0.0076807108707726
1761384983160309000,2.76130908203125,0.006729333661496639,0.01602362096309662,0.004000754561275244
1761384983170378200,2.771378173828125,-0.0008662512991577387,0.03248988091945648,0.009031563997268677
1761384983180447000,2.781447021484375,-0.010478398762643337,0.047919437289237976,0.006240570917725563
1761384983190515000,2.791514892578125,-0.008905831724405289,0.05038788914680481,0.0030776052735745907
1761384983200584200,2.801584228515625,-0.0063574532978236675,0.04222636669874191,-0.007699941284954548
1761384983210653200,2.811653076171875,-0.004344021901488304,0.020045742392539978,-0.0193386971950531
1761384983220722200,2.82172216796875,-0.0066055781207978725,-0.009412813931703568,-0.029579350724816322
1761384983230791200,2.831791259765625,-0.008206358179450035,-0.0221685953438282,-0.030029132962226868
1761384983240860200,2.841860107421875,-0.006726172752678394,-0.022968873381614685,-0.026642922312021255
1761384983250929200,2.85192919921875,0.004685849417001009,-0.0082673579454422,-0.016380712389945984
1761384983260998100,2.861998046875,0.01784772425889969,0.007723859045654535,0.00010665226727724075
1761384983271066000,2.872066162109375,0.03427306190133095,0.022932831197977066,0.008946679532527924
1761384983281135000,2.882135009765625,0.04848768562078476,0.023345887660980225,0.01812899112701416
1761384983291204000,2.8922041015625,0.05255298689007759,0.006450165994465351,0.03010806068778038
1761384983301273000,2.902273193359375,0.04586925357580185,-0.01248224638402462,0.04527076706290245
1761384983311342300,2.91234228515625,0.03556935116648674,-0.024480219930410385,0.059718865901231766
1761384983321411000,2.9224111328125,0.03020414710044861,-0.048193272203207016,0.06393971294164658
1761384983331480300,2.932480224609375,0.041369326412677765,-0.07138397544622421,0.060392826795578
1761384983341548300,2.94254833984375,0.054420679807662964,-0.09727735817432404,0.0457981713116169
1761384983351617000,2.952616943359375,0.06242780759930611,-0.10553721338510513,0.031075377017259598
1761384983361686300,2.962686279296875,0.05861176550388336,-0.0982593223452568,0.012054279446601868
1761384983371755000,2.972755126953125,0.04599514976143837,-0.08425768464803696,-0.005349225364625454
1761384983381824300,2.98282421875,0.027236640453338623,-0.06086953729391098,-0.018393920734524727
1761384983391893200,2.992893310546875,0.009096226654946804,-0.04463030397891998,-0.02588425762951374
1761384983401962000,3.0029619140625,-0.009530454874038696,-0.030940856784582138,-0.028362860903143883
1761384983412031200,3.01303125,-0.027974175289273262,-0.030970949679613113,-0.02196701429784298
1761384983422099200,3.02309912109375,-0.049903929233551025,-0.033929064869880676,-0.018493158742785454
1761384983432168200,3.033168212890625,-0.07212889194488525,-0.03754418343305588,-0.012315480038523674
1761384983442237200,3.0432373046875,-0.07934020459651947,-0.03206552565097809,-0.010940223932266235
1761384983452306200,3.05330615234375,-0.07313459366559982,-0.015451917424798012,-0.020993446931242943
1761384983462375200,3.063375244140625,-0.06646310538053513,0.0034442762844264507,-0.028952036052942276
1761384983472444200,3.073444091796875,-0.055354781448841095,0.02741212584078312,-0.028958598151803017
1761384983482513200,3.08351318359375,-0.0451548732817173,0.04639141261577606,-0.02597399242222309
1761384983492582100,3.09358203125,-0.03982943296432495,0.053134121000766754,-0.01316770538687706
1761384983502650400,3.103650390625,-0.03442135080695152,0.0474003329873085,0.0031553409062325954
1761384983512719000,3.113718994140625,-0.025917207822203636,0.0345175564289093,0.01761062815785408
1761384983522788000,3.1237880859375,-0.019468896090984344,0.016079427674412727,0.033115021884441376
1761384983532857000,3.133857177734375,-0.015609540976583958,-0.004526490345597267,0.03509119898080826
1761384983542926000,3.143926025390625,-0.0019464598735794425,-0.013040617108345032,0.030275404453277588
1761384983552995300,3.153995361328125,0.006191418971866369,-0.020108157768845558,0.023761171847581863
1761384983563064000,3.16406396484375,0.009995478205382824,-0.014179162681102753,0.017945626750588417
1761384983573132300,3.17413232421875,0.01210247352719307,0.00020752474665641785,0.019694635644555092
1761384983583201300,3.184201171875,0.016539566218852997,0.008179430849850178,0.01648898981511593
1761384983593270000,3.19427001953125,0.021858034655451775,0.009816104546189308,0.019323842599987984
1761384983603339300,3.20433935546875,0.027539091184735298,0.008198234252631664,0.013199903070926666
1761384983613408000,3.214407958984375,0.027687950059771538,0.010756737552583218,0.011078063398599625
1761384983623477200,3.224477294921875,0.03279775753617287,0.011456083506345749,0.0025423658080399036
1761384983633546200,3.234546142578125,0.034585073590278625,0.0025571812875568867,-0.00376777071505785
1761384983643615200,3.244615234375,0.03532196953892708,-0.004891680553555489,-0.0024335270281881094
1761384983653683200,3.25468310546875,0.02914956584572792,0.0005599209107458591,0.0018192753195762634
1761384983663752200,3.264752197265625,0.02072625420987606,0.00046644359827041626,0.005770873744040728
1761384983673821200,3.2748212890625,0.008482590317726135,0.00797339342534542,0.012241527438163757
1761384983683890200,3.28489013671875,0.0017719571478664875,0.02439284697175026,0.018421659246087074
1761384983693959200,3.294959228515625,-0.0026554204523563385,0.02951757051050663,0.020390884950757027
1761384983704028200,3.305028076171875,-0.004031209275126457,0.03438742831349373,0.017853159457445145
1761384983714096600,3.3150966796875,-0.004090473055839539,0.02987566590309143,0.009915957227349281
1761384983724165400,3.325165283203125,-0.007592795416712761,0.02332429029047489,0.0015592249110341072
1761384983734233600,3.335233642578125,-0.004109914414584637,0.01740941032767296,-0.00047489767894148827
1761384983744302600,3.345302490234375,-0.003028670558705926,0.00923936441540718,-0.005474982783198357
1761384983754371600,3.35537158203125,-0.005783821921795607,0.004746541380882263,-0.006846495904028416
1761384983764440600,3.365440673828125,-0.008099174126982689,0.0008644517511129379,-0.001342008588835597
1761384983774509300,3.37550927734375,-0.011838197708129883,-0.0004401151090860367,0.002710650209337473
1761384983784578600,3.38557861328125,-0.014271263033151627,-0.0062135811895132065,0.004089901223778725
1761384983794647600,3.3956474609375,-0.02303094044327736,-0.01573304273188114,0.004204850643873215
1761384983804715500,3.405715576171875,-0.03133973851799965,-0.0085022933781147,0.006798502989113331
1761384983814784500,3.415784423828125,-0.03812017664313316,0.010690545663237572,0.005129304714500904
1761384983824853500,3.425853515625,-0.042279236018657684,0.029792601242661476,0.003261629492044449
1761384983834922500,3.435922607421875,-0.0455954447388649,0.03904546797275543,0.0006019021384418011
1761384983844991500,3.445991455078125,-0.05004079267382622,0.0491899773478508,0.004217143636196852
1761384983855060500,3.456060546875,-0.04748263210058212,0.04873879253864288,0.007667043711990118
1761384983865129500,3.46612939453125,-0.04847279563546181,0.053629420697689056,0.012223713099956512
1761384983875198700,3.47619873046875,-0.05145163834095001,0.05773603916168213,0.017751747742295265
1761384983885266400,3.486266357421875,-0.05209691822528839,0.05022086948156357,0.02079920284450054
1761384983895335400,3.49633544921875,-0.052652470767498016,0.03657010197639465,0.01881345361471176
1761384983905404700,3.50640478515625,-0.050587721168994904,0.01956768147647381,0.018169768154621124
1761384983915473400,3.516473388671875,-0.04579167813062668,0.013825353235006332,0.019204910844564438
1761384983925542700,3.526542724609375,-0.040718089789152145,0.026195203885436058,0.023761045187711716
1761384983935611400,3.536611328125,-0.026611031964421272,0.040914952754974365,0.024859528988599777
1761384983945680600,3.5466806640625,-0.013429184444248676,0.05112497881054878,0.023089593276381493
1761384983955749600,3.55674951171875,-0.0023264624178409576,0.05407080799341202,0.023179873824119568
1761384983965817300,3.5668173828125,0.0015585568035021424,0.03580658137798309,0.021892499178647995
1761384983975886600,3.576886474609375,-0.0033590407110750675,0.006728806998580694,0.022841960191726685
1761384983985955600,3.58695556640625,-0.011845204047858715,-0.00197653379291296,0.02269149199128151
1761384983996024600,3.597024658203125,-0.014799829572439194,-0.0020249122753739357,0.017687160521745682
1761384984006093600,3.607093505859375,-0.008449255488812923,-0.0026422329246997833,0.008907251060009003
1761384984016162600,3.61716259765625,0.005952741950750351,0.008232181891798973,0.007112827152013779
1761384984026231600,3.6272314453125,0.022113602608442307,0.016422733664512634,0.005921861156821251
1761384984036300500,3.637300537109375,0.033981114625930786,0.012031503021717072,0.001580684445798397
1761384984046368500,3.647368408203125,0.035550251603126526,-0.00720317754894495,0.001546329353004694
1761384984056437500,3.6574375,0.0279703289270401,-0.013632876798510551,0.001416970044374466
1761384984066506800,3.6675068359375,0.0067939371801912785,-0.017622025683522224,0.006098008248955011
1761384984076575500,3.677575439453125,-0.014951854944229126,-0.016138844192028046,-0.0017341796774417162
1761384984086644700,3.687644775390625,-0.03174601122736931,-0.011078305542469025,-0.015320828184485435
1761384984096713500,3.69771337890625,-0.031901583075523376,-0.00954248383641243,-0.03698088228702545
1761384984106782500,3.707782470703125,-0.022029513493180275,-0.0130943413823843,-0.05355905741453171
1761384984116850700,3.7178505859375,-0.005055572371929884,-0.013144474476575851,-0.06006772443652153
1761384984126919400,3.72791943359375,0.0017719739116728306,0.001521820668131113,-0.05404818058013916
1761384984136988700,3.73798876953125,-0.001196961966343224,0.008200102485716343,-0.035613808780908585
1761384984147057400,3.748057373046875,-0.0033384100534021854,0.01845487207174301,-0.008610952645540237
1761384984157126400,3.75812646484375,-0.008986037224531174,0.02210712805390358,0.017419498413801193
1761384984167195600,3.768195556640625,-0.009456351399421692,0.028694722801446915,0.035239242017269135
1761384984177264400,3.778264404296875,-0.009097886271774769,0.033339645713567734,0.04819152504205704
1761384984187333600,3.788333740234375,-0.005404348485171795,0.028909210115671158,0.04279382899403572
1761384984197401600,3.798401611328125,-0.00636555440723896,0.012827661819756031,0.028731316328048706
1761384984207470300,3.80847021484375,-0.00610722741112113,-0.012356521561741829,0.012432504445314407
1761384984217539600,3.81853955078125,-0.00789831392467022,-0.023508844897150993,-0.004488408099859953
1761384984227608300,3.8286083984375,-0.007818153128027916,-0.026176532730460167,-0.022042101249098778
1761384984237677600,3.838677490234375,-0.005637601017951965,-0.02120320498943329,-0.029573284089565277
1761384984247746600,3.84874658203125,-0.0024719014763832092,-0.007062085904181004,-0.033824220299720764
1761384984257815600,3.858815673828125,-0.0029290821403265,0.0062794312834739685,-0.03289312124252319
1761384984267884500,3.868884521484375,-0.008601615205407143,0.01958777941763401,-0.029603052884340286
1761384984277952500,3.878952392578125,-0.010834462940692902,0.034562088549137115,-0.026946943253278732
1761384984288021500,3.889021484375,-0.008578766137361526,0.02856091968715191,-0.02001713216304779
1761384984298090500,3.899090576171875,0.004094921052455902,0.015094615519046783,-0.0068261586129665375
1761384984308159500,3.909159423828125,0.023257961496710777,-0.0004787519574165344,0.005572986789047718
1761384984318228500,3.919228515625,0.030178647488355637,-0.01609211601316929,0.023874271661043167
1761384984328297700,3.929297607421875,0.027263019233942032,-0.028296850621700287,0.03338548541069031
1761384984338366500,3.939366455078125,0.009305227547883987,-0.03347667679190636,0.042909860610961914
1761384984348435700,3.949435791015625,-0.002464613178744912,-0.031186621636152267,0.04023418202996254
1761384984358503700,3.959503662109375,-0.014871816150844097,-0.02644241228699684,0.02727954089641571
1761384984368572400,3.969572509765625,-0.02213984727859497,-0.010056514292955399,0.004766510799527168
1761384984378641700,3.9796416015625,-0.029804429039359093,0.01862962171435356,-0.013314487412571907
1761384984388710400,3.98971044921875,-0.0395774319767952,0.053128208965063095,-0.026823904365301132
1761384984398779600,3.999779541015625,-0.04326341673731804,0.08172547072172165,-0.035367969423532486
1761384984408848600,4.0098486328125,-0.051357828080654144,0.07261932641267776,-0.044194482266902924
1761384984418917400,4.01991748046875,-0.057299308478832245,0.05478150397539139,-0.04292182996869087
1761384984428985600,4.029985595703125,-0.05244862660765648,0.03462669998407364,-0.04190849885344505
1761384984439054600,4.0400546875,-0.04454953968524933,0.02432382106781006,-0.03570278733968735
1761384984449123600,4.05012353515625,-0.032975707203149796,0.018278710544109344,-0.02638518251478672
1761384984459192600,4.060192626953125,-0.01625731959939003,0.01663714461028576,-0.016385994851589203
1761384984469261600,4.070261474609375,-0.0029202094301581383,0.017519183456897736,-0.004399373661726713
1761384984479330600,4.08033056640625,0.00003490503877401352,0.0027557318098843098,0.0008715121075510979
1761384984489399600,4.090399658203125,0.003349741455167532,-0.008715568110346794,0.011800326406955719
1761384984499468500,4.100468505859375,0.004442143253982067,-0.022145546972751617,0.017714213579893112
1761384984509536500,4.11053662109375,0.0004332871176302433,-0.034340161830186844,0.01854698359966278
1761384984519605800,4.120605712890625,-0.009135774336755276,-0.03583122044801712,0.021758096292614937
1761384984529674500,4.130674560546875,-0.013127853162586689,-0.029705151915550232,0.01485944353044033
1761384984539743500,4.140743408203125,-0.023447830229997635,-0.015953995287418365,0.010441554710268974
1761384984549812500,4.1508125,-0.02787666767835617,-0.00879035983234644,-0.0014848792925477028
1761384984559881500,4.160881591796875,-0.029925674200057983,0.015882520005106926,-0.011443041265010834
1761384984569950500,4.170950439453125,-0.02208905667066574,0.043736256659030914,-0.019981402903795242
1761384984580019500,4.18101953125,-0.02112458273768425,0.06533832103013992,-0.015131337568163872
1761384984590087700,4.191087646484375,-0.014073332771658897,0.0606069453060627,-0.008701935410499573
1761384984600156700,4.20115673828125,-0.009414568543434143,0.034224484115839005,0.005089666228741407
1761384984610225400,4.211225341796875,-0.00984653364866972,-0.0012139324098825455,0.014067448675632477
1761384984620294700,4.221294677734375,-0.012809689156711102,-0.02739660069346428,0.023157531395554543
1761384984630363400,4.23136328125,-0.021954985335469246,-0.033025991171598434,0.023227306082844734
1761384984640432600,4.2414326171875,-0.024201683700084686,-0.029773160815238953,0.02746613137423992
1761384984650501400,4.25150146484375,-0.025995589792728424,-0.007158397696912289,0.020345373079180717
1761384984660569300,4.2615693359375,-0.024903396144509315,0.018368564546108246,0.008892111480236053
1761384984670638600,4.271638671875,-0.02516704984009266,0.04191969335079193,-0.0030071577057242393
1761384984680707300,4.281707275390625,-0.027317650616168976,0.05774741992354393,-0.01242025475949049
1761384984690776600,4.291776611328125,-0.03818707540631294,0.06039593368768692,-0.027990426868200302
1761384984700845600,4.301845458984375,-0.047539763152599335,0.04628591984510422,-0.041225310415029526
1761384984710915300,4.311915283203125,-0.0628710463643074,0.037606410682201385,-0.049517594277858734
1761384984720984300,4.321984375,-0.0692281723022461,0.018600832670927048,-0.05633077770471573
1761384984731053300,4.33205322265625,-0.07360906898975372,0.00394945265725255,-0.057521477341651917
1761384984741121300,4.342121337890625,-0.07187744975090027,-0.002081778831779957,-0.05614602193236351
1761384984751190300,4.352190185546875,-0.062883161008358,0.005330064333975315,-0.05276460573077202
1761384984761259300,4.36225927734375,-0.045442961156368256,0.012171333655714989,-0.042590297758579254
1761384984771328300,4.372328369140625,-0.02042788825929165,0.02223169058561325,-0.025333011522889137
1761384984781397200,4.382397216796875,-0.0025227973237633705,0.026508629322052002,-0.0023988487664610147
1761384984791466200,4.39246630859375,0.004239500965923071,0.02493736520409584,0.019432146102190018
1761384984801535500,4.402535400390625,0.009606558829545975,0.0187511146068573,0.048592861741781235
1761384984811604200,4.412604248046875,0.015318506397306919,0.012562993913888931,0.0690949484705925
1761384984821672200,4.422672119140625,0.013542414642870426,0.006906676106154919,0.07717504352331161
1761384984831741400,4.432741455078125,0.0046141669154167175,0.0017060553655028343,0.0785476416349411
1761384984841810200,4.44281005859375,0.000689904612954706,0.0005826004780828953,0.07007170468568802
1761384984851879400,4.45287939453125,0.002130142180249095,-0.000740458257496357,0.05954716354608536
1761384984861948200,4.4629482421875,-0.00040608400013297796,-0.0012323185801506042,0.0448618046939373
1761384984872017400,4.473017333984375,-0.008130050264298916,-0.005989789962768555,0.030984871089458466
1761384984882086400,4.48308642578125,-0.021323490887880325,-0.0023365672677755356,0.01869100332260132
1761384984892154000,4.493154052734375,-0.032403040677309036,0.008701169863343239,0.0019032349810004234
1761384984902223400,4.503223388671875,-0.04467776045203209,0.017468253150582314,-0.02315991371870041
1761384984912292400,4.513292236328125,-0.045188821852207184,0.01817052811384201,-0.047563254833221436
1761384984922361300,4.523361328125,-0.04301510751247406,0.019992681220173836,-0.06375471502542496
1761384984932430300,4.533430419921875,-0.035822708159685135,0.02109549567103386,-0.07482866942882538
1761384984942499300,4.543499267578125,-0.02545795403420925,0.012903774157166481,-0.07830462604761124
1761384984952568300,4.553568359375,-0.01792360469698906,0.0064810290932655334,-0.06407909095287323
1761384984962637300,4.56363720703125,-0.009433125145733356,-0.006964253261685371,-0.04352575168013573
1761384984972705300,4.573705322265625,-0.008386236615478992,-0.023641765117645264,-0.022264139726758003
1761384984982774300,4.583774169921875,-0.014737005345523357,-0.027024997398257256,-0.005657507106661797
1761384984992843300,4.59384326171875,-0.016681911423802376,-0.019780399277806282,0.009641021490097046
1761384985002912300,4.603912353515625,-0.01705043762922287,-0.007645750418305397,0.008074675686657429
1761384985012981200,4.613981201171875,-0.009574942290782928,0.0013035363517701626,0.009875505231320858
1761384985023050200,4.62405029296875,0.0020257565192878246,0.010377694852650166,0.004864306189119816
1761384985033119200,4.634119140625,0.005316091701388359,0.02235739305615425,0.011082787066698074
1761384985043188200,4.644188232421875,0.002546377247199416,0.035090040415525436,0.019615093246102333
1761384985053256200,4.654256103515625,-0.0038939453661441803,0.0297597236931324,0.031410232186317444
1761384985063325200,4.6643251953125,-0.015498806722462177,0.021025359630584717,0.037578996270895004
1761384985073394200,4.674394287109375,-0.027315786108374596,0.00468020886182785,0.03458773344755173
1761384985083463200,4.684463134765625,-0.034479450434446335,-0.001308206468820572,0.030354974791407585
1761384985093532400,4.694532470703125,-0.038213204592466354,0.005879665724933147,0.017314806580543518
1761384985103601200,4.70460107421875,-0.043610282242298126,0.020516278222203255,0.0005148453637957573
1761384985113670400,4.71467041015625,-0.03832444176077843,0.038569580763578415,-0.020952630788087845
1761384985123738400,4.72473828125,-0.029474645853042603,0.045245129615068436,-0.03539390116930008
1761384985133807000,4.73480712890625,-0.018539173528552055,0.040497515350580215,-0.0465935617685318
1761384985143876400,4.74487646484375,-0.013709794729948044,0.02495674416422844,-0.05706590786576271
1761384985153945000,4.754945068359375,-0.006807413417845964,0.009545563720166683,-0.05814874917268753
1761384985164014300,4.765014404296875,-0.0023613804951310158,0.0018752161413431168,-0.054944418370723724
1761384985174083300,4.775083251953125,0.003641917370259762,-0.00035704486072063446,-0.04301851615309715
1761384985184152300,4.78515234375,0.00593958143144846,-0.0034711500629782677,-0.022538261488080025
1761384985194221300,4.79522119140625,0.006259426940232515,-0.002775265835225582,-0.0007663881406188011
1761384985204289300,4.805289306640625,0.006685533095151186,0.004685313440859318,0.01991785131394863
1761384985214358300,4.815358154296875,-0.0015761252725496888,0.011391152627766132,0.03756289184093475
1761384985224427300,4.82542724609375,-0.00916225090622902,0.02163839340209961,0.04577209800481796
1761384985234496300,4.835496337890625,-0.014871003106236458,0.023175302892923355,0.0440644808113575
1761384985244565200,4.845565185546875,-0.021236153319478035,0.02615996077656746,0.0366123802959919
1761384985254634500,4.855634521484375,-0.025932637974619865,0.03275714069604874,0.02369711548089981
1761384985264703200,4.865703125,-0.040820732712745667,0.0386081263422966,0.005742643494158983
1761384985274772200,4.875772216796875,-0.05071783810853958,0.03539928421378136,-0.013679256662726402
1761384985284840400,4.88584033203125,-0.05349477380514145,0.0333753265440464,-0.03570159524679184
1761384985294909200,4.8959091796875,-0.0431332141160965,0.036713600158691406,-0.05700501799583435
1761384985304978400,4.905978515625,-0.03341852128505707,0.04425736516714096,-0.06023400276899338
1761384985315047200,4.916047119140625,-0.020718438550829887,0.04623795673251152,-0.05608533322811127
1761384985325116400,4.926116455078125,-0.015878826379776,0.03734823316335678,-0.03914923965930939
1761384985335185400,4.936185302734375,-0.008589489385485649,0.018650447949767113,-0.012138927355408669
1761384985345254100,4.946254150390625,-0.0019127654377371073,0.00002298504114151001,0.015147501602768898
1761384985355322400,4.956322265625,-0.0007947704289108515,-0.012268035672605038,0.03736944869160652
1761384985365391400,4.966391357421875,-0.002088783774524927,-0.015720626339316368,0.05057962238788605
1761384985375460400,4.97646044921875,-0.0008083359571173787,-0.008354855701327324,0.04898438975214958
1761384985385529300,4.986529296875,-0.0008291354170069098,-0.004327812232077122,0.04124850779771805
1761384985395598000,4.99659814453125,0.0039025028236210346,-0.007653035223484039,0.029674679040908813
1761384985405667300,5.006667236328125,-0.001989603042602539,-0.0033650854602456093,0.01009476836770773
1761384985415736300,5.016736328125,-0.010490146465599537,0.011381636373698711,-0.006959582678973675
1761384985425805300,5.026805419921875,-0.013083657249808311,0.029116790741682053,-0.02155645377933979
1761384985435872300,5.036872314453125,-0.009664958342909813,0.026326598599553108,-0.03793888911604881
1761384985445940200,5.046940185546875,0.006922318134456873,0.020619837567210197,-0.044079575687646866
1761384985456009500,5.057009521484375,0.023286378011107445,0.003162284381687641,-0.0388035885989666
1761384985466078200,5.067078125,0.031181398779153824,-0.004952596500515938,-0.02020188421010971
1761384985476147200,5.077147216796875,0.03189698979258537,-0.003458562307059765,0.006988191045820713
1761384985486216200,5.08721630859375,0.027821063995361328,0.0007356707938015461,0.032304227352142334
1761384985496285200,5.09728515625,0.026365645229816437,0.007921411655843258,0.04636465758085251
1761384985506354400,5.1073544921875,0.026731297373771667,0.00790596567094326,0.053507253527641296
1761384985516423200,5.117423095703125,0.02831321582198143,0.008006899617612362,0.047652825713157654
1761384985526491400,5.127491455078125,0.0255427286028862,0.005579960532486439,0.03934855759143829
1761384985536560400,5.137560302734375,0.019689101725816727,-0.0032907621935009956,0.03035958670079708
1761384985546629000,5.147629150390625,0.009508678689599037,-0.012237261980772018,0.016502922400832176
1761384985556698400,5.157698486328125,0.00468196626752615,-0.019730331376194954,0.0031202719546854496
1761384985566767000,5.16776708984375,0.011628342792391777,-0.009110593236982822,-0.011528052389621735
1761384985576836400,5.17783642578125,0.028510654345154762,0.0022685620933771133,-0.022607600316405296
1761384985586905300,5.1879052734375,0.03772813454270363,0.013124767690896988,-0.025962818413972855
1761384985596974300,5.197974365234375,0.042283739894628525,0.010118857957422733,-0.020839165896177292
1761384985607042300,5.208042236328125,0.03662722930312157,0.014940368011593819,-0.0013290857896208763
1761384985617111300,5.218111328125,0.02834266424179077,0.010843627154827118,0.020438261330127716
1761384985627180300,5.22818017578125,0.02233853004872799,-0.005571052432060242,0.04059729725122452
1761384985637249300,5.238249267578125,0.02137473225593567,-0.017453543841838837,0.0496339350938797
1761384985647318300,5.248318359375,0.013728315941989422,-0.024637039750814438,0.04807238280773163
1761384985657387300,5.25838720703125,0.0027430434711277485,-0.021742183715105057,0.043005719780921936
1761384985667456500,5.26845654296875,-0.009979043155908585,-0.000461050309240818,0.03231807425618172
1761384985677524200,5.278524169921875,-0.01686464436352253,0.02001732587814331,0.014494337141513824
1761384985687593200,5.28859326171875,-0.021086571738123894,0.041023075580596924,0.0013656551018357277
1761384985697662500,5.298662353515625,-0.015919772908091545,0.050364911556243896,-0.010557848960161209
1761384985707731200,5.308731201171875,-0.014904211275279522,0.03866961598396301,-0.017559677362442017
1761384985717800400,5.318800537109375,-0.012768089771270752,0.03725734353065491,-0.019608713686466217
1761384985727869200,5.328869140625,-0.011080151423811913,0.031285662204027176,-0.010574542917311192
1761384985737938400,5.3389384765625,-0.010858843103051186,0.020443400368094444,-0.0011528115719556808
1761384985748007400,5.34900732421875,-0.006938932463526726,0.016024520620703697,0.006872622761875391
1761384985758075100,5.3590751953125,-0.0035870783030986786,-0.0005267597734928131,0.01930319331586361
1761384985768144400,5.369144287109375,0.0020865171682089567,-0.003927452489733696,0.020543962717056274
1761384985778213400,5.37921337890625,0.007871702313423157,0.0013235020451247692,0.0182187557220459
1761384985788282400,5.389282470703125,0.016171669587492943,0.015605214051902294,0.0064917635172605515
1761384985798351400,5.399351318359375,0.029122620820999146,0.01597406156361103,-0.007106070406734943
1761384985808420400,5.40942041015625,0.036131978034973145,0.012174755334854126,-0.012227119877934456
1761384985818489300,5.4194892578125,0.04133526235818863,-0.002411643974483013,-0.010034805163741112
1761384985828557300,5.429557373046875,0.04306070879101753,-0.022105121985077858,-0.008649259805679321
1761384985838626300,5.439626220703125,0.03785902261734009,-0.024928074330091476,-0.001462187385186553
1761384985848695300,5.4496953125,0.03346499055624008,-0.012522948905825615,0.002917857374995947
1761384985858764300,5.459764404296875,0.028117626905441284,0.00678124139085412,0.0013732239603996277
1761384985868833300,5.469833251953125,0.019083332270383835,0.02879375033080578,0.002709471620619297
1761384985878902500,5.479902587890625,0.0073254769667983055,0.037559278309345245,-0.002408058848232031
1761384985888971300,5.48997119140625,-0.0012158132158219814,0.043039001524448395,-0.009894470684230328
1761384985899040300,5.500040283203125,0.0014300374314188957,0.053572602570056915,-0.012017808854579926
1761384985909108500,5.5101083984375,0.0022610684391111135,0.04689808189868927,-0.015359193086624146
1761384985919177200,5.52017724609375,0.009756535291671753,0.020822541788220406,-0.013795650564134121
1761384985929246500,5.53024658203125,0.013856637291610241,0.004298349842429161,-0.009899066761136055
1761384985939315200,5.540315185546875,0.014542135410010815,-0.007972696796059608,-0.0004166155122220516
1761384985949384200,5.55038427734375,0.006229360122233629,-0.014543318189680576,0.005634183529764414
1761384985959453400,5.560453369140625,-0.0017992713255807757,-0.013582183979451656,0.013681722804903984
1761384985969522200,5.570522216796875,-0.0041208332404494286,-0.018116891384124756,0.025116747245192528
1761384985979590400,5.58059033203125,0.0025008507072925568,-0.02229299396276474,0.026385212317109108
1761384985989659400,5.590659423828125,0.009795114398002625,-0.025238867849111557,0.024399645626544952
1761384985999728400,5.600728271484375,0.014324352145195007,-0.026254333555698395,0.02419378235936165
1761384986009797400,5.61079736328125,0.015899844467639923,-0.02453060820698738,0.020028667524456978
1761384986019866000,5.6208662109375,0.01173492707312107,-0.02037234976887703,0.019101621583104134
1761384986029935400,5.630935302734375,0.008387573063373566,-0.016957035288214684,0.019658824428915977
1761384986040004400,5.64100439453125,0.0073060630820691586,-0.010047197341918945,0.01673627272248268
1761384986050073300,5.6510732421875,0.006811375729739666,-0.01638338528573513,0.014661219902336597
1761384986060142300,5.661142333984375,0.011784030124545097,-0.022249797359108925,0.019050907343626022
1761384986070211300,5.67121142578125,0.011924389749765396,-0.0359986387193203,0.02494032122194767
1761384986080280300,5.6812802734375,0.016176657751202583,-0.045378826558589935,0.028088444843888283
1761384986090349300,5.691349365234375,0.017028607428073883,-0.049145765602588654,0.03245922178030014
1761384986100418300,5.701418212890625,0.01219896413385868,-0.04167187213897705,0.030126292258501053
1761384986110486300,5.711486328125,0.004880263935774565,-0.023384949192404747,0.028307396918535233
1761384986120555500,5.721555419921875,-0.0006764213321730494,-0.003872232511639595,0.025319330394268036
1761384986130624300,5.731624267578125,0.0012153972638770938,0.009128960780799389,0.02358236163854599
1761384986140693500,5.741693603515625,0.012214518152177334,0.00895532313734293,0.024858549237251282
1761384986150762200,5.75176220703125,0.019237658008933067,0.004536354448646307,0.02805432677268982
1761384986160831200,5.761831298828125,0.025536034256219864,-0.0003257784992456436,0.02841918170452118
1761384986170900200,5.771900146484375,0.028029829263687134,-0.01207166351377964,0.02794603444635868
1761384986180968200,5.78196826171875,0.03185812383890152,-0.020286450162529945,0.025865040719509125
1761384986191037400,5.792037353515625,0.036677923053503036,-0.027159705758094788,0.019178207963705063
1761384986201106400,5.8021064453125,0.042146723717451096,-0.03571990504860878,0.005273844115436077
1761384986211175400,5.812175537109375,0.04366523399949074,-0.03558134287595749,-0.004322786815464497
1761384986221244400,5.822244384765625,0.04133043810725212,-0.023828549310564995,-0.013704837299883366
1761384986231313200,5.832313232421875,0.034092653542757034,-0.001500144600868225,-0.02268926240503788
1761384986241382400,5.84238232421875,0.03140366077423096,0.016540374606847763,-0.032301146537065506
1761384986251451100,5.852451171875,0.034043122082948685,0.03163383901119232,-0.035606395453214645
1761384986261519400,5.862519287109375,0.03468014672398567,0.02826494164764881,-0.029083779081702232
1761384986271588400,5.87258837890625,0.030874043703079224,0.021845538169145584,-0.023586425930261612
1761384986281657300,5.8826572265625,0.026849208399653435,0.024539856240153313,-0.017112016677856445
1761384986291726300,5.892726318359375,0.022189613431692123,0.024674609303474426,-0.014696878381073475
1761384986301795300,5.90279541015625,0.008470606058835983,0.027908485382795334,-0.014571444131433964
1761384986311864300,5.9128642578125,0.0022783654276281595,0.025334641337394714,-0.0176786370575428
1761384986321933300,5.922933349609375,0.005084537900984287,0.03519552946090698,-0.02892782911658287
1761384986332002300,5.933002197265625,0.01757660135626793,0.055782899260520935,-0.04147657752037048
1761384986342070300,5.9430703125,0.03509300947189331,0.05923356115818024,-0.058689650148153305
1761384986352139300,5.95313916015625,0.05370919033885002,0.05489829182624817,-0.07318016141653061
1761384986362208300,5.963208251953125,0.06623750180006027,0.04887635260820389,-0.07533545792102814
1761384986372277200,5.97327734375,0.06225261464715004,0.05355430394411087,-0.0670759305357933
1761384986382346500,5.983346435546875,0.05491827055811882,0.06277602910995483,-0.04784524440765381
1761384986392415200,5.993415283203125,0.04413812607526779,0.0633481815457344,-0.03171958029270172
1761384986402484500,6.003484375,0.03387802839279175,0.05418743938207626,-0.01606898009777069
1761384986412552400,6.013552490234375,0.02943153865635395,0.04790537431836128,-0.0070502422749996185
1761384986422621200,6.02362109375,0.029043782502412796,0.03934677317738533,-0.0031047691591084003
1761384986432690400,6.0336904296875,0.028013568371534348,0.03065173700451851,-0.007796348072588444
1761384986442759200,6.04375927734375,0.03183653950691223,0.022267572581768036,-0.011338618583977222
1761384986452828400,6.053828369140625,0.029072845354676247,0.017158199101686478,-0.015070056542754173
1761384986462897400,6.0638974609375,0.028343938291072845,0.02156200259923935,-0.018982505425810814
1761384986472966400,6.07396630859375,0.03512352332472801,0.021335270255804062,-0.02179074101150036
1761384986483035400,6.084035400390625,0.0471213273704052,0.03925168514251709,-0.030195677652955055
1761384986493103400,6.094103271484375,0.06319167464971542,0.05421388894319534,-0.03352576494216919
1761384986503172400,6.10417236328125,0.08156801760196686,0.07951098680496216,-0.01914149895310402
1761384986513241300,6.114241455078125,0.09851275384426117,0.10606063902378082,0.003063392359763384
1761384986523310300,6.124310302734375,0.10066619515419006,0.12054531276226044,0.02793119102716446
1761384986533379300,6.13437939453125,0.0986468642950058,0.13355866074562073,0.05247356370091438
1761384986543448300,6.1444482421875,0.10081254690885544,0.12664057314395905,0.06495899707078934
1761384986553517300,6.154517333984375,0.09883799403905869,0.10429225116968155,0.06917819380760193
1761384986563585300,6.164585205078125,0.09878766536712646,0.07020645588636398,0.06007044389843941
1761384986573654500,6.174654541015625,0.10583122074604034,0.0476858913898468,0.04137178882956505
1761384986583723300,6.18472314453125,0.12372685968875885,0.016848616302013397,0.019816428422927856
1761384986593792500,6.19479248046875,0.14461424946784973,-0.006793884560465813,-0.0014859589282423258
1761384986603861200,6.204861328125,0.15716786682605743,0.00414664763957262,-0.018115535378456116
1761384986613930200,6.21493017578125,0.15927742421627045,0.02687065117061138,-0.02583208680152893
1761384986623999200,6.224999267578125,0.14602527022361755,0.04858633130788803,-0.026478171348571777
1761384986634068200,6.235068115234375,0.11791166663169861,0.059094857424497604,-0.019870474934577942
1761384986644136400,6.245136474609375,0.09144384413957596,0.0527418851852417,-0.006810866296291351
1761384986654205400,6.255205322265625,0.06431622803211212,0.043865300714969635,0.005657970905303955
1761384986664274200,6.265274169921875,0.04571883752942085,0.041578177362680435,0.011410664767026901
1761384986674343400,6.275343505859375,0.0317491851747036,0.020392440259456635,-0.00008623022586107254
1761384986684412200,6.285412109375,0.030997108668088913,-0.005403735674917698,-0.02807285636663437
1761384986694481400,6.2954814453125,0.04141254723072052,-0.02844536118209362,-0.0661994144320488
1761384986704550100,6.305550048828125,0.0581531785428524,-0.06002672761678696,-0.0927087813615799
1761384986714618400,6.315618408203125,0.08055481314659119,-0.08866176009178162,-0.10992937535047531
1761384986724686800,6.325686767578125,0.10599732398986816,-0.1052255630493164,-0.10950753092765808
1761384986734755800,6.335755859375,0.1194530501961708,-0.12327809631824493,-0.09442633390426636
1761384986744824800,6.345824951171875,0.13262850046157837,-0.1276816427707672,-0.07323768734931946
1761384986754893800,6.355893798828125,0.1282505840063095,-0.12430143356323242,-0.04695865139365196
1761384986764962600,6.365962646484375,0.12069865316152573,-0.12015567719936371,-0.020027967169880867
1761384986775031800,6.37603173828125,0.10927625745534897,-0.11310600489377975,0.008453854359686375
1761384986785100800,6.386100830078125,0.10355445742607117,-0.0983094871044159,0.04215589165687561
1761384986795168800,6.396168701171875,0.09686499834060669,-0.08642379939556122,0.06919488310813904
1761384986805237800,6.40623779296875,0.08958045393228531,-0.07041287422180176,0.09350075572729111
1761384986815307000,6.41630712890625,0.07854395359754562,-0.05754579231142998,0.10631679743528366
1761384986825375700,6.426375732421875,0.06006534397602081,-0.049046847969293594,0.10640361905097961
1761384986835444700,6.43644482421875,0.042310681194067,-0.038397423923015594,0.08870413899421692
1761384986845513700,6.446513671875,0.02947557345032692,-0.023631524294614792,0.06618977338075638
1761384986855582700,6.456582763671875,0.023354409262537956,0.004332003649324179,0.035935185849666595
1761384986865652000,6.46665185546875,0.014192070811986923,0.03173033893108368,0.010071095079183578
1761384986875719700,6.4767197265625,0.004791914485394955,0.046522706747055054,-0.018640978261828423
1761384986885788700,6.48678857421875,-0.01223181001842022,0.049297720193862915,-0.04240782558917999
1761384986895858000,6.49685791015625,-0.023847803473472595,0.03449785336852074,-0.06423461437225342
1761384986905926700,6.5069267578125,-0.02898823842406273,0.01688983291387558,-0.07946550101041794
1761384986915996000,6.516995849609375,-0.026071209460496902,0.0015571601688861847,-0.08839672058820724
1761384986926064600,6.527064697265625,-0.014515221118927002,-0.00208151713013649,-0.08162003755569458
1761384986936134000,6.5371337890625,0.007508446462452412,-0.004979933612048626,-0.06545750051736832
1761384986946201900,6.547201904296875,0.023911388590931892,-0.01129748485982418,-0.04488777741789818
1761384986956270600,6.5572705078125,0.0322665236890316,-0.01513989269733429,-0.016536295413970947
1761384986966339800,6.56733984375,0.03357440233230591,-0.018353529274463654,0.0009649340063333511
1761384986976408800,6.577408935546875,0.03698399290442467,-0.009563618339598179,0.011809730902314186
1761384986986477800,6.587477783203125,0.04869044944643974,0.0007356246933341026,0.010997999459505081
1761384986996546800,6.597546875,0.06193944811820984,0.0015913201496005058,0.004113224800676107
1761384987006615800,6.60761572265625,0.06732223182916641,0.01235741563141346,-0.009360505267977715
1761384987016684800,6.617684814453125,0.06092582270503044,0.022378964349627495,-0.02125198394060135
1761384987026752800,6.627752685546875,0.042050935328006744,0.03245849534869194,-0.02992616593837738
1761384987036821800,6.63782177734375,0.02811579406261444,0.037019066512584686,-0.0389724038541317
1761384987046890800,6.647890869140625,0.01442714687436819,0.03919966518878937,-0.05155131593346596
1761384987056959700,6.657959716796875,0.004643603228032589,0.038756586611270905,-0.06684906035661697
1761384987067028700,6.66802880859375,0.00041796546429395676,0.04052439332008362,-0.07435624301433563
1761384987077098000,6.678097900390625,0.004929021000862122,0.03528047353029251,-0.07062883675098419
1761384987087166700,6.688166748046875,0.0069674039259552956,0.023954585194587708,-0.06580132246017456
1761384987097235700,6.698235595703125,0.0037015993148088455,0.0043180594220757484,-0.05256441980600357
1761384987107304000,6.708303955078125,-0.00894095841795206,-0.008584955707192421,-0.04175864905118942
1761384987117372700,6.71837255859375,-0.030512895435094833,-0.018897993490099907,-0.021081022918224335
1761384987127442000,6.72844189453125,-0.05433940142393112,-0.01253649964928627,-0.0005531106144189835
1761384987137510700,6.7385107421875,-0.0799538642168045,-0.0020566536113619804,0.012254353612661362
1761384987147579600,6.74857958984375,-0.09401082992553711,0.006944830995053053,0.023770928382873535
1761384987157649000,6.75864892578125,-0.09896284341812134,0.012980351224541664,0.03218403458595276
1761384987167717600,6.768717529296875,-0.08879543095827103,0.01602993719279766,0.03657478839159012
1761384987177785900,6.778785888671875,-0.08015439659357071,0.02212761715054512,0.03926732763648033
1761384987187854800,6.788854736328125,-0.07131350040435791,0.03229156881570816,0.04021328315138817
1761384987197923800,6.798923828125,-0.07298319786787033,0.033819228410720825,0.044071923941373825
1761384987207992800,6.808992919921875,-0.07651987671852112,0.03842782974243164,0.04421866312623024
1761384987218061600,6.8190615234375,-0.08228401839733124,0.042909663170576096,0.04089317470788956
1761384987228130800,6.829130859375,-0.08547049015760422,0.05234178155660629,0.03340676426887512
1761384987238199800,6.83919970703125,-0.08330903202295303,0.05287922918796539,0.024892399087548256
1761384987248267800,6.849267822265625,-0.07749881595373154,0.04557684063911438,0.01961534470319748
1761384987258336800,6.859336669921875,-0.06456734240055084,0.026967449113726616,0.013700703158974648
1761384987268405800,6.86940576171875,-0.05137031525373459,0.005693851970136166,0.006811903323978186
1761384987278474800,6.879474853515625,-0.03800737112760544,-0.008285081014037132,0.00016918033361434937
1761384987288543700,6.889543701171875,-0.021000422537326813,-0.007734071463346481,-0.007797133177518845
1761384987298612700,6.89961279296875,-0.0010900410125032067,-0.00011001899838447571,-0.013229588977992535
1761384987308681700,6.909681640625,0.01766873151063919,0.01201934739947319,-0.0157590601593256
1761384987318751000,6.9197509765625,0.03643623739480972,0.01904134824872017,-0.013343432918190956
1761384987328818700,6.929818603515625,0.05086950585246086,0.02272556722164154,-0.007471695076674223
1761384987338887700,6.9398876953125,0.06064152717590332,0.011746031232178211,0.01379343681037426
1761384987348957000,6.94995703125,0.06371081620454788,-0.006995165720582008,0.03149333596229553
1761384987359025700,6.960025634765625,0.05730583146214485,-0.02132977545261383,0.05810731276869774
1761384987369095000,6.970094970703125,0.040836844593286514,-0.016245534643530846,0.0781494602560997
1761384987379163600,6.98016357421875,0.030354389920830727,0.004799393005669117,0.08523517102003098
1761384987389233000,6.99023291015625,0.03050645813345909,0.03181023895740509,0.08516938984394073
1761384987399302000,7.000302001953125,0.03396391123533249,0.045019082725048065,0.06543421745300293
1761384987409369600,7.01036962890625,0.044114552438259125,0.06304095685482025,0.046622712165117264
1761384987419438800,7.02043896484375,0.04510870948433876,0.08089932054281235,0.026960060000419617
1761384987429507800,7.0305078125,0.04382666200399399,0.09541727602481842,0.021886473521590233
1761384987439576800,7.040576904296875,0.03939676284790039,0.1053217351436615,0.018707459792494774
1761384987449645800,7.050645751953125,0.0391959585249424,0.10216215997934341,0.015284499153494835
1761384987459714800,7.06071484375,0.03622797876596451,0.08283593505620956,0.013768614269793034
1761384987469783800,7.07078369140625,0.04010980203747749,0.054558493196964264,0.010588266886770725
1761384987479851800,7.080851806640625,0.04559522494673729,0.026579763740301132,0.0225791335105896
1761384987489920800,7.090920654296875,0.05135830491781235,-0.0021094055846333504,0.026111818850040436
1761384987499989800,7.10098974609375,0.055967021733522415,-0.031273774802684784,0.02869134210050106
1761384987510058800,7.111058837890625,0.0552370510995388,-0.045605309307575226,0.0250095222145319
1761384987520127700,7.121127685546875,0.049338944256305695,-0.049096815288066864,0.01864217035472393
1761384987530196700,7.13119677734375,0.04240593686699867,-0.04530341178178787,0.010384505614638329
1761384987540265700,7.141265625,0.03203973546624184,-0.04151540249586105,-0.004129441455006599
1761384987550334700,7.151334716796875,0.02585907094180584,-0.03697710484266281,-0.014056640677154064
1761384987560403000,7.16140283203125,0.021691642701625824,-0.022581830620765686,-0.01794563978910446
1761384987570471700,7.1714716796875,0.007814710028469563,0.0026601427234709263,-0.010876012966036797
1761384987580541000,7.181541015625,0.00003818224649876356,0.01946071907877922,-0.005823085084557533
1761384987590609700,7.191609619140625,-0.006354203447699547,0.030848927795886993,0.004694803152233362
1761384987600678700,7.2016787109375,0.0022513100411742926,0.02547895349562168,0.005270074121654034
1761384987610748000,7.211747802734375,0.015429962426424026,0.020637858659029007,0.00482799019664526
1761384987620816600,7.221816650390625,0.03745109960436821,0.005158506333827972,0.004905921872705221
1761384987630884900,7.231884765625,0.06362597644329071,-0.012115288525819778,-0.002950669964775443
1761384987640953900,7.241953857421875,0.08988317102193832,-0.022383181378245354,-0.007556677330285311
1761384987651022600,7.252022705078125,0.10669677704572678,-0.01916528306901455,-0.009084532968699932
1761384987661091800,7.262091796875,0.11386894434690475,-0.03102584183216095,-0.009781382977962494
1761384987671160600,7.27216064453125,0.11883334815502167,-0.045741405338048935,-0.0032651610672473907
1761384987681229800,7.282229736328125,0.12664000689983368,-0.04358707368373871,0.019678421318531036
1761384987691298800,7.292298828125,0.11634636670351028,-0.04920181632041931,0.04051179811358452
1761384987701367800,7.302367919921875,0.10879071056842804,-0.05650446563959122,0.061320140957832336
1761384987711435800,7.312435791015625,0.11368639767169952,-0.0526207834482193,0.08145496994256973
1761384987721505000,7.322505126953125,0.12595707178115845,-0.04033782333135605,0.09072331339120865
1761384987731573800,7.33257373046875,0.13760919868946075,-0.03511323034763336,0.09348075091838837
1761384987741642800,7.342642822265625,0.15015582740306854,-0.03595544770359993,0.0967140644788742
1761384987751711700,7.352711669921875,0.16291077435016632,-0.06526726484298706,0.09037840366363525
1761384987761780700,7.36278076171875,0.17230863869190216,-0.10698730498552322,0.07998929917812347
1761384987771850000,7.37285009765625,0.1779196560382843,-0.13713376224040985,0.07442568987607956
1761384987781918700,7.382918701171875,0.17298205196857452,-0.1530541032552719,0.06707973778247833
1761384987791987000,7.392987060546875,0.16156135499477386,-0.1491275429725647,0.06667467206716537
1761384987802056000,7.403055908203125,0.14467109739780426,-0.1345192790031433,0.07928850501775742
1761384987812124700,7.413124755859375,0.12110424786806107,-0.10944828391075134,0.08996937423944473
1761384987822194000,7.42319384765625,0.09844955056905746,-0.07544857263565063,0.10500568151473999
1761384987832262700,7.4332626953125,0.06462394446134567,-0.03740638494491577,0.11479652673006058
1761384987842332000,7.443331787109375,0.03232232481241226,-0.003274080343544483,0.11972052603960037
1761384987852401000,7.45340087890625,0.004326110705733299,0.02693149261176586,0.11979962885379791
1761384987862468600,7.463468505859375,-0.00944257341325283,0.0304584838449955,0.11913978308439255
1761384987872537900,7.473537841796875,-0.009151756763458252,0.03641277924180031,0.12270256131887436
1761384987882606800,7.48360693359375,-0.005300207994878292,0.040370117872953415,0.1321091651916504
1761384987892675800,7.49367578125,-0.000010637682862579823,0.03583129122853279,0.13623519241809845
1761384987902744800,7.503744873046875,0.0003372280625626445,0.021714359521865845,0.14456968009471893
1761384987912813800,7.513813720703125,-0.0021166084334254265,0.013791722245514393,0.14715427160263062
1761384987922882800,7.5238828125,-0.0025760745629668236,0.008385189808905125,0.14558811485767365
1761384987932951800,7.533951904296875,-0.010428938083350658,0.008069604635238647,0.13725055754184723
1761384987943019800,7.544019775390625,-0.011328580789268017,0.006647816859185696,0.12478490173816681
1761384987953088800,7.5540888671875,-0.011983717791736126,-0.0018479330465197563,0.11330881714820862
1761384987963158000,7.564157958984375,-0.016531316563487053,-0.017029080539941788,0.09890280663967133
1761384987973226800,7.574226806640625,-0.021375339478254318,-0.025558654218912125,0.09017536044120789
1761384987983296000,7.5842958984375,-0.025854215025901794,-0.031291183084249496,0.08223987370729446
1761384987993364700,7.59436474609375,-0.02937624603509903,-0.03950943425297737,0.07851117849349976
1761384988003434000,7.60443408203125,-0.03459201008081436,-0.032024599611759186,0.07595590502023697
1761384988013502000,7.614501953125,-0.04241930693387985,-0.013700718060135841,0.06989561021327972
1761384988023570700,7.62457080078125,-0.0465083085000515,-0.0005090180784463882,0.06617821007966995
1761384988033640000,7.634639892578125,-0.052382711321115494,0.013005458749830723,0.05920525640249252
1761384988043709000,7.644708984375,-0.051518987864255905,0.01929163560271263,0.04799133911728859
1761384988053778000,7.65477783203125,-0.046104248613119125,0.025804929435253143,0.032864052802324295
1761384988063847000,7.664846923828125,-0.03497634083032608,0.015568200498819351,0.01848352886736393
1761384988073915600,7.67491552734375,-0.018772071227431297,0.011487971059978008,0.01553567685186863
1761384988083985000,7.68498486328125,-0.003397589083760977,0.00748828612267971,0.017463399097323418
1761384988094052900,7.695052978515625,0.009717147797346115,-0.005620857700705528,0.0206096563488245
1761384988104121900,7.705121826171875,0.023792948573827744,-0.022692035883665085,0.021419567987322807
1761384988114190800,7.71519091796875,0.03684749826788902,-0.03350633382797241,0.023575128987431526
1761384988124259600,7.725259521484375,0.041642140597105026,-0.04433907940983772,0.012420492246747017
1761384988134328800,7.735328857421875,0.04857461526989937,-0.052167441695928574,-0.010585756972432137
1761384988144397800,7.745397705078125,0.04799990728497505,-0.04404453560709953,-0.01800958439707756
1761384988154466800,7.755466796875,0.04685421288013458,-0.019542919471859932,-0.02323444001376629
1761384988164534800,7.76553466796875,0.04642307758331299,-0.0013785334303975105,-0.01612893119454384
1761384988174604000,7.77560400390625,0.04419481009244919,0.0013879584148526192,-0.006295475177466869
1761384988184672800,7.7856728515625,0.030458463355898857,-0.0034989723935723305,0.007770613767206669
1761384988194741800,7.79574169921875,0.014634225517511368,-0.009267112240195274,0.022447559982538223
1761384988204810800,7.805810791015625,-0.002285173162817955,-0.014395610429346561,0.038567714393138885
1761384988214879700,7.815879638671875,-0.010412873700261116,-0.02573082223534584,0.055351488292217255
1761384988224949000,7.825948974609375,-0.017938656732439995,-0.04213523864746094,0.07001887261867523
1761384988235016700,7.8360166015625,-0.03218816593289375,-0.046639442443847656,0.0842960849404335
1761384988245085700,7.846085693359375,-0.04840507730841637,-0.048117659986019135,0.09162875264883041
1761384988255155000,7.856155029296875,-0.06922168284654617,-0.05965207517147064,0.09822353720664978
1761384988265223700,7.8662236328125,-0.0913022980093956,-0.07741881161928177,0.10123364627361298
1761384988275293000,7.87629296875,-0.1242045909166336,-0.09612405300140381,0.094328872859478
1761384988285361700,7.886361572265625,-0.16199973225593567,-0.09455212950706482,0.0915909856557846
1761384988295431000,7.896430908203125,-0.1950807124376297,-0.0785854160785675,0.08907456696033478
1761384988305500000,7.9065,-0.2244672179222107,-0.05430981144309044,0.08705244213342667
1761384988315567600,7.916567626953125,-0.25828269124031067,-0.011940248310565948,0.0789223462343216
1761384988325636900,7.926636962890625,-0.2937217652797699,0.046044155955314636,0.06746277213096619
1761384988335705900,7.936705810546875,-0.31532078981399536,0.09735581278800964,0.05065423622727394
1761384988345774800,7.94677490234375,-0.31588149070739746,0.11712757498025894,0.0437580905854702
1761384988355843800,7.95684375,-0.3035718500614166,0.12415618449449539,0.03850633651018143
1761384988365912800,7.966912841796875,-0.28123044967651367,0.11470181494951248,0.03453325107693672
1761384988375981800,7.97698193359375,-0.2594234049320221,0.09160874038934708,0.036241669207811356
1761384988386049800,7.9870498046875,-0.23344413936138153,0.054617419838905334,0.03987317159771919
1761384988396118800,7.997118896484375,-0.20857660472393036,0.017126239836215973,0.03712798282504082
1761384988406187800,8.007187744140625,-0.18570099771022797,-0.0009940024465322495,0.03499291092157364
1761384988416257000,8.017257080078124,-0.17177000641822815,-0.012421360239386559,0.023976480588316917
1761384988426325800,8.02732568359375,-0.1710304468870163,-0.015453903004527092,0.006779651157557964
1761384988436395000,8.03739501953125,-0.1810346096754074,-0.005421508103609085,-0.015470527112483978
1761384988446463700,8.047463623046875,-0.17643260955810547,0.006994534283876419,-0.04071610048413277
1761384988456532700,8.05753271484375,-0.15788982808589935,0.010828420519828796,-0.06919008493423462
1761384988466601000,8.06760107421875,-0.12101215869188309,0.007963011041283607,-0.09460201114416122
1761384988476669700,8.077669677734375,-0.08819455653429031,0.015485908836126328,-0.11248380690813065
1761384988486739000,8.087739013671875,-0.05594436451792717,0.01196704339236021,-0.1219865083694458
1761384988496808000,8.097807861328125,-0.029204098507761955,0.006362953223288059,-0.12437057495117188
1761384988506877000,8.107876953125,0.0006367221940308809,-0.004731966182589531,-0.12002627551555634
1761384988516946000,8.11794580078125,0.02951098047196865,0.003305720165371895,-0.10566544532775879
1761384988527014700,8.1280146484375,0.041978321969509125,0.01250820979475975,-0.09755867719650269
1761384988537083000,8.138082763671875,0.04561779648065567,0.025236787274479866,-0.08620961755514145
1761384988547152000,8.14815185546875,0.046941813081502914,0.027025984600186348,-0.06431086361408234
1761384988557220900,8.158220947265624,0.044009674340486526,0.024494649842381477,-0.04350971430540085
1761384988567289900,8.168289794921876,0.03620048612356186,0.015278514474630356,-0.02475813217461109
1761384988577358800,8.17835888671875,0.03523865342140198,0.0006396272219717503,-0.011097559705376625
1761384988587427800,8.188427734375,0.037363264709711075,-0.018655363470315933,0.008813703432679176
1761384988597496800,8.198496826171874,0.029055004939436913,-0.03263935446739197,0.04143769294023514
1761384988607565800,8.20856591796875,0.014534596353769302,-0.037307463586330414,0.08005473017692566
1761384988617633800,8.2186337890625,-0.028777988627552986,-0.0253037940710783,0.11294770240783691
1761384988627702800,8.228702880859375,-0.08153875172138214,-0.00592731311917305,0.13756723701953888
1761384988637771800,8.238771728515625,-0.13010843098163605,0.018169768154621124,0.14391222596168518
1761384988647840800,8.2488408203125,-0.16866806149482727,0.036459919065237045,0.13419312238693237
1761384988657909800,8.25890966796875,-0.18763695657253265,0.049399420619010925,0.11373497545719147
1761384988667978800,8.268978759765625,-0.19263948500156403,0.053494345396757126,0.0897618755698204
1761384988678048000,8.279048095703125,-0.18964102864265442,0.050715867429971695,0.06589915603399277
1761384988688115700,8.28911572265625,-0.17443698644638062,0.04221527650952339,0.04335997998714447
1761384988698184700,8.299184814453126,-0.15805001556873322,0.026630457490682602,0.01731053553521633
1761384988708254000,8.30925390625,-0.14081557095050812,0.008941159583628178,0.004583146423101425
1761384988718323000,8.319322998046875,-0.12370503693819046,-0.013406224548816681,-0.0039701275527477264
1761384988728392200,8.32939208984375,-0.1001986712217331,-0.03186611831188202,0.0003602425567805767
1761384988738461000,8.3394609375,-0.07269754260778427,-0.042238861322402954,0.017954150214791298
1761384988748530200,8.3495302734375,-0.04506727308034897,-0.04145395755767822,0.03589433431625366
1761384988758599200,8.35959912109375,-0.02257154881954193,-0.05432155355811119,0.056788697838783264
1761384988768667000,8.3696669921875,-0.012212048284709454,-0.07598018646240234,0.07441825419664383
1761384988778736000,8.379736083984374,-0.005538700148463249,-0.09355119615793228,0.08172330260276794
1761384988788805000,8.38980517578125,0.0004063723608851433,-0.10762736201286316,0.08457890152931213
1761384988798874000,8.3998740234375,0.0023723179474473,-0.1223815381526947,0.08147764950990677
1761384988808943000,8.409943115234375,-0.0000438975403085351,-0.124150350689888,0.0784866064786911
1761384988819011800,8.42001171875,-0.0032607298344373703,-0.1201486885547638,0.07491238415241241
1761384988829081000,8.4300810546875,-0.012261640280485153,-0.1079479306936264,0.06734742969274521
1761384988839149000,8.440149169921876,-0.022074325010180473,-0.0915985181927681,0.06814131885766983
1761384988849218000,8.450218017578125,-0.036791637539863586,-0.06412065029144287,0.06898925453424454
1761384988859287000,8.460287109375,-0.06463152170181274,-0.0372815765440464,0.07158903032541275
1761384988869356000,8.47035595703125,-0.09460659325122833,-0.018765155225992203,0.06739900261163712
1761384988879425000,8.480425048828126,-0.12061076611280441,-0.015750989317893982,0.06552466750144958
1761384988889494000,8.490493896484375,-0.1444515585899353,-0.01573513261973858,0.056762389838695526
1761384988899563000,8.50056298828125,-0.17384620010852814,-0.006409008055925369,0.04079194366931915
1761384988909632000,8.510632080078125,-0.19520656764507294,0.003526838030666113,0.02135409414768219
1761384988919700200,8.5207001953125,-0.21123720705509186,0.01604822278022766,0.0012802514247596264
1761384988929769000,8.53076904296875,-0.21269337832927704,0.021792680025100708,-0.0300760455429554
1761384988939838000,8.540837890625,-0.20490416884422302,0.03851839900016785,-0.048891015350818634
1761384988949907000,8.550906982421875,-0.1884179562330246,0.06284703314304352,-0.07405794411897659
1761384988959976000,8.560975830078124,-0.16696299612522125,0.06349711120128632,-0.0922851487994194
1761384988970045200,8.571045166015624,-0.13903716206550598,0.03244300186634064,-0.10649892687797546
1761384988980114000,8.581114013671876,-0.09968788921833038,-0.012917556799948215,-0.11491291970014572
1761384988990182000,8.591181884765625,-0.0646180734038353,-0.06281755864620209,-0.10784348845481873
1761384989000251100,8.601251220703125,-0.04335273802280426,-0.10806918889284134,-0.09883614629507065
1761384989010320000,8.61131982421875,-0.03413064777851105,-0.1495351642370224,-0.0744829848408699
1761384989020389000,8.62138916015625,-0.035014282912015915,-0.1734788417816162,-0.045716047286987305
1761384989030457900,8.631457763671875,-0.04594682902097702,-0.1569811999797821,-0.017486538738012314
1761384989040527000,8.641527099609375,-0.05973667651414871,-0.13355498015880585,-0.002350996481254697
1761384989050596000,8.65159619140625,-0.07151695340871811,-0.10358627140522003,-0.007183961570262909
1761384989060664000,8.6616640625,-0.08222046494483948,-0.07973047345876694,-0.013650649227201939
1761384989070733000,8.671733154296875,-0.08976894617080688,-0.0633690133690834,-0.028901604935526848
1761384989080802000,8.681802001953125,-0.11470891535282135,-0.05128411948680878,-0.04535727947950363
1761384989090871000,8.69187109375,-0.13508771359920502,-0.04175461456179619,-0.0607321672141552
1761384989100940000,8.70193994140625,-0.13032251596450806,-0.032297197729349136,-0.0716221034526825
1761384989111009000,8.712009033203126,-0.10721329599618912,-0.02353954128921032,-0.07696791738271713
1761384989121078000,8.722078125,-0.08466590940952301,-0.04623446613550186,-0.07781293988227844
1761384989131146000,8.73214599609375,-0.05709412321448326,-0.04568857699632645,-0.07088254392147064
1761384989141215000,8.742215087890624,-0.033826883882284164,-0.09011942893266678,-0.068746417760849
1761384989151284000,8.752283935546876,-0.026785509660840034,-0.14536812901496887,-0.06804327666759491
1761384989161353200,8.762353271484375,-0.02568908780813217,-0.17612524330615997,-0.0558670349419117
1761384989171422000,8.772421875,-0.023915842175483704,-0.15593042969703674,-0.04671536013484001
1761384989181491200,8.7824912109375,-0.018697379156947136,-0.10912429541349411,-0.04026491940021515
1761384989191560000,8.792559814453124,-0.0013112820452079177,-0.06408586353063583,-0.03911156207323074
1761384989201629000,8.80262890625,0.01818785071372986,-0.045048788189888,-0.03402625396847725
1761384989211697200,8.812697265625,0.040905777364969254,-0.04042396694421768,-0.028615623712539673
1761384989221766000,8.822765869140625,0.05376112088561058,-0.04312387853860855,-0.02162402682006359
1761384989231835100,8.832835205078124,0.051117848604917526,-0.050373680889606476,-0.013554171659052372
1761384989241904000,8.842904052734376,0.03459639474749565,-0.05888141319155693,-0.009998586028814316
1761384989251973000,8.85297314453125,0.013165577314794064,-0.05983533337712288,-0.004157362971454859
1761384989262042000,8.8630419921875,0.0011664384510368109,-0.05931681767106056,-0.004773085471242666
1761384989272110800,8.87311083984375,-0.01006128266453743,-0.05966443568468094,-0.010354159399867058
1761384989282179000,8.883178955078124,-0.014429931528866291,-0.06597825884819031,-0.014839454554021358
1761384989292248000,8.893248046875,-0.025474227964878082,-0.08790026605129242,-0.017939487472176552
1761384989302317000,8.903317138671875,-0.044552844017744064,-0.11116163432598114,-0.025438949465751648
1761384989312386000,8.913385986328125,-0.0667232945561409,-0.12646952271461487,-0.03306102752685547
1761384989322455000,8.923455078125,-0.08236350864171982,-0.12843066453933716,-0.052967093884944916
1761384989332524000,8.93352392578125,-0.08931169658899307,-0.13279008865356445,-0.06911596655845642
1761384989342593000,8.943593017578126,-0.09104195237159729,-0.13629694283008575,-0.08313244581222534
1761384989352662000,8.953662109375,-0.08960582315921783,-0.15057599544525146,-0.09074056148529053
1761384989362730000,8.96372998046875,-0.09239042550325394,-0.19279934465885162,-0.08862493932247162
1761384989372799000,8.973799072265624,-0.11254632472991943,-0.25345364212989807,-0.08287084102630615
1761384989382868000,8.983867919921876,-0.11753416061401367,-0.3042113780975342,-0.0757191851735115
1761384989392937000,8.99393701171875,-0.09484909474849701,-0.3425135016441345,-0.07157514244318008
1761384989403006000,9.004005859375,-0.09433190524578094,-0.38236263394355774,-0.07155624032020569
1761384989413075000,9.014074951171875,-0.12474127858877182,-0.43661901354789734,-0.07892346382141113
1761384989423144200,9.024144287109374,-0.1685638427734375,-0.44061213731765747,-0.08540666103363037
1761384989433212200,9.034212158203125,-0.21241915225982666,-0.41790032386779785,-0.0907534658908844
1761384989443281000,9.044281005859375,-0.24959050118923187,-0.39931437373161316,-0.09731709212064743
1761384989453350100,9.05435009765625,-0.2880057990550995,-0.3905004858970642,-0.10334951430559158
1761384989463418000,9.064418212890626,-0.30866554379463196,-0.33829641342163086,-0.1068774089217186
1761384989473487000,9.074487060546875,-0.3074205219745636,-0.1925724893808365,-0.1265142261981964
1761384989483556000,9.08455615234375,-0.2930085361003876,-0.010669533163309097,-0.15583829581737518
1761384989493624800,9.094624755859375,-0.28696879744529724,0.12204527854919434,-0.19355647265911102
1761384989503694000,9.104694091796874,-0.2932021915912628,0.15486180782318115,-0.24000413715839386
1761384989513763000,9.11476318359375,-0.3012354373931885,0.10503426194190979,-0.28088006377220154
1761384989523832000,9.12483203125,-0.3098795413970947,0.01476454921066761,-0.3148481547832489
1761384989533900000,9.134900146484375,-0.3336638808250427,-0.10590606182813644,-0.35313770174980164
1761384989543969300,9.14496923828125,-0.37508055567741394,-0.23914508521556854,-0.4064701497554779
1761384989554038000,9.1550380859375,-0.4055332541465759,-0.3534533381462097,-0.47638410329818726
1761384989564107000,9.16510693359375,-0.43321627378463745,-0.432483971118927,-0.5439279675483704
1761384989574176000,9.175176025390625,-0.45624953508377075,-0.5085570812225342,-0.599043607711792
1761384989584245000,9.185244873046875,-0.48416081070899963,-0.5707213878631592,-0.6377665400505066
1761384989594314000,9.19531396484375,-0.421842485666275,-0.5851930379867554,-0.6518301963806152
1761384989604383000,9.205383056640626,-0.34240785241127014,-0.6678788661956787,-0.6527596116065979
1761384989614451000,9.215450927734375,-0.31794366240501404,-0.7121242880821228,-0.6634647250175476
1761384989624520000,9.22552001953125,-0.31453749537467957,-0.6091744899749756,-0.7034792304039001
1761384989634589000,9.2355888671875,-0.3325512111186981,-0.42266279458999634,-0.7597134113311768
1761384989644658200,9.245658203125,-0.3338034451007843,-0.19131159782409668,-0.8160701394081116
1761384989654727000,9.255726806640626,-0.2986816465854645,0.08279451727867126,-0.8601418733596802
1761384989664796200,9.265796142578125,-0.23745132982730865,0.3544401526451111,-0.8750105500221252
1761384989674865000,9.275864990234375,-0.15443255007266998,0.5596299767494202,-0.8474821448326111
1761384989684932900,9.285932861328124,-0.07611590623855591,0.6194126009941101,-0.779193103313446
1761384989695002000,9.296002197265626,-0.03318624943494797,0.572882354259491,-0.6785581707954407
1761384989705070800,9.30607080078125,-0.02639865316450596,0.5011088252067566,-0.562800943851471
1761384989715140000,9.31614013671875,-0.0163177028298378,0.45739060640335083,-0.4404057562351227
1761384989725209600,9.326209716796875,-0.007864562794566154,0.49953141808509827,-0.31868383288383484
1761384989735278600,9.336278564453124,-0.03211686760187149,0.6410319805145264,-0.08873690664768219
1761384989745347600,9.34634765625,-0.11650978028774261,0.600713312625885,0.25770652294158936
1761384989755416600,9.35641650390625,-0.17023609578609467,0.308401882648468,0.59771728515625
1761384989765484500,9.366484619140625,-0.14429078996181488,0.0025668605230748653,0.8714923858642578
1761384989775553500,9.376553466796874,-0.05378368869423866,-0.09479593485593796,0.9950363039970398
1761384989785622500,9.38662255859375,0.04123683273792267,-0.046219877898693085,0.9436314105987549
1761384989795691500,9.39669140625,0.09206856042146683,0.025830155238509178,0.7454196214675903
1761384989805760500,9.406760498046875,0.11276958137750626,0.0551997609436512,0.4693496823310852
1761384989815829500,9.41682958984375,0.1213192567229271,0.06503098458051682,0.16073095798492432
1761384989825898800,9.426898681640624,0.11892534047365189,0.08638980984687805,-0.12897303700447083
1761384989835966500,9.436966552734376,0.10395646840333939,0.10583821684122086,-0.3534937798976898
1761384989846035500,9.447035400390625,0.07693230360746384,0.1052163690328598,-0.47134238481521606
1761384989856104700,9.457104736328125,0.053440071642398834,0.11935185641050339,-0.4673321843147278
