time,seconds_elapsed,z,y,x
1761841495769903400,0.0819033203125,0.9902852950692176,0.03896306012272834,-0.30757819483205673
1761841495779973600,0.0919736328125,0.9254664936780929,0.12020575757026672,-0.5956275133296847
1761841495790042600,0.102042724609375,-0.28616555057764054,0.5161486106842756,-0.40688597967177625
1761841495800112400,0.1121123046875,-0.8074725669384002,0.6904162133097648,-0.18153394036665557
1761841495810181600,0.122181640625,-1.1028034207463264,0.6141846220225096,-0.10059402525797485
1761841495820251400,0.13225146484375,-1.179478079625964,0.5102075301975012,0.0051060909673571585
1761841495830320600,0.142320556640625,-1.0236971508055925,0.3297188611000776,0.019660101498663426
1761841495840390400,0.152390380859375,-0.9335106839239596,0.2918593783050775,-0.19097966797351837
1761841495850460400,0.16246044921875,-0.8226981931209564,0.4185767097264528,-0.32466333127617836
1761841495860529400,0.172529296875,-0.9229939660847186,0.4594675230413675,-0.3635667701661587
1761841495870599400,0.182599365234375,-1.4369839374303817,0.1438344704389572,-0.2516805126518011
1761841495880668700,0.192668701171875,-1.5725035839885473,0.0002624503284692764,-0.036548400196433066
1761841495890738400,0.202738525390625,-1.9052596208274364,-0.0791980398774147,0.2712695947408676
1761841495900807700,0.2128076171875,-2.32655727995038,-0.3824006499737501,0.3961269775092602
1761841495910877400,0.22287744140625,-2.8345757756710053,-0.9090010965675115,0.6956979531049728
1761841495920946700,0.23294677734375,-2.315082530733943,-1.4397346974432468,0.9254553877621888
1761841495931016400,0.243016357421875,-1.467047067260742,-1.6263181762844323,1.0792167934536934
1761841495941085700,0.253085693359375,-1.5215496418207883,-1.3289058400273321,1.2972265071719884
1761841495951155500,0.263155517578125,-1.4173229591488838,-0.8943307661801576,1.1784566276237367
1761841495961224400,0.273224365234375,-1.29125561606884,-0.44116205102205275,0.7470385565027594
1761841495971294700,0.283294677734375,-1.6577508409023285,-0.19974457370936868,0.5887909453079104
1761841495981364500,0.293364501953125,-0.8880518320411444,0.3776894035428762,0.721400111246854
1761841495991433700,0.303433837890625,-1.6414695681869982,0.3567378009289503,0.7035134491614997
1761841496001503500,0.31350341796875,-3.889852306088805,-0.9327502209454774,1.4530296478241682
1761841496011572500,0.323572509765625,-1.4557050045132636,-1.5864380013167858,1.5531632159635425
1761841496021642500,0.333642578125,-2.110212869095802,-2.6511153972864148,1.4852707062155008
1761841496031711500,0.34371142578125,-3.0446587880432605,-3.247934458488226,2.173257646551728
1761841496041781500,0.353781494140625,-2.51438228328526,-3.3742239198863504,1.9095152324452995
1761841496051850500,0.3638505859375,-2.276849538451433,-2.906371430337429,2.114312121108174
1761841496061920800,0.373920654296875,-2.396025076191127,-1.9237427875012159,1.851785950923711
1761841496071989500,0.383989501953125,-2.950586419638991,-0.8491308574944734,0.6709599638201296
1761841496082059500,0.3940595703125,-3.930596404409408,0.14999299306869507,-0.3566121287226677
1761841496092129500,0.404129638671875,-4.163448882472514,1.1766326270669698,-1.3123217849731446
1761841496102198500,0.414198486328125,-3.6755414468884466,2.344792024821043,-1.8819357361242175
1761841496112268500,0.4242685546875,-3.079158439016342,3.232952577933669,-2.2115882539898157
1761841496122337500,0.434337646484375,-2.493380411788821,4.457243028232455,-2.3647335736095902
1761841496132407600,0.444407470703125,-0.9745219087481498,5.4500359222084285,-2.4168571440786124
1761841496142476500,0.4544765625,0.26003855461981146,5.593179487773776,-3.1686557545900342
1761841496152546600,0.464546630859375,0.48779520738124843,5.5255386146992445,-4.249855246293545
1761841496162615600,0.474615478515625,0.17632687324285506,6.203542505681514,-4.9565112312644715
1761841496172685600,0.484685546875,0.022509061188995837,6.645846712476015,-5.30183916490674
1761841496182754600,0.494754638671875,1.0161053805023432,5.224823729765415,-5.544840112018585
1761841496192824600,0.504824462890625,1.8981120871603487,3.87785090264976,-4.98665210250616
1761841496202894300,0.514894287109375,2.424820962564647,3.0826895357519386,-4.492401435375213
1761841496212963600,0.524963623046875,2.272545119255781,3.4358097307056186,-3.6587510556071994
1761841496223033300,0.535033447265625,1.760569410341978,4.063647615027428,-2.5705530833184715
1761841496233102600,0.5451025390625,1.745349044856429,4.779079027128219,-1.6338076552569865
1761841496243172600,0.555172607421875,2.058839824733138,5.229542574980854,-0.9081307434737682
1761841496253241600,0.56524169921875,1.4773101025998592,6.2596338107377285,-0.08546995975375175
1761841496263311600,0.5753115234375,0.9288257409781217,7.0395964394599195,0.6583101794749499
1761841496273380600,0.585380615234375,0.5152689052402973,7.396703658223152,1.4499226217195391
1761841496283450600,0.59545068359375,0.08899784161895513,8.079028919535874,2.537573189258575
1761841496293519600,0.60551953125,-0.1343561557367444,8.611987210723758,3.428267060241103
1761841496303589600,0.615589599609375,-0.899337488426268,9.342377707025408,4.299916623535752
1761841496313658400,0.625658447265625,-1.7235650830715894,10.59563998478651,5.169000720256567
1761841496323728600,0.635728759765625,-2.339399518127739,12.015954526966809,6.275301335468888
1761841496333798700,0.645798583984375,-2.731026846130192,13.546299469661712,7.649450923323631
1761841496343867600,0.65586767578125,-2.7810952376350757,14.566996269607543,9.38247181700468
1761841496353937700,0.665937744140625,-2.3454431822061537,14.573020352202652,11.621125188052654
1761841496364006400,0.67600634765625,-1.2719605484902858,13.73441030420065,13.934182350438832
1761841496374076700,0.68607666015625,-0.25208456340804697,12.117767718756198,15.940028836131095
1761841496384145400,0.6961455078125,0.6673438191495835,9.949797072696684,17.59567539823055
1761841496394215700,0.706215576171875,1.3007527816019953,7.3496946542888875,19.25217419324517
1761841496404284400,0.716284423828125,1.5135935682497919,4.650115962606669,20.81318315427303
1761841496414354700,0.726354736328125,1.1573102330900729,2.649887901318073,21.991424970102308
1761841496424423400,0.73642333984375,0.45919104418754575,1.7162451154470442,22.376437848401068
1761841496434493400,0.746493408203125,-0.7672785037159919,1.7834692244142294,21.915596114397047
1761841496444562400,0.7565625,-1.171231060284376,2.1176228530913592,20.52308494042158
1761841496454632400,0.766632568359375,-0.21015563921704888,2.7983441863387823,18.662245476078986
1761841496464701400,0.776701416015625,0.3465916699677706,3.7872137693911787,16.35701739988327
1761841496474771500,0.786771484375,-1.0054716121546923,5.135173853978515,13.337825061529873
1761841496484841500,0.796841552734375,-4.249669952854513,6.769671829587221,9.584092121458053
1761841496494910500,0.806910400390625,-7.11100747872293,8.830935082075,5.26060465272069
1761841496504980500,0.81698046875,-7.645063502019643,12.252759542047977,1.1455401541888712
1761841496515049500,0.827049560546875,-4.056712262806296,15.035932462739943,-2.127083924397826
1761841496525119500,0.837119384765625,3.6397219454884526,19.00189477956295,-7.192457096919417
1761841496535188500,0.8471884765625,12.333335884541272,20.783690517807006,-15.366932011300324
1761841496545258500,0.857258544921875,15.486624558651446,18.958548974311352,-21.294258698010445
1761841496555327500,0.867327392578125,14.674134455811977,17.06227111684084,-23.891848256814477
1761841496565397500,0.8773974609375,13.800581689244508,13.167698796492814,-23.834544068837165
1761841496575466800,0.887466796875,9.238833745920658,11.741344974148273,-21.310739877212047
1761841496585536500,0.89753662109375,5.191444022732973,10.299098001623154,-18.307952730214595
1761841496595606500,0.9076064453125,2.045547796961665,8.536628895139694,-14.736292513561247
1761841496605675500,0.917675537109375,0.4535311552623287,7.498722017195821,-11.333556784939764
1761841496615745500,0.92774560546875,-0.28672669159173964,7.267388711524009,-8.428376025691628
1761841496625814800,0.937814697265625,-0.9402572355747222,6.635419426485896,-6.353584598588943
1761841496635884500,0.947884521484375,-1.196422273229435,5.328143818986415,-4.907824064984918
1761841496645953500,0.95795361328125,-1.1618284411668778,4.358079474169015,-3.463385135373473
1761841496656023600,0.9680234375,-1.0996074011839925,4.1489878109216685,-1.7509931882232426
1761841496666092500,0.978092529296875,-1.096610411325097,4.593347196680307,0.2279579840198159
1761841496676162600,0.98816259765625,-1.0747650747418402,5.766493735197186,2.397131868389249
1761841496686231600,0.9982314453125,-2.0746946887299416,7.18881435650289,5.209466001635789
1761841496696301600,1.008301513671875,-3.35120106395632,7.454012522375583,8.490846218129992
1761841496706370600,1.01837060546875,-4.887466044349968,6.257133226093649,12.612896337765454
1761841496716440600,1.028440673828125,-5.433760494711994,3.3624522335499525,17.85456014317274
1761841496726509600,1.038509521484375,-4.237233665129542,0.7081336563080549,22.797073828744885
1761841496736579600,1.04857958984375,-2.839827704849839,-0.4092062393128872,26.063784299373626
1761841496746649600,1.058649658203125,-2.3791169037491082,-1.3988093973368405,27.153057207417486
1761841496756718600,1.068718505859375,-0.8155705331981181,-0.901564224565029,25.78939569582939
1761841496766788600,1.07878857421875,0.3843436007350683,1.8221522985517977,23.223491899621486
1761841496776857600,1.088857666015625,1.3845330347031355,4.865923782366514,19.923921946442125
1761841496786927400,1.09892724609375,2.0821927894003687,7.178394084775447,16.40706767120957
1761841496796996600,1.10899658203125,1.1076363938607274,8.53587077024877,12.341819635248184
1761841496807066600,1.119066650390625,-1.3455828340619802,9.971506215679645,7.269239892348646
1761841496817135600,1.129135498046875,-3.6718209650605913,11.170051983869076,1.7077765623092651
1761841496827205600,1.13920556640625,-4.157613015925884,12.230463539087772,-3.3186820654064415
1761841496837274600,1.149274658203125,-1.9191665656268595,13.672013761520384,-7.835507747942208
1761841496847344600,1.1593447265625,3.074699706041813,15.762458100306986,-12.98624099010229
1761841496857413600,1.16941357421875,9.154721045994759,17.257113305461406,-19.02661771740913
1761841496867483600,1.179483642578125,13.545788597530127,16.989058581113813,-24.013749127864838
1761841496877552400,1.189552490234375,15.647462770861386,14.902481439149378,-25.900129860699174
1761841496887622700,1.19962255859375,14.450982703030109,13.193012101447582,-24.2498912951231
1761841496897692700,1.209692626953125,11.08979362128377,12.335325597053766,-20.27043353691101
1761841496907761700,1.21976171875,8.041784353768826,11.255233189809323,-15.86901877888441
1761841496917831700,1.229831787109375,5.808873325765132,9.665499654078483,-11.403629269075394
1761841496927900700,1.239900634765625,4.148360618934035,8.538978088614344,-7.332721307656168
1761841496937970700,1.249970703125,2.469035075083375,8.222440780648588,-3.747041333478689
1761841496948039400,1.260039306640625,0.8902320986896752,8.47087661229074,-0.6190795544572174
1761841496958109700,1.270109619140625,-0.28615093753039833,9.817316355443,2.185880689020455
1761841496968178400,1.280178466796875,-1.1756406934201717,11.553783590185642,5.104584654447436
1761841496978248700,1.290248779296875,-2.088981865018606,12.009456981641053,8.844654395347833
1761841496988317400,1.3003173828125,-3.61745867575407,10.40190137349367,13.902470868879556
1761841496998387500,1.310387451171875,-4.325093150368333,7.12732499179542,20.030777224051953
1761841497008456400,1.32045654296875,-3.316812179881334,4.578764544576406,25.37590257297754
1761841497018526500,1.3305263671875,-1.4512147073566912,2.3908552723377943,28.583265367102623
1761841497028595700,1.340595703125,1.3630851730048656,0.808931533575058,29.783709662389754
1761841497038665500,1.35066552734375,2.8307927500009535,2.1395587905675173,28.503847546994685
1761841497048735700,1.36073583984375,3.2521646434038876,5.310331683441996,25.167029520916937
1761841497058804500,1.370804443359375,2.8845149878382683,8.477807872858643,21.309086849308013
1761841497068874500,1.38087451171875,2.528237205636501,10.841031626427172,17.42049769502282
1761841497078943500,1.390943603515625,1.7014549580723046,12.442747860896587,13.698953206372261
1761841497089013500,1.401013427734375,-0.2616542096555233,13.254723584473131,9.659336455273628
1761841497099082500,1.41108251953125,-2.6707418887764214,13.437372646474838,5.3656613564759486
1761841497109152500,1.421152587890625,-3.6554537676274776,13.126640809917449,1.2850976779609917
1761841497119221800,1.4312216796875,-2.6897125467061995,14.093295054030417,-2.6082857248634097
1761841497129291500,1.44129150390625,0.9861690919220447,16.045810931551454,-7.437395149573684
1761841497139360800,1.45136083984375,6.953924819654226,17.977909459465742,-14.266360295128822
1761841497149430500,1.461430419921875,12.112771225643158,18.137951552861928,-21.611829440677166
1761841497159499500,1.47149951171875,14.967092150747774,15.71453899579048,-26.124717199242113
1761841497169569500,1.481569580078125,14.451374332696199,13.616935432898998,-26.58196996884346
1761841497179638500,1.491638427734375,10.518100818032025,13.12844698255658,-23.304752132725714
1761841497189708500,1.50170849609375,6.521393818855286,12.599970220696925,-18.600221858364343
1761841497199778600,1.511778564453125,3.640506373864412,11.559162360614538,-13.769009323894977
1761841497209847800,1.521847900390625,1.689065870489925,9.750664493405818,-9.495569788396358
1761841497219917600,1.53191748046875,0.4783645312130451,8.009574275037647,-6.355905150490999
1761841497229986600,1.541986572265625,0.16317622670345008,6.953513900765776,-3.7431875806599852
1761841497240056600,1.552056640625,0.44350017511341716,6.787379920235276,-1.2698565619483588
1761841497250125600,1.56212548828125,0.869290432947874,7.647130371421575,0.9334173065520822
1761841497260195600,1.572195556640625,0.9190800075113773,8.975960808125137,2.9146316014215348
1761841497270264600,1.5822646484375,0.21665245389044283,9.974134226095677,5.022157715651392
1761841497280334600,1.59233447265625,-1.0889999363213776,9.573855389603972,7.710671992483735
1761841497290403600,1.602403564453125,-2.8599276590704914,7.762825373569131,11.638490164351463
1761841497300473600,1.6124736328125,-4.615967609289288,5.379677022346854,16.717216154921054
1761841497310542600,1.62254248046875,-5.294413398820161,3.3074732736498116,21.282149742543695
1761841497320612600,1.632612548828125,-4.810949498641491,2.014325560224056,24.34252398611307
1761841497330681600,1.642681640625,-2.4308406612455844,0.7029559614092111,25.296463710081575
1761841497340751600,1.652751708984375,-0.4957184746611863,0.7878677027583122,24.52123103249073
1761841497350821400,1.6628212890625,0.6522691457450389,2.5970570593625304,22.34368357979059
1761841497360890600,1.672890625,1.201723813703656,4.536611748501659,19.527838223552703
1761841497370960400,1.68296044921875,1.2407073320925235,6.365232366284728,16.332908210021255
1761841497381029600,1.693029541015625,0.8402946400880813,7.632581037065386,13.063244734805822
1761841497391099400,1.703099365234375,-0.5108779768049717,7.987605019813776,9.521052604699134
1761841497401168600,1.713168701171875,-2.2709908755511043,8.175266941541432,5.3339644879639145
1761841497411238700,1.72323876953125,-3.651903381669521,8.95109583145976,0.9165513658165931
1761841497421307600,1.7333076171875,-2.9255718053698536,10.563100820231437,-3.5447412300676104
1761841497431377700,1.743377685546875,0.6993195776682347,13.50308927348852,-9.062580522435903
1761841497441446700,1.75344677734375,6.355336995214223,15.889996100461483,-16.426642140251396
1761841497451516700,1.7635166015625,12.233453953075408,15.347120226371288,-23.756395830273625
1761841497461585400,1.77358544921875,15.105758278638124,12.679154232048987,-27.605493516647815
1761841497471655700,1.78365576171875,15.22635683491826,10.965111595082282,-27.43045726773739
1761841497481724400,1.793724365234375,11.355084726136923,10.983678348386286,-23.306596883809565
1761841497491794700,1.803794677734375,6.7312593890845775,10.7163601216197,-18.0429644077003
1761841497501864700,1.81386474609375,3.2085365140795705,9.517789803510905,-12.768907568210363
1761841497511933400,1.823933349609375,1.0845558163940905,8.212049735015631,-8.206247770738601
1761841497522003700,1.834003662109375,-0.16649052061690017,7.325688924801349,-4.637839541618526
1761841497532072400,1.844072509765625,-0.6284358502149582,7.099905069950222,-1.6448191708758473
1761841497542142700,1.854142822265625,-0.4455161545783281,7.616392703330517,1.0890469903334974
1761841497552211500,1.86421142578125,-0.07390281954612582,8.269888760522008,3.732333593690395
1761841497562281700,1.87428173828125,-0.40427985229399055,8.36033943129778,6.645847881519794
1761841497572350500,1.8843505859375,-1.5746668995022772,6.925337023073435,10.665843401825427
1761841497582420200,1.894420166015625,-2.361045240485668,4.665958259382844,15.270429785400628
1761841497592489200,1.9044892578125,-2.79450680013299,2.668094004616141,19.57642719015479
1761841497602559200,1.914559326171875,-2.638071206796169,0.9668500589460134,22.691740646135806
1761841497612628200,1.924628173828125,-1.8011685472339392,0.5441963090389966,24.456734887182712
1761841497622698200,1.9346982421875,-0.3271183597454801,0.5009773450374603,24.19032617647648
1761841497632767500,1.944767578125,0.5023983177512884,2.1694430566996337,22.178640317106247
1761841497642837200,1.954837158203125,0.9729413615584372,4.520466084864736,19.304997436416148
1761841497652906500,1.964906494140625,1.4183435343682764,6.311670871967077,16.361651489424705
1761841497662976300,1.974976318359375,1.4828057774066925,7.529276145413517,13.411044611519575
1761841497673045500,1.98504541015625,1.0043769487857819,8.210475617566704,10.42784479304552
1761841497683115300,1.995115234375,0.011292962908744812,8.190823991635442,7.329000825828313
1761841497693185300,2.005185302734375,-1.5096411773622036,8.230393785479665,3.8140336795166134
1761841497703254300,2.015254150390625,-2.3374364013612268,8.606819452697039,0.043920974791049956
1761841497713324300,2.02532421875,-1.511089622604847,9.951408015024661,-4.017871367758512
1761841497723393500,2.0353935546875,1.1048107419807462,12.350846991312503,-9.104835609841347
1761841497733463300,2.04546337890625,5.059695126885176,13.481819690966605,-14.964204612612724
1761841497743532500,2.055532470703125,8.769317707073688,12.674964379143715,-20.089521673965454
1761841497753602300,2.065602294921875,10.562748938053845,11.148825655966997,-22.799874857640265
1761841497763671300,2.07567138671875,11.00222873507738,9.438898637625574,-22.364693634593486
1761841497773741300,2.0857412109375,8.523999715191126,9.290488529834152,-19.195027826178073
1761841497783810300,2.095810302734375,5.614248579287529,9.289305457529425,-15.18364582043886
1761841497793880300,2.10588037109375,3.278089942777157,8.408014790186286,-10.86641975018382
1761841497803949300,2.11594921875,1.7392063043177126,7.4666013703137635,-6.923814343550801
1761841497814019300,2.126019287109375,0.7824807490229606,7.032187039986252,-3.699107031393051
1761841497824088300,2.13608837890625,0.2514320908486843,7.303935942676663,-0.9646598554253578
1761841497834158300,2.146158447265625,0.13504793739318846,8.13138688328266,1.469136148494482
1761841497844227300,2.156227294921875,0.2576560068648308,9.00225435628891,3.8481519299566744
1761841497854297300,2.16629736328125,-0.4604775768667459,8.640635797581076,6.799686444100737
1761841497864366300,2.176366455078125,-2.0547546012461186,6.392749318763613,11.29249996740818
1761841497874436400,2.186436279296875,-2.5714018091022965,3.3573090254426,16.313026282465458
1761841497884505300,2.19650537109375,-3.0628958710014818,0.9239765473812818,21.12824279090166
1761841497894575400,2.206575439453125,-3.4018834957063198,-0.8066706029057502,24.403484943032264
1761841497904645000,2.21664501953125,-1.1529366941809653,-2.184770389690995,24.83697806686163
1761841497914714400,2.22671435546875,0.16518829717822373,-1.709867397108674,23.42589078723192
1761841497924784400,2.236784423828125,0.8296428976923227,0.5287690228044987,20.38721867238283
1761841497934853400,2.246853271484375,1.5605319911658764,3.1016309675872322,16.956193253344296
1761841497944923400,2.25692333984375,1.6502303822696207,5.10038252658248,13.325440211731195
1761841497954992400,2.266992431640625,1.3340695064008234,6.666604838344455,9.74439491161704
1761841497965062400,2.2770625,0.7916607383657246,7.253242112749814,5.9158548601031296
1761841497975131400,2.28713134765625,0.13202771278917788,7.631967873603105,1.5794149708122014
1761841497985201400,2.297201416015625,-0.025830606827139852,8.11324215478301,-3.225869341674447
1761841497995270100,2.307270263671875,0.7734545620024204,9.287877470552921,-8.724781815254687
1761841498005340400,2.31734033203125,3.095695732319355,10.380816499888896,-14.718600205004215
1761841498015409200,2.3274091796875,6.610632775753736,10.172941811215876,-20.192678097057343
1761841498025479400,2.3374794921875,8.775154742664098,9.517184823355079,-23.979917000889778
1761841498035548200,2.347548095703125,9.103260907870531,7.88086197040677,-24.888474445343014
1761841498045618200,2.3576181640625,7.707170121842623,6.821746300217509,-23.045158947253224
1761841498055687400,2.3676875,4.930145202386379,7.060223632425069,-19.30924106533527
1761841498065757200,2.377757080078125,2.9898101765245197,7.340846161922812,-14.973236644852161
1761841498075827500,2.387827392578125,1.7438947543948888,7.3879218013525,-10.430899504441022
1761841498085896200,2.397896240234375,1.124383968913555,7.573161464369297,-6.45471039263606
1761841498095966500,2.407966552734375,0.8394698797017336,7.877916564604639,-2.955651886335015
1761841498106035200,2.41803515625,0.9113578157614916,7.910694798612594,0.17755595838008448
1761841498116105200,2.428105224609375,0.7063724918544292,7.3204007552653545,3.227008867098391
1761841498126174200,2.43817431640625,-0.0475829678973183,5.817445339277386,6.926161198937892
1761841498136244200,2.448244140625,-0.9827204127728939,3.7918718243300913,11.302189002251625
1761841498146313500,2.4583134765625,-1.474919408071041,2.1457740118205546,15.107641608166693
1761841498156383200,2.46838330078125,-1.7481553344488143,1.2456237457066774,18.379805668026208
1761841498166452500,2.478452392578125,-2.4687784699738025,2.0065742154449224,20.36630915534496
1761841498176522200,2.488522216796875,-1.6683511453717945,3.0651158851385114,20.85123552929163
1761841498186591500,2.498591552734375,-0.2583101051256992,3.7294466400772333,20.454181500065324
1761841498196661200,2.5086611328125,0.3990969697633758,5.717344796624779,19.500050052917004
1761841498206730200,2.518730224609375,0.9541150805354118,7.5978966771751635,18.425613479477168
1761841498216800300,2.52880029296875,1.5764011759489773,9.040079936814308,17.160414680206774
1761841498226869200,2.538869140625,1.984597361436486,10.419011498248576,15.369298155909776
1761841498236939500,2.548939453125,2.32193254275918,10.921212832123041,12.963987072718142
1761841498247008300,2.55900830078125,2.312218957996368,11.108526378804445,9.660892452543973
1761841498257078500,2.56907861328125,1.826310587275028,10.84907464762926,5.534675276356936
1761841498267147300,2.579147216796875,1.189717149567604,10.836638359904288,0.6419762997895478
1761841498277217300,2.58921728515625,0.6914554201643913,11.450659900319575,-4.7888189153760665
1761841498287286300,2.599286376953125,1.1877809938732533,12.29393092586994,-10.640449432849884
1761841498297356300,2.609356201171875,3.0329613359868524,12.858705328035354,-16.175083792674542
1761841498307426300,2.61942626953125,5.683506239908933,12.376260834032296,-20.30940945651531
1761841498317495300,2.629495361328125,7.900665572029352,11.624603093296288,-22.316089470422266
1761841498327565300,2.6395654296875,9.993999787038565,9.655966102057695,-22.17773547722101
1761841498337634300,2.64963427734375,9.783158065253495,8.361407937312126,-20.181929908549783
1761841498347704300,2.659704345703125,7.500035437881946,7.660986462816596,-17.46423629898429
1761841498357773300,2.669773193359375,5.115944837373495,6.623768151658773,-14.421499418914317
1761841498367843300,2.67984326171875,3.157302001404762,5.755329951626062,-11.221959865760802
1761841498377912300,2.689912353515625,1.802502426186204,5.610101396480203,-8.246233744168281
1761841498387982300,2.699982421875,0.6721411364287138,5.963049157476425,-5.400756635254621
1761841498398051300,2.71005126953125,-0.23345095541290936,6.766176973208784,-2.700914616461098
1761841498408121300,2.720121337890625,-0.6916354529064148,7.938888627439737,-0.2212387587673962
1761841498418190300,2.7301904296875,-1.028332336325571,9.268383081009983,2.415815526071191
1761841498428260400,2.74026025390625,-1.6071376749962567,9.47606020128429,5.700030089208483
1761841498438329300,2.750329345703125,-2.634352770794928,7.887028676342964,10.321618460988997
1761841498448399400,2.7603994140625,-2.9144530299842355,4.7286418023109436,15.78011299946308
1761841498458468400,2.77046826171875,-3.6356606873989104,2.4397025976151228,20.898654283070563
1761841498468538400,2.780538330078125,-4.001422337260842,0.28490941303670403,24.285039765393734
1761841498478607400,2.790607421875,-2.489663437092304,-1.6484662952065468,25.56623225260973
1761841498488677400,2.800677490234375,-0.44284123628064986,-1.1606664116501808,24.80409520343542
1761841498498746400,2.810746337890625,0.08982640139758587,1.0474334157019853,22.37011799772978
1761841498508816100,2.820816162109375,0.568643937075138,3.6472985182225703,19.252281745272875
1761841498518885400,2.830885498046875,0.8160795056335628,5.646192116037011,15.998569872426986
1761841498528955100,2.840955078125,0.9601105215579271,7.1319070588886735,12.72062722916603
1761841498539025400,2.851025390625,0.6297194602847099,7.984559076246619,9.173674752789735
1761841498549094400,2.861094482421875,-0.2747376361776143,8.271960306099057,5.176956647697091
1761841498559164200,2.8711640625,-0.9831944600254297,8.445220192986726,0.9971475820541381
1761841498569233400,2.8812333984375,-0.5041004454940557,9.363962346845865,-3.437008000579476
1761841498579303200,2.89130322265625,1.3615993183612822,11.025863293164967,-8.64292536982298
1761841498589373000,2.901373046875,4.677194523668289,11.855537170517444,-14.335757071959971
1761841498599443000,2.91144287109375,7.58430712776184,11.41918924177885,-19.12004535816908
1761841498609512000,2.921511962890625,9.876225640529393,9.188763016328215,-21.6587946054697
1761841498619582000,2.93158203125,9.65252677525878,8.046464036017657,-21.233823810791968
1761841498629651000,2.94165087890625,8.387979133373499,7.398530289128423,-18.99770025048256
1761841498639721000,2.951720947265625,5.7312768758654595,7.674370845046639,-15.56243237156868
1761841498649790000,2.9617900390625,3.8425884506106374,7.545629898843169,-12.090000590908527
1761841498659860000,2.97185986328125,2.7465637302190062,6.873123436233401,-8.757469448369742
1761841498669929000,2.981928955078125,1.8219471313685178,6.326313729825616,-5.8723991647362705
1761841498679999000,2.9919990234375,1.055755253845453,5.880425819325446,-3.2886104600086807
1761841498690068000,3.00206787109375,0.6662556585866958,5.832981931105255,-0.7892148795835673
1761841498700137700,3.0121376953125,-0.15519056171178816,5.853547164750099,1.900789781937003
1761841498710207000,3.02220703125,-1.88962848258391,4.794529109716415,5.338416206675768
1761841498720276700,3.03227685546875,-3.823066004016995,2.475711484107375,10.049797077584266
1761841498730346000,3.042345947265625,-4.891394323709607,-0.36910043889582156,15.149805510157346
1761841498740416000,3.052416015625,-5.459361384436487,-1.5749030463457108,20.00362735131979
1761841498750485000,3.062485107421875,-5.5759968823045485,-1.2458347581088542,23.633382029545306
1761841498760555000,3.072554931640625,-4.939195939326286,-0.6007710136979818,24.749517225551603
1761841498770624000,3.0826240234375,-2.5137784721732137,-0.8485264618605375,23.54926231535673
1761841498780694000,3.092694091796875,-1.3831383654743432,1.111262037011981,21.227906111180783
1761841498790763800,3.102763671875,-0.44329730948507784,3.386404771545529,18.198693898594378
1761841498800833000,3.1128330078125,0.34145489160120485,5.077480958944559,14.951375526177882
1761841498810902800,3.12290283203125,0.6896686098128557,6.119562492224574,11.442345660960674
1761841498820972000,3.132971923828125,0.12315174789428711,6.637810705536603,7.256239541000127
1761841498831042000,3.1430419921875,-1.2998095094025135,7.078464222514629,2.491560210624337
1761841498841111000,3.153111083984375,-2.1793419349014758,7.815624066820741,-2.5689567540377376
1761841498851181000,3.16318115234375,-1.3460779241025447,9.15624723264873,-7.387751120960712
1761841498861250000,3.17325,1.2345908950388431,10.57154365440607,-12.009261751329898
1761841498871320000,3.183320068359375,4.416869516789913,11.238476116275788,-15.985109502351284
1761841498881388800,3.193388916015625,7.0324296165704725,11.188102019822598,-18.88765815953016
1761841498891459000,3.203458984375,9.408588255035877,10.031043277275561,-19.940071117210387
1761841498901527800,3.21352783203125,9.780974291473626,8.951545328792928,-18.639147509086133
1761841498911598000,3.22359814453125,8.293197739917039,9.070946784242986,-15.857106222772597
1761841498921666800,3.233666748046875,6.506372775334119,8.81125598361492,-12.711415164184569
1761841498931736800,3.24373681640625,5.052272867929935,7.8834023025393485,-9.564669043585658
1761841498941805800,3.253805908203125,3.992420115637779,7.064063941240311,-6.761973091778159
1761841498951875800,3.263875732421875,3.0889222926616666,6.3782467461586,-4.370649325145781
1761841498961945000,3.273945068359375,2.2751707915842534,6.160534554082155,-2.314988714970648
1761841498972014800,3.284014892578125,1.608731666189432,6.3902884816080325,-0.41636283306926486
1761841498982084000,3.294083984375,0.9237550135850906,6.57347413470447,1.6934730194076895
1761841498992153900,3.30415380859375,-0.8950140722692013,5.99688888323605,4.538104617407917
1761841499002223000,3.31422314453125,-3.0559885758310554,3.8886563743025064,8.66957255373001
1761841499012292900,3.32429296875,-4.080491197800636,0.7618897964149713,13.698705369091034
1761841499022362000,3.334362060546875,-5.127558702799678,-1.2047598203986882,18.78612787633538
1761841499032431900,3.344431884765625,-5.907288107287884,-1.2191127553999423,22.41209602175951
1761841499042502000,3.354501953125,-5.798888522845506,-1.1417021834611891,24.14720248954296
1761841499052571100,3.364571044921875,-4.868000004118681,-1.2246277194291353,23.66457445566654
1761841499062641000,3.374640869140625,-3.2816005812466145,-0.7332377024263144,22.109923923754693
1761841499072710100,3.384710205078125,-1.6470827318936585,1.627932041221857,19.83569655050039
1761841499082780000,3.39477978515625,-0.6681003366053104,3.9626375563144682,16.724875729763507
1761841499092849000,3.404848876953125,-0.23490411336328834,5.769549615636468,13.066813825464248
1761841499102919000,3.4149189453125,-0.24890812532901763,7.1288979402005666,8.435380351495743
1761841499112988000,3.42498779296875,-0.6514239270925521,7.961689657312631,3.060183689433336
1761841499123058000,3.435057861328125,-0.4021639926511794,8.778494116219878,-2.537487849062681
1761841499133127000,3.445126953125,1.5171639740824698,10.268071579718589,-8.301422547426819
1761841499143197200,3.455197265625,4.300118283587694,11.504373954850434,-13.84102943496704
1761841499153266000,3.465265869140625,6.876897694075107,11.36454579744339,-17.993823652434347
1761841499163336000,3.4753359375,8.893999733275175,9.935244815731048,-19.942488699746132
1761841499173405000,3.485405029296875,8.881964427566528,8.92832578124702,-19.47332921925187
1761841499183475000,3.495474853515625,6.698827776557207,8.642596868520975,-17.00928537658453
1761841499193544000,3.5055439453125,4.806024317198991,8.249950718864799,-13.978546392822265
1761841499203614000,3.515614013671875,3.659264850348234,7.554100790068507,-10.850206282007694
1761841499213683000,3.525682861328125,3.0288766970217225,6.459135223340988,-8.057420314317941
1761841499223753000,3.5357529296875,2.528565706938505,5.138278834256529,-5.824667691746353
1761841499233822000,3.545822021484375,1.9850550420761108,4.112071746456623,-3.92789795910567
1761841499243892000,3.55589208984375,1.5235972220003604,3.5684792485296724,-2.126237244440615
1761841499253961000,3.5659609375,0.7634393639445305,3.4365409675896164,-0.030978491109609603
1761841499264031000,3.576031005859375,-0.3308692001789808,3.2759435783982274,2.6579735926181076
1761841499274100000,3.586099853515625,-1.6045120026677846,2.8095898029744624,5.97076075476706
1761841499284170000,3.596169921875,-2.302939088475704,1.7613690362870693,10.056049123716354
1761841499294239000,3.606239013671875,-2.3558505944520234,0.6303022286087274,13.916831402665375
1761841499304309000,3.61630908203125,-2.7845260888665915,0.9013882834762335,16.938666949003935
1761841499314379000,3.62637890625,-3.324897286659479,1.0506932942807674,18.650592447686194
1761841499324447700,3.63644775390625,-2.074179432684183,-0.43234044666290283,19.169320553469657
1761841499334518000,3.64651806640625,-0.5516571464389562,-1.1788976493895054,18.678460113298893
1761841499344586800,3.656586669921875,0.6543471210628747,0.11921148583590983,16.87752245221138
1761841499354657000,3.666656982421875,1.258371583598852,1.728106818154454,14.278425995975732
1761841499364725800,3.676725830078125,1.348671447727084,3.2505677296012636,11.248753180140255
1761841499374796000,3.686796142578125,1.3175608546704054,4.33266972310245,7.9377686834990975
1761841499384865000,3.696864990234375,1.3445453077077865,5.0548132000625134,3.9096798731088636
1761841499394934800,3.706934814453125,1.3165724281549454,5.6936243138194085,-0.36792321180999277
1761841499405004000,3.717004150390625,1.5714432612806557,5.934814412117004,-4.748524898910522
1761841499415073800,3.72707373046875,1.2347118910700081,6.078373572745919,-8.845472141471504
1761841499425143000,3.73714306640625,1.4761626861304045,6.510979976868629,-12.693726362758873
1761841499435212800,3.747212890625,2.1711866854965685,6.84869334385395,-15.79378496646285
1761841499445282000,3.757281982421875,2.7951836764812468,6.725394296443462,-17.72183041959405
1761841499455351800,3.767351806640625,2.8352660960227247,6.363459511393308,-18.041461017400025
1761841499465421000,3.777421142578125,2.5131115326970814,5.941478546181321,-16.729219896447656
1761841499475491000,3.787490966796875,2.0805752712011336,5.673045636171103,-14.392856677275896
1761841499485560000,3.79756005859375,1.5762053611159323,5.141885918837786,-11.764660383284092
1761841499495630000,3.807630126953125,0.9236585674732923,4.131050003170967,-9.09986892734468
1761841499505698800,3.81769873046875,0.43280572608709333,3.503952708083391,-6.728420366266369
1761841499515769000,3.82776904296875,-0.024013693598285316,3.4517893901258705,-4.506772782815992
1761841499525837800,3.837837890625,-0.5170959014717489,3.62193494438529,-2.4059108026504514
1761841499535908000,3.847908203125,-1.697614064735174,3.7226200089275836,-0.1596376042485237
1761841499545976800,3.857976806640625,-3.5211434968590734,2.8788188220232724,2.9139830743849275
1761841499556046800,3.868046875,-5.329939470231532,1.5715198336482048,7.057335509768128
1761841499566115800,3.87811572265625,-4.761550384700298,0.9241612562984227,11.610082400512695
1761841499576185900,3.888185791015625,-4.371639212965965,1.6834908468365668,15.857458104950188
1761841499586255600,3.898255615234375,-2.746667190593481,0.5249053331136703,18.398610906261204
1761841499596324400,3.908324462890625,-0.39742107244040814,-0.7200690087735653,19.414483062529563
1761841499606394600,3.91839453125,1.3006471292704342,-0.3820522749274969,19.097602055692672
1761841499616463400,3.92846337890625,2.3368951340913773,0.16981179226040838,17.888508005481956
1761841499626533600,3.93853369140625,2.570983291429281,1.3728092791616915,15.898011064612865
1761841499636602600,3.9486025390625,2.275502800017595,2.9190198995083567,13.45198803180456
1761841499646672400,3.95867236328125,1.727064615625143,3.914678704309463,10.557615666818618
1761841499656741600,3.96874169921875,1.1588263367414473,4.697544068735838,6.782195211073756
1761841499666811400,3.978811279296875,0.383698873090744,6.06522299927175,2.0580401987880466
1761841499676880600,3.988880615234375,0.08875270775146782,7.756326074677705,-3.602046587088704
1761841499686950400,3.998950439453125,1.559682096338272,9.451064291715621,-9.291163652616738
1761841499697019600,4.00901953125,4.363148447996378,10.232476534724235,-14.227322416204213
1761841499707087600,4.019087646484375,7.152220363599062,9.785823485070466,-17.64625524638891
1761841499717157600,4.02915771484375,8.833212963879108,8.562182438591122,-19.12870095831156
1761841499727226400,4.039226318359375,7.987790897774696,8.816393346503377,-18.27342268410325
1761841499737296600,4.049296630859375,5.880336971998214,9.567416296467185,-15.613503218114376
1761841499747365400,4.059365478515625,4.129164920076728,9.282670549559592,-12.4117284532547
1761841499757435600,4.069435546875,2.65550691024363,8.048136937665939,-9.03850815745294
1761841499767504400,4.07950439453125,1.7992437166512012,6.915933819434047,-6.103204647141695
1761841499777574700,4.08957470703125,1.2516032585076986,6.196354640004039,-3.4755382222428914
1761841499787644700,4.099644775390625,0.7049930201947688,5.513808429417014,-0.955002384763956
1761841499797713400,4.10971337890625,-0.27668694361448287,4.485988061201573,1.9543698348246514
1761841499807783700,4.11978369140625,-1.804732377195358,2.7061913878202435,5.5502405097573995
1761841499817852400,4.129852294921875,-3.269428789676726,0.010017536145448685,9.914094475674629
1761841499827922700,4.139922607421875,-5.107084070047736,-1.5566004969358442,14.84525791519284
1761841499837991400,4.149991455078125,-5.976288578277826,-2.0341911211669443,18.36641310248971
1761841499848061400,4.1600615234375,-6.196859666916728,-2.0851655216008425,19.924279673838615
1761841499858130400,4.17013037109375,-5.112773221600055,-2.436111879646778,19.34226187592745
1761841499868200400,4.180200439453125,-4.550245137056708,-2.5341040518432854,17.637298032951353
1761841499878269400,4.19026953125,-3.3477971007317304,-0.8994237054049968,15.331050550580024
1761841499888339500,4.20033935546875,-1.5817308465391398,0.9460574462860822,12.81286945953369
1761841499898408400,4.210408447265625,-0.11223112542927265,2.6183091062277555,9.80083108458817
1761841499908478500,4.220478515625,0.7464169174730777,4.023566364529729,5.668167216479778
1761841499918547700,4.230547607421875,0.8075618526570498,5.160859499377012,0.24311551340222357
1761841499928617500,4.240617431640625,1.3060796757131814,6.301767902112007,-5.804518637686967
1761841499938686700,4.250686767578125,3.161584208768606,7.684054619193077,-11.540967363232374
1761841499948756500,4.260756591796875,5.964878126469254,8.502812550255655,-15.657648649311065
1761841499958825500,4.270825439453125,9.22624080632925,6.629464317473769,-17.765637997138498
1761841499968895500,4.2808955078125,9.343042308413981,5.649124077835679,-18.0015229747653
1761841499978964500,4.290964599609375,7.550423562860488,6.780085671573877,-16.242925741279123
1761841499989034500,4.301034423828125,5.393377046397328,7.048200601676106,-13.18206634454131
1761841499999103500,4.311103515625,3.304665230491757,6.524252130895853,-9.82017116035223
1761841500009173500,4.321173583984375,1.5540636719346046,5.6943514590501785,-6.628263124990463
1761841500019242500,4.331242431640625,0.0028419454276561737,4.509144480383396,-3.4353140561431643
1761841500029312500,4.3413125,-1.3465522636160254,3.055512190490961,0.058508796260412776
1761841500039381500,4.351381591796875,-2.990637859520316,1.377004977285862,4.319179542410374
1761841500049451500,4.361451416015625,-4.6936482303410765,-1.0100935728669167,9.917848275250195
1761841500059520500,4.3715205078125,-5.125550870108604,-3.01791574254632,15.88129140048027
1761841500069590500,4.381590576171875,-5.81335543961525,-3.336483679556846,20.28138513903618
1761841500079660300,4.391660400390625,-5.593458889237046,-2.819324430525303,21.755916424572465
1761841500089729500,4.4017294921875,-3.922844475108385,-2.216110115328431,20.3034590236783
1761841500099799600,4.411799560546875,-2.699584536901116,-0.6288134513556957,17.71222555590272
1761841500109868500,4.42186865234375,-0.8919821572273969,1.7694027051389216,14.774717813545465
1761841500119938600,4.4319384765625,0.8344766014590859,3.6332992189645763,11.64548806041479
1761841500130007600,4.442007568359375,1.612741486352682,5.1401212472528215,8.129241687947511
1761841500140077600,4.45207763671875,1.3435644799768924,5.440541533154249,4.030369322542846
1761841500150146600,4.462146484375,0.33630350018739696,5.54434502197802,-0.8319391919359564
1761841500160216600,4.472216552734375,0.0670551821410656,5.597485076013207,-5.462499682462215
1761841500170285600,4.48228564453125,1.2280977336272596,5.238478745630383,-9.0012291048944
1761841500180355600,4.49235546875,3.166653767117858,5.260030067703128,-11.478854898190498
1761841500190424300,4.50242431640625,4.315012485858798,5.667332519221305,-13.391873462581634
1761841500200494600,4.51249462890625,4.600318789258599,6.017237843781709,-14.681300694179534
1761841500210563300,4.522563232421875,4.767605446955561,6.224619195979833,-14.844204606747626
1761841500220633600,4.532633544921875,5.44688008852601,5.836354037886857,-13.59950966632366
1761841500230702600,4.54270263671875,5.1374266013413665,5.809314639791846,-11.632779385489224
1761841500240772600,4.552772705078125,4.413512023055553,5.704709771457314,-9.435857370233535
1761841500250841600,4.562841552734375,3.656543608690798,5.107948577922582,-7.133868714350461
1761841500260911400,4.572911376953125,3.0505630436509845,4.789153846418857,-4.654917809930444
1761841500270980600,4.582980712890625,1.7932643499806522,4.604018228298425,-1.855860214625299
1761841500281050400,4.59305029296875,-0.47972471365034575,3.759119309285283,1.7606687790632247
1761841500291119600,4.60311962890625,-3.1149080900505184,1.9851912356764077,6.9473138770818705
1761841500301189400,4.613189453125,-4.42474536473155,0.006437924093008041,12.541003652465342
1761841500311258600,4.623258544921875,-5.975892272436618,-2.1448422839283943,17.78726764514446
1761841500321328600,4.63332861328125,-7.363401108080148,-2.922068765684962,21.39473567276001
1761841500331398400,4.6433984375,-5.171209043955803,-3.3918782345205543,22.166830636847017
1761841500341467600,4.653467529296875,-3.385119992431998,-2.7048230220764875,20.929030716633797
1761841500351537400,4.663537353515625,-1.4011457313299178,-0.4731418281286955,18.174304138225317
1761841500361606700,4.673606689453125,0.14312339956015346,1.966820297205448,14.560639009535311
1761841500371676400,4.683676513671875,1.0741275074906647,4.203402122676373,10.598694696182012
1761841500381745700,4.69374560546875,2.5213524145588275,5.747334861218929,6.380431688982248
1761841500391815400,4.7038154296875,3.8713545263677833,7.1492422245711085,1.4700903804793952
1761841500401884700,4.713884765625,4.4379961837098,8.11398683567047,-4.305949181698263
1761841500411954700,4.72395458984375,5.104090733450651,8.088353797242045,-10.258992785727978
1761841500422023400,4.7340234375,6.213784498232603,7.93692521841228,-14.818784918808936
1761841500432093700,4.74409375,7.932661131227016,7.288171971833705,-17.1606286152184
1761841500442162400,4.754162353515625,7.4517965998917814,6.4299021145939825,-17.192527143782375
1761841500452232700,4.764232666015625,5.325741434019804,6.470274456992745,-15.350809728538989
1761841500462301400,4.774301513671875,3.651567866104841,6.543395807304978,-12.60997840449214
1761841500472371500,4.784371337890625,2.1661212188005448,6.338311626133322,-9.533113044849038
1761841500482440400,4.7944404296875,0.9358224679976701,5.36056666368544,-6.500216590791941
1761841500492510500,4.804510498046875,-0.14012801713645456,4.297183983701467,-3.2151629464820024
1761841500502579500,4.814579345703125,-1.2323732189893721,2.9955946051448583,0.7680868974894285
1761841500512649500,4.8246494140625,-2.102335852110386,0.9917080213487147,5.900341649150848
1761841500522718500,4.834718505859375,-2.075870746771991,-0.7477595642536878,10.887051034802198
1761841500532788500,4.84478857421875,-3.0954432188630103,-2.1092443163245913,15.226927328282594
1761841500542857700,4.854857666015625,-3.9337425934806465,-2.580386495068669,18.160005563759803
1761841500552927500,4.864927490234375,-3.891239961054921,-3.032773119938373,18.920870693302152
1761841500562996700,4.874996826171875,-3.540200664028525,-3.1946424287617203,17.88059825527072
1761841500573066500,4.88506640625,-3.4161472911193966,-1.794395107576251,15.986227108204364
1761841500583135500,4.895135498046875,-3.107138625092804,-0.08293371927440166,13.928166451150178
1761841500593205000,4.905205078125,-3.2234862459301947,1.2076613870590924,11.867129408633708
1761841500603274800,4.915274658203125,-4.021886448618769,2.279421434766054,9.217901432529091
1761841500613344000,4.925343994140625,-5.056900527730583,3.549235034355521,5.9780158404618495
1761841500623413800,4.935413818359375,-4.669934177276492,4.913877958196402,1.6446747939690947
1761841500633483000,4.94548291015625,-3.5578391965717073,6.609812691542506,-4.195371376433968
1761841500643553000,4.955552978515625,-2.1130548145234584,7.942359518420695,-9.843923791861533
1761841500653622000,4.9656220703125,1.2664262952387333,8.429895198082923,-13.96156603192687
1761841500663692000,4.975692138671875,5.369826074939966,7.989695270091294,-16.216863079261778
1761841500673760800,4.9857607421875,8.312977960664034,8.398796295464038,-16.464111162424086
1761841500683831000,4.9958310546875,10.700456450045108,7.527521410700678,-15.872610081374644
1761841500693899800,5.005899658203125,11.575193457961081,7.43633950304091,-13.374632404923439
1761841500703970000,5.015969970703125,10.2161672049582,8.497586340039968,-10.538983447062968
1761841500714038800,5.026038818359375,8.039329361832142,8.21678553136587,-8.163015362733603
1761841500724109000,5.036109130859375,5.727179377418756,7.5268287522614,-5.8945747561872
1761841500734177800,5.046177734375,3.795219965714216,7.109937219142913,-3.8097885892927645
1761841500744247800,5.056247802734375,1.8771721749842165,7.132887886619567,-1.7592780553571878
1761841500754316800,5.06631689453125,-0.15171426390334963,6.4398845794260495,0.9004110359419136
1761841500764386800,5.07638671875,-2.4940865142315625,4.228551176980138,5.172889544388651
1761841500774456000,5.0864560546875,-3.5790818910866973,1.0480571005582808,10.313042355823516
1761841500784525800,5.09652587890625,-4.914510995402932,-0.6256161166191101,15.251063406151532
1761841500794595000,5.106594970703125,-6.698623193895816,-1.941618635931611,19.28177204365134
1761841500804664800,5.116664794921875,-8.313481818532944,-3.5521921305954454,21.323440368831157
1761841500814734000,5.126734130859375,-7.2921736086905,-3.837938578978181,20.744069286036492
1761841500824803800,5.136803955078125,-5.594360221990943,-3.29552155457139,19.07960813384056
1761841500834873000,5.146873046875,-3.3528660745590924,-0.5077028539001941,16.41817007998228
1761841500844942800,5.15694287109375,-0.9998818293236196,2.368250057297945,12.848079889124632
1761841500855012900,5.167012939453125,0.6987924850542098,4.614855264133214,8.65427795396447
1761841500865081900,5.177081787109375,1.3606097228020428,5.850724508544802,3.90903397642076
1761841500875152000,5.18715185546875,1.8440777146339415,6.983688089755177,-2.0293340365245935
1761841500885221000,5.19722119140625,2.6709862189263105,8.266085861107706,-8.455856153291464
1761841500895291000,5.207290771484375,4.820549686157703,8.462415657937527,-14.169058443284033
1761841500905360000,5.21735986328125,6.767896636608243,8.565953773823379,-17.749882794123888
1761841500915430000,5.227429931640625,8.581112764510511,8.035511264848708,-18.997557627141475
1761841500925499000,5.237498779296875,7.425066413876414,7.562959803828597,-18.079921388697624
1761841500935569000,5.24756884765625,5.116615868502855,7.909827368128299,-15.60517728831768
1761841500945638000,5.257637939453125,3.5062492945879695,7.73962511524558,-12.512317656207085
1761841500955708000,5.2677080078125,2.031097831326723,7.31787328261435,-9.399677803349494
1761841500965777000,5.27777685546875,1.1788764604710043,6.655294339779019,-6.63235360917449
1761841500975847000,5.287846923828125,0.5059691619753838,6.083454821532964,-3.8830461332052946
1761841500985916000,5.297916015625,0.3200865248799324,5.510155752128362,-0.8996744652956724
1761841500995986000,5.30798583984375,-0.36591128746569157,4.7773733922541135,2.594590376988053
1761841501006055000,5.318054931640625,-1.9822719872288406,2.8878005853801962,7.226004561734199
1761841501016125000,5.328125,-3.189315096259117,-0.24666297675073146,12.857122442758083
1761841501026194000,5.33819384765625,-3.7233676124244925,-1.7931418926447629,17.546814044427872
1761841501036264000,5.348263916015625,-4.999237443313002,-1.724970273694396,20.222628998684883
1761841501046333000,5.3583330078125,-4.739742457517981,-3.1800369803041217,21.14638868844509
1761841501056403000,5.36840283203125,-3.57741717274487,-3.273233150395751,20.09607533339262
1761841501066472000,5.378471923828125,-2.360816400165856,-1.4406827919483185,17.767710711759328
1761841501076542000,5.3885419921875,-1.041401588191837,0.6966583225697278,14.952979454243183
1761841501086610700,5.398610595703125,0.07167641220092773,2.5050229187875983,11.91688508092761
1761841501096681000,5.408680908203125,0.7930944974958897,4.163639436608553,8.479607031235098
1761841501106751000,5.4187509765625,0.8105765243031084,5.662976662099361,4.215922581553459
1761841501116820000,5.428820068359375,0.7319361183084547,6.752202223870158,-0.8545055362701416
1761841501126890000,5.438889892578125,1.4195441423296928,7.531391530132293,-6.380356870180368
1761841501136958700,5.448958740234375,3.5582045227527614,8.211030328840017,-11.870641216146945
1761841501147029000,5.459029052734375,5.459811466291547,8.770854999643564,-16.40046841907501
1761841501157097700,5.46909765625,7.691428947353363,7.876286917576193,-18.744527453446388
1761841501167168000,5.47916796875,7.3310489905297755,6.440979973447322,-18.862730639022587
1761841501177236700,5.48923681640625,5.236493709293008,6.522891363936663,-16.769325112342834
1761841501187307000,5.49930712890625,3.78650299077332,6.71170771639645,-13.634861550211905
1761841501197376000,5.5093759765625,2.4364411116011437,6.814999748566747,-10.251960987395048
1761841501207445800,5.51944580078125,1.3879483961045742,6.389371366763115,-7.00824560790658
1761841501217515000,5.529514892578125,0.8134471113033592,5.775557331618666,-4.270183748573064
1761841501227584800,5.539584716796875,0.3668096976101398,5.444357292050123,-1.6913588037326932
1761841501237654000,5.549654052734375,0.003985270243883132,5.088260711634159,1.031205772870034
1761841501247723800,5.559723876953125,-0.11816928330659866,3.9711172153681513,4.453277047210931
1761841501257793000,5.56979296875,0.31119886954724785,2.5407921513050793,8.627841197937727
1761841501267862800,5.57986279296875,-0.2805535559147596,1.3183610651373863,12.730262487995624
1761841501277932000,5.58993212890625,-1.5086290777102112,-0.9238514596968889,16.248963852399587
1761841501288002000,5.600001953125,-2.464724226146936,-2.0924299596458673,18.655455669808386
1761841501298071800,5.61007177734375,-3.0921658046275375,-1.8388626103341579,19.347603236955404
1761841501308141000,5.62014111328125,-1.9513824895769356,-1.694072446605563,18.134356743240357
1761841501318210800,5.6302109375,-1.2566440291538834,-0.3827677297204733,16.36878499456644
1761841501328280000,5.640280029296875,-0.4186313625231385,1.3663228397518397,13.819206894737482
1761841501338349800,5.650349853515625,0.03188011612445116,2.9436949065595863,10.926885032540559
1761841501348419000,5.660419189453125,0.7566118560120463,3.9560102471292016,7.656252420032024
1761841501358488800,5.67048876953125,1.0525397989302874,4.4064182654023165,4.017546373587846
1761841501368557800,5.680557861328125,1.1065911225914955,4.70305903276503,-0.1279927581846714
1761841501378628000,5.690628173828125,1.7574217599660158,5.4934127071201795,-4.930054016971588
1761841501388696800,5.70069677734375,2.9197148960351944,6.226769067490101,-10.026736519992351
1761841501398767000,5.71076708984375,4.198526041072607,6.049854165226221,-14.149153134852646
1761841501408835800,5.7208359375,4.959516258299351,5.614531487882137,-16.513538333415983
1761841501418905900,5.73090576171875,4.7846904372692105,5.279304092493653,-16.866984691584108
1761841501428974800,5.740974853515625,3.700332773795724,5.148385217729211,-15.198775585031509
1761841501439044900,5.751044921875,2.621092014944553,4.9961669498264785,-12.572922054773569
1761841501449113900,5.76111376953125,1.771173806464672,4.906233580923081,-9.694754390135406
1761841501459183900,5.771183837890625,1.260535191373527,4.443652309775352,-6.819523947992921
1761841501469252900,5.7812529296875,1.0230695204265414,3.891170987471938,-4.1989448510065674
1761841501479323000,5.791322998046875,0.7923252666890621,3.523905947309732,-1.6516536930710077
1761841501489391900,5.801391845703125,0.6217524269282817,3.064751728001237,0.9885355287924409
1761841501499462000,5.8114619140625,-0.08881561691984534,2.315650686010718,4.205424568414688
1761841501509532000,5.821531982421875,-1.0426209008537233,0.8787894981771707,8.35854436457455
1761841501519601000,5.831600830078125,-1.3913266403660178,-0.3778080614864826,12.131167298555374
1761841501529671000,5.8416708984375,-1.673382125276327,-1.0715519579142332,14.681636209744214
1761841501539740000,5.851739990234375,-1.8011241235703228,-1.6198270606994627,16.097997045862673
1761841501549810000,5.861809814453125,-1.1797779393553733,-1.9741911182343959,16.17663394472599
1761841501559879000,5.87187890625,-0.5692191066145896,-1.1434738693088293,14.982454555052518
1761841501569949000,5.881948974609375,-0.20520926885604857,0.20553660111427305,13.156581190150975
1761841501580018000,5.892017822265625,-0.21375439436137675,1.4956418781042098,10.783730945581198
1761841501590089200,5.902089111328125,-0.23874738132059573,2.4262650238931176,8.29213157199025
1761841501600158200,5.912158203125,-0.016549714393168685,3.197680189022422,5.625336375012994
1761841501610228200,5.922228271484375,0.22162673517167567,3.872412510988116,2.45181213760376
1761841501620297500,5.93229736328125,0.4644727839827537,4.354567082133889,-1.270622870145738
1761841501630367200,5.9423671875,1.360147804378718,4.986785373497009,-5.442999447700381
1761841501640436500,5.9524365234375,2.667656197720766,5.744110053953528,-9.801225636863707
1761841501650506200,5.96250634765625,3.952202671539783,5.859795703750849,-13.266018885469435
1761841501660575500,5.972575439453125,4.807466332700848,5.529502257633209,-15.194330880582331
1761841501670645200,5.982645263671875,4.534198257619142,5.472383947616815,-15.297288566231726
1761841501680714500,5.992714599609375,3.797109140461683,4.799482932731509,-13.540045085442065
1761841501690784300,6.0027841796875,2.5646295384883877,4.936151164802909,-11.310773290723562
1761841501700854300,6.012854248046875,1.9306815007232128,4.777243628394603,-8.662645384815335
1761841501710923500,6.022923583984375,1.3783049539685248,4.415180833050608,-5.939221122643351
1761841501720993300,6.0329931640625,1.6051108453437686,4.428977303212881,-3.370572996163368
1761841501731062500,6.0430625,2.163947674153745,4.981932672768831,-0.9358466525908559
1761841501741132300,6.05313232421875,2.434910979424417,5.741125485184789,1.3011362279616296
1761841501751201300,6.063201171875,2.2888690620690584,5.67217236046791,3.796933783894777
1761841501761271300,6.073271240234375,0.9453712175875901,4.145452038010955,7.278869890481233
1761841501771340300,6.08334033203125,-0.3870901229642331,1.3754635930627583,11.227815606051683
1761841501781410300,6.093410400390625,0.03049363020211458,-0.8576479259490967,14.743214421778916
1761841501791479300,6.103479248046875,-0.9006791122935712,-1.0329939714610576,17.527654585927724
1761841501801549300,6.11354931640625,-1.396231071281433,-1.2392092024892567,18.289326355677844
1761841501811618300,6.123618408203125,-0.672644117514789,-1.5109434921324252,17.075476635372638
1761841501821688300,6.133688232421875,-0.787454153521359,-0.39078503195941444,15.20658479747772
1761841501831757300,6.14375732421875,-0.3582632569305598,1.3466308818101882,12.60671209617257
1761841501841827300,6.153827392578125,-0.0033037177205085754,3.0012989542663098,9.724984108704328
1761841501851896300,6.163896240234375,0.4118946016140282,4.521104382768273,6.728453684014082
1761841501861966300,6.17396630859375,1.1793828025579451,5.449163231027126,3.5471342626839872
1761841501872035300,6.184035400390625,2.0122657050848005,5.833153196018934,-0.2603910578519106
1761841501882105300,6.194105224609375,3.0824536811694503,6.272360021319985,-4.878621935898066
1761841501892174300,6.20417431640625,4.620419328001141,6.519475418013334,-9.800876677295564
1761841501902244400,6.214244384765625,5.279540239337086,6.519290709096193,-14.221108948516845
1761841501912314400,6.224314453125,5.300332267475127,5.91527559891045,-17.227867337232826
1761841501922383400,6.23438330078125,5.398811346405744,4.752587326043844,-18.120668409627676
1761841501932453400,6.244453369140625,3.205488816946745,5.11360441172719,-17.008229730051756
1761841501942522400,6.2545224609375,1.8080083301261067,5.218818351870775,-14.399473465067148
1761841501952592400,6.26459228515625,0.8720110900834203,5.246964249902963,-11.471178956735134
1761841501962661400,6.274661376953125,0.27828400354757904,4.920616911062598,-8.705701851731538
1761841501972731400,6.2847314453125,0.10491641850173472,4.028541230332851,-6.1941936625778675
1761841501982800100,6.294800048828125,-0.10215922874808311,3.131272072613239,-3.8102342872336505
1761841501992870400,6.304870361328125,-0.8837176022291183,2.101212401038408,-1.0266041973587126
1761841502002939100,6.314939208984375,-2.080397284285724,0.6500409483015537,3.065181936112046
1761841502013009400,6.325009521484375,-3.0361405505448578,-0.852992209097743,8.162848189473152
1761841502023078100,6.335078125,-2.709947233222425,-2.224219187504053,12.63099664260149
1761841502033148400,6.3451484375,-1.978926037801802,-2.002206667885184,15.522978313058614
1761841502043217400,6.355217529296875,-1.7378513825774191,-0.6888719064772129,16.937957339429854
1761841502053287200,6.365287109375,-0.5627950649164617,-1.3544751655697822,16.74561105927825
1761841502063356400,6.3753564453125,-0.28015608102977274,-0.9579501286536455,15.779316880649327
1761841502073426200,6.38542626953125,0.08691796660497784,0.09465338316261768,14.302353984051942
1761841502083495400,6.395495361328125,0.3649726914413273,1.1721265478193759,12.541501665115355
1761841502093565200,6.405565185546875,0.274948575514555,2.5375714356929064,10.414188023614884
1761841502103635200,6.41563525390625,-0.1159276418596506,3.7034184648513793,8.068001329565048
1761841502113704200,6.4257041015625,-0.5936262565098702,4.259281246286631,5.422866760253906
1761841502123774200,6.435774169921875,-0.873430601492524,4.980982240176201,2.1503394200399515
1761841502133843500,6.445843505859375,-0.4982342568743974,5.801458665594458,-1.7880922080397605
1761841502143913200,6.455913330078125,0.8604590378470718,6.8054276181012385,-6.013408056360483
1761841502153982500,6.465982421875,3.3599341132491825,7.753541996917128,-9.688414665719867
1761841502164052200,6.47605224609375,6.450410649615526,7.611281059405207,-12.835630741918086
1761841502174121500,6.48612158203125,8.074247530478239,7.596219099351763,-15.343096377682684
1761841502184191200,6.496191162109375,7.73994309515357,7.4467778949469325,-15.847115574634074
1761841502194260500,6.506260498046875,6.8981456492871045,6.426148899540305,-15.318268225896357
1761841502204330200,6.516330322265625,4.668188210391998,6.642854544922709,-12.905209889578819
1761841502214399200,6.526399169921875,3.6636341514736412,6.749516930308937,-10.16551253799796
1761841502224469500,6.536469482421875,2.586449740630388,6.687468762674928,-7.0127218765378
1761841502234538200,6.546538330078125,1.7680688261866568,6.261541105663776,-4.034018492700159
1761841502244608500,6.5566083984375,1.1355893996693194,6.012364684787392,-1.38018799123615
1761841502254677200,6.56667724609375,0.3962001888759434,5.903213405194879,1.1113487654473633
1761841502264747300,6.576747314453125,-0.5858091530181467,5.384076718610525,3.9437461011007424
1761841502274817300,6.5868173828125,-1.2016959027834235,4.34091381983459,7.494122998967766
1761841502284886300,6.59688623046875,-1.5534825110457837,2.7580560150921345,11.517192519891262
1761841502294956300,6.606956298828125,-1.936302263214439,1.2207383107751608,15.420155067443847
1761841502305025300,6.617025390625,-2.1111292532883583,0.30850714624524117,17.97035977473855
1761841502315095600,6.627095458984375,-2.43766948435232,-0.25225802027881145,19.025756132143734
1761841502325164300,6.637164306640625,-1.36510031221956,-0.8523778765916824,18.73485829234719
1761841502335234300,6.647234375,-0.5718627529911696,-0.5148515566110611,17.70006165537834
1761841502345303300,6.65730322265625,0.02840133409798145,0.737374948361516,15.918562854254246
1761841502355373300,6.667373291015625,0.4311322399169206,1.9104314705073833,13.745031066936253
1761841502365442300,6.6774423828125,0.2597852009132504,2.871945429122448,11.211281819880009
1761841502375512300,6.68751220703125,-0.33454964225739237,3.861465000516176,8.34254424688816
1761841502385581300,6.697581298828125,-1.08356373661682,4.831846156197786,4.980078569334745
1761841502395651300,6.7076513671875,-1.3013899104617535,5.54859800324738,1.123369531174004
1761841502405720300,6.71772021484375,-0.23681137175671754,6.669436846899986,-3.2152211064100262
1761841502415790300,6.727790283203125,1.808751549708843,8.034120102751254,-7.616327236878871
1761841502425859300,6.737859375,4.534387642711401,8.636291630896926,-12.128270408070087
1761841502435929300,6.747929443359375,6.4483478718668215,8.227073701146244,-16.14208987008929
1761841502445999400,6.757999267578125,7.982657626539468,7.2755328550130125,-18.645385526692866
1761841502456068400,6.768068359375,8.06506761420071,6.47181408765018,-19.232713121449947
1761841502466138400,6.778138427734375,6.580510609212517,6.512886687272787,-17.363046207529305
1761841502476207400,6.788207275390625,4.996420632326602,6.505447477182746,-14.412640405154228
1761841502486277400,6.79827734375,3.5520255418568847,6.447703728744387,-11.268622248214482
1761841502496346000,6.80834619140625,2.265158662266284,5.873562947818637,-8.01443515907228
1761841502506416400,6.81841650390625,1.5980775857061147,5.045032395282387,-5.2168233786612745
1761841502516485000,6.828485107421875,1.0649180728577077,4.816702947601676,-2.7400679384589193
1761841502526555400,6.838555419921875,0.5395518442340195,4.9611605183750385,-0.6348350497327745
1761841502536624400,6.848624267578125,-0.16188918256759643,4.9937066971927875,1.3688253240920603
1761841502546694400,6.8586943359375,-0.8048726135730743,4.449107068049908,3.7411055136889217
1761841502556763400,6.868763427734375,-1.4003274006843567,3.274400440609455,6.852290491563081
1761841502566833200,6.878833251953125,-2.3634259981423615,1.9697832386642693,10.499245310914516
1761841502576902400,6.88890234375,-1.6086019023299216,0.6189145731538533,13.970171363186836
1761841502586975000,6.89897509765625,-1.2094570383042096,0.48832653777897356,16.49159771976471
1761841502597044000,6.9090439453125,-1.4887813446849583,0.4499649506807327,17.432908263784647
1761841502607114000,6.919114013671875,-0.3697409287564456,-0.9652508070558309,17.05857927658558
1761841502617183000,6.929182861328125,0.019284546184539793,-0.5771808792740106,16.030252127891778
1761841502627253000,6.9392529296875,0.5871738655000924,0.666601622480154,14.21932732579708
1761841502637323300,6.9493232421875,1.2256864347018301,1.7837334283083677,12.20036533794403
1761841502647392000,6.95939208984375,1.3135047111473976,2.9335879385650157,10.050095183748006
1761841502657462000,6.9694619140625,1.0876631347596644,3.911603534647822,7.724411764022707
1761841502667531000,6.979531005859375,0.8536896898426115,4.644624379453063,5.217516037100554
1761841502677601000,6.98960107421875,0.49124213296473024,5.510652011212707,2.128307620973885
1761841502687670000,6.999669921875,0.6315940219849348,6.333799117144942,-1.5708610774785279
1761841502697740000,7.009739990234375,1.5629269234783947,7.491914090746641,-6.1453439992129795
1761841502707809000,7.01980908203125,2.792426486727595,8.502270698463917,-11.046650060606002
1761841502717879000,7.029879150390625,4.041127155661583,8.5628014472723,-15.272528218984602
1761841502727948300,7.0399482421875,5.871255255398154,7.803990327650308,-17.972008126467465
1761841502738018000,7.05001806640625,5.5549190229624505,7.257859835678339,-18.638313980871438
1761841502748087000,7.060087158203125,5.168237919190526,6.8054632739365095,-17.663151436132193
1761841502758157000,7.070156982421875,4.15978334570229,6.585123655965924,-14.569140295898913
1761841502768226000,7.08022607421875,3.503130285784602,6.626084027385711,-11.406143882244825
1761841502778296000,7.090296142578125,2.681291339841485,6.739212978437543,-8.143391209331154
1761841502788366000,7.100365966796875,2.1140831346578897,6.329079687407613,-5.178946944731473
1761841502798435000,7.11043505859375,1.704043951652199,5.901109126392006,-2.7327771969288586
1761841502808505000,7.120505126953125,1.1799205626964568,5.694053937408328,-0.620824060036987
1761841502818574000,7.130573974609375,0.3748369367212057,5.269494646140933,1.8004595221817492
1761841502828644000,7.14064404296875,-0.6017690848246217,3.9673447110921143,5.0323424250572915
1761841502838713000,7.150713134765625,-0.8396971125863492,2.093049552848935,8.84449306730628
1761841502848783000,7.160783203125,-1.7466361620575188,0.7989315330862998,12.744627697956561
1761841502858852000,7.17085205078125,-2.736756037431955,-0.4552683177858591,15.808770938670634
1761841502868922000,7.180922119140625,-2.9084193027779457,-1.0537567735046147,17.709103039968014
1761841502878991000,7.1909912109375,-3.2229055234327912,-0.26717092725038527,18.388981492650508
1761841502889060900,7.201060791015625,-2.0831924679622054,-0.327412922245264,17.25386219471097
1761841502899130000,7.211130126953125,-1.6920283735573292,0.25852760206758973,15.485428626865147
1761841502909200000,7.221199951171875,-1.1125351256877183,1.832165158522129,13.186443244451283
1761841502919269000,7.23126904296875,-0.33516587445959445,3.103291009753942,10.907740771609545
1761841502929339100,7.241339111328125,0.6817571060359477,4.041645042055845,8.556257140195369
1761841502939408100,7.251408203125,1.292125238510221,4.669516244125366,5.90134527323544
1761841502949478100,7.26147802734375,1.4458856212884186,4.730640282651782,2.86693403070122
1761841502959548000,7.2715478515625,1.8019173197746277,4.694608599805831,-0.5217705422192812
1761841502969617200,7.2816171875,2.4744272895157335,5.41797314299345,-4.209567659568786
1761841502979687000,7.29168701171875,3.833905962461233,6.702558195257186,-8.565703013932705
1761841502989756200,7.301756103515625,4.761713466307521,7.655552747330069,-13.26912620383501
1761841502999826000,7.311825927734375,6.323477045094966,7.234170332533121,-16.76896037068367
1761841503009895200,7.321895263671875,8.01200880870819,5.4593204679042096,-18.102338972210884
1761841503019965200,7.331965087890625,7.583557186177372,4.976436413440108,-17.203699695181847
1761841503030034200,7.3420341796875,6.037182315179705,5.154794500249624,-14.758050756382941
1761841503040104200,7.352104248046875,4.827253567710518,5.309871080192924,-11.910652908539772
1761841503050173000,7.3621728515625,3.4575802484869955,5.171175726208091,-8.755261124670506
1761841503060243200,7.3722431640625,2.329838931969553,4.804177228027582,-5.854734913229942
1761841503070312000,7.38231201171875,1.3474381065398453,4.638801956909894,-3.315353797766566
1761841503080382200,7.39238232421875,0.20485124919861553,4.416057031363248,-0.9678469610288739
1761841503090451000,7.402450927734375,-1.0053434557303786,3.5959359952539205,1.710283284433186
1761841503100521000,7.41252099609375,-1.7332826133571564,2.1126409730255604,4.984228674751519
1761841503110591200,7.42259130859375,-2.622062613542378,1.795605067887902,8.798199518164992
1761841503120660000,7.432659912109375,-2.6718922278553245,1.6073276446104048,12.328961322718857
1761841503130730200,7.442730224609375,-2.9346535219699144,1.1262965245366097,15.344474680298566
1761841503140799000,7.452799072265625,-3.6796126418501136,0.9984007969856261,17.482922294753788
1761841503150869200,7.462869140625,-3.1020746197015043,0.642048780503869,18.294313496440648
1761841503160938000,7.47293798828125,-1.3981411426864563,0.25117256312966346,17.819188385540247
1761841503171008000,7.483008056640625,-0.4394957252450287,1.3598679645240306,16.485055750775338
1761841503181077000,7.493076904296875,0.7491529183082282,2.289846967190504,14.507751468956469
1761841503191147000,7.50314697265625,1.1062503463298081,3.053430123519897,12.028068158608674
1761841503201216000,7.513216064453125,1.24096116072312,3.42976402080059,9.243017169085144
1761841503211286000,7.5232861328125,0.9614531683385371,3.8125171374738214,6.448778664499521
1761841503221355000,7.53335498046875,0.07642199929282069,4.286085666581988,3.198320825013518
1761841503231425000,7.543425048828125,-0.1732305146627128,4.694677573388815,-0.4940031221106648
1761841503241494300,7.553494384765625,0.9760206959385425,5.399211159378289,-4.557383318373561
1761841503251564000,7.56356396484375,2.649494518086314,6.244621535044908,-8.749593015906214
1761841503261634000,7.573634033203125,4.2132904794842005,6.59615241498053,-12.851894478976726
1761841503271703000,7.583703125,5.098735928419232,6.554413460403681,-16.234662939846515
1761841503281773000,7.59377294921875,4.329503952547908,6.566196252655983,-17.73284631912708
1761841503291842000,7.603842041015625,4.510800430896878,6.113885031110048,-18.34313627179861
1761841503301912000,7.613912109375,3.8155513906031846,5.952627716705202,-16.2984751945436
1761841503311981000,7.62398095703125,3.222899970474839,5.754288333618641,-13.735350215399265
1761841503322051000,7.634051025390625,2.930789832279086,6.139179631364345,-10.912034669411181
1761841503332120000,7.6441201171875,2.2971390238948164,5.782414357906579,-7.99641785634458
1761841503342190000,7.654190185546875,1.7095659299440682,5.2329322174191475,-5.275888146570325
1761841503352259000,7.664259033203125,0.6036550447016954,4.626381451275944,-2.454508537080884
1761841503362329000,7.6743291015625,-1.1854822884768248,3.702586690202355,1.0557147757045924
1761841503372398000,7.684398193359375,-2.789405677601695,2.5666134057819843,5.596579651606082
1761841503382468000,7.694468017578125,-3.410583519512415,1.8511773175060748,10.44919854671955
1761841503392537000,7.704537109375,-2.6579174785166977,1.3346855924725531,14.11583889427185
1761841503402606800,7.71460693359375,-1.55140526638031,0.553731614625454,16.17092550395131
1761841503412677000,7.724677001953125,-0.5346937366783618,0.26375439680516716,17.184971613836286
1761841503422746000,7.73474609375,0.32723464306890965,0.2969920650184154,17.07197184212208
1761841503432816000,7.744816162109375,1.1738444576531648,1.1416963382422924,15.835799230849743
1761841503442885000,7.754885009765625,1.3392403331674634,2.3805302776783703,13.934460582858323
1761841503452955000,7.764954833984375,1.0897235744208096,3.3839737450063225,11.605571060568094
1761841503463024000,7.775024169921875,0.7596580918401479,4.014582263085246,9.008622722277044
1761841503473094000,7.785093994140625,0.7089772675253451,4.220332214689255,6.166625856694579
1761841503483163100,7.7951630859375,0.8924813389211893,4.297061234104633,3.0824066271573303
1761841503493233000,7.80523291015625,1.1267927836209535,4.663208668413758,-0.4894964583411813
1761841503503302100,7.81530224609375,1.8178608849681912,5.185430461531877,-4.658957148449122
1761841503513372200,7.8253720703125,3.0821926921457052,5.754893313774466,-8.905520659720898
1761841503523441200,7.835441162109375,4.256228288456797,6.234612766727805,-12.837940772426128
1761841503533511200,7.84551123046875,4.733059034231305,5.791321302461624,-15.644314535963534
1761841503543580200,7.855580078125,4.175756575381755,5.370705780383944,-16.57609854222536
1761841503553650200,7.865650146484375,3.279695039886236,5.528816028934717,-15.692468618279694
1761841503563720000,7.875719970703125,2.8369863439440723,5.616562701448798,-13.600082497775555
1761841503573789200,7.8857890625,2.3616338540285824,5.484737817755342,-11.193650301599503
1761841503583859000,7.89585888671875,1.6179811405718325,5.008814834475517,-8.698687589055298
1761841503593930000,7.905929931640625,0.7273007135927677,4.477812353530526,-6.515886453610658
1761841503604000000,7.916,-0.6128223937585949,3.869526726418733,-4.165822625866532
1761841503614069000,7.926069091796875,-2.08165459087044,3.108403822723031,-1.0490222923286259
1761841503624139000,7.936138916015625,-2.709000015500188,2.567678404664993,3.1428011823654174
1761841503634208000,7.9462080078125,-2.758389192569256,2.0713070921182632,8.180669092845916
1761841503644278000,7.956278076171875,-2.41562058802098,1.1015016904979944,12.82242054721117
1761841503654347300,7.96634716796875,-1.5671088853381574,-0.49821606363058085,16.068801346516608
1761841503664417000,7.9764169921875,-1.402239225655049,-1.8747066616535186,17.87154985641837
1761841503674486300,7.986486328125,-1.287085344646871,-1.8297656961649655,17.69857229360342
1761841503684556000,7.99655615234375,-1.315818833308667,-0.8650479730725288,16.21156731094122
1761841503694625000,8.006625,-1.2126967508777975,0.07169277881383895,14.397144729858637
1761841503704695000,8.016695068359375,-0.44783539130613204,1.2471306431382894,12.463188591378927
1761841503714765000,8.02676513671875,0.1551334246970713,2.4623943218946454,10.338234080225229
1761841503724834000,8.036833984375,0.23581103560775518,3.3847260246783493,7.837678662240505
1761841503734904000,8.046904052734375,0.17851619998067617,4.104043338301778,4.7868221886008975
1761841503744973000,8.05697314453125,0.21733634450137615,5.179810868084431,0.8474000881791114
1761841503755043000,8.06704296875,0.4347473616741597,5.8463131218433375,-3.344468248569965
1761841503765112000,8.077112060546876,2.188145857473463,6.2670718517839905,-7.516744580620527
1761841503775182000,8.08718212890625,4.957083478194475,6.885456263583898,-11.513173347377776
1761841503785251000,8.0972509765625,6.720317139309644,6.825055863156915,-14.529732999140023
1761841503795321000,8.107321044921875,7.5501394852221,6.163893801382184,-16.04056192498207
1761841503805390000,8.11739013671875,6.57740972058773,5.240557305470109,-15.677369248825311
1761841503815459800,8.1274599609375,5.104734876573086,5.287580337929725,-13.88957631599307
1761841503825529000,8.137529052734376,3.8096377826452255,5.598385824245214,-10.906494570940731
1761841503835599000,8.14759912109375,2.6793931050047277,5.957296293038129,-7.771534165203571
1761841503845669000,8.157669189453125,1.482160611370951,5.870970593237876,-4.728918281164765
1761841503855738000,8.167738037109375,0.4857406129390001,5.4573669957488775,-1.848097763930261
1761841503865808100,8.17780810546875,-0.7237555883318185,4.6444811715900896,1.4721215940460561
1761841503875877000,8.187877197265625,-1.7766693351410328,2.377533433949947,5.870760749879479
1761841503885947000,8.19794677734375,-2.125101518408954,-0.671553107407689,11.296071396154165
1761841503896016100,8.20801611328125,-2.066756004685163,-1.9835224256813524,16.125312922811506
1761841503906086000,8.2180859375,-1.839728725644201,-2.6068840413719414,19.037065461665392
1761841503916155100,8.228155029296875,-1.5271990458846092,-2.485562431514263,19.90929019449949
1761841503926225200,8.23822509765625,-1.1537807437896728,-2.0290952593326566,18.91505236241221
1761841503936294100,8.248294189453125,-1.1809797163605689,-0.4277104487746954,16.809023501002788
1761841503946364200,8.2583642578125,-0.726679074563086,1.813593144521117,14.060104732090235
1761841503956433200,8.26843310546875,-0.28366248171553016,3.9772137786775823,11.132738444519042
1761841503966503200,8.278503173828126,0.09206818897500633,5.506722270548344,7.920587831595539
1761841503976572200,8.288572265625,0.7721011015668511,6.004580606782436,4.151608807075023
1761841503986642200,8.29864208984375,1.5960820279747248,6.264487095987796,-0.4813024843610823
1761841503996712000,8.3087119140625,3.1588398784965275,6.369819109553099,-5.643685101652145
1761841504006781200,8.31878125,4.690289567562937,5.865265075072646,-10.323335786300897
1761841504016851200,8.328851318359375,5.700825038978457,5.236011478734016,-13.692095595562456
1761841504026920200,8.338920166015624,5.924999120545387,4.71452910580635,-15.457195050549506
1761841504036990200,8.348990234375,4.760839313821494,4.493727715542912,-15.599105274927615
1761841504047059000,8.359058837890625,2.849736519923806,4.389993784824013,-14.506237557262182
1761841504057129200,8.369129150390625,1.0921057933822274,3.9255665935486554,-12.585305735528468
1761841504067198000,8.379197998046875,-0.19187953942269087,3.533958554768562,-10.337752434188127
1761841504077268200,8.389268310546875,-0.6678931235954165,3.062905223351717,-7.911744599926471
1761841504087337000,8.3993369140625,-0.4917877841487527,2.78393163010478,-5.587403826981783
1761841504097407000,8.409406982421874,-1.0842091949135064,2.65483587911427,-3.0125147602856157
1761841504107476000,8.41947607421875,-2.5139900690972805,1.4061398863554,0.9789145907491444
1761841504117546000,8.4295458984375,-3.1664754879415034,-0.2200263142377138,6.563177781617641
1761841504127616300,8.4396162109375,-1.5789099438995122,-1.2065958036541937,11.989430092656612
1761841504137685000,8.44968505859375,0.21323300083577632,-1.7454396457493304,15.911826823997497
1761841504147755300,8.45975537109375,0.35941505731418727,-1.7405062810003757,17.661539324760437
1761841504157824000,8.469823974609374,0.2842792984396219,-1.0741109947472811,17.233617863583564
1761841504167894000,8.47989404296875,0.2759662281244993,0.823012081375718,15.791099672901629
1761841504177963000,8.489962890625,0.7130255200028419,3.325656580594182,13.96729083931446
1761841504188033000,8.500032958984375,1.249820612874627,5.387080576601624,11.717425169378519
1761841504198102000,8.51010205078125,1.8938214042291044,6.674694036775827,9.250978941744565
1761841504208172000,8.520172119140625,2.7247558030366896,7.092288749727606,6.571074672347307
1761841504218241000,8.530240966796875,3.44405090482831,6.7888131679087875,3.4015199230909348
1761841504228311000,8.54031103515625,4.080838111542165,6.247249545460939,-0.2518617144376039
1761841504238380000,8.550380126953126,4.496538681310415,5.832831708979606,-4.347660371485352
1761841504248450000,8.560449951171876,5.026883575129509,5.533906045550108,-8.592022865581512
1761841504258520000,8.57052001953125,4.986967744326591,5.470862437137961,-12.383169882768392
1761841504268589000,8.580589111328125,4.803052023389935,5.2191322401255364,-14.805539652788639
1761841504278659000,8.5906591796875,3.86371424074769,4.68765512740612,-15.337594857656955
1761841504288728000,8.60072802734375,2.1822423325181006,4.5568543260633945,-14.22658241149187
1761841504298798000,8.610798095703124,1.1839791904374957,4.406142371070385,-12.251453720146417
1761841504308867000,8.6208671875,0.5555094379529356,3.9843858622640367,-9.874599500632286
1761841504318937000,8.63093701171875,-0.185280871810019,3.330604558390379,-7.478290054541826
1761841504329008000,8.641008056640626,-1.4804858100265263,2.31947053655982,-4.639088957157731
1761841504339077000,8.6510771484375,-3.764743578907847,0.6833171949595213,-0.3870952375307679
1761841504349147100,8.661147216796875,-5.155664853343367,-1.0370026225805282,5.9226066724508994
1761841504359215900,8.6712158203125,-4.268285221475362,-2.209147875100374,12.675074269258975
1761841504369286100,8.6812861328125,-2.7621941378101704,-2.6377064651370046,17.601959008544682
1761841504379355000,8.69135498046875,-2.5824054336756466,-3.1998867591559885,20.248177281439304
1761841504389425200,8.701425048828124,-1.5467098020404577,-2.7344343164861202,20.20485953323841
1761841504399494100,8.711494140625,-0.7413526198208331,-0.5219458987861871,18.480154047960042
1761841504409564000,8.72156396484375,0.4320531541541219,2.016360280922055,15.5910412109375
1761841504419633200,8.731633056640625,1.1512031483866274,4.365481859380006,11.930842294609546
1761841504429703000,8.741702880859375,1.948063135895878,5.558101744651794,7.787312164571881
1761841504439773200,8.751773193359375,2.867702384725213,6.111048930901289,3.150574446715414
1761841504449842000,8.761842041015624,3.2543583540558814,5.984359656530619,-1.6500009574279189
1761841504459912000,8.771911865234374,4.130287202104926,5.375138794395327,-6.023245559763908
1761841504469981000,8.78198095703125,4.8525054978668685,5.3835681845664975,-9.93477369108796
1761841504480051000,8.792051025390625,4.60184614495635,5.6380012107968325,-12.604630029201507
1761841504490120200,8.8021201171875,3.9880940691322087,5.199020595467091,-13.657905741190909
1761841504500190000,8.81218994140625,2.8467689022898672,4.983895497274398,-13.259382223933935
1761841504510259200,8.82225927734375,1.9458342078000306,4.628018697088956,-11.976316928583383
1761841504520329000,8.832328857421874,1.7056693608969449,3.9462130757361646,-10.395310304665564
1761841504530398200,8.842398193359376,1.1973515899688005,3.184219818946719,-8.276029162973165
1761841504540468000,8.852468017578126,0.9008256811574101,2.2879186294764278,-5.529367233076691
1761841504550538000,8.8625380859375,0.780314803160727,1.5928730028003453,-2.0268375435337425
1761841504560607000,8.87260693359375,0.5160644395321607,1.2222440391629934,1.737525219362974
1761841504570677000,8.882677001953125,-0.004200374299287796,0.61030456571877,5.550563750362396
1761841504580746200,8.892746337890625,-0.37305589852333065,-0.15603578036427496,8.721558761554956
1761841504590811100,8.90281103515625,-0.8084285524889826,-0.7611527143120765,10.678099656808376
1761841504600880000,8.912880126953125,-1.1914286296606063,-1.3199199850171803,11.331281825745105
1761841504610950100,8.9229501953125,-1.3450541340127586,-1.3111480650186538,10.848477266258001
1761841504621019100,8.93301904296875,-1.0937900932073592,-1.0424193869322538,9.551328500497341
1761841504631089200,8.943089111328124,-0.635269495627284,-0.2610135736644268,7.564560224762558
1761841504641158100,8.953158203125,0.03961100263744592,0.31285014388561244,5.3439048672199245
1761841504651228200,8.963228271484375,0.670452744950354,0.7610738038569689,3.1986002264767883
1761841504661298000,8.9732978515625,1.0977943604126572,1.0584726961106061,1.1710627910453826
1761841504671367200,8.9833671875,1.0575728246614335,1.2699866180688142,-0.5117899770833552
1761841504681437200,8.993437255859375,0.48284547601938244,1.2776619750022888,-1.7519516579918561
1761841504691506200,9.003506103515624,-0.1381049868762493,1.050024601238966,-2.312278140837699
1761841504701576200,9.013576171875,-0.33784371536672114,0.40352877819836136,-2.0843774399630726
1761841504711645200,9.023645263671876,-0.46010348285734654,0.20578969909250736,-1.61845226521492
1761841504721715200,9.033715087890625,-0.5174292981445789,0.07150397824347018,-1.1041793122094123
1761841504731784200,9.0437841796875,-0.23128975879102945,-0.26604689165651796,-0.5951867107596248
1761841504741854200,9.053854248046875,0.4363292240381241,-0.6406260542243719,-0.18784765355810523
1761841504751923200,9.063923095703124,0.9195616535484791,-1.0436848768234253,0.09451813941039144
1761841504761993200,9.0739931640625,0.826072637990117,-1.1610048498243093,0.027277152373641728
1761841504772062000,9.08406201171875,0.6577250730633736,-1.0239829820096493,-0.36410336126089093
1761841504782132200,9.09413232421875,0.5761281553506851,-0.6432026267141103,-0.7068512152820825
1761841504792202200,9.1042021484375,0.7287713706672191,-0.011444938600063324,-0.9423560344848781
1761841504802271200,9.114271240234375,1.2720973266124724,0.534042579293251,-1.0808699674881994
1761841504812341200,9.12434130859375,2.0972657092392444,1.3676923745393752,-0.9342200012370944
1761841504822410000,9.134409912109374,2.2399913416534663,1.9531582670778036,-0.4896789387686178
1761841504832480300,9.144480224609374,1.9416864404708145,2.422490181529522,0.36277704456057397
1761841504842549000,9.154549072265626,2.4090964469492433,2.009853383246064,0.9556156943567097
1761841504852619300,9.164619384765626,2.879114005577564,1.563654507100582,1.1310701686792075
1761841504862688000,9.17468798828125,2.3229443501502276,1.3915882139116524,-0.5838234590936452
1761841504872758300,9.18475830078125,0.06806406692266463,2.0260446395903826,-0.7023446976430714
1761841504882827000,9.194826904296875,-1.9220014967918395,1.6227672058045863,-1.4891669830016792
1761841504892897000,9.20489697265625,-2.4335768082112073,0.16278525462448595,-2.1211457665205002
1761841504902967300,9.21496728515625,-3.517508939749002,-0.579265284332633,-2.2226262192241846
1761841504913036000,9.2250361328125,-3.4878234110593795,-1.2631745999664068,-2.0666228798247874
1761841504923106300,9.235106201171876,-3.6459085251688954,-1.8056757955253122,-1.8877718949317932
1761841504933175000,9.245175048828125,-3.641226504832506,-1.220765783303976,-1.8843894128866492
1761841504943245000,9.2552451171875,-3.354539560729265,-2.250597491341829,-1.851982496409118
1761841504953314000,9.26531396484375,-2.17648070025146,-2.511132926100492,-1.5971161933280527
1761841504963384000,9.275384033203125,-0.29246786559224125,-2.0904905160158873,-0.7348756788916886
1761841504973453000,9.285453125,-0.4975210671037435,-1.3612164565235376,-0.5434283934064209
1761841504983523000,9.295523193359376,-1.231396482911706,-0.9357675229400396,-0.8978931348368525
1761841504993592300,9.30559228515625,-1.0447867005854845,-0.36028526427745816,-0.7510616745389997
1761841505003662000,9.315662109375,-0.7752519668132066,0.22485563409030437,-0.7813868163064122
1761841505013731300,9.3257314453125,-0.8772463603883981,0.5163052625507116,-0.8244039741255342
1761841505023801000,9.335801025390625,0.0017746084570884704,0.20410744509398937,-0.8354070872422307
1761841505033871000,9.34587109375,0.4659282434880733,-0.15757891815304756,-0.8546153533201665
1761841505043940000,9.355940185546874,0.5699895064651965,-0.26146540908515453,-0.6699473527114838
1761841505054010000,9.366010009765626,0.5776286230415105,-0.1858843906611204,-0.339257673817873
1761841505064079000,9.3760791015625,0.493601847833395,-0.11549100400805473,-0.18313721084482967
1761841505074149000,9.386149169921875,0.5229845941841602,-0.12024492053687572,-0.09501615206040441
1761841505084218400,9.39621826171875,0.44749300760924815,-0.22308219467699528,-0.020960954964160918
1761841505094288100,9.4062880859375,0.18699907390475273,-0.3932055371046066,0.08651223534829915
1761841505104357000,9.416357177734374,0.1008136593580246,-0.4481821589171886,0.14157200539968906
1761841505114427100,9.42642724609375,0.026520342656970022,-0.3498147236675024,0.030219489435851572
1761841505124496100,9.43649609375,-0.11662146934270858,-0.05033376444280147,-0.12170176828168332
1761841505134566100,9.446566162109375,-0.18903554816842078,0.1690051520526409,-0.08458820848315954
1761841505144636200,9.45663623046875,-0.2755307593166828,0.28792905311882494,-0.07875928313396871
1761841505154705200,9.466705078125,-0.06869944221675396,0.23627543824911115,-0.09005531478263437
1761841505164775200,9.476775146484375,0.09523264435529709,0.22734861994981764,-0.11280417607687412
1761841505174844200,9.48684423828125,0.24497429301142692,0.19348843592405318,-0.10436769857779145
1761841505184914200,9.4969140625,0.37878655112981796,0.08913140487074851,-0.06843136586509645
1761841505194983200,9.506983154296876,0.4833779754608869,0.05964987432062625,-0.019540055315569044
1761841505205053200,9.51705322265625,0.4314338532119989,0.168107910951972,0.06312902167327701
1761841505215122200,9.5271220703125,0.4267945029735565,0.06579495294690131,0.0554538108702749
1761841505225192200,9.537192138671875,0.37042788810729976,-0.05386661474406719,-0.012688801181316375
1761841505235261200,9.54726123046875,0.31130408348739147,-0.14276479538083076,-0.042792701413482424
1761841505245331000,9.5573310546875,0.21673428695499897,-0.2705892112612724,-0.017746449897065756
1761841505255401200,9.567401123046874,0.20135960769057273,-0.3239934691905975,0.05385149024017155
1761841505265470200,9.57747021484375,0.14372808745503424,-0.3468868535220623,0.04314093032926321
1761841505275540200,9.587540283203126,0.13607201974391936,-0.2303261744558811,0.03564173368029296
1761841505285609200,9.597609130859375,0.10115385109782218,-0.13635259025096894,0.013374153096973896
1761841505295679000,9.607678955078125,0.04553074807524681,-0.03300678206682205,-0.031598376573622224
1761841505305748200,9.617748291015625,0.13646306488811968,0.03845043442547321,-0.0031434125922620293
1761841505315818000,9.62781787109375,0.20097791489660738,-0.036166707402467725,-0.0146413234885782
