time,seconds_elapsed,z,y,x
1761841495753541400,0.065541259765625,0.4037107229232788,1.3082586526870728,0.8501547574996948
1761841495763610600,0.075610595703125,0.3520187735557556,1.7086271047592163,0.9772541522979736
1761841495773680400,0.085680419921875,0.4352918267250061,1.9550278186798096,1.1111589670181274
1761841495783750700,0.095750732421875,0.4861326217651367,1.9891655445098877,1.1469331979751587
1761841495793819400,0.1058193359375,0.49155187606811523,2.0004677772521973,1.1418542861938477
1761841495803889400,0.115889404296875,0.45320451259613037,2.060976505279541,1.1603573560714722
1761841495813958700,0.125958740234375,0.4301218092441559,2.1164815425872803,1.1850427389144897
1761841495824028400,0.1360283203125,0.4466800093650818,2.209102153778076,1.238953948020935
1761841495834097700,0.14609765625,0.49972113966941833,2.2885096073150635,1.3111602067947388
1761841495844167400,0.15616748046875,0.5625525712966919,2.3323006629943848,1.3563891649246216
1761841495854236700,0.166236572265625,0.6596447825431824,2.323110342025757,1.3897253274917603
1761841495864306400,0.176306396484375,0.8186911344528198,2.1949474811553955,1.3584321737289429
1761841495874375700,0.186375732421875,1.00107741355896,2.056203842163086,1.306355595588684
1761841495884445400,0.196445556640625,1.1442601680755615,1.9606345891952515,1.2753326892852783
1761841495894515500,0.206515380859375,1.3427131175994873,1.78267502784729,1.254275918006897
1761841495904584700,0.216584716796875,1.6239205598831177,1.5260813236236572,1.2025890350341797
1761841495914654500,0.226654541015625,1.9496046304702759,1.436653733253479,1.171473741531372
1761841495924723700,0.2367236328125,2.2194483280181885,1.371737003326416,1.1924690008163452
1761841495934793500,0.24679345703125,2.428462505340576,1.239861249923706,1.2452826499938965
1761841495944862700,0.25686279296875,2.583510637283325,1.1135227680206299,1.3062496185302734
1761841495954932500,0.266932373046875,2.744211196899414,0.9067893028259277,1.3421839475631714
1761841495965001500,0.27700146484375,2.8785364627838135,0.6558161973953247,1.3306771516799927
1761841495975071500,0.287071533203125,2.934778928756714,0.5858584046363831,1.3428126573562622
1761841495985140500,0.297140380859375,3.0314202308654785,-0.7565601468086243,1.752780795097351
1761841495995210800,0.307210693359375,2.95271635055542,-2.481265068054199,2.5398800373077393
1761841496005279500,0.317279541015625,3.0180752277374268,-2.729917287826538,2.561919689178467
1761841496015349500,0.327349609375,3.5132546424865723,-3.1238720417022705,2.289555549621582
1761841496025419500,0.33741943359375,4.122913837432861,-3.636300563812256,2.1293556690216064
1761841496035488500,0.347488525390625,4.814428329467773,-3.793318748474121,2.1001105308532715
1761841496045558500,0.35755859375,5.456138610839844,-3.8073527812957764,2.218416452407837
1761841496055627500,0.36762744140625,6.065406799316406,-3.8498969078063965,2.4352381229400635
1761841496065697500,0.377697509765625,6.618807792663574,-4.209164142608643,2.634373426437378
1761841496075766500,0.3877666015625,7.014537334442139,-4.903433322906494,2.8236002922058105
1761841496085836300,0.397836181640625,7.242985248565674,-5.6421895027160645,3.050771474838257
1761841496095905500,0.407905517578125,7.177478313446045,-6.25382661819458,3.291022777557373
1761841496105975600,0.4179755859375,7.002706527709961,-6.579800128936768,3.5396716594696045
1761841496116044500,0.42804443359375,6.6408843994140625,-6.706849098205566,3.8000755310058594
1761841496126114600,0.438114501953125,6.073977947235107,-6.288154602050781,4.093066692352295
1761841496136183600,0.44818359375,5.355429649353027,-5.5841145515441895,4.297072410583496
1761841496146253600,0.458253662109375,4.635242462158203,-5.011928558349609,4.4151763916015625
1761841496156323300,0.4683232421875,3.784864902496338,-4.890575885772705,4.406424522399902
1761841496166392600,0.478392578125,2.7803852558135986,-4.846529006958008,4.2391462326049805
1761841496176462300,0.48846240234375,1.9105570316314697,-4.662854194641113,3.817448854446411
1761841496186531600,0.498531494140625,1.1076472997665405,-4.333688735961914,3.152743101119995
1761841496196601600,0.5086015625,0.31072938442230225,-4.004044532775879,2.288421869277954
1761841496206670600,0.518670654296875,-0.5312702655792236,-3.7542331218719482,1.3126294612884521
1761841496216740600,0.52874072265625,-1.5028939247131348,-3.651707887649536,0.3166903257369995
1761841496226809600,0.5388095703125,-2.5184593200683594,-3.3838605880737305,-0.6195902824401855
1761841496236879600,0.548879638671875,-3.5555949211120605,-2.979196310043335,-1.3621819019317627
1761841496246948600,0.558948486328125,-4.643707752227783,-2.5436923503875732,-1.9240995645523071
1761841496257018600,0.5690185546875,-5.771122455596924,-2.014094114303589,-2.3712735176086426
1761841496267088400,0.57908837890625,-6.8775153160095215,-1.4461028575897217,-2.7602579593658447
1761841496277157600,0.58915771484375,-8.022843360900879,-0.81614089012146,-3.120168924331665
1761841496287227600,0.5992275390625,-9.136528968811035,-0.21370083093643188,-3.4535012245178223
1761841496297296600,0.609296630859375,-10.204273223876953,0.33274999260902405,-3.700634241104126
1761841496307366700,0.61936669921875,-11.253779411315918,0.8296875953674316,-3.8228015899658203
1761841496317435400,0.629435302734375,-12.23993968963623,1.3242371082305908,-3.7740912437438965
1761841496327505700,0.639505615234375,-13.05648136138916,1.8035457134246826,-3.574596881866455
1761841496337574400,0.649574462890625,-13.475997924804688,2.22627854347229,-3.3000447750091553
1761841496347644700,0.659644775390625,-13.269146919250488,2.5363566875457764,-3.014700412750244
1761841496357713400,0.66971337890625,-12.374634742736816,2.698774814605713,-2.7685248851776123
1761841496367783400,0.679783447265625,-10.79404354095459,2.589046001434326,-2.6806600093841553
1761841496377852400,0.689852294921875,-8.621333122253418,2.2518115043640137,-2.8717055320739746
1761841496387922400,0.69992236328125,-5.87828254699707,1.615162968635559,-3.33687162399292
1761841496397991400,0.709991455078125,-2.581714630126953,0.7033488154411316,-3.9956846237182617
1761841496408061400,0.7200615234375,1.0927783250808716,-0.45564714074134827,-4.567041397094727
1761841496418131700,0.730131591796875,4.879770278930664,-1.6904958486557007,-4.881299018859863
1761841496428200400,0.740200439453125,8.45843505859375,-2.9964780807495117,-4.8014655113220215
1761841496438270500,0.7502705078125,11.552289962768555,-3.9322361946105957,-4.369601249694824
1761841496448339500,0.76033935546875,14.021204948425293,-4.229149341583252,-3.8379061222076416
1761841496458409500,0.770409423828125,15.923271179199219,-4.070915699005127,-3.3173272609710693
1761841496468478500,0.780478515625,17.41785430908203,-4.1513848304748535,-2.7249274253845215
1761841496478548500,0.790548583984375,18.679780960083008,-5.090798377990723,-1.8806111812591553
1761841496488617500,0.800617431640625,19.467321395874023,-6.741168022155762,-0.44136568903923035
1761841496498687500,0.8106875,19.439865112304688,-8.206439971923828,1.5106005668640137
1761841496508756700,0.8207568359375,18.205406188964844,-8.0675630569458,3.3718526363372803
1761841496518826500,0.830826416015625,15.08267593383789,-5.79746150970459,4.684754848480225
1761841496528895700,0.840895751953125,10.24783992767334,-2.380542039871216,4.789913654327393
1761841496538965500,0.850965576171875,4.974197864532471,0.21929053962230682,3.781996488571167
1761841496549035500,0.861035400390625,0.354830801486969,2.3580403327941895,2.367868185043335
1761841496559104500,0.8711044921875,-3.2673168182373047,3.170783519744873,0.5503464937210083
1761841496569174500,0.881174560546875,-5.676573753356934,2.818647623062134,-0.91521155834198
1761841496579243800,0.891243896484375,-7.094162464141846,2.085660696029663,-1.727696180343628
1761841496589313500,0.9013134765625,-7.846435070037842,1.3862820863723755,-2.0600438117980957
1761841496599382500,0.911382568359375,-8.215286254882812,0.9882508516311646,-2.019770860671997
1761841496609452500,0.92145263671875,-8.401873588562012,0.8045787811279297,-1.7691186666488647
1761841496619521500,0.931521484375,-8.533044815063477,0.5708898305892944,-1.5545971393585205
1761841496629591600,0.941591552734375,-8.674371719360352,0.3124641478061676,-1.5703121423721313
1761841496639660500,0.95166064453125,-8.92374324798584,0.14497342705726624,-1.7797907590866089
1761841496649730600,0.96173046875,-9.346504211425781,0.2099657505750656,-2.0258421897888184
1761841496659799600,0.971799560546875,-9.95557975769043,0.7883209586143494,-2.1696059703826904
1761841496669869600,0.98186962890625,-10.672086715698242,1.8438440561294556,-2.012904405593872
1761841496679939600,0.991939697265625,-11.344185829162598,2.8087007999420166,-1.4885156154632568
1761841496690008600,1.002008544921875,-11.552714347839355,3.4371213912963867,-0.8320173025131226
1761841496700078600,1.01207861328125,-10.809717178344727,3.376563310623169,-0.21467901766300201
1761841496710147600,1.022147705078125,-8.618995666503906,2.9007503986358643,0.29279404878616333
1761841496720217300,1.03221728515625,-5.123947620391846,2.402364730834961,0.6167657375335693
1761841496730286600,1.04228662109375,-0.8275096416473389,1.4953529834747314,0.9339404702186584
1761841496740356600,1.052356689453125,3.4712517261505127,0.047876711934804916,0.9850183129310608
1761841496750425600,1.062425537109375,7.194003582000732,-1.2356438636779785,0.587652325630188
1761841496760495600,1.07249560546875,10.029745101928711,-2.1493241786956787,0.23171259462833405
1761841496770564600,1.082564697265625,12.015344619750977,-2.4695889949798584,0.14564348757266998
1761841496780634600,1.092634521484375,13.23343276977539,-2.2996413707733154,0.22767311334609985
1761841496790703600,1.10270361328125,13.955458641052246,-2.122398853302002,0.43711555004119873
1761841496800773600,1.112773681640625,14.401777267456055,-2.5204734802246094,0.9088287353515625
1761841496810842600,1.122842529296875,14.547492980957031,-3.55258846282959,1.6529673337936401
1761841496820912600,1.13291259765625,14.092103004455566,-4.696667671203613,2.470517635345459
1761841496830982700,1.142982666015625,12.702634811401367,-5.020792484283447,3.2234408855438232
1761841496841051600,1.1530517578125,10.01651382446289,-4.213252067565918,3.794525146484375
1761841496851121700,1.16312158203125,6.064864635467529,-2.4655659198760986,3.7245495319366455
1761841496861190700,1.173190673828125,1.5717140436172485,-0.5934503078460693,2.745734930038452
1761841496871260700,1.1832607421875,-2.6538474559783936,0.8392941355705261,1.1235839128494263
1761841496881329700,1.19332958984375,-6.0995378494262695,1.5763564109802246,-0.5421636700630188
1761841496891399700,1.203399658203125,-8.596816062927246,1.9792064428329468,-1.5401164293289185
1761841496901468400,1.213468505859375,-10.456005096435547,2.3265254497528076,-2.0091567039489746
1761841496911538700,1.22353857421875,-11.883767127990723,2.772282600402832,-2.2002270221710205
1761841496921607400,1.233607421875,-13.024968147277832,3.268548011779785,-2.199295997619629
1761841496931677700,1.243677734375,-13.956646919250488,3.718623399734497,-2.0404138565063477
1761841496941746400,1.253746337890625,-14.76907730102539,4.162193775177002,-1.6984392404556274
1761841496951816400,1.26381640625,-15.530499458312988,4.650306224822998,-1.0998826026916504
1761841496961886700,1.27388671875,-16.016281127929688,5.115575313568115,-0.33056753873825073
1761841496971955500,1.28395556640625,-15.742136001586914,5.220083236694336,0.4040111303329468
1761841496982025700,1.294025634765625,-14.163776397705078,4.4601006507873535,0.9977958798408508
1761841496992094500,1.304094482421875,-10.81200122833252,3.1720805168151855,1.411935567855835
1761841497002164500,1.31416455078125,-6.0831990242004395,1.5763330459594727,1.7024222612380981
1761841497012233500,1.3242333984375,-0.7986327409744263,-0.05104267597198486,1.6977510452270508
1761841497022303500,1.334303466796875,4.252139091491699,-1.3653819561004639,1.070093035697937
1761841497032372500,1.34437255859375,8.333403587341309,-2.400217056274414,0.21792487800121307
1761841497042442500,1.3544423828125,11.362634658813477,-3.047790288925171,-0.4250167906284332
1761841497052511500,1.364511474609375,13.42426872253418,-3.3343007564544678,-0.6288716793060303
1761841497062581500,1.37458154296875,14.671998023986816,-3.2244181632995605,-0.5072916746139526
1761841497072650800,1.384650634765625,15.368322372436523,-2.986001491546631,-0.20751537382602692
1761841497082720500,1.394720458984375,15.782576560974121,-3.200627565383911,0.2527012228965759
1761841497092789800,1.404789794921875,16.041366577148438,-4.026279926300049,0.8508719801902771
1761841497102859500,1.414859619140625,16.044523239135742,-4.903554916381836,1.582962155342102
1761841497112929500,1.424929443359375,15.285961151123047,-5.441683769226074,2.4221818447113037
1761841497122998500,1.43499853515625,13.337721824645996,-4.91455078125,3.1823842525482178
1761841497133068500,1.445068603515625,9.910064697265625,-3.442653179168701,3.524981737136841
1761841497143137500,1.455137451171875,5.39390230178833,-1.57599937915802,2.9142847061157227
1761841497153207600,1.46520751953125,0.6857813000679016,0.11560888588428497,1.305749773979187
1761841497163276800,1.47527685546875,-3.5835893154144287,1.1681708097457886,-0.5447402596473694
1761841497173346600,1.4853466796875,-6.827193260192871,1.6749969720840454,-1.6380254030227661
1761841497183415600,1.49541552734375,-8.970207214355469,2.042546033859253,-1.9185457229614258
1761841497193485600,1.505485595703125,-10.218734741210938,2.2396254539489746,-1.8280936479568481
1761841497203554600,1.515554443359375,-10.791316032409668,2.043874740600586,-1.622704029083252
1761841497213624600,1.52562451171875,-10.9334135055542,1.6048682928085327,-1.4878870248794556
1761841497223693600,1.535693603515625,-10.953431129455566,1.1897488832473755,-1.473205804824829
1761841497233763600,1.545763671875,-11.078530311584473,1.074819564819336,-1.5366793870925903
1761841497243832600,1.55583251953125,-11.42057991027832,1.352985143661499,-1.5789493322372437
1761841497253902600,1.565902587890625,-11.909159660339355,1.8701835870742798,-1.529242992401123
1761841497263972600,1.57597265625,-12.26856517791748,2.2768657207489014,-1.4117720127105713
1761841497274041600,1.58604150390625,-12.033689498901367,2.4537346363067627,-1.33394193649292
1761841497284111600,1.596111572265625,-10.750574111938477,2.2304930686950684,-1.166109561920166
1761841497294180600,1.6061806640625,-8.201034545898438,1.533126950263977,-0.757338285446167
1761841497304250400,1.61625048828125,-4.630558490753174,0.45214909315109253,-0.16358067095279694
1761841497314319600,1.626319580078125,-0.5150486826896667,-0.696954607963562,0.4420170783996582
1761841497324389400,1.636389404296875,3.5044140815734863,-1.4809337854385376,0.5927706360816956
1761841497334458600,1.646458740234375,6.832299709320068,-2.030388832092285,0.3025340437889099
1761841497344528600,1.656528564453125,9.380821228027344,-2.3096108436584473,-0.04409262537956238
1761841497354597600,1.66659765625,11.244956970214844,-2.3920750617980957,-0.2009219229221344
1761841497364667600,1.676667724609375,12.52699089050293,-2.319145441055298,-0.1304410994052887
1761841497374736600,1.686736572265625,13.442264556884766,-2.2174253463745117,0.01630839891731739
1761841497384806700,1.696806640625,14.177584648132324,-2.4718706607818604,0.2510271668434143
1761841497394875600,1.706875732421875,14.7465238571167,-3.1420400142669678,0.6540307998657227
1761841497404945700,1.716945556640625,14.91526985168457,-4.149324893951416,1.3266332149505615
1761841497415014400,1.727014404296875,14.382705688476562,-4.770267009735107,2.207157611846924
1761841497425084700,1.737084716796875,12.534712791442871,-4.618847846984863,3.058316230773926
1761841497435154700,1.74715478515625,9.080031394958496,-3.601351499557495,3.336082935333252
1761841497445223700,1.7572236328125,4.628471374511719,-1.922266960144043,2.443082809448242
1761841497455293700,1.767293701171875,-0.07375518232584,-0.34028035402297974,0.581516683101654
1761841497465362400,1.777362548828125,-4.326486587524414,0.9715669751167297,-1.4524188041687012
1761841497475432700,1.7874326171875,-7.587521553039551,1.8437978029251099,-2.5338685512542725
1761841497485501400,1.79750146484375,-9.812715530395508,2.391615629196167,-2.750955820083618
1761841497495571700,1.80757177734375,-11.2118558883667,2.6793675422668457,-2.565081834793091
1761841497505640400,1.817640380859375,-11.979040145874023,2.6845831871032715,-2.2060036659240723
1761841497515710700,1.827710693359375,-12.327768325805664,2.496264934539795,-1.8306572437286377
1761841497525779500,1.837779541015625,-12.503808975219727,2.3420629501342773,-1.4988632202148438
1761841497535849500,1.847849365234375,-12.68629264831543,2.4348397254943848,-1.2327442169189453
1761841497545918500,1.85791845703125,-12.817419052124023,2.760122537612915,-0.9878207445144653
1761841497555988500,1.867988525390625,-12.58431339263916,2.95973539352417,-0.7450206279754639
1761841497566057700,1.8780576171875,-11.452370643615723,2.747556209564209,-0.5062786340713501
1761841497576127500,1.88812744140625,-9.159929275512695,2.2153828144073486,-0.24199771881103516
1761841497586196500,1.898196533203125,-5.916476726531982,1.3440114259719849,0.04308781400322914
1761841497596266200,1.908266357421875,-2.1336936950683594,0.3151337206363678,0.29062438011169434
1761841497606336300,1.918336181640625,1.7439539432525635,-0.5570659041404724,0.4823722541332245
1761841497616405200,1.9284052734375,5.162696361541748,-1.1987847089767456,0.3319494426250458
1761841497626475300,1.938475341796875,7.826729774475098,-1.6651740074157715,0.018790198490023613
1761841497636544300,1.948544189453125,9.757979393005371,-1.942805528640747,-0.1897297203540802
1761841497646614300,1.9586142578125,11.131522178649902,-1.9749408960342407,-0.2592424750328064
1761841497656683300,1.968683349609375,12.05221176147461,-1.9519895315170288,-0.22678227722644806
1761841497666753300,1.978753173828125,12.69517993927002,-1.9832203388214111,-0.14906617999076843
1761841497676822500,1.988822509765625,13.17800521850586,-2.279160976409912,0.03975353762507439
1761841497686892300,1.998892333984375,13.479616165161133,-2.9501640796661377,0.385689377784729
1761841497696961300,2.008961181640625,13.423391342163086,-3.662135601043701,0.9427699446678162
1761841497707031300,2.01903125,12.62922477722168,-4.056098461151123,1.653426170349121
1761841497717100300,2.029100341796875,10.646145820617676,-3.822352170944214,2.311288833618164
1761841497727170300,2.03917041015625,7.4928388595581055,-2.8416459560394287,2.5669615268707275
1761841497737239300,2.0492392578125,3.6424684524536133,-1.3748276233673096,2.0529162883758545
1761841497747309300,2.059309326171875,-0.3552321195602417,0.02955123409628868,0.8524397611618042
1761841497757378300,2.06937841796875,-3.9038360118865967,1.2211112976074219,-0.6016605496406555
1761841497767448300,2.0794482421875,-6.687219619750977,1.880325198173523,-1.5612459182739258
1761841497777518300,2.089518310546875,-8.627685546875,2.3285892009735107,-1.9219202995300293
1761841497787587300,2.09958740234375,-9.916258811950684,2.6030032634735107,-1.9820767641067505
1761841497797657300,2.1096572265625,-10.752557754516602,2.7132222652435303,-1.8856210708618164
1761841497807726300,2.119726318359375,-11.317177772521973,2.756012439727783,-1.6968498229980469
1761841497817796400,2.12979638671875,-11.791304588317871,2.822050094604492,-1.4544470310211182
1761841497827865300,2.139865234375,-12.281698226928711,3.057356834411621,-1.1916415691375732
1761841497837935000,2.14993505859375,-12.694064140319824,3.4505808353424072,-0.9724317193031311
1761841497848004400,2.16000439453125,-12.627228736877441,3.588793992996216,-0.8231460452079773
1761841497858074400,2.170074462890625,-11.452390670776367,3.222907781600952,-0.7006806135177612
1761841497868143400,2.180143310546875,-8.869190216064453,2.791674852371216,-0.5494953393936157
1761841497878213400,2.19021337890625,-5.230191707611084,1.7562847137451172,-0.23620401322841644
1761841497888282400,2.200282470703125,-1.0972583293914795,0.1823282688856125,0.22570475935935974
1761841497898352400,2.210352294921875,3.1379199028015137,-0.649746835231781,0.2830128073692322
1761841497908421400,2.22042138671875,6.579765319824219,-1.5666804313659668,0.04637841880321503
1761841497918491400,2.230491455078125,9.208110809326172,-2.1649997234344482,-0.24731604754924774
1761841497928560400,2.240560302734375,11.087102890014648,-2.540487051010132,-0.35638049244880676
1761841497938630400,2.25063037109375,12.323707580566406,-2.837947368621826,-0.33133506774902344
1761841497948699100,2.26069921875,13.032465934753418,-3.0763416290283203,-0.23617976903915405
1761841497958769400,2.270769287109375,13.321537971496582,-3.4093258380889893,-0.01667112112045288
1761841497968838100,2.280838134765625,13.18394660949707,-3.7475991249084473,0.3283882737159729
1761841497978908400,2.290908447265625,12.416021347045898,-4.023140907287598,0.8447213768959045
1761841497988978400,2.300978515625,10.6933012008667,-3.966632843017578,1.3997191190719604
1761841497999047200,2.311047119140625,7.846865653991699,-3.268751382827759,1.756377100944519
1761841498009117400,2.321117431640625,4.0596747398376465,-1.847021460533142,1.5944966077804565
1761841498019186200,2.331186279296875,-0.1719600409269333,-0.11058562994003296,0.9541565775871277
1761841498029256400,2.34125634765625,-4.121477127075195,1.2849280834197998,0.09697820991277695
1761841498039325200,2.3513251953125,-7.374615669250488,2.296231746673584,-0.7731050252914429
1761841498049395200,2.361395263671875,-9.80226993560791,2.792813777923584,-1.1519681215286255
1761841498059464200,2.371464111328125,-11.459433555603027,3.1389005184173584,-1.1036072969436646
1761841498069534200,2.3815341796875,-12.528366088867188,3.396467685699463,-0.8471845388412476
1761841498079603500,2.391603515625,-13.134228706359863,3.5434646606445312,-0.46184059977531433
1761841498089673200,2.401673095703125,-13.34956169128418,3.59624981880188,-0.05456497520208359
1761841498099742500,2.411742431640625,-13.196667671203613,3.5605506896972656,0.2726008892059326
1761841498109812200,2.421812255859375,-12.577523231506348,3.3111648559570312,0.3847580552101135
1761841498119881500,2.431881591796875,-11.249289512634277,2.7740068435668945,0.31439709663391113
1761841498129951200,2.441951171875,-9.061309814453125,1.9003984928131104,0.2474484145641327
1761841498140020500,2.4520205078125,-5.983070373535156,1.1713706254959106,0.172690287232399
1761841498150090200,2.46209033203125,-2.3556625843048096,0.16585208475589752,0.2924608886241913
1761841498160159200,2.4721591796875,1.2964121103286743,-1.2267417907714844,0.6564532518386841
1761841498170229500,2.4822294921875,4.729483127593994,-2.0969033241271973,0.9458160400390625
1761841498180298200,2.49229833984375,7.475915431976318,-2.7528457641601562,0.9127811193466187
1761841498190368500,2.502368408203125,9.59317684173584,-3.1313533782958984,0.7292637825012207
1761841498200437200,2.512437255859375,11.228660583496094,-3.3026084899902344,0.6454082727432251
1761841498210507500,2.522507568359375,12.414758682250977,-3.2341713905334473,0.6412175297737122
1761841498220577300,2.532577392578125,13.137895584106445,-2.9719502925872803,0.6340512633323669
1761841498230646300,2.542646240234375,13.456005096435547,-2.5319628715515137,0.621120810508728
1761841498240716300,2.55271630859375,13.381963729858398,-2.076104164123535,0.6493154168128967
1761841498250785300,2.562785400390625,13.011542320251465,-1.7432458400726318,0.7735638618469238
1761841498260855600,2.57285546875,12.317597389221191,-1.5920504331588745,1.0414869785308838
1761841498270924300,2.58292431640625,11.098077774047852,-1.6589056253433228,1.4811491966247559
1761841498280994300,2.592994384765625,9.180017471313477,-1.6952890157699585,1.9768908023834229
1761841498291063300,2.603063232421875,6.519066333770752,-1.4105126857757568,2.246617317199707
1761841498301133300,2.61313330078125,3.2901721000671387,-0.7423588037490845,2.080181360244751
1761841498311202300,2.623202392578125,-0.13757969439029694,0.13607820868492126,1.4177812337875366
1761841498321272300,2.633272216796875,-3.164595127105713,1.1808578968048096,0.26521170139312744
1761841498331341300,2.64334130859375,-5.6010589599609375,1.7244952917099,-0.9522854089736938
1761841498341411300,2.653411376953125,-7.339527606964111,1.8397876024246216,-1.816461443901062
1761841498351480300,2.663480224609375,-8.533368110656738,1.8333370685577393,-2.332683801651001
1761841498361550300,2.67355029296875,-9.443636894226074,1.7990505695343018,-2.574458122253418
1761841498371619300,2.683619384765625,-10.21184253692627,1.8879926204681396,-2.6187100410461426
1761841498381689300,2.693689453125,-10.953911781311035,2.054979085922241,-2.4748353958129883
1761841498391758000,2.703758056640625,-11.723187446594238,2.3084828853607178,-2.1856069564819336
1761841498401828400,2.713828369140625,-12.468612670898438,2.7604897022247314,-1.8016258478164673
1761841498411898400,2.7238984375,-13.078974723815918,3.2698941230773926,-1.3789056539535522
1761841498421967400,2.73396728515625,-13.167786598205566,3.7062249183654785,-1.0300214290618896
1761841498432037400,2.744037353515625,-12.294079780578613,3.745007038116455,-0.6874068975448608
1761841498442106400,2.7541064453125,-10.100787162780762,3.452777862548828,-0.3433547019958496
1761841498452176400,2.76417626953125,-6.7060980796813965,2.461470603942871,-0.0013845774810761213
1761841498462245000,2.7742451171875,-2.5075371265411377,0.7261713147163391,0.41006234288215637
1761841498472315400,2.7843154296875,1.8930851221084595,-0.5864861011505127,0.5076161026954651
1761841498482384100,2.794384033203125,5.690317153930664,-1.646972894668579,0.2547566592693329
1761841498492454400,2.804454345703125,8.575583457946777,-2.463198661804199,-0.03853167966008186
1761841498502523400,2.8145234375,10.674324989318848,-2.950901746749878,-0.15672117471694946
1761841498512593200,2.82459326171875,12.128983497619629,-3.1982789039611816,-0.06845522671937943
1761841498522662400,2.834662353515625,13.028550148010254,-3.267395257949829,0.12150698900222778
1761841498532732200,2.844732177734375,13.475598335266113,-3.3734958171844482,0.376573383808136
1761841498542801400,2.854801513671875,13.56754207611084,-3.693228244781494,0.7279852032661438
1761841498552871200,2.86487109375,13.281254768371582,-4.020168781280518,1.1906465291976929
1761841498562940400,2.8749404296875,12.28806209564209,-4.214056491851807,1.8128808736801147
1761841498573010200,2.88501025390625,10.284424781799316,-3.859675168991089,2.3981540203094482
1761841498583080000,2.895079833984375,7.240720748901367,-2.868861198425293,2.6118197441101074
1761841498593150000,2.90514990234375,3.5552380084991455,-1.3571401834487915,2.2718379497528076
1761841498603219000,2.915218994140625,-0.264499306678772,0.19578920304775238,1.2838854789733887
1761841498613289000,2.9252890625,-3.6437954902648926,1.378906011581421,0.15052320063114166
1761841498623358000,2.93535791015625,-6.368706226348877,2.0246551036834717,-0.8595181703567505
1761841498633428000,2.945427978515625,-8.237446784973145,2.4203245639801025,-1.2912328243255615
1761841498643498000,2.955498046875,-9.4769287109375,2.574680805206299,-1.4194397926330566
1761841498653566700,2.965566650390625,-10.1840181350708,2.6877646446228027,-1.430083990097046
1761841498663637000,2.975636962890625,-10.54542350769043,2.5943920612335205,-1.3969368934631348
1761841498673706000,2.9857060546875,-10.70919418334961,2.453458070755005,-1.3548903465270996
1761841498683776000,2.99577587890625,-10.774053573608398,2.397249937057495,-1.3025814294815063
1761841498693845000,3.005844970703125,-10.686799049377441,2.265329360961914,-1.2354369163513184
1761841498703915000,3.0159150390625,-10.12614631652832,1.8555412292480469,-1.221392035484314
1761841498713984000,3.02598388671875,-8.675581932067871,1.184110164642334,-1.1781328916549683
1761841498724053800,3.0360537109375,-6.194591522216797,0.4883771240711212,-0.9637932181358337
1761841498734123000,3.046123046875,-2.967559576034546,-0.1389261931180954,-0.4055299162864685
1761841498744192800,3.05619287109375,0.5561646819114685,-0.9296943545341492,0.5789815783500671
1761841498754262000,3.066261962890625,3.8450376987457275,-1.426058292388916,1.4961057901382446
1761841498764332000,3.07633203125,6.497709274291992,-1.667334794998169,1.6842951774597168
1761841498774401000,3.086401123046875,8.462170600891113,-1.8539049625396729,1.5665509700775146
1761841498784471000,3.096470947265625,9.876091003417969,-1.9854241609573364,1.4527809619903564
1761841498794540000,3.1065400390625,10.802746772766113,-1.944729208946228,1.3481842279434204
1761841498804610000,3.116610107421875,11.28382396697998,-1.762353777885437,1.307248592376709
1761841498814678800,3.1266787109375,11.408239364624023,-1.689064621925354,1.4143680334091187
1761841498824749000,3.1367490234375,11.193253517150879,-1.981425404548645,1.716537594795227
1761841498834817800,3.14681787109375,10.506935119628906,-2.451693534851074,2.203922748565674
1761841498844888000,3.15688818359375,9.12838077545166,-2.6803877353668213,2.7667133808135986
1761841498854956800,3.166956787109375,6.927251815795898,-2.3593997955322266,3.182915210723877
1761841498865027000,3.177027099609375,4.025790214538574,-1.5523786544799805,3.1935267448425293
1761841498875095800,3.187095703125,0.8153925538063049,-0.5770571827888489,2.7437613010406494
1761841498885165800,3.197165771484375,-2.1646454334259033,0.44753649830818176,1.7535251379013062
1761841498895236000,3.207236083984375,-4.598480224609375,1.071092963218689,0.5136145949363708
1761841498905304800,3.217304931640625,-6.343311309814453,1.3199529647827148,-0.3638455867767334
1761841498915375000,3.227375,-7.468147277832031,1.3680500984191895,-0.8782894611358643
1761841498925443800,3.23744384765625,-8.188837051391602,1.355312466621399,-1.21297025680542
1761841498935513900,3.247513916015625,-8.644683837890625,1.3316940069198608,-1.4511412382125854
1761841498945582800,3.257582763671875,-8.9283447265625,1.310253620147705,-1.6152375936508179
1761841498955652900,3.26765283203125,-9.157087326049805,1.3224290609359741,-1.726709008216858
1761841498965721900,3.277721923828125,-9.377047538757324,1.4782626628875732,-1.803006649017334
1761841498975791900,3.2877919921875,-9.503257751464844,1.694507122039795,-1.8489155769348145
1761841498985861000,3.297861083984375,-9.315114974975586,1.56690514087677,-1.921286702156067
1761841498995931000,3.307930908203125,-8.386804580688477,1.3022385835647583,-1.9674307107925415
1761841499006000000,3.318000244140625,-6.4384660720825195,1.133160948753357,-1.8134046792984009
1761841499016070000,3.32806982421875,-3.5995116233825684,0.644210696220398,-1.2509328126907349
1761841499026139100,3.33813916015625,-0.2556307017803192,-0.08724622428417206,-0.42585089802742004
1761841499036209000,3.348208984375,3.2328319549560547,-0.848416805267334,0.4636076092720032
1761841499046278000,3.35827783203125,6.263668537139893,-1.561196208000183,1.040235996246338
1761841499056348000,3.368347900390625,8.647942543029785,-1.8703076839447021,1.1500896215438843
1761841499066417000,3.3784169921875,10.36306095123291,-1.894084095954895,1.2250466346740723
1761841499076487200,3.388487060546875,11.467667579650879,-1.7920488119125366,1.3571341037750244
1761841499086556000,3.398555908203125,12.12210750579834,-1.6392630338668823,1.4458439350128174
1761841499096626000,3.4086259765625,12.362533569335938,-1.6932530403137207,1.5298709869384766
1761841499106695000,3.41869482421875,12.123180389404297,-2.1476845741271973,1.6966588497161865
1761841499116765000,3.428764892578125,11.198136329650879,-2.5936548709869385,1.9840584993362427
1761841499126834000,3.438833984375,9.25727367401123,-2.464238405227661,2.2921195030212402
1761841499136904000,3.448904052734375,6.284862041473389,-1.637298583984375,2.338193893432617
1761841499146973000,3.458972900390625,2.7601404190063477,-0.26621782779693604,2.055828332901001
1761841499157043000,3.46904296875,-0.8018972277641296,1.1487534046173096,1.2944278717041016
1761841499167112700,3.47911279296875,-3.839280605316162,2.1006784439086914,0.30200088024139404
1761841499177182000,3.489181884765625,-5.991876602172852,2.344930648803711,-0.366978257894516
1761841499187252000,3.499251953125,-7.253663539886475,2.33665132522583,-0.6624983549118042
1761841499197321000,3.509321044921875,-7.913346290588379,2.190964460372925,-0.793502688407898
1761841499207391000,3.519390869140625,-8.16341781616211,1.935637354850769,-0.8969489336013794
1761841499217460000,3.5294599609375,-8.154106140136719,1.6003742218017578,-1.0546118021011353
1761841499227530000,3.539530029296875,-8.055063247680664,1.2611860036849976,-1.2456741333007812
1761841499237599000,3.549598876953125,-8.00532054901123,1.056818962097168,-1.4318543672561646
1761841499247669000,3.5596689453125,-8.02151870727539,0.9445198774337769,-1.5715789794921875
1761841499257738000,3.569738037109375,-7.95757532119751,0.8404190540313721,-1.644385814666748
1761841499267808000,3.57980810546875,-7.5761213302612305,0.8174362778663635,-1.6858999729156494
1761841499277876700,3.589876708984375,-6.655426979064941,1.0150361061096191,-1.5473394393920898
1761841499287947000,3.599947021484375,-5.123798847198486,1.2304794788360596,-1.2059259414672852
1761841499298015700,3.610015625,-3.027799129486084,1.1953552961349487,-0.59086674451828
1761841499308086000,3.6200859375,-0.570243775844574,0.65192049741745,0.11687815189361572
1761841499318155000,3.630155029296875,2.0870914459228516,0.1671580970287323,0.3726385533809662
1761841499328225000,3.64022509765625,4.45785665512085,-0.308508038520813,0.10003259032964706
1761841499338294000,3.6502939453125,6.364734649658203,-0.6774378418922424,-0.33632901310920715
1761841499348363800,3.66036376953125,7.8837151527404785,-0.9611979722976685,-0.6899741888046265
1761841499358433000,3.67043310546875,8.994125366210938,-1.301123023033142,-0.9134333729743958
1761841499368502800,3.680502685546875,9.68554973602295,-1.619948387145996,-1.0574594736099243
1761841499378572000,3.690572021484375,9.96328067779541,-1.9156287908554077,-1.0793112516403198
1761841499388641800,3.700641845703125,9.750953674316406,-2.1077513694763184,-0.9733043909072876
1761841499398711000,3.7107109375,8.969541549682617,-2.064851999282837,-0.7808470726013184
1761841499408781000,3.720781005859375,7.502476215362549,-1.929219126701355,-0.4557366371154785
1761841499418850000,3.73085009765625,5.392421245574951,-1.4483846426010132,-0.15150856971740723
1761841499428920000,3.740920166015625,2.794567584991455,-0.603123664855957,0.08338224142789841
1761841499438988800,3.75098876953125,0.006903179921209812,0.35381320118904114,0.2342282086610794
1761841499449059000,3.76105908203125,-2.585533857345581,1.2076700925827026,0.2508133053779602
1761841499459128800,3.77112890625,-4.695100784301758,1.769302487373352,0.22398489713668823
1761841499469198000,3.781197998046875,-6.23979377746582,2.1077582836151123,0.20199251174926758
1761841499479267800,3.791267822265625,-7.256390571594238,2.1692304611206055,0.12576085329055786
1761841499489337000,3.801337158203125,-7.801884651184082,2.018120527267456,0.029705431312322617
1761841499499407000,3.811406982421875,-8.05568790435791,1.7250175476074219,-0.012152803130447865
1761841499509475800,3.821475830078125,-8.124078750610352,1.3918009996414185,0.018267953768372536
1761841499519546000,3.831546142578125,-8.068923950195312,0.9837858080863953,0.11015339940786362
1761841499529614800,3.84161474609375,-7.8170576095581055,0.3132045269012451,0.15349341928958893
1761841499539685000,3.85168505859375,-7.1529927253723145,-0.7120762467384338,0.13971449434757233
1761841499549753900,3.86175390625,-5.808360576629639,-1.749294638633728,0.2096749246120453
1761841499559824000,3.871823974609375,-3.6854002475738525,-1.91912841796875,0.6099714636802673
1761841499569892900,3.881892822265625,-1.440123200416565,-2.0310237407684326,1.3968585729599
1761841499579963000,3.891962890625,0.8072313070297241,-1.854259967803955,2.03224778175354
1761841499590031600,3.902031494140625,2.936824083328247,-1.4700816869735718,2.0967111587524414
1761841499600101400,3.912101318359375,4.83855676651001,-1.0115492343902588,1.713861107826233
1761841499610170600,3.922170654296875,6.470277786254883,-0.7681190371513367,1.1451829671859741
1761841499620240400,3.932240478515625,7.8976521492004395,-0.6612258553504944,0.5714019536972046
1761841499630309600,3.9423095703125,9.062506675720215,-0.7759836316108704,0.16813814640045166
1761841499640379400,3.95237939453125,9.96716594696045,-1.021541714668274,-0.08645179867744446
1761841499650448600,3.96244873046875,10.600885391235352,-1.307318091392517,-0.20284073054790497
1761841499660518700,3.9725185546875,10.698596000671387,-1.9529900550842285,-0.0919344499707222
1761841499670587600,3.982587646484375,10.00977611541748,-2.848252296447754,0.19949127733707428
1761841499680657700,3.99265771484375,8.241384506225586,-3.2681849002838135,0.41538602113723755
1761841499690726400,4.002726318359375,5.370070457458496,-2.644204616546631,0.27737462520599365
1761841499700794400,4.01279443359375,1.8409841060638428,-0.9037543535232544,-0.200226828455925
1761841499710863600,4.022863525390625,-1.8450422286987305,1.0201020240783691,-0.9718633890151978
1761841499720933400,4.032933349609375,-5.123564720153809,2.3753161430358887,-1.6513457298278809
1761841499731002600,4.043002685546875,-7.548401832580566,3.1771233081817627,-1.9420113563537598
1761841499741072400,4.053072265625,-9.098791122436523,3.456447124481201,-2.032642126083374
1761841499751142400,4.063142333984375,-9.888481140136719,3.3551180362701416,-2.070800304412842
1761841499761211600,4.073211669921875,-10.15914535522461,2.9886834621429443,-2.085420608520508
1761841499771281400,4.083281494140625,-10.094525337219238,2.5196728706359863,-2.116307020187378
1761841499781350700,4.0933505859375,-9.829585075378418,1.9862771034240723,-2.198476791381836
1761841499791420400,4.10342041015625,-9.301575660705566,1.4279954433441162,-2.366694211959839
1761841499801489700,4.11348974609375,-8.27825927734375,0.8315669894218445,-2.556840181350708
1761841499811559400,4.123559326171875,-6.513304710388184,0.19423338770866394,-2.6852426528930664
1761841499821628700,4.133628662109375,-4.0552544593811035,-0.4512292444705963,-2.365614652633667
1761841499831698400,4.143698486328125,-1.315921664237976,-1.1091333627700806,-1.4391535520553589
1761841499841767400,4.153767333984375,1.4171444177627563,-1.55837881565094,-0.2646183371543884
1761841499851837700,4.163837646484375,3.9504454135894775,-1.7195945978164673,0.6776213645935059
1761841499861906400,4.173906494140625,5.912746429443359,-2.0168380737304688,1.176875114440918
1761841499871976700,4.183976806640625,7.406255722045898,-2.011781930923462,1.4164661169052124
1761841499882045400,4.19404541015625,8.420997619628906,-1.7286373376846313,1.5732074975967407
1761841499892115700,4.20411572265625,8.954476356506348,-1.320769190788269,1.6137217283248901
1761841499902184400,4.214184326171875,9.04510498046875,-1.077808141708374,1.4858121871948242
1761841499912254500,4.22425439453125,8.628073692321777,-1.3671457767486572,1.3067619800567627
1761841499922323500,4.234323486328125,7.509350299835205,-1.8717204332351685,1.1278002262115479
1761841499932393500,4.2443935546875,5.351510524749756,-2.034163236618042,0.8857204914093018
1761841499942462500,4.25446240234375,2.2947254180908203,-1.0164563655853271,0.4274402856826782
1761841499952532500,4.264532470703125,-1.1465462446212769,0.8828296661376953,-0.552083432674408
1761841499962601500,4.2746015625,-4.586591720581055,2.7220659255981445,-1.5600371360778809
1761841499972671500,4.28467138671875,-7.51960563659668,3.965764284133911,-2.1295864582061768
1761841499982740700,4.29474072265625,-9.593618392944336,4.796291351318359,-2.2602930068969727
1761841499992810500,4.304810546875,-10.864269256591797,5.0810065269470215,-2.1749207973480225
1761841500002879700,4.314879638671875,-11.396524429321289,4.884701728820801,-2.005763053894043
1761841500012949500,4.324949462890625,-11.308732032775879,4.2791972160339355,-1.8131892681121826
1761841500023019500,4.33501953125,-10.63022232055664,3.3851890563964844,-1.7005654573440552
1761841500033088500,4.345088623046875,-9.283803939819336,2.1287853717803955,-1.6479296684265137
1761841500043158500,4.355158447265625,-6.997744560241699,0.7610411643981934,-1.5400288105010986
1761841500053227500,4.3652275390625,-3.7895920276641846,-0.22847551107406616,-1.115004062652588
1761841500063297500,4.375297607421875,-0.4220886528491974,-1.342300295829773,-0.09517817944288254
1761841500073366500,4.385366455078125,2.775301694869995,-2.0373573303222656,1.121368169784546
1761841500083436500,4.3954365234375,5.297966480255127,-2.3812313079833984,1.9204012155532837
1761841500093505500,4.405505615234375,6.9625678062438965,-2.5356664657592773,2.2431087493896484
1761841500103575600,4.415575439453125,7.982147693634033,-2.2261321544647217,2.3177249431610107
1761841500113644500,4.42564453125,8.455284118652344,-1.594624638557434,2.2795767784118652
1761841500123714600,4.435714599609375,8.474197387695312,-0.9257001280784607,2.103046178817749
1761841500133783600,4.445783447265625,8.251082420349121,-0.5632388591766357,1.8134208917617798
1761841500143853300,4.455853271484375,7.779536724090576,-0.8297288417816162,1.5599737167358398
1761841500153922600,4.465922607421875,6.884639739990234,-1.383384346961975,1.3886123895645142
1761841500163992600,4.47599267578125,5.495195388793945,-1.585710048675537,1.2605596780776978
1761841500174061600,4.4860615234375,3.570585250854492,-1.113598108291626,1.0993387699127197
1761841500184131600,4.496131591796875,1.2933971881866455,-0.4329642057418823,0.8656131029129028
1761841500194200600,4.50620068359375,-1.0854839086532593,0.15506601333618164,0.5846922397613525
1761841500204270600,4.5162705078125,-3.311976909637451,0.6579635143280029,0.209843248128891
1761841500214339600,4.526339599609375,-5.146160125732422,1.2534830570220947,-0.2747042775154114
1761841500224409600,4.53640966796875,-6.608974456787109,1.7569491863250732,-0.6915912628173828
1761841500234478600,4.546478515625,-7.673923015594482,2.0096116065979004,-0.983497679233551
1761841500244548600,4.556548583984375,-8.407172203063965,2.1592154502868652,-1.2039200067520142
1761841500254617300,4.566617431640625,-8.95339584350586,2.3787314891815186,-1.4122090339660645
1761841500264687600,4.5766875,-9.298505783081055,2.450791120529175,-1.5715643167495728
1761841500274756400,4.58675634765625,-9.161857604980469,2.143739700317383,-1.6961147785186768
1761841500284826600,4.59682666015625,-8.149287223815918,1.5488356351852417,-1.6355470418930054
1761841500294895600,4.6068955078125,-5.951849460601807,1.1078814268112183,-1.1846283674240112
1761841500304965400,4.61696533203125,-2.90211820602417,-0.053289320319890976,-0.3351636230945587
1761841500315035600,4.62703564453125,0.6297502517700195,-1.3491283655166626,0.6905518174171448
1761841500325104400,4.6371044921875,4.068326473236084,-2.0718958377838135,1.4908634424209595
1761841500335174700,4.647174560546875,6.656775951385498,-2.6490447521209717,1.785526990890503
1761841500345244700,4.65724462890625,8.520273208618164,-2.8442859649658203,1.7913044691085815
1761841500355313700,4.667313720703125,9.730172157287598,-2.9691162109375,1.7741845846176147
1761841500365383700,4.6773837890625,10.38936710357666,-3.0297389030456543,1.7259289026260376
1761841500375452400,4.687452392578125,10.509737014770508,-2.7258267402648926,1.6039087772369385
1761841500385522700,4.697522705078125,9.882553100585938,-2.2943544387817383,1.3704628944396973
1761841500395591400,4.70759130859375,8.351130485534668,-2.0091159343719482,1.0736435651779175
1761841500405661700,4.71766162109375,5.907168388366699,-1.6573189496994019,0.6847234964370728
1761841500415730400,4.72773046875,2.839975357055664,-0.7781293392181396,0.2353462129831314
1761841500425800400,4.737800537109375,-0.5166825652122498,0.6267589926719666,-0.3986315429210663
1761841500435869400,4.747869384765625,-3.695796012878418,1.9880691766738892,-1.0759024620056152
1761841500445939500,4.757939453125,-6.261416435241699,2.899360179901123,-1.3663827180862427
1761841500456008400,4.768008544921875,-8.027095794677734,3.5064706802368164,-1.3199154138565063
1761841500466078500,4.778078369140625,-9.072563171386719,3.640103340148926,-1.1490437984466553
1761841500476148500,4.7881484375,-9.502727508544922,3.3117055892944336,-0.9554708003997803
1761841500486217500,4.798217529296875,-9.457854270935059,2.715118885040283,-0.9084188938140869
1761841500496287500,4.80828759765625,-8.889217376708984,1.92172372341156,-1.0233219861984253
1761841500506356500,4.8183564453125,-7.638594627380371,1.3044143915176392,-1.0798801183700562
1761841500516426500,4.828426513671875,-5.753996849060059,1.0131455659866333,-0.9349343776702881
1761841500526495500,4.83849560546875,-3.35683012008667,0.5243031978607178,-0.5304393768310547
1761841500536565500,4.8485654296875,-0.5813624858856201,-0.05426909774541855,0.1683272272348404
1761841500546634500,4.858634521484375,2.155508279800415,-0.45934414863586426,0.8293182253837585
1761841500556704500,4.86870458984375,4.434162616729736,-0.8488562107086182,1.1933249235153198
1761841500566773500,4.8787734375,6.22557258605957,-1.0433104038238525,1.4144703149795532
1761841500576843500,4.888843505859375,7.531966686248779,-0.9282256364822388,1.6691678762435913
1761841500586912000,4.898912109375,8.42374324798584,-0.5910249352455139,2.012986421585083
1761841500596982000,4.90898193359375,9.080923080444336,-0.32563188672065735,2.479848861694336
1761841500607051000,4.919051025390625,9.558241844177246,-0.31498458981513977,3.0737643241882324
1761841500617121000,4.92912109375,9.633713722229004,-0.5635040998458862,3.7337398529052734
1761841500627189800,4.939189697265625,9.013283729553223,-1.4036169052124023,4.3263092041015625
1761841500637260000,4.949260009765625,7.502769947052002,-2.549544334411621,4.692377090454102
1761841500647328800,4.959328857421875,5.140203952789307,-3.026768922805786,4.563797473907471
1761841500657399000,4.96939892578125,2.2816529273986816,-2.5686824321746826,3.916271924972534
1761841500667467800,4.9794677734375,-0.6884319186210632,-1.7472283840179443,2.8607873916625977
1761841500677537800,4.989537841796875,-3.3442680835723877,-0.32100197672843933,1.4501173496246338
1761841500687606800,4.999606689453125,-5.5598225593566895,0.6477242112159729,-0.04614325985312462
1761841500697676800,5.0096767578125,-7.134383678436279,1.1890270709991455,-1.261364459991455
1761841500707747000,5.0197470703125,-8.148123741149902,1.3364684581756592,-2.1692168712615967
1761841500717815800,5.02981591796875,-8.73778247833252,1.4521703720092773,-2.803828001022339
1761841500727886000,5.039885986328125,-9.11970329284668,1.5588717460632324,-3.1684436798095703
1761841500737954800,5.049954833984375,-9.373705863952637,1.6152644157409668,-3.3252787590026855
1761841500748024800,5.06002490234375,-9.338789939880371,1.5507704019546509,-3.415623426437378
1761841500758093800,5.07009375,-8.685717582702637,1.3559165000915527,-3.467611789703369
1761841500768163800,5.080163818359375,-7.103680610656738,1.2333751916885376,-3.330523729324341
1761841500778232800,5.09023291015625,-4.527998924255371,0.9654496908187866,-2.6535096168518066
1761841500788302800,5.100302734375,-1.2423092126846313,-0.004189152270555496,-1.4172195196151733
1761841500798371800,5.110371826171875,2.355114459991455,-1.1427818536758423,-0.03587251156568527
1761841500808441900,5.12044189453125,5.630236625671387,-1.9542875289916992,1.0331693887710571
1761841500818511000,5.130510986328125,8.10191535949707,-2.4498605728149414,1.5486087799072266
1761841500828580900,5.140580810546875,9.792364120483398,-2.5352494716644287,1.7624658346176147
1761841500838650000,5.150650146484375,10.759693145751953,-2.3058066368103027,1.8621174097061157
1761841500848720000,5.160719970703125,11.080751419067383,-2.0030646324157715,1.8061270713806152
1761841500858788900,5.170788818359375,10.881160736083984,-1.8447980880737305,1.6121046543121338
1761841500868859000,5.18085888671875,9.946999549865723,-2.0611205101013184,1.4773728847503662
1761841500878928000,5.190927978515625,8.04958724975586,-2.371220350265503,1.326594352722168
1761841500888998000,5.200997802734375,5.246591567993164,-2.1162421703338623,1.0132097005844116
1761841500899067000,5.21106689453125,1.9266250133514404,-1.1405911445617676,0.47930508852005005
1761841500909137000,5.221136962890625,-1.4478373527526855,0.3071434199810028,-0.35222703218460083
1761841500919206000,5.231205810546875,-4.462752342224121,1.2804737091064453,-1.1827024221420288
1761841500929276000,5.24127587890625,-6.673500061035156,1.7836580276489258,-1.5958391427993774
1761841500939345000,5.251344970703125,-8.100363731384277,1.9617630243301392,-1.7531405687332153
1761841500949415000,5.261414794921875,-8.902981758117676,1.8454704284667969,-1.7473514080047607
1761841500959485000,5.27148486328125,-9.242349624633789,1.562488079071045,-1.6356003284454346
1761841500969554000,5.281553955078125,-9.313715934753418,1.302535891532898,-1.5504041910171509
1761841500979623700,5.291623779296875,-9.274025917053223,1.2922834157943726,-1.5096604824066162
1761841500989693000,5.30169287109375,-9.033946990966797,1.284454584121704,-1.5203222036361694
1761841500999763000,5.311762939453125,-8.169909477233887,1.0629091262817383,-1.5590019226074219
1761841501009832000,5.32183203125,-6.273567199707031,0.884123682975769,-1.4320091009140015
1761841501019902000,5.33190185546875,-3.600109577178955,0.5278222560882568,-0.8878139853477478
1761841501029971000,5.341970947265625,-0.5145903825759888,-0.2840287983417511,-0.015578960068523884
1761841501040041000,5.352041015625,2.6827187538146973,-0.914393961429596,0.6971367597579956
1761841501050110000,5.36210986328125,5.359145641326904,-1.479531168937683,0.9477159380912781
1761841501060180000,5.372179931640625,7.419458389282227,-1.8382227420806885,1.03768789768219
1761841501070249000,5.3822490234375,8.946396827697754,-1.9950826168060303,1.05552339553833
1761841501080319000,5.392319091796875,9.985974311828613,-2.005481004714966,1.0416259765625
1761841501090387700,5.4023876953125,10.558734893798828,-1.9547027349472046,0.9700689315795898
1761841501100458000,5.4124580078125,10.696276664733887,-2.0717155933380127,0.8989050388336182
1761841501110526700,5.422526611328125,10.218990325927734,-2.511784553527832,0.9086878895759583
1761841501120597000,5.432596923828125,8.88160514831543,-2.895037889480591,1.0374239683151245
1761841501130666000,5.442666015625,6.430123805999756,-2.6896979808807373,1.0858186483383179
1761841501140735700,5.45273583984375,3.0491745471954346,-1.6952271461486816,0.8653145432472229
1761841501150805000,5.462804931640625,-0.46392345428466797,0.1378960907459259,0.28275740146636963
1761841501160874800,5.472874755859375,-3.7339718341827393,1.5322997570037842,-0.47669970989227295
1761841501170944000,5.482944091796875,-6.334275245666504,2.243971824645996,-1.000467300415039
1761841501181013800,5.493013671875,-8.116496086120605,2.701272487640381,-1.143401861190796
1761841501191084000,5.503083984375,-9.227560043334961,2.8476455211639404,-1.0995312929153442
1761841501201152800,5.51315283203125,-9.7612886428833,2.789733648300171,-0.9261214733123779
1761841501211222800,5.523222900390625,-9.909667015075684,2.570343017578125,-0.6760780811309814
1761841501221292000,5.5332919921875,-9.83306884765625,2.261371612548828,-0.469043105840683
1761841501231361800,5.54336181640625,-9.52839469909668,1.9277693033218384,-0.4097433090209961
1761841501241431000,5.55343115234375,-8.819281578063965,1.7351104021072388,-0.5127596855163574
1761841501251500800,5.563500732421875,-7.595283031463623,1.6549769639968872,-0.6715093851089478
1761841501261570000,5.573570068359375,-5.739645957946777,1.357831358909607,-0.7549981474876404
1761841501271639800,5.583639892578125,-3.090181827545166,0.6864068508148193,-0.6916658282279968
1761841501281709000,5.593708984375,0.0236470066010952,-0.37381619215011597,-0.4097369313240051
1761841501291778800,5.60377880859375,3.090064525604248,-1.3742449283599854,0.05577192083001137
1761841501301847800,5.613847900390625,5.6472673416137695,-2.021857500076294,0.25836417078971863
1761841501311918000,5.62391796875,7.559776782989502,-2.3884575366973877,0.28820064663887024
1761841501321986800,5.63398681640625,8.93106746673584,-2.5758321285247803,0.2973927855491638
1761841501332057000,5.64405712890625,9.820732116699219,-2.7372872829437256,0.32413679361343384
1761841501342125800,5.654125732421875,10.24185848236084,-2.7770957946777344,0.28962594270706177
1761841501352196000,5.664196044921875,10.248138427734375,-2.857133150100708,0.21358312666416168
1761841501362264800,5.674264892578125,9.786285400390625,-2.973428726196289,0.24086959660053253
1761841501372334800,5.6843349609375,8.555771827697754,-2.963701009750366,0.3684414029121399
1761841501382403800,5.69440380859375,6.3577399253845215,-2.5262653827667236,0.45530226826667786
1761841501392473900,5.704473876953125,3.457404851913452,-1.5341671705245972,0.3323020339012146
1761841501402542800,5.71454296875,0.34056130051612854,-0.07303878664970398,0.03756388649344444
1761841501412612900,5.72461279296875,-2.62507700920105,1.2418791055679321,-0.19812214374542236
1761841501422683000,5.734682861328125,-5.036881446838379,2.1080024242401123,-0.2929152250289917
1761841501432751900,5.744751953125,-6.752842426300049,2.6562137603759766,-0.24200411140918732
1761841501442822000,5.75482177734375,-7.841792583465576,2.843695640563965,-0.12592729926109314
1761841501452891000,5.764890869140625,-8.386092185974121,2.8097381591796875,0.02582493983209133
1761841501462961000,5.7749609375,-8.538933753967285,2.598515748977661,0.15431074798107147
1761841501473030000,5.78502978515625,-8.404385566711426,2.322387933731079,0.16953442990779877
1761841501483100000,5.795099853515625,-8.020042419433594,2.02980899810791,0.07431177794933319
1761841501493169000,5.8051689453125,-7.282746315002441,1.5483444929122925,-0.07691821455955505
1761841501503239000,5.815239013671875,-5.946780204772949,0.9758157730102539,-0.17925870418548584
1761841501513308000,5.825307861328125,-3.968198776245117,0.45590388774871826,-0.08553061634302139
1761841501523378000,5.8353779296875,-1.5431820154190063,-0.08912002295255661,0.15377357602119446
1761841501533447000,5.845447021484375,1.0649056434631348,-0.685005247592926,0.4216758608818054
1761841501543517000,5.855516845703125,3.4777867794036865,-1.1633449792861938,0.4946094751358032
1761841501553586000,5.8655859375,5.404722213745117,-1.5219411849975586,0.43602338433265686
1761841501563656000,5.875656005859375,6.86761474609375,-1.784842610359192,0.3592878580093384
1761841501573725000,5.885724853515625,7.9627227783203125,-2.0562942028045654,0.29917606711387634
1761841501583795000,5.895794921875,8.731474876403809,-2.3269078731536865,0.30539000034332275
1761841501593865500,5.905865478515625,9.136693000793457,-2.5186069011688232,0.35870835185050964
1761841501603935200,5.915935302734375,9.117180824279785,-2.642864942550659,0.43265342712402344
1761841501614005200,5.926005126953125,8.537376403808594,-2.7402005195617676,0.550001323223114
1761841501624074200,5.93607421875,7.1862382888793945,-2.5968058109283447,0.691359281539917
1761841501634144300,5.946144287109375,4.990684986114502,-2.051682710647583,0.7219728231430054
1761841501644213500,5.956213623046875,2.251677989959717,-0.9280498623847961,0.48043400049209595
1761841501654283300,5.966283203125,-0.7378010749816895,0.4225328862667084,0.09107371419668198
1761841501664352500,5.9763525390625,-3.5009360313415527,1.7659159898757935,-0.21457062661647797
1761841501674422300,5.98642236328125,-5.72216796875,2.6047656536102295,-0.4765593707561493
1761841501684491500,5.996491455078125,-7.335643291473389,3.1828739643096924,-0.5791933536529541
1761841501694561300,6.006561279296875,-8.379979133605957,3.4390532970428467,-0.5992554426193237
1761841501704630300,6.01663037109375,-8.991886138916016,3.5047569274902344,-0.5360780954360962
1761841501714700300,6.0267001953125,-9.382211685180664,3.5898895263671875,-0.41224801540374756
1761841501724769300,6.036769287109375,-9.661321640014648,3.7394871711730957,-0.2655283510684967
1761841501734839600,6.046839599609375,-9.773833274841309,3.8791844844818115,-0.20770765841007233
1761841501744908300,6.056908203125,-9.500330924987793,3.826371669769287,-0.30531784892082214
1761841501754978300,6.066978271484375,-8.549463272094727,3.1909592151641846,-0.5856171250343323
1761841501765047300,6.07704736328125,-6.557127952575684,2.438108205795288,-0.94338458776474
1761841501775117300,6.087117431640625,-3.7317943572998047,1.619496464729309,-1.211322546005249
1761841501785186300,6.097186279296875,-0.5335294604301453,0.3831455111503601,-1.1418536901474
1761841501795256300,6.10725634765625,2.7517971992492676,-0.8907903432846069,-0.762942910194397
1761841501805325300,6.1173251953125,5.716473579406738,-1.8462289571762085,-0.5003645420074463
1761841501815395300,6.127395263671875,8.004951477050781,-2.685239315032959,-0.383672297000885
1761841501825465000,6.137465087890625,9.678879737854004,-3.3157153129577637,-0.2699803411960602
1761841501835534300,6.147534423828125,10.789081573486328,-3.8317692279815674,-0.11353322118520737
1761841501845604400,6.157604248046875,11.340383529663086,-4.206017017364502,0.060738980770111084
1761841501855673300,6.16767333984375,11.333488464355469,-4.358994960784912,0.1725613921880722
1761841501865743400,6.177743408203125,10.693081855773926,-4.27789831161499,0.2414238005876541
1761841501875812400,6.187812255859375,9.239848136901855,-3.8660573959350586,0.33429834246635437
1761841501885882400,6.19788232421875,6.918211460113525,-2.947113275527954,0.34153497219085693
1761841501895951400,6.207951416015625,3.9770450592041016,-1.76984441280365,0.14788533747196198
1761841501906021400,6.218021484375,0.8659502863883972,-0.1284908652305603,-0.11843876540660858
1761841501916090400,6.22809033203125,-2.1782684326171875,1.3442963361740112,-0.42122820019721985
1761841501926160400,6.238160400390625,-4.76900577545166,2.324202299118042,-0.4907204508781433
1761841501936229000,6.24822900390625,-6.651834011077881,2.957030773162842,-0.2799946367740631
1761841501946299400,6.25829931640625,-7.873883247375488,3.2512142658233643,0.06774415820837021
1761841501956368100,6.2683681640625,-8.528820991516113,3.240818977355957,0.4051424264907837
1761841501966438400,6.2784384765625,-8.729483604431152,2.987431764602661,0.6276021599769592
1761841501976507400,6.28850732421875,-8.582778930664062,2.441087007522583,0.6890276670455933
1761841501986577200,6.2985771484375,-8.049986839294434,1.5746232271194458,0.5619837045669556
1761841501996646400,6.308646484375,-6.984278202056885,0.5043294429779053,0.3020767569541931
1761841502006716200,6.318716064453125,-5.3028364181518555,-0.5528900623321533,0.15485163033008575
1761841502016786400,6.328786376953125,-3.1271121501922607,-1.2020158767700195,0.23346282541751862
1761841502026855200,6.338855224609375,-0.8258305191993713,-1.5184537172317505,0.4537070393562317
1761841502036925400,6.348925537109375,1.4210939407348633,-1.6204535961151123,0.8645835518836975
1761841502046994200,6.358994140625,3.4514472484588623,-1.6578649282455444,1.0712157487869263
1761841502057064200,6.369064208984375,5.096567153930664,-1.7632062435150146,1.0081979036331177
1761841502067133400,6.379133544921875,6.426482200622559,-1.792256236076355,0.8543735146522522
1761841502077203200,6.389203125,7.480032444000244,-1.7295726537704468,0.7767894864082336
1761841502087272400,6.3992724609375,8.286986351013184,-1.6675292253494263,0.8037960529327393
1761841502097342200,6.40934228515625,8.940058708190918,-1.7193266153335571,0.8853766918182373
1761841502107411500,6.419411376953125,9.451892852783203,-2.0171139240264893,1.0113357305526733
1761841502117481200,6.429481201171875,9.695039749145508,-2.637105941772461,1.1919301748275757
1761841502127550500,6.439550537109375,9.418768882751465,-3.41984486579895,1.3994786739349365
1761841502137620200,6.4496201171875,8.30160903930664,-4.044305324554443,1.6157374382019043
1761841502147689200,6.459689208984375,6.296428680419922,-3.8128085136413574,1.594038486480713
1761841502157759500,6.469759521484375,3.616586923599243,-2.5981626510620117,1.2121223211288452
1761841502167828200,6.479828125,0.5506746172904968,-0.8221620321273804,0.6354488730430603
1761841502177898500,6.4898984375,-2.4351155757904053,0.7402991056442261,0.03606719151139259
1761841502187968300,6.49996826171875,-5.000814914703369,1.9138120412826538,-0.6007223129272461
1761841502198037500,6.51003759765625,-7.00877046585083,2.452467441558838,-1.019206166267395
1761841502208107300,6.520107177734375,-8.471144676208496,2.850404739379883,-1.1823819875717163
1761841502218176300,6.53017626953125,-9.456923484802246,3.076218366622925,-1.2618727684020996
1761841502228246300,6.540246337890625,-10.06088638305664,3.1999974250793457,-1.2456765174865723
1761841502238315300,6.550315185546875,-10.386336326599121,3.2140860557556152,-1.1770503520965576
1761841502248385500,6.560385498046875,-10.44827938079834,3.154536724090576,-1.1138428449630737
1761841502258454300,6.570454345703125,-10.171135902404785,2.93669056892395,-1.0677534341812134
1761841502268524300,6.580524169921875,-9.32959270477295,2.736727476119995,-1.0697697401046753
1761841502278593300,6.59059326171875,-7.726905345916748,2.3135578632354736,-1.0935852527618408
1761841502288663300,6.600663330078125,-5.336399555206299,1.7095824480056763,-0.9338496923446655
1761841502298732300,6.610732177734375,-2.5254886150360107,0.7153943181037903,-0.6036946773529053
1761841502308802300,6.62080224609375,0.46066001057624817,-0.40570834279060364,-0.23359251022338867
1761841502318871300,6.630871337890625,3.3206493854522705,-1.2026110887527466,-0.0756114050745964
1761841502328941300,6.64094140625,5.648689270019531,-1.8179682493209839,-0.13261210918426514
1761841502339010300,6.65101025390625,7.452600479125977,-2.1629834175109863,-0.2194652408361435
1761841502349080300,6.661080322265625,8.842005729675293,-2.2962584495544434,-0.24060861766338348
1761841502359149300,6.6711494140625,9.918233871459961,-2.397993803024292,-0.1622893065214157
1761841502369219300,6.68121923828125,10.712849617004395,-2.653533458709717,0.05281634256243706
1761841502379289300,6.691289306640625,11.226842880249023,-3.1430118083953857,0.36690929532051086
1761841502389358300,6.7013583984375,11.341873168945312,-3.7524948120117188,0.7876067161560059
1761841502399428400,6.711428466796875,10.7230806350708,-4.197101593017578,1.2772743701934814
1761841502409497300,6.721497314453125,9.109591484069824,-4.09699821472168,1.7098503112792969
1761841502419567400,6.7315673828125,6.5130486488342285,-3.206460952758789,1.812890648841858
1761841502429636400,6.74163623046875,3.3061397075653076,-1.7707765102386475,1.493985652923584
1761841502439706400,6.751706298828125,-0.07191120833158493,0.062251124531030655,0.9597252011299133
1761841502449775000,6.761775146484375,-3.2881107330322266,1.570697546005249,0.2354639172554016
1761841502459845400,6.771845458984375,-5.903745651245117,2.5329537391662598,-0.40236422419548035
1761841502469914400,6.781914306640625,-7.755804538726807,3.151109457015991,-0.6883701682090759
1761841502479984400,6.791984375,-8.955621719360352,3.4280292987823486,-0.7635216116905212
1761841502490053400,6.802053466796875,-9.608414649963379,3.428436279296875,-0.7294648289680481
1761841502500123100,6.812123046875,-9.903983116149902,3.2864596843719482,-0.6074867248535156
1761841502510192400,6.8221923828125,-10.000210762023926,3.087766408920288,-0.4425654411315918
1761841502520262100,6.83226220703125,-9.944931983947754,2.859053373336792,-0.27168744802474976
1761841502530332400,6.84233251953125,-9.700536727905273,2.582502603530884,-0.17203594744205475
1761841502540401200,6.852401123046875,-9.19080924987793,2.279984474182129,-0.17889145016670227
1761841502550471400,6.862471435546875,-8.310454368591309,1.7749580144882202,-0.29741063714027405
1761841502560540400,6.87254052734375,-6.8516364097595215,1.2604483366012573,-0.40180763602256775
1761841502570610200,6.882610107421875,-4.669760704040527,1.0788627862930298,-0.31270039081573486
1761841502580679400,6.892679443359375,-2.1003880500793457,0.6991154551506042,0.03728824853897095
1761841502590752000,6.902751953125,0.6248774528503418,0.006502640433609486,0.4656848609447479
1761841502600821000,6.912821044921875,3.3284480571746826,-0.6044062972068787,0.4633641839027405
1761841502610891000,6.92289111328125,5.625165939331055,-1.3349717855453491,0.1417800337076187
1761841502620960000,6.9329599609375,7.485266208648682,-1.9745876789093018,-0.18617892265319824
1761841502631030000,6.943030029296875,8.96638011932373,-2.477844715118408,-0.41028687357902527
1761841502641099000,6.95309912109375,10.091946601867676,-2.9184939861297607,-0.5173435211181641
1761841502651169000,6.9631689453125,10.879341125488281,-3.3228061199188232,-0.49233299493789673
1761841502661238000,6.973238037109375,11.288731575012207,-3.7034153938293457,-0.3084893822669983
1761841502671308000,6.98330810546875,11.306828498840332,-4.034143924713135,-0.008687498047947884
1761841502681377300,6.993377197265625,10.727882385253906,-4.15754508972168,0.4134613573551178
1761841502691447000,7.003447021484375,9.221003532409668,-4.008082866668701,0.8906651735305786
1761841502701516000,7.01351611328125,6.749495506286621,-3.3634183406829834,1.1476596593856812
1761841502711586000,7.0235859375,3.623169183731079,-2.112886905670166,1.0376147031784058
1761841502721656000,7.033656005859375,0.25594362616539,-0.3448322117328644,0.7762672305107117
1761841502731725000,7.04372509765625,-2.9789276123046875,1.0637496709823608,0.36706215143203735
1761841502741795000,7.053795166015625,-5.680107116699219,2.0859973430633545,-0.1750732809305191
1761841502751864000,7.063864013671875,-7.722137928009033,2.6167614459991455,-0.6348059773445129
1761841502761934000,7.07393408203125,-9.113520622253418,2.9772095680236816,-0.8892673254013062
1761841502772003000,7.084003173828125,-9.97548770904541,3.109938383102417,-0.9850500226020813
1761841502782073000,7.094072998046875,-10.409879684448242,3.145442247390747,-0.9764642715454102
1761841502792142000,7.10414208984375,-10.5275239944458,3.090125560760498,-0.9325303435325623
1761841502802212000,7.114212158203125,-10.433022499084473,2.912721633911133,-0.8782553672790527
1761841502812281000,7.124281005859375,-10.049820899963379,2.5510377883911133,-0.8887551426887512
1761841502822351000,7.13435107421875,-9.204343795776367,2.0767245292663574,-0.9863547086715698
1761841502832420000,7.144420166015625,-7.773030757904053,1.74083411693573,-1.1131103038787842
1761841502842489900,7.15448974609375,-5.713682174682617,1.1778218746185303,-1.14570152759552
1761841502852559000,7.16455908203125,-3.02974534034729,0.4229525923728943,-0.9189708828926086
1761841502862629000,7.174629150390625,-0.0027915253303945065,-0.4632115960121155,-0.41294869780540466
1761841502872698000,7.184697998046875,2.9180874824523926,-1.4072513580322266,0.32618477940559387
1761841502882768100,7.19476806640625,5.412768363952637,-2.0836377143859863,0.7210503220558167
1761841502892838000,7.204837890625,7.341599941253662,-2.6829442977905273,0.7963730692863464
1761841502902907100,7.2149072265625,8.814844131469727,-3.211496353149414,0.8289411067962646
1761841502912977000,7.224976806640625,9.860501289367676,-3.6006219387054443,0.893542468547821
1761841502923046100,7.235046142578125,10.471489906311035,-3.7261033058166504,0.9446935653686523
1761841502933116000,7.245115966796875,10.690549850463867,-3.7453181743621826,0.9829141497612
1761841502943185200,7.25518505859375,10.600295066833496,-3.725548505783081,1.0394892692565918
1761841502953255200,7.265255126953125,10.110953330993652,-3.6313958168029785,1.158216953277588
1761841502963324200,7.27532421875,8.965188026428223,-3.403446674346924,1.3378394842147827
1761841502973394200,7.285394287109375,6.9595947265625,-2.863722562789917,1.4321616888046265
1761841502983463200,7.295463134765625,4.164302349090576,-2.180094003677368,1.2233039140701294
1761841502993533200,7.305533203125,1.0912632942199707,-0.7742568254470825,0.7781229615211487
1761841503003602000,7.315601806640625,-1.9399902820587158,0.6708734631538391,0.03810290992259979
1761841503013672200,7.325672119140625,-4.626651287078857,1.749578595161438,-0.7820907831192017
1761841503023742000,7.335741943359375,-6.735241413116455,2.4196531772613525,-1.3562850952148438
1761841503033811200,7.345811279296875,-8.252998352050781,2.8858447074890137,-1.6220855712890625
1761841503043881200,7.355881103515625,-9.270397186279297,3.1301348209381104,-1.6968435049057007
1761841503053950000,7.365949951171875,-9.882710456848145,3.2145767211914062,-1.5995118618011475
1761841503064020200,7.376020263671875,-10.161930084228516,3.141810417175293,-1.3978849649429321
1761841503074089000,7.3860888671875,-10.150796890258789,2.8449723720550537,-1.1639331579208374
1761841503084159200,7.3961591796875,-9.740100860595703,2.379807710647583,-1.006649374961853
1761841503094228000,7.40622802734375,-8.824914932250977,1.862539529800415,-0.9535211324691772
1761841503104298200,7.41629833984375,-7.471378326416016,1.3637938499450684,-0.8299789428710938
1761841503114367000,7.426366943359375,-5.634218692779541,1.0158958435058594,-0.441203236579895
1761841503124437000,7.43643701171875,-3.405820369720459,0.6247909069061279,0.13222594559192657
1761841503134506000,7.446506103515625,-0.976190984249115,-0.09319252520799637,0.811359703540802
1761841503144576000,7.456575927734375,1.5087814331054688,-0.5542038083076477,1.354686975479126
1761841503154645000,7.46664501953125,3.701510429382324,-0.8169249296188354,1.4478226900100708
1761841503164715000,7.476715087890625,5.45361852645874,-0.8754955530166626,1.2765910625457764
1761841503174784300,7.4867841796875,6.792661666870117,-0.7885755896568298,1.0169134140014648
1761841503184854000,7.49685400390625,7.8413004875183105,-0.7678442001342773,0.7235118746757507
1761841503194924000,7.506924072265625,8.732236862182617,-0.8246313333511353,0.4649468958377838
1761841503204993000,7.516992919921875,9.429620742797852,-1.1827681064605713,0.31285884976387024
1761841503215063000,7.52706298828125,9.854162216186523,-1.943921446800232,0.3283909261226654
1761841503225132000,7.537132080078125,9.818296432495117,-2.7539925575256348,0.517257809638977
1761841503235202000,7.5472021484375,9.053682327270508,-3.028823137283325,0.7617825865745544
1761841503245271000,7.55727099609375,7.314234256744385,-2.579660654067993,0.8675926327705383
1761841503255341000,7.567341064453125,4.749757766723633,-1.4186153411865234,0.6537408232688904
1761841503265410300,7.577410400390625,1.6338860988616943,0.018813367933034897,0.2647717297077179
1761841503275480000,7.58747998046875,-1.5788785219192505,1.093360185623169,0.0455685518682003
1761841503285549000,7.597549072265625,-4.496713161468506,2.4527039527893066,-0.19058646261692047
1761841503295619000,7.607619140625,-6.960183143615723,3.1280643939971924,-0.3669399321079254
1761841503305688000,7.61768798828125,-8.77649974822998,3.6576666831970215,-0.41649389266967773
1761841503315758000,7.627758056640625,-10.008020401000977,3.890965700149536,-0.4369967579841614
1761841503325828000,7.637828125,-10.7100830078125,3.8620986938476562,-0.43043047189712524
1761841503335897000,7.64789697265625,-10.964624404907227,3.6222174167633057,-0.4594549536705017
1761841503345967000,7.657967041015625,-10.789236068725586,3.0808486938476562,-0.518009603023529
1761841503356036000,7.6680361328125,-10.075889587402344,2.2137043476104736,-0.5977214574813843
1761841503366106000,7.678106201171875,-8.712238311767578,1.2018697261810303,-0.4877784550189972
1761841503376175000,7.688175048828125,-6.7191853523254395,0.28057095408439636,0.013003682717680931
1761841503386245000,7.6982451171875,-4.159042835235596,-0.2028399258852005,0.7019338607788086
1761841503396314000,7.708314208984375,-1.3521097898483276,-0.4723643362522125,1.2968316078186035
1761841503406383900,7.7183837890625,1.3221074342727661,-0.7367222309112549,1.516746163368225
1761841503416453000,7.728453125,3.6323845386505127,-1.0372881889343262,1.3545734882354736
1761841503426523000,7.73852294921875,5.48829460144043,-1.2250136137008667,0.9711896181106567
1761841503436592000,7.748592041015625,6.959875106811523,-1.4019944667816162,0.574428379535675
1761841503446662100,7.758662109375,8.119468688964844,-1.7005058526992798,0.3016040623188019
1761841503456731100,7.768731201171875,8.95659351348877,-2.065889835357666,0.14598596096038818
1761841503466801200,7.77880126953125,9.469125747680664,-2.3679146766662598,0.0369470976293087
1761841503476870100,7.7888701171875,9.605489730834961,-2.5352518558502197,0.008150071837008
1761841503486940200,7.798940185546875,9.162786483764648,-2.673705577850342,0.08164239674806595
1761841503497010000,7.809010009765625,8.019871711730957,-2.5241527557373047,0.1373080611228943
1761841503507079200,7.8190791015625,6.038145542144775,-1.8637828826904297,0.08315400779247284
1761841503517149000,7.82914892578125,3.392782688140869,-0.7095286846160889,-0.17517021298408508
1761841503527218200,7.83921826171875,0.5171448588371277,0.6562740206718445,-0.5162886381149292
1761841503537288200,7.8492880859375,-2.3126485347747803,1.6492698192596436,-0.7511230111122131
1761841503547357200,7.859357177734375,-4.757838249206543,2.394035816192627,-0.8397229313850403
1761841503557427200,7.86942724609375,-6.6319427490234375,3.0331673622131348,-0.8417572975158691
1761841503567496000,7.879495849609375,-7.966975688934326,3.441713809967041,-0.804938554763794
1761841503577566200,7.889566162109375,-8.788102149963379,3.5008232593536377,-0.732603907585144
1761841503587637200,7.89963720703125,-9.173256874084473,3.1330080032348633,-0.7019493579864502
1761841503597707000,7.90970703125,-9.170210838317871,2.3019776344299316,-0.7406141757965088
1761841503607776300,7.9197763671875,-8.7202787399292,1.2068439722061157,-0.8664405345916748
1761841503617846000,7.929845947265625,-7.715324401855469,0.3325955271720886,-0.919914186000824
1761841503627916000,7.939916015625,-6.159651279449463,-0.4119792878627777,-0.6674121618270874
1761841503637985000,7.949985107421875,-4.064760684967041,-0.8755008578300476,-0.1969900280237198
1761841503648055000,7.960054931640625,-1.5793941020965576,-0.9993751645088196,0.20999345183372498
1761841503658124000,7.9701240234375,0.9962118864059448,-1.2307173013687134,0.5042439699172974
1761841503668194000,7.980194091796875,3.350271701812744,-1.538482904434204,0.651831865310669
1761841503678263300,7.99026318359375,5.294413089752197,-1.988309383392334,0.7143969535827637
1761841503688333000,8.0003330078125,6.891064167022705,-2.3183774948120117,0.7755820155143738
1761841503698402000,8.010402099609376,8.103301048278809,-2.353546380996704,0.8862515091896057
1761841503708471000,8.020470947265625,8.902162551879883,-2.2120277881622314,1.0000190734863281
1761841503718541000,8.030541015625,9.40575885772705,-2.0726914405822754,1.0670801401138306
1761841503728610000,8.040610107421875,9.612442970275879,-2.0856363773345947,1.1268266439437866
1761841503738680000,8.05068017578125,9.481688499450684,-2.332794189453125,1.161936640739441
1761841503748749000,8.0607490234375,8.733484268188477,-2.9038033485412598,1.2041724920272827
1761841503758819000,8.070819091796874,7.032163143157959,-2.965059757232666,1.1561474800109863
1761841503768888000,8.08088818359375,4.399734020233154,-2.0944347381591797,0.771152138710022
1761841503778958000,8.0909580078125,1.1686017513275146,-0.6284778118133545,0.18490886688232422
1761841503789027000,8.101027099609375,-2.1721603870391846,1.1538769006729126,-0.33522433042526245
1761841503799097000,8.11109716796875,-5.238280296325684,2.6964969635009766,-0.9008411169052124
1761841503809166000,8.121166015625,-7.7463836669921875,3.7434537410736084,-1.2257078886032104
1761841503819236000,8.131236083984374,-9.570109367370605,4.484377384185791,-1.2741236686706543
1761841503829306000,8.14130615234375,-10.743143081665039,4.850579261779785,-1.1693551540374756
1761841503839375000,8.151375,-11.335617065429688,4.814526081085205,-0.9639540314674377
1761841503849445000,8.161445068359376,-11.405598640441895,4.385122299194336,-0.7429021000862122
1761841503859514000,8.17151416015625,-10.85721492767334,3.5700531005859375,-0.6177386045455933
1761841503869584100,8.181584228515625,-9.421435356140137,2.550837755203247,-0.6215692758560181
1761841503879652900,8.19165283203125,-7.073292255401611,1.342456340789795,-0.6114319562911987
1761841503889723100,8.20172314453125,-3.9795587062835693,0.3273847997188568,-0.46074578166007996
1761841503899792000,8.2117919921875,-0.4594314992427826,-0.6748088002204895,-0.09389160573482513
1761841503909862100,8.221862060546876,3.0275089740753174,-1.356497049331665,0.3912026584148407
1761841503919931100,8.23193115234375,5.835526943206787,-2.018357515335083,0.6749534010887146
1761841503930001000,8.2420009765625,7.860764980316162,-2.481276035308838,0.7914333939552307
1761841503940070100,8.252070068359375,9.199084281921387,-2.571702718734741,0.8979060649871826
1761841503950140000,8.262139892578125,9.940962791442871,-2.406991958618164,1.0109177827835083
1761841503960209200,8.272209228515624,10.109752655029297,-2.1508519649505615,1.065714716911316
1761841503970279000,8.28227880859375,9.714242935180664,-1.8311821222305298,0.9909001588821411
1761841503980348200,8.29234814453125,8.64406967163086,-1.493396282196045,0.8249234557151794
1761841503990418000,8.30241796875,6.729472637176514,-0.8452956080436707,0.5567551255226135
1761841504000488000,8.312488037109375,4.038503170013428,0.19338278472423553,0.1305263191461563
1761841504010557200,8.32255712890625,0.9134504199028015,1.6240971088409424,-0.3514152765274048
1761841504020627000,8.332626953125,-2.2359964847564697,3.2573349475860596,-0.7554115056991577
1761841504030696200,8.3426962890625,-5.15535831451416,4.67595100402832,-0.9135500192642212
1761841504040766000,8.352765869140624,-7.56294059753418,5.700264930725098,-0.7787551879882812
1761841504050835200,8.362835205078126,-9.30804443359375,6.284172534942627,-0.4223981201648712
1761841504060905000,8.372905029296875,-10.430012702941895,6.384679317474365,0.06000208482146263
1761841504070974200,8.38297412109375,-11.013206481933594,6.1862616539001465,0.5754725933074951
1761841504081044000,8.3930439453125,-11.150331497192383,5.732588291168213,1.0273945331573486
1761841504091113200,8.40311328125,-10.775639533996582,4.660561561584473,1.277658462524414
1761841504101183200,8.413183349609374,-9.590246200561523,2.8979711532592773,1.2733079195022583
1761841504111253000,8.4232529296875,-7.430876731872559,1.0774455070495605,1.149904727935791
1761841504121322200,8.433322265625,-4.354093074798584,0.07473123073577881,1.0448558330535889
1761841504131392000,8.44339208984375,-0.8736308217048645,-0.6568157076835632,1.0535017251968384
1761841504141461200,8.453461181640625,2.5524675846099854,-1.6588319540023804,1.025932788848877
1761841504151531000,8.463531005859375,5.586751461029053,-2.7691543102264404,0.8345553278923035
1761841504161600000,8.47360009765625,7.958609580993652,-3.780651092529297,0.6734268665313721
1761841504171670000,8.483669921875,9.632157325744629,-4.434917449951172,0.6192805767059326
1761841504181739000,8.493739013671876,10.680726051330566,-4.788483142852783,0.6340743899345398
1761841504191809300,8.503809326171876,11.117990493774414,-4.8018798828125,0.5961832404136658
1761841504201878000,8.5138779296875,10.979384422302246,-4.528414249420166,0.4512854218482971
1761841504211948000,8.523947998046875,10.359247207641602,-3.9976859092712402,0.22936581075191498
1761841504222017000,8.53401708984375,9.28341293334961,-3.3241312503814697,-0.014148043468594551
1761841504232087000,8.544087158203125,7.713070392608643,-2.4959781169891357,-0.25627920031547546
1761841504242157000,8.554156982421874,5.557448387145996,-1.49405038356781,-0.48752492666244507
1761841504252226000,8.56422607421875,2.877216339111328,-0.320013165473938,-0.7578378915786743
1761841504262296000,8.574296142578126,-0.025914421305060387,1.037900447845459,-1.016222596168518
1761841504272365000,8.584364990234375,-2.7617886066436768,2.236506938934326,-1.1174520254135132
1761841504282435000,8.59443505859375,-5.017880916595459,3.0582315921783447,-0.9530577063560486
1761841504292504000,8.604504150390625,-6.659686088562012,3.63724422454834,-0.6438226699829102
1761841504302574000,8.614573974609375,-7.68628454208374,3.8707597255706787,-0.30738312005996704
1761841504312643000,8.62464306640625,-8.158355712890625,3.5830023288726807,0.009269664995372295
1761841504322713000,8.634713134765626,-8.026679039001465,2.5670666694641113,0.1944136917591095
1761841504332784000,8.6447841796875,-7.108806133270264,0.9030957818031311,0.20585383474826813
1761841504342854100,8.654854248046876,-5.274196147918701,-0.6698760986328125,0.3613121211528778
1761841504352924200,8.664924072265626,-2.546877145767212,-1.477758526802063,0.886594831943512
1761841504362993000,8.674992919921875,0.4386940002441406,-1.7716481685638428,1.4157392978668213
1761841504373063200,8.685063232421875,3.311408042907715,-2.138485908508301,1.6677026748657227
1761841504383132000,8.6951318359375,5.7163567543029785,-2.3672077655792236,1.656856894493103
1761841504393202200,8.7052021484375,7.457787036895752,-2.465686798095703,1.5786813497543335
1761841504403271000,8.71527099609375,8.552508354187012,-2.272146463394165,1.4865070581436157
1761841504413341000,8.7253408203125,9.018815040588379,-2.1078226566314697,1.3347477912902832
1761841504423410200,8.73541015625,8.942768096923828,-1.8728078603744507,1.0788366794586182
1761841504433480000,8.74547998046875,8.32693099975586,-1.5754741430282593,0.7209004163742065
1761841504443549200,8.755549072265625,7.160287857055664,-1.3105825185775757,0.33699026703834534
1761841504453619000,8.765618896484375,5.418741226196289,-0.7141029238700867,-0.012142948806285858
1761841504463688200,8.775688232421874,3.154191732406616,0.1847221851348877,-0.33348023891448975
1761841504473758000,8.785758056640624,0.67230623960495,1.2223912477493286,-0.6273730993270874
1761841504483828000,8.795827880859376,-1.6620007753372192,2.186473846435547,-0.7458680868148804
1761841504493897000,8.80589697265625,-3.5976579189300537,2.7789201736450195,-0.6633396148681641
1761841504503967000,8.815967041015625,-5.0298566818237305,3.1330177783966064,-0.4805527627468109
1761841504514036200,8.8260361328125,-6.03407096862793,3.172311305999756,-0.3393618166446686
1761841504524106000,8.83610595703125,-6.631871700286865,2.90496563911438,-0.31825172901153564
1761841504534175200,8.84617529296875,-6.872159481048584,2.539374828338623,-0.3917187750339508
1761841504544245000,8.856244873046874,-6.805528163909912,2.293823480606079,-0.5352594256401062
1761841504554314200,8.866314208984376,-6.393568992614746,2.1464130878448486,-0.6361783146858215
1761841504564384000,8.876384033203125,-5.551933288574219,1.9826685190200806,-0.6115579009056091
1761841504574453000,8.886452880859375,-4.281726837158203,1.8054291009902954,-0.5277583599090576
1761841504584523000,8.89652294921875,-2.724905014038086,1.4427059888839722,-0.43673551082611084
1761841504594587100,8.906587158203125,-1.0567681789398193,0.8607466816902161,-0.41997623443603516
1761841504604657200,8.9166572265625,0.49992460012435913,0.17348310351371765,-0.5353137254714966
1761841504614727200,8.92672705078125,1.73524010181427,-0.40412697196006775,-0.7022643685340881
1761841504624796200,8.936796142578125,2.532057762145996,-0.7474195957183838,-0.8625286221504211
1761841504634866200,8.9468662109375,2.8442306518554688,-0.7806732058525085,-0.9968448877334595
1761841504644935200,8.95693505859375,2.6815266609191895,-0.4980585277080536,-1.1092880964279175
1761841504655005200,8.967005126953126,2.1411144733428955,0.006668821442872286,-1.196231484413147
1761841504665074200,8.97707421875,1.347594976425171,0.5599133968353271,-1.2677781581878662
1761841504675144200,8.987144287109375,0.45996013283729553,0.938443124294281,-1.3009328842163086
1761841504685213200,8.997213134765625,-0.35339295864105225,1.0975602865219116,-1.3025670051574707
1761841504695283200,9.007283203125,-0.94247967004776,1.2351235151290894,-1.2724748849868774
1761841504705352200,9.017352294921874,-1.264207124710083,1.2169638872146606,-1.185700535774231
1761841504715422200,9.027422119140626,-1.3443775177001953,1.0598433017730713,-1.0776289701461792
1761841504725492200,9.0374921875,-1.2420908212661743,0.8066520690917969,-1.0481821298599243
1761841504735561200,9.047561279296875,-0.9959985613822937,0.6807420253753662,-1.1399363279342651
1761841504745631200,9.05763134765625,-0.6112982630729675,0.5763589143753052,-1.2803844213485718
1761841504755700200,9.0677001953125,-0.13324327766895294,0.400410532951355,-1.417550802230835
1761841504765770200,9.077770263671875,0.3821108937263489,0.22278274595737457,-1.5436369180679321
1761841504775839000,9.0878388671875,0.7945575714111328,0.06840888410806656,-1.6225303411483765
1761841504785909200,9.0979091796875,1.0306686162948608,0.040045686066150665,-1.6545149087905884
1761841504795978000,9.10797802734375,1.0473374128341675,0.09344606101512909,-1.7253859043121338
1761841504806048300,9.11804833984375,0.9183644652366638,0.4207935631275177,-1.8718863725662231
1761841504816117000,9.128116943359375,0.6673322319984436,0.689788281917572,-2.048168182373047
1761841504826187000,9.13818701171875,0.379526823759079,0.6651809215545654,-2.1236627101898193
1761841504836256300,9.14825634765625,0.16582411527633667,0.8089764714241028,-2.3203656673431396
1761841504846326000,9.158325927734374,-0.003967577591538429,1.1003904342651367,-2.6107258796691895
1761841504856396300,9.168396240234374,-0.3659047484397888,2.1247432231903076,-2.828848361968994
1761841504866465000,9.178465087890626,-0.7385662198066711,2.3639609813690186,-2.957002639770508
1761841504876535300,9.188535400390625,-1.166502594947815,2.457581043243408,-2.620067596435547
1761841504886604000,9.19860400390625,-1.3700509071350098,2.087982177734375,-2.3060142993927
1761841504896674000,9.208674072265625,-1.5494498014450073,1.4810360670089722,-1.9157962799072266
1761841504906743000,9.218742919921874,-1.6195985078811646,0.6991170644760132,-1.5491610765457153
1761841504916813000,9.22881298828125,-1.6128966808319092,-0.22179923951625824,-1.2813307046890259
1761841504926882300,9.23888232421875,-1.5790011882781982,-1.210486888885498,-1.2438703775405884
1761841504936952000,9.2489521484375,-1.474406123161316,-1.9928569793701172,-1.2342298030853271
1761841504947021300,9.259021240234375,-1.2331870794296265,-2.2173829078674316,-1.0750715732574463
1761841504957091000,9.269091064453125,-0.8648578524589539,-1.9875861406326294,-0.9504126906394958
1761841504967161000,9.2791611328125,-0.4980398714542389,-1.8200143575668335,-0.9245706796646118
1761841504977230000,9.28922998046875,-0.22463124990463257,-1.8198844194412231,-0.9691445827484131
1761841504987300000,9.299300048828124,-0.0950881689786911,-1.700852870941162,-1.0197733640670776
1761841504997369000,9.309369140625,-0.03164634481072426,-1.6110987663269043,-1.1017465591430664
1761841505007439000,9.319439208984376,0.013202354311943054,-1.4561152458190918,-1.1605403423309326
1761841505017508400,9.32950830078125,0.011857192032039165,-1.1164442300796509,-1.1379764080047607
1761841505027578000,9.339578125,-0.02437138557434082,-0.7969503998756409,-1.0148597955703735
1761841505037647400,9.3496474609375,-0.043349869549274445,-0.5533441305160522,-0.7921697497367859
1761841505047717000,9.359717041015625,-0.0663185715675354,-0.38190874457359314,-0.4986151158809662
1761841505057786000,9.3697861328125,-0.09754732996225357,-0.2773756682872772,-0.17922115325927734
1761841505067856100,9.379856201171876,-0.11991069465875626,-0.1896415650844574,0.14904114603996277
1761841505077926100,9.389926025390626,-0.12993936240673065,-0.16597352921962738,0.41438600420951843
1761841505087995100,9.3999951171875,-0.12625859677791595,-0.19721719622612,0.567180335521698
1761841505098065200,9.410065185546875,-0.1235048919916153,-0.20266123116016388,0.6285683512687683
1761841505108134100,9.420134033203125,-0.14044366776943207,-0.2152678370475769,0.6406612396240234
1761841505118204200,9.4302041015625,-0.1721041202545166,-0.22618599236011505,0.6175718903541565
1761841505128273200,9.440273193359374,-0.18966419994831085,-0.2745250463485718,0.5589231848716736
1761841505138343200,9.45034326171875,-0.19279742240905762,-0.3361327350139618,0.47709253430366516
1761841505148412200,9.460412109375,-0.17799077928066254,-0.3581397831439972,0.40593764185905457
1761841505158482200,9.470482177734375,-0.1557600349187851,-0.336154043674469,0.34897130727767944
1761841505168551200,9.48055126953125,-0.1407800167798996,-0.2986604571342468,0.30193188786506653
1761841505178621000,9.490620849609375,-0.12018286436796188,-0.23141777515411377,0.28370946645736694
1761841505188690200,9.500690185546874,-0.10655707120895386,-0.18842023611068726,0.29924583435058594
1761841505198760200,9.51076025390625,-0.11014407873153687,-0.16940900683403015,0.30531036853790283
1761841505208830200,9.520830322265626,-0.10089065879583359,-0.14521124958992004,0.29148590564727783
1761841505218899200,9.530899169921875,-0.079891636967659,-0.13774055242538452,0.24635198712348938
1761841505228969200,9.54096923828125,-0.04441620036959648,-0.1364353448152542,0.18926739692687988
1761841505239038200,9.5510380859375,-0.0024863271974027157,-0.14846563339233398,0.14418034255504608
1761841505249108000,9.56110791015625,0.02581428736448288,-0.162755087018013,0.1049322709441185
1761841505259177200,9.57117724609375,0.03353159502148628,-0.1707797348499298,0.056351955980062485
1761841505269247000,9.5812470703125,0.01950046420097351,-0.1598152369260788,-0.006130862981081009
1761841505279316200,9.591316162109376,-0.02503611147403717,-0.15726099908351898,-0.08879990875720978
1761841505289386200,9.60138623046875,-0.08092308044433594,-0.14527170360088348,-0.16787448525428772
1761841505299455200,9.611455322265625,-0.14009372889995575,-0.15725433826446533,-0.22786618769168854
1761841505309525200,9.621525146484375,-0.19420702755451202,-0.14062395691871643,-0.25832343101501465
1761841505319595000,9.631594970703125,-0.16279025375843048,-0.07198364287614822,-0.22899456322193146
