time,seconds_elapsed,z,y,x
1761841495769903400,0.0819033203125,0.40365687012672424,1.9106439352035522,1.069916009902954
1761841495779973600,0.0919736328125,0.47654521465301514,1.9887562990188599,1.1371861696243286
1761841495790042600,0.102042724609375,0.49568986892700195,2.0015804767608643,1.140692114830017
1761841495800112400,0.1121123046875,0.47161969542503357,2.0390429496765137,1.1482951641082764
1761841495810181600,0.122181640625,0.4341598451137543,2.104374408721924,1.1668155193328857
1761841495820251400,0.13225146484375,0.4372483193874359,2.1893694400787354,1.2211618423461914
1761841495830320600,0.142320556640625,0.4755951464176178,2.257904529571533,1.2743200063705444
1761841495840390400,0.152390380859375,0.5440325736999512,2.3311216831207275,1.3359519243240356
1761841495850460400,0.16246044921875,0.6181210875511169,2.359771251678467,1.3866055011749268
1761841495860529400,0.172529296875,0.7616803646087646,2.2331671714782715,1.3661926984786987
1761841495870599400,0.182599365234375,0.9411525130271912,2.117999315261841,1.3207401037216187
1761841495880668700,0.192668701171875,1.0896751880645752,2.008331298828125,1.2791348695755005
1761841495890738400,0.202738525390625,1.2485101222991943,1.8780516386032104,1.26377272605896
1761841495900807700,0.2128076171875,1.5127511024475098,1.6375614404678345,1.2204878330230713
1761841495910877400,0.22287744140625,1.8283770084381104,1.4579414129257202,1.175055742263794
1761841495920946700,0.23294677734375,2.130178451538086,1.423296332359314,1.1743053197860718
1761841495931016400,0.243016357421875,2.3574025630950928,1.3063329458236694,1.222062110900879
1761841495941085700,0.253085693359375,2.535701036453247,1.1479721069335938,1.276243805885315
1761841495951155500,0.263155517578125,2.6832518577575684,1.0207772254943848,1.3353898525238037
1761841495961224400,0.273224365234375,2.8384969234466553,0.7378346920013428,1.3292856216430664
1761841495971294700,0.283294677734375,2.922840118408203,0.6062594652175903,1.3325047492980957
1761841495981364500,0.293364501953125,2.9964332580566406,0.1257338672876358,1.4619178771972656
1761841495991433700,0.303433837890625,3.016636610031128,-2.0665502548217773,2.3092775344848633
1761841496001503500,0.31350341796875,2.938302516937256,-2.688054084777832,2.6308367252349854
1761841496011572500,0.323572509765625,3.3027844429016113,-2.9197163581848145,2.3837406635284424
1761841496021642500,0.333642578125,3.885594606399536,-3.464414358139038,2.166764497756958
1761841496031711500,0.34371142578125,4.553888320922852,-3.759300947189331,2.095404624938965
1761841496041781500,0.353781494140625,5.225069999694824,-3.7960612773895264,2.1475491523742676
1761841496051850500,0.3638505859375,5.843849182128906,-3.7997732162475586,2.3466434478759766
1761841496061920800,0.373920654296875,6.419300079345703,-4.027594566345215,2.555934190750122
1761841496071989500,0.383989501953125,6.8996758460998535,-4.612734794616699,2.743501663208008
1761841496082059500,0.3940595703125,7.203906536102295,-5.353536605834961,2.96128511428833
1761841496092129500,0.404129638671875,7.221517562866211,-6.060968399047852,3.1993942260742188
1761841496102198500,0.414198486328125,7.091804027557373,-6.462677955627441,3.439241409301758
1761841496112268500,0.4242685546875,6.801414966583252,-6.702639102935791,3.687793254852295
1761841496122337500,0.434337646484375,6.302831172943115,-6.501974105834961,3.9814646244049072
1761841496132407600,0.444407470703125,5.642929553985596,-5.833261966705322,4.230075836181641
1761841496142476500,0.4544765625,4.958012104034424,-5.173741817474365,4.367027759552002
1761841496152546600,0.464546630859375,4.1504292488098145,-4.87296199798584,4.42647647857666
1761841496162615600,0.474615478515625,3.139582872390747,-4.882297039031982,4.320627689361572
1761841496172685600,0.484685546875,2.2384071350097656,-4.731584548950195,4.001301288604736
1761841496182754600,0.494754638671875,1.40160071849823,-4.442824363708496,3.4153518676757812
1761841496192824600,0.504824462890625,0.6067028045654297,-4.097078323364258,2.605252981185913
1761841496202894300,0.514894287109375,-0.21872852742671967,-3.81252384185791,1.6706774234771729
1761841496212963600,0.524963623046875,-1.1241309642791748,-3.696333646774292,0.6888161897659302
1761841496223033300,0.535033447265625,-2.13928484916687,-3.5058586597442627,-0.29285749793052673
1761841496233102600,0.5451025390625,-3.1606998443603516,-3.1370227336883545,-1.1146951913833618
1761841496243172600,0.555172607421875,-4.215691566467285,-2.694883108139038,-1.7315583229064941
1761841496253241600,0.56524169921875,-5.349574565887451,-2.2157509326934814,-2.2179183959960938
1761841496263311600,0.5753115234375,-6.459894180297852,-1.6446654796600342,-2.617368698120117
1761841496273380600,0.585380615234375,-7.600924968719482,-1.056671380996704,-2.9968714714050293
1761841496283450600,0.59545068359375,-8.718462944030762,-0.4217618703842163,-3.3348140716552734
1761841496293519600,0.60551953125,-9.804802894592285,0.14288826286792755,-3.6290338039398193
1761841496303589600,0.615589599609375,-10.864195823669434,0.649719774723053,-3.797882556915283
1761841496313658400,0.625658447265625,-11.877581596374512,1.1511253118515015,-3.817477226257324
1761841496323728600,0.635728759765625,-12.776435852050781,1.6316173076629639,-3.6658453941345215
1761841496333798700,0.645798583984375,-13.384529113769531,2.0958926677703857,-3.413525104522705
1761841496343867600,0.65586767578125,-13.423352241516113,2.437427043914795,-3.1220078468322754
1761841496353937700,0.665937744140625,-12.790346145629883,2.6794238090515137,-2.8562934398651123
1761841496364006400,0.67600634765625,-11.462894439697266,2.6695876121520996,-2.690849542617798
1761841496374076700,0.68607666015625,-9.499838829040527,2.4235031604766846,-2.7711055278778076
1761841496384145400,0.6961455078125,-6.973697185516357,1.8921122550964355,-3.1360955238342285
1761841496394215700,0.706215576171875,-3.873791217803955,1.0819520950317383,-3.7437870502471924
1761841496404284400,0.716284423828125,-0.3106977045536041,0.01266649179160595,-4.38295841217041
1761841496414354700,0.726354736328125,3.4639933109283447,-1.204253077507019,-4.802976608276367
1761841496424423400,0.73642333984375,7.164078235626221,-2.4977805614471436,-4.889622688293457
1761841496434493400,0.746493408203125,10.46420955657959,-3.6454946994781494,-4.560270309448242
1761841496444562400,0.7565625,13.168011665344238,-4.186354160308838,-4.041349411010742
1761841496454632400,0.766632568359375,15.267683029174805,-4.137124538421631,-3.518977165222168
1761841496464701400,0.776701416015625,16.897930145263672,-4.048108100891113,-2.9787745475769043
1761841496474771500,0.786771484375,18.231597900390625,-4.606054306030273,-2.2362751960754395
1761841496484841500,0.796841552734375,19.259662628173828,-6.060701847076416,-1.0673654079437256
1761841496494910500,0.806910400390625,19.558908462524414,-7.783730983734131,0.7455143928527832
1761841496504980500,0.81698046875,18.866321563720703,-8.339945793151855,2.7189958095550537
1761841496515049500,0.827049560546875,16.49652099609375,-6.869570732116699,4.278299331665039
1761841496525119500,0.837119384765625,12.187152862548828,-3.6539173126220703,4.924437522888184
1761841496535188500,0.8471884765625,6.9292426109313965,-0.5823806524276733,4.213663578033447
1761841496545258500,0.857258544921875,1.9881577491760254,1.669110655784607,2.9496593475341797
1761841496555327500,0.867327392578125,-2.0401198863983154,3.0943892002105713,1.2433902025222778
1761841496565397500,0.8773974609375,-4.913223743438721,3.0141117572784424,-0.4479852318763733
1761841496575466800,0.887466796875,-6.653059482574463,2.387079954147339,-1.4901800155639648
1761841496585536500,0.89753662109375,-7.621901035308838,1.63437819480896,-1.9926034212112427
1761841496595606500,0.9076064453125,-8.107189178466797,1.1022193431854248,-2.0758023262023926
1761841496605675500,0.917675537109375,-8.342809677124023,0.885278582572937,-1.8771257400512695
1761841496615745500,0.92774560546875,-8.484203338623047,0.6724828481674194,-1.6225208044052124
1761841496625814800,0.937814697265625,-8.612919807434082,0.4128270447254181,-1.5418007373809814
1761841496635884500,0.947884521484375,-8.815695762634277,0.19806011021137238,-1.6926535367965698
1761841496645953500,0.95795361328125,-9.159294128417969,0.1583089679479599,-1.9404411315917969
1761841496656023600,0.9680234375,-9.710275650024414,0.49263375997543335,-2.141484022140503
1761841496666092500,0.978092529296875,-10.392529487609863,1.454099178314209,-2.1284313201904297
1761841496676162600,0.98816259765625,-11.120028495788574,2.4729864597320557,-1.7167326211929321
1761841496686231600,0.9982314453125,-11.556894302368164,3.277837038040161,-1.085124135017395
1761841496696301600,1.008301513671875,-11.233504295349121,3.493741750717163,-0.4400995969772339
1761841496706370600,1.01837060546875,-9.624350547790527,3.116682529449463,0.1145191490650177
1761841496716440600,1.028440673828125,-6.564622402191162,2.5738649368286133,0.5089486837387085
1761841496726509600,1.038509521484375,-2.4733850955963135,1.972804307937622,0.8050535917282104
1761841496736579600,1.04857958984375,1.8977247476577759,0.5968700647354126,1.0306086540222168
1761841496746649600,1.058649658203125,5.897599697113037,-0.7836082577705383,0.7523782849311829
1761841496756718600,1.068718505859375,9.068211555480957,-1.8512887954711914,0.3287753760814667
1761841496766788600,1.07878857421875,11.369743347167969,-2.419023036956787,0.14734220504760742
1761841496776857600,1.088857666015625,12.855130195617676,-2.3843700885772705,0.1824640929698944
1761841496786927400,1.09892724609375,13.725730895996094,-2.1423041820526123,0.33027538657188416
1761841496796996600,1.10899658203125,14.263596534729004,-2.2729742527008057,0.6917727589607239
1761841496807066600,1.119066650390625,14.547867774963379,-3.1097450256347656,1.3440980911254883
1761841496817135600,1.129135498046875,14.349984169006348,-4.301393032073975,2.1692893505096436
1761841496827205600,1.13920556640625,13.359109878540039,-5.012490749359131,2.9492475986480713
1761841496837274600,1.149274658203125,11.192752838134766,-4.646444320678711,3.6207094192504883
1761841496847344600,1.1593447265625,7.661654472351074,-3.1650779247283936,3.852844476699829
1761841496857413600,1.16941357421875,3.261969566345215,-1.2661713361740112,3.204573154449463
1761841496867483600,1.179483642578125,-1.134183406829834,0.391094833612442,1.7778737545013428
1761841496877552400,1.189552490234375,-4.918135166168213,1.3873568773269653,0.023682791739702225
1761841496887622700,1.19962255859375,-7.755974292755127,1.8498680591583252,-1.2551027536392212
1761841496897692700,1.209692626953125,-9.814038276672363,2.2029366493225098,-1.8790769577026367
1761841496907761700,1.21976171875,-11.385151863098145,2.598634719848633,-2.1576008796691895
1761841496917831700,1.229831787109375,-12.6253080368042,3.0955276489257812,-2.2240638732910156
1761841496927900700,1.239900634765625,-13.627909660339355,3.5666651725769043,-2.1227633953094482
1761841496937970700,1.249970703125,-14.469273567199707,3.998599052429199,-1.8566986322402954
1761841496948039400,1.260039306640625,-15.257163047790527,4.475371837615967,-1.3576788902282715
1761841496958109700,1.270109619140625,-15.895601272583008,4.964303970336914,-0.6333759427070618
1761841496968178400,1.280178466796875,-15.970281600952148,5.266205310821533,0.1389002650976181
1761841496978248700,1.290248779296875,-14.943309783935547,4.860504150390625,0.7833433747291565
1761841496988317400,1.3003173828125,-12.280860900878906,3.6767306327819824,1.2803425788879395
1761841496998387500,1.310387451171875,-7.947081565856934,2.2377965450286865,1.6012673377990723
1761841497008456400,1.32045654296875,-2.8188788890838623,0.5094642043113708,1.768935203552246
1761841497018526500,1.3305263671875,2.4574837684631348,-0.8795008659362793,1.355695366859436
1761841497028595700,1.340595703125,6.930811882019043,-2.05871319770813,0.5319205522537231
1761841497038665500,1.35066552734375,10.348556518554688,-2.8393852710723877,-0.23374195396900177
1761841497048735700,1.36073583984375,12.757739067077637,-3.263174057006836,-0.6080665588378906
1761841497058804500,1.370804443359375,14.28805923461914,-3.2957282066345215,-0.5808038115501404
1761841497068874500,1.38087451171875,15.154034614562988,-3.045687437057495,-0.34048283100128174
1761841497078943500,1.390943603515625,15.654083251953125,-3.0324018001556396,0.05980956554412842
1761841497089013500,1.401013427734375,15.961981773376465,-3.6581637859344482,0.6079917550086975
1761841497099082500,1.41108251953125,16.102924346923828,-4.576697826385498,1.2859328985214233
1761841497109152500,1.421152587890625,15.69174575805664,-5.324256896972656,2.102656602859497
1761841497119221800,1.4312216796875,14.232492446899414,-5.258299827575684,2.9191980361938477
1761841497129291500,1.44129150390625,11.367997169494629,-4.051920413970947,3.4744932651519775
1761841497139360800,1.45136083984375,7.147298812866211,-2.2739009857177734,3.270655393600464
1761841497149430500,1.461430419921875,2.434799909591675,-0.4621076285839081,1.9814820289611816
1761841497159499500,1.47149951171875,-2.0693347454071045,0.8826923370361328,0.10653702914714813
1761841497169569500,1.481569580078125,-5.752645969390869,1.5031119585037231,-1.3548412322998047
1761841497179638500,1.491638427734375,-8.278631210327148,1.9301880598068237,-1.8828531503677368
1761841497189708500,1.50170849609375,-9.839570999145508,2.2128148078918457,-1.8915214538574219
1761841497199778600,1.511778564453125,-10.64046859741211,2.165358066558838,-1.7062562704086304
1761841497209847800,1.521847900390625,-10.908587455749512,1.7875027656555176,-1.5317049026489258
1761841497219917600,1.53191748046875,-10.941478729248047,1.3310115337371826,-1.471581220626831
1761841497229986600,1.541986572265625,-11.008224487304688,1.0801113843917847,-1.5127134323120117
1761841497240056600,1.552056640625,-11.267535209655762,1.2124885320663452,-1.5766780376434326
1761841497250125600,1.56212548828125,-11.721046447753906,1.6813396215438843,-1.5661098957061768
1761841497260195600,1.572195556640625,-12.175090789794922,2.158054828643799,-1.4623126983642578
1761841497270264600,1.5822646484375,-12.220512390136719,2.4226014614105225,-1.3633171319961548
1761841497280334600,1.59233447265625,-11.3722562789917,2.3917415142059326,-1.258941888809204
1761841497290403600,1.602403564453125,-9.302116394042969,1.855343222618103,-0.9358858466148376
1761841497300473600,1.6124736328125,-6.054358005523682,0.9202514886856079,-0.4054827094078064
1761841497310542600,1.62254248046875,-2.091599464416504,-0.32084304094314575,0.23702940344810486
1761841497320612600,1.632612548828125,2.0624494552612305,-1.1941180229187012,0.6023893356323242
1761841497330681600,1.642681640625,5.6795654296875,-1.847008228302002,0.4346762001514435
1761841497340751600,1.652751708984375,8.513059616088867,-2.2291438579559326,0.06891456991434097
1761841497350821400,1.6628212890625,10.621644973754883,-2.3702993392944336,-0.1718072146177292
1761841497360890600,1.672890625,12.106817245483398,-2.3495864868164062,-0.17727072536945343
1761841497370960400,1.68296044921875,13.129898071289062,-2.22670841217041,-0.04471560940146446
1761841497381029600,1.693029541015625,13.91592788696289,-2.3173563480377197,0.14422857761383057
1761841497391099400,1.703099365234375,14.56438159942627,-2.835918426513672,0.47321897745132446
1761841497401168600,1.713168701171875,14.915980339050293,-3.7645695209503174,1.0382763147354126
1761841497411238700,1.72323876953125,14.704170227050781,-4.601497650146484,1.859673023223877
1761841497421307600,1.7333076171875,13.415809631347656,-4.775274276733398,2.7673840522766113
1761841497431377700,1.743377685546875,10.559914588928223,-4.084064483642578,3.3383233547210693
1761841497441446700,1.75344677734375,6.32395601272583,-2.556403398513794,2.9416708946228027
1761841497451516700,1.7635166015625,1.685323715209961,-0.9123514294624329,1.328450083732605
1761841497461585400,1.77358544921875,-2.8167295455932617,0.5591323375701904,-0.7376280426979065
1761841497471655700,1.78365576171875,-6.494946479797363,1.5613930225372314,-2.275723934173584
1761841497481724400,1.793724365234375,-9.086968421936035,2.224015474319458,-2.7361440658569336
1761841497491794700,1.803794677734375,-10.767789840698242,2.6174697875976562,-2.672287702560425
1761841497501864700,1.81386474609375,-11.752667427062988,2.7187373638153076,-2.349660873413086
1761841497511933400,1.823933349609375,-12.230337142944336,2.5843403339385986,-1.9717930555343628
1761841497522003700,1.834003662109375,-12.43967342376709,2.3949825763702393,-1.6207689046859741
1761841497532072400,1.844072509765625,-12.613076210021973,2.370988130569458,-1.3302710056304932
1761841497542142700,1.854142822265625,-12.78903865814209,2.6342225074768066,-1.086073637008667
1761841497552211500,1.86421142578125,-12.742718696594238,2.943725347518921,-0.8362435102462769
1761841497562281700,1.87428173828125,-12.012754440307617,2.876818895339966,-0.5980966091156006
1761841497572350500,1.8843505859375,-10.144758224487305,2.4626002311706543,-0.3481791913509369
1761841497582420200,1.894420166015625,-7.215380668640137,1.7227309942245483,-0.07161270827054977
1761841497592489200,1.9044892578125,-3.5894434452056885,0.7074759602546692,0.2018638253211975
1761841497602559200,1.914559326171875,0.3163573145866394,-0.24633120000362396,0.4326915442943573
1761841497612628200,1.924628173828125,3.963010787963867,-0.9723107814788818,0.42722034454345703
1761841497622698200,1.9346982421875,6.92178201675415,-1.4993118047714233,0.12590329349040985
1761841497632767500,1.944767578125,9.111540794372559,-1.860472559928894,-0.13026323914527893
1761841497642837200,1.954837158203125,10.676347732543945,-1.9700467586517334,-0.25536105036735535
1761841497652906500,1.964906494140625,11.750149726867676,-1.9496142864227295,-0.2498624175786972
1761841497662976300,1.974976318359375,12.474235534667969,-1.9447720050811768,-0.19133342802524567
1761841497673045500,1.98504541015625,13.016215324401855,-2.116030693054199,-0.051107339560985565
1761841497683115300,1.995115234375,13.395626068115234,-2.655893564224243,0.23128631711006165
1761841497693185300,2.005185302734375,13.509517669677734,-3.402003526687622,0.7030982971191406
1761841497703254300,2.015254150390625,13.050427436828613,-3.9679737091064453,1.3748549222946167
1761841497713324300,2.02532421875,11.539730072021484,-3.983339309692383,2.084987163543701
1761841497723393500,2.0353935546875,8.795076370239258,-3.2713637351989746,2.543036937713623
1761841497733463300,2.04546337890625,5.13196325302124,-1.9484959840774536,2.3391711711883545
1761841497743532500,2.055532470703125,1.113976001739502,-0.4918036162853241,1.3479715585708618
1761841497753602300,2.065602294921875,-2.6363258361816406,0.8711822032928467,-0.06455644965171814
1761841497763671300,2.07567138671875,-5.754561424255371,1.6579537391662598,-1.2974538803100586
1761841497773741300,2.0857412109375,-7.982048511505127,2.198167085647583,-1.8370994329452515
1761841497783810300,2.095810302734375,-9.492650032043457,2.52894926071167,-1.9878791570663452
1761841497793880300,2.10588037109375,-10.478999137878418,2.6901955604553223,-1.9369637966156006
1761841497803949300,2.11594921875,-11.124527931213379,2.7555625438690186,-1.7791029214859009
1761841497814019300,2.126019287109375,-11.615822792053223,2.798297882080078,-1.5541998147964478
1761841497824088300,2.13608837890625,-12.09410285949707,2.947352409362793,-1.2912651300430298
1761841497834158300,2.146158447265625,-12.565035820007324,3.313558578491211,-1.048143744468689
1761841497844227300,2.156227294921875,-12.743462562561035,3.6097664833068848,-0.8733999133110046
1761841497854297300,2.16629736328125,-12.062884330749512,3.3925416469573975,-0.7562157511711121
1761841497864366300,2.176366455078125,-9.988715171813965,2.987720012664795,-0.6057828068733215
1761841497874436400,2.186436279296875,-6.683661460876465,2.237964391708374,-0.3959827423095703
1761841497884505300,2.19650537109375,-2.67954683303833,0.7361832857131958,0.06752757728099823
1761841497894575400,2.206575439453125,1.608902096748352,-0.3395475745201111,0.3153344392776489
1761841497904645000,2.21664501953125,5.3937602043151855,-1.239714503288269,0.1493774652481079
1761841497914714400,2.22671435546875,8.316961288452148,-1.9701844453811646,-0.1539858728647232
1761841497924784400,2.236784423828125,10.464052200317383,-2.4054012298583984,-0.3428803086280823
1761841497934853400,2.246853271484375,11.934036254882812,-2.7282118797302246,-0.35009080171585083
1761841497944923400,2.25692333984375,12.820943832397461,-2.978987693786621,-0.2837543785572052
1761841497954992400,2.266992431640625,13.261723518371582,-3.261152505874634,-0.12218677252531052
1761841497965062400,2.2770625,13.295059204101562,-3.6277074813842773,0.1753837615251541
1761841497975131400,2.28713134765625,12.799392700195312,-3.9262144565582275,0.6350408792495728
1761841497985201400,2.297201416015625,11.473986625671387,-4.033955097198486,1.2027745246887207
1761841497995270100,2.307270263671875,9.041839599609375,-3.628204107284546,1.6621460914611816
1761841498005340400,2.31734033203125,5.572254180908203,-2.408909320831299,1.723036527633667
1761841498015409200,2.3274091796875,1.4168572425842285,-0.7504860758781433,1.2302793264389038
1761841498025479400,2.3374794921875,-2.7081892490386963,0.7885891199111938,0.425833135843277
1761841498035548200,2.347548095703125,-6.229670524597168,2.0454866886138916,-0.47853854298591614
1761841498045618200,2.3576181640625,-8.99817943572998,2.6256155967712402,-1.086774230003357
1761841498055687400,2.3676875,-10.910661697387695,3.028938055038452,-1.1524070501327515
1761841498065757200,2.377757080078125,-12.18819522857666,3.317546844482422,-0.9696915149688721
1761841498075827500,2.387827392578125,-12.956208229064941,3.510530471801758,-0.6187359094619751
1761841498085896200,2.397896240234375,-13.30887508392334,3.59623122215271,-0.20893853902816772
1761841498095966500,2.407966552734375,-13.300240516662598,3.6008458137512207,0.1639982908964157
1761841498106035200,2.41803515625,-12.875385284423828,3.444934368133545,0.36924925446510315
1761841498116105200,2.428105224609375,-11.842631340026855,3.019218921661377,0.3423263132572174
1761841498126174200,2.43817431640625,-9.983264923095703,2.2693333625793457,0.26093512773513794
1761841498136244200,2.448244140625,-7.231106281280518,1.4510409832000732,0.1994837522506714
1761841498146313500,2.4583134765625,-3.7425854206085205,0.6164611577987671,0.19740381836891174
1761841498156383200,2.46838330078125,-0.06228679418563843,-0.7115179896354675,0.5094141960144043
1761841498166452500,2.478452392578125,3.5079739093780518,-1.8034523725509644,0.8678051829338074
1761841498176522200,2.488522216796875,6.528465270996094,-2.5300211906433105,0.9504603743553162
1761841498186591500,2.498591552734375,8.864368438720703,-3.007253646850586,0.7933957576751709
1761841498196661200,2.5086611328125,10.669703483581543,-3.250896692276001,0.6598504781723022
1761841498206730200,2.518730224609375,12.029613494873047,-3.275040864944458,0.6335760354995728
1761841498216800300,2.52880029296875,12.914405822753906,-3.0797901153564453,0.6385303139686584
1761841498226869200,2.538869140625,13.389067649841309,-2.6989386081695557,0.6194337606430054
1761841498236939500,2.548939453125,13.450708389282227,-2.2357802391052246,0.6260008215904236
1761841498247008300,2.55900830078125,13.18610668182373,-1.8353075981140137,0.705879271030426
1761841498257078500,2.56907861328125,12.630615234375,-1.610067367553711,0.9171174764633179
1761841498267147300,2.579147216796875,11.63042163848877,-1.614708662033081,1.295656681060791
1761841498277217300,2.58921728515625,9.992852210998535,-1.693771481513977,1.7950767278671265
1761841498287286300,2.599286376953125,7.594695568084717,-1.5577365159988403,2.1820783615112305
1761841498297356300,2.609356201171875,4.555989742279053,-1.012548565864563,2.201749563217163
1761841498307426300,2.61942626953125,1.1211509704589844,-0.22830985486507416,1.720813274383545
1761841498317495300,2.629495361328125,-2.090726613998413,0.8194053769111633,0.7391369342803955
1761841498327565300,2.6395654296875,-4.766507625579834,1.596864938735962,-0.5334476828575134
1761841498337634300,2.64963427734375,-6.764538764953613,1.8280681371688843,-1.5428557395935059
1761841498347704300,2.659704345703125,-8.126995086669922,1.8592290878295898,-2.181084156036377
1761841498357773300,2.669773193359375,-9.123680114746094,1.8059371709823608,-2.5137393474578857
1761841498367843300,2.67984326171875,-9.93210506439209,1.8486913442611694,-2.631500244140625
1761841498377912300,2.689912353515625,-10.670440673828125,1.9922243356704712,-2.5535941123962402
1761841498387982300,2.699982421875,-11.430872917175293,2.2059085369110107,-2.311750650405884
1761841498398051300,2.71005126953125,-12.19281005859375,2.581360101699829,-1.956853985786438
1761841498408121300,2.720121337890625,-12.882798194885254,3.0911459922790527,-1.540024757385254
1761841498418190300,2.7301904296875,-13.224690437316895,3.5781195163726807,-1.1529672145843506
1761841498428260400,2.74026025390625,-12.759930610656738,3.786710739135742,-0.8337891697883606
1761841498438329300,2.750329345703125,-11.072372436523438,3.6601438522338867,-0.4703923463821411
1761841498448399400,2.7603994140625,-8.101808547973633,2.933094024658203,-0.13427114486694336
1761841498458468400,2.77046826171875,-4.127775192260742,1.461287021636963,0.24811431765556335
1761841498468538400,2.780538330078125,0.2605392038822174,-0.1791691780090332,0.5345432758331299
1761841498478607400,2.790607421875,4.3801774978637695,-1.2416961193084717,0.3603629469871521
1761841498488677400,2.800677490234375,7.597334861755371,-2.189070701599121,0.05783434957265854
1761841498498746400,2.810746337890625,9.968786239624023,-2.7916579246520996,-0.1475214660167694
1761841498508816100,2.820816162109375,11.648795127868652,-3.1201326847076416,-0.12068811058998108
1761841498518885400,2.830885498046875,12.75485897064209,-3.239096164703369,0.03948691487312317
1761841498528955100,2.840955078125,13.35102367401123,-3.3082892894744873,0.2659399211406708
1761841498539025400,2.851025390625,13.575108528137207,-3.5368356704711914,0.5787476301193237
1761841498549094400,2.861094482421875,13.447347640991211,-3.9074485301971436,0.9929397702217102
1761841498559164200,2.8711640625,12.769219398498535,-4.164156913757324,1.5640476942062378
1761841498569233400,2.8812333984375,11.162607192993164,-4.0789031982421875,2.1984684467315674
1761841498579303200,2.89130322265625,8.501361846923828,-3.2574877738952637,2.582150459289551
1761841498589373000,2.901373046875,4.981322288513184,-1.9587687253952026,2.4781558513641357
1761841498599443000,2.91144287109375,1.1556917428970337,-0.338128924369812,1.7004863023757935
1761841498609512000,2.921511962890625,-2.459902763366699,0.9206032752990723,0.5839460492134094
1761841498619582000,2.93158203125,-5.438729763031006,1.8656898736953735,-0.5449173450469971
1761841498629651000,2.94165087890625,-7.6197686195373535,2.3090460300445557,-1.1874566078186035
1761841498639721000,2.951720947265625,-9.076882362365723,2.535337209701538,-1.397594928741455
1761841498649790000,2.9617900390625,-9.97146987915039,2.6660897731781006,-1.43691086769104
1761841498659860000,2.97185986328125,-10.438283920288086,2.660628080368042,-1.416126012802124
1761841498669929000,2.981928955078125,-10.66062068939209,2.5046355724334717,-1.3737684488296509
1761841498679999000,2.9919990234375,-10.757585525512695,2.4181947708129883,-1.3291008472442627
1761841498690068000,3.00206787109375,-10.752768516540527,2.351069211959839,-1.2609660625457764
1761841498700137700,3.0121376953125,-10.42175006866455,2.0477325916290283,-1.2272149324417114
1761841498710207000,3.02220703125,-9.33802318572998,1.4671097993850708,-1.2141108512878418
1761841498720276700,3.03227685546875,-7.220469951629639,0.7795929908752441,-1.0747889280319214
1761841498730346000,3.042345947265625,-4.243459224700928,0.10409814119338989,-0.6709352135658264
1761841498740416000,3.052416015625,-0.7553049325942993,-0.5776402354240417,0.16766753792762756
1761841498750485000,3.062485107421875,2.665210723876953,-1.3012155294418335,1.2322434186935425
1761841498760555000,3.072554931640625,5.594257831573486,-1.5730552673339844,1.673841953277588
1761841498770624000,3.0826240234375,7.796559810638428,-1.7791763544082642,1.6141693592071533
1761841498780694000,3.092694091796875,9.407126426696777,-1.9420201778411865,1.4877443313598633
1761841498790763800,3.102763671875,10.511738777160645,-1.9772331714630127,1.3837814331054688
1761841498800833000,3.1128330078125,11.153322219848633,-1.8218976259231567,1.3064578771591187
1761841498810902800,3.12290283203125,11.403719902038574,-1.6699646711349487,1.3487197160720825
1761841498820972000,3.132971923828125,11.316763877868652,-1.827163815498352,1.5736217498779297
1761841498831042000,3.1430419921875,10.838632583618164,-2.260063648223877,1.999074935913086
1761841498841111000,3.153111083984375,9.736873626708984,-2.6473004817962646,2.5545902252197266
1761841498851181000,3.16318115234375,7.849465847015381,-2.5383987426757812,3.057363748550415
1761841498861250000,3.17325,5.177432060241699,-1.8765389919281006,3.2455713748931885
1761841498871320000,3.183320068359375,2.012988567352295,-0.9739334583282471,2.9656243324279785
1761841498881388800,3.193388916015625,-1.095719337463379,0.08868037164211273,2.1750118732452393
1761841498891459000,3.203458984375,-3.7601404190063477,0.9051976203918457,0.9614940285682678
1761841498901527800,3.21352783203125,-5.76751184463501,1.2696129083633423,-0.09454787522554398
1761841498911598000,3.22359814453125,-7.1023783683776855,1.370991587638855,-0.7134129405021667
1761841498921666800,3.233666748046875,-7.952706813812256,1.3705427646636963,-1.1099294424057007
1761841498931736800,3.24373681640625,-8.498455047607422,1.3489599227905273,-1.3724640607833862
1761841498941805800,3.253805908203125,-8.83483600616455,1.3256168365478516,-1.5661102533340454
1761841498951875800,3.263875732421875,-9.071233749389648,1.3146692514419556,-1.694258689880371
1761841498961945000,3.273945068359375,-9.296903610229492,1.4029591083526611,-1.782059907913208
1761841498972014800,3.284014892578125,-9.473995208740234,1.6407570838928223,-1.8407576084136963
1761841498982084000,3.294083984375,-9.444703102111816,1.663493037223816,-1.894124150276184
1761841498992153900,3.30415380859375,-8.840094566345215,1.4253361225128174,-1.9752789735794067
1761841499002223000,3.31422314453125,-7.284664154052734,1.2368130683898926,-1.9054617881774902
1761841499012292900,3.32429296875,-4.744490146636963,0.892629861831665,-1.5238070487976074
1761841499022362000,3.334362060546875,-1.549881935119629,0.19854561984539032,-0.7531124353408813
1761841499032431900,3.344431884765625,1.9444684982299805,-0.5635512471199036,0.12158205360174179
1761841499042502000,3.354501953125,5.20822811126709,-1.3039600849151611,0.8941131234169006
1761841499052571100,3.364571044921875,7.83229923248291,-1.7991622686386108,1.1279160976409912
1761841499062641000,3.374640869140625,9.798774719238281,-1.8911851644515991,1.1810283660888672
1761841499072710100,3.384710205078125,11.114381790161133,-1.8325409889221191,1.3067673444747925
1761841499082780000,3.39477978515625,11.927543640136719,-1.6800075769424438,1.4107270240783691
1761841499092849000,3.404848876953125,12.322598457336426,-1.6249349117279053,1.488858699798584
1761841499102919000,3.4149189453125,12.283759117126465,-1.9360672235488892,1.6133097410202026
1761841499112988000,3.42498779296875,11.650065422058105,-2.45733904838562,1.8573871850967407
1761841499123058000,3.435057861328125,10.114083290100098,-2.598639726638794,2.1846201419830322
1761841499133127000,3.445126953125,7.51235294342041,-1.9814175367355347,2.3497729301452637
1761841499143197200,3.455197265625,4.115950584411621,-0.8030976057052612,2.2090234756469727
1761841499153266000,3.465265869140625,0.5018724203109741,0.6463573575019836,1.6246612071990967
1761841499163336000,3.4753359375,-2.786653995513916,1.8669748306274414,0.6619246006011963
1761841499173405000,3.485405029296875,-5.298094272613525,2.3105897903442383,-0.18167303502559662
1761841499183475000,3.495474853515625,-6.864093780517578,2.3629980087280273,-0.5815272927284241
1761841499193544000,3.5055439453125,-7.7169342041015625,2.2694292068481445,-0.7552909851074219
1761841499203614000,3.515614013671875,-8.10715389251709,2.0496418476104736,-0.8586655855178833
1761841499213683000,3.525682861328125,-8.177047729492188,1.7426462173461914,-0.9917289018630981
1761841499223753000,3.5357529296875,-8.09052562713623,1.3891013860702515,-1.178094744682312
1761841499233822000,3.545822021484375,-8.012693405151367,1.1241992712020874,-1.36588716506958
1761841499243892000,3.55589208984375,-8.014711380004883,0.9895328879356384,-1.5295926332473755
1761841499253961000,3.5659609375,-8.002379417419434,0.8913208842277527,-1.625014305114746
1761841499264031000,3.576031005859375,-7.772868633270264,0.8087583780288696,-1.6823170185089111
1761841499274100000,3.586099853515625,-7.072556495666504,0.9088912010192871,-1.6319501399993896
1761841499284170000,3.596169921875,-5.767163276672363,1.1716583967208862,-1.3706817626953125
1761841499294239000,3.606239013671875,-3.869460344314575,1.2739018201828003,-0.8525109887123108
1761841499304309000,3.61630908203125,-1.5352146625518799,0.857914388179779,-0.1375502645969391
1761841499314379000,3.62637890625,1.1046242713928223,0.3694123327732086,0.3537760078907013
1761841499324447700,3.63644775390625,3.6210269927978516,-0.1364188939332962,0.24037833511829376
1761841499334518000,3.64651806640625,5.705867290496826,-0.5363859534263611,-0.18286554515361786
1761841499344586800,3.656586669921875,7.35709810256958,-0.8489486575126648,-0.5773625373840332
1761841499354657000,3.666656982421875,8.629772186279297,-1.1597155332565308,-0.8410946726799011
1761841499364725800,3.676725830078125,9.470438003540039,-1.4936383962631226,-1.0136067867279053
1761841499374796000,3.686796142578125,9.914949417114258,-1.7925560474395752,-1.0932438373565674
1761841499384865000,3.696864990234375,9.886565208435059,-2.076355457305908,-1.0286980867385864
1761841499394934800,3.706934814453125,9.342442512512207,-2.0731678009033203,-0.8700674772262573
1761841499405004000,3.717004150390625,8.131597518920898,-1.9989244937896729,-0.5851132273674011
1761841499415073800,3.72707373046875,6.251218318939209,-1.6727392673492432,-0.25958773493766785
1761841499425143000,3.73714306640625,3.811663866043091,-0.9416664242744446,-0.005079272203147411
1761841499435212800,3.747212890625,1.051969289779663,0.009500911459326744,0.19056251645088196
1761841499445282000,3.757281982421875,-1.657828450202942,0.916305661201477,0.24866735935211182
1761841499455351800,3.767351806640625,-3.9672353267669678,1.6061686277389526,0.22678539156913757
1761841499465421000,3.777421142578125,-5.721898555755615,2.016940116882324,0.20746523141860962
1761841499475491000,3.787490966796875,-6.935790061950684,2.184734582901001,0.15705887973308563
1761841499485560000,3.79756005859375,-7.641067028045654,2.0979654788970947,0.05896319821476936
1761841499495630000,3.807630126953125,-7.9848222732543945,1.8585362434387207,-0.007822279818356037
1761841499505698800,3.81769873046875,-8.11396598815918,1.5248287916183472,-0.009843619540333748
1761841499515769000,3.82776904296875,-8.10530948638916,1.167672872543335,0.06826166808605194
1761841499525837800,3.837837890625,-7.947373390197754,0.6094947457313538,0.14540918171405792
1761841499535908000,3.847908203125,-7.459628582000732,-0.2735636830329895,0.13923722505569458
1761841499545976800,3.857976806640625,-6.421430587768555,-1.44673490524292,0.15676908195018768
1761841499556046800,3.868046875,-4.526478290557861,-1.8886147737503052,0.40178513526916504
1761841499566115800,3.87811572265625,-2.278926134109497,-1.9940434694290161,1.0769119262695312
1761841499576185900,3.888185791015625,-0.028984377160668373,-1.941349983215332,1.8500345945358276
1761841499586255600,3.898255615234375,2.159689426422119,-1.6314693689346313,2.1351394653320312
1761841499596324400,3.908324462890625,4.159395217895508,-1.1558820009231567,1.881580114364624
1761841499606394600,3.91839453125,5.887652397155762,-0.8321287631988525,1.369484305381775
1761841499616463400,3.92846337890625,7.395589351654053,-0.6714485287666321,0.7680369019508362
1761841499626533600,3.93853369140625,8.659565925598145,-0.7049979567527771,0.2966978847980499
1761841499636602600,3.9486025390625,9.661556243896484,-0.9123759269714355,-0.012041041627526283
1761841499646672400,3.95867236328125,10.409051895141602,-1.167359471321106,-0.1849060356616974
1761841499656741600,3.96874169921875,10.745356559753418,-1.653418779373169,-0.16043692827224731
1761841499666811400,3.978811279296875,10.388049125671387,-2.520061492919922,0.06399910897016525
1761841499676880600,3.988880615234375,9.04098129272461,-3.215559959411621,0.3619614243507385
1761841499686950400,3.998950439453125,6.571911334991455,-2.959873914718628,0.3659340739250183
1761841499697019600,4.00901953125,3.20668363571167,-1.6150782108306885,0.018100643530488014
1761841499707087600,4.019087646484375,-0.48015135526657104,0.3326427638530731,-0.6738168597221375
1761841499717157600,4.02915771484375,-3.974853038787842,1.977038025856018,-1.4406906366348267
1761841499727226400,4.039226318359375,-6.7447943687438965,2.941502332687378,-1.8751448392868042
1761841499737296600,4.049296630859375,-8.613439559936523,3.4135546684265137,-2.0125913619995117
1761841499747365400,4.059365478515625,-9.666813850402832,3.4405670166015625,-2.069666624069214
1761841499757435600,4.069435546875,-10.105118751525879,3.1537952423095703,-2.0840189456939697
1761841499767504400,4.07950439453125,-10.145485877990723,2.7108852863311768,-2.1058247089385986
1761841499777574700,4.08957470703125,-9.949615478515625,2.2032363414764404,-2.1609935760498047
1761841499787644700,4.099644775390625,-9.539286613464355,1.651537299156189,-2.300180435180664
1761841499797713400,4.10971337890625,-8.745261192321777,1.0320801734924316,-2.4901480674743652
1761841499807783700,4.11978369140625,-7.260399341583252,0.4580264687538147,-2.6734070777893066
1761841499817852400,4.129852294921875,-5.043281555175781,-0.22236435115337372,-2.5622618198394775
1761841499827922700,4.139922607421875,-2.331406593322754,-0.8320974707603455,-1.8442901372909546
1761841499837991400,4.149991455078125,0.39070525765419006,-1.4683828353881836,-0.7141041159629822
1761841499848061400,4.1600615234375,3.067476272583008,-1.6128113269805908,0.3755066692829132
1761841499858130400,4.17013037109375,5.2406792640686035,-1.9183471202850342,1.027411699295044
1761841499868200400,4.180200439453125,6.90120267868042,-2.049891948699951,1.339599370956421
1761841499878269400,4.19026953125,8.103897094726562,-1.8432316780090332,1.5155673027038574
1761841499888339500,4.20033935546875,8.806872367858887,-1.4752233028411865,1.6174579858779907
1761841499898408400,4.210408447265625,9.065474510192871,-1.10261070728302,1.540779948234558
1761841499908478500,4.220478515625,8.855218887329102,-1.1944524049758911,1.3699318170547485
1761841499918547700,4.230547607421875,8.029759407043457,-1.705862283706665,1.1921260356903076
1761841499928617500,4.240617431640625,6.303812026977539,-1.988765001296997,0.9787245392799377
1761841499938686700,4.250686767578125,3.509896755218506,-1.556064486503601,0.6671065092086792
1761841499948756500,4.260756591796875,0.16288745403289795,0.15717822313308716,-0.16129343211650848
1761841499958825500,4.270825439453125,-3.3197991847991943,2.0904314517974854,-1.2126480340957642
1761841499968895500,4.2808955078125,-6.517652988433838,3.548539638519287,-1.985846757888794
1761841499978964500,4.290964599609375,-8.908724784851074,4.566245079040527,-2.2539255619049072
1761841499989034500,4.301034423828125,-10.481832504272461,5.021548748016357,-2.2273988723754883
1761841499999103500,4.311103515625,-11.272960662841797,5.025825500488281,-2.079540252685547
1761841500009173500,4.321173583984375,-11.41042709350586,4.552738666534424,-1.8838832378387451
1761841500019242500,4.331242431640625,-10.952640533447266,3.759781837463379,-1.7324835062026978
1761841500029312500,4.3413125,-9.877496719360352,2.6599879264831543,-1.6690478324890137
1761841500039381500,4.351381591796875,-7.988051891326904,1.228209137916565,-1.6028121709823608
1761841500049451500,4.361451416015625,-5.054050922393799,0.13872110843658447,-1.3465721607208252
1761841500059520500,4.3715205078125,-1.6723713874816895,-0.9370307922363281,-0.5248857736587524
1761841500069590500,4.381590576171875,1.6190354824066162,-1.8709219694137573,0.6765702962875366
1761841500079660300,4.391660400390625,4.466559886932373,-2.24064040184021,1.6835681200027466
1761841500089729500,4.4017294921875,6.427163600921631,-2.5179667472839355,2.162550687789917
1761841500099799600,4.411799560546875,7.667558193206787,-2.3897697925567627,2.2982985973358154
1761841500109868500,4.42186865234375,8.343877792358398,-1.839439868927002,2.3019959926605225
1761841500119938600,4.4319384765625,8.506987571716309,-1.158035159111023,2.1860158443450928
1761841500130007600,4.442007568359375,8.356202125549316,-0.6252280473709106,1.9178990125656128
1761841500140077600,4.45207763671875,8.001696586608887,-0.6461714506149292,1.639689326286316
1761841500150146600,4.462146484375,7.277100086212158,-1.1824241876602173,1.439744234085083
1761841500160216600,4.472216552734375,6.079747200012207,-1.5715135335922241,1.3008861541748047
1761841500170285600,4.48228564453125,4.355955600738525,-1.3468824625015259,1.161665678024292
1761841500180355600,4.49235546875,2.173274278640747,-0.6807557344436646,0.9544987678527832
1761841500190424300,4.50242431640625,-0.19388361275196075,-0.031699180603027344,0.6959535479545593
1761841500200494600,4.51249462890625,-2.5162081718444824,0.44908037781715393,0.35764622688293457
1761841500210563300,4.522563232421875,-4.501498222351074,1.0391532182693481,-0.08828676491975784
1761841500220633600,4.532633544921875,-6.104954242706299,1.5981107950210571,-0.561465859413147
1761841500230702600,4.54270263671875,-7.320455551147461,1.9512614011764526,-0.8917481899261475
1761841500240772600,4.552772705078125,-8.159513473510742,2.111510753631592,-1.1237012147903442
1761841500250841600,4.562841552734375,-8.762737274169922,2.302673578262329,-1.3445374965667725
1761841500260911400,4.572911376953125,-9.207256317138672,2.4584529399871826,-1.5225026607513428
1761841500270980600,4.582980712890625,-9.290128707885742,2.327618360519409,-1.6615257263183594
1761841500281050400,4.59305029296875,-8.65965461730957,1.7755069732666016,-1.7004214525222778
1761841500291119600,4.60311962890625,-6.912935256958008,1.2824307680130005,-1.3997873067855835
1761841500301189400,4.613189453125,-4.101988315582275,0.4906460642814636,-0.696784496307373
1761841500311258600,4.623258544921875,-0.7391036152839661,-0.9507933259010315,0.29941484332084656
1761841500321328600,4.63332861328125,2.869230270385742,-1.789520263671875,1.246255874633789
1761841500331398400,4.6433984375,5.779531955718994,-2.4744608402252197,1.720816969871521
1761841500341467600,4.653467529296875,7.901673316955566,-2.784111976623535,1.7939651012420654
1761841500351537400,4.663537353515625,9.347262382507324,-2.9125101566314697,1.778174638748169
1761841500361606700,4.673606689453125,10.206400871276855,-3.0235414505004883,1.7452634572982788
1761841500371676400,4.683676513671875,10.543660163879395,-2.878573417663574,1.6577165126800537
1761841500381745700,4.69374560546875,10.218814849853516,-2.4324288368225098,1.4630519151687622
1761841500391815400,4.7038154296875,9.03720760345459,-2.093446731567383,1.1853127479553223
1761841500401884700,4.713884765625,6.912832736968994,-1.8062890768051147,0.8427280783653259
1761841500411954700,4.72395458984375,4.039917469024658,-1.2099405527114868,0.4114755392074585
1761841500422023400,4.7340234375,0.7553297877311707,0.08400705456733704,-0.13686442375183105
1761841500432093700,4.74409375,-2.5514259338378906,1.551508903503418,-0.8504882454872131
1761841500442162400,4.754162353515625,-5.389984607696533,2.595599889755249,-1.3185943365097046
1761841500452232700,4.764232666015625,-7.450695514678955,3.336237668991089,-1.3650529384613037
1761841500462301400,4.774301513671875,-8.75682258605957,3.65108585357666,-1.2251516580581665
1761841500472371500,4.784371337890625,-9.398386001586914,3.49580979347229,-1.0242313146591187
1761841500482440400,4.7944404296875,-9.531915664672852,2.961655855178833,-0.9089298248291016
1761841500492510500,4.804510498046875,-9.166093826293945,2.243715763092041,-0.9766936898231506
1761841500502579500,4.814579345703125,-8.194732666015625,1.494477391242981,-1.0852173566818237
1761841500512649500,4.8246494140625,-6.5252885818481445,1.1292881965637207,-1.0112755298614502
1761841500522718500,4.834718505859375,-4.317127227783203,0.7229824066162109,-0.7261387705802917
1761841500532788500,4.84478857421875,-1.6351045370101929,0.18074893951416016,-0.12452134490013123
1761841500542857700,4.854857666015625,1.1683645248413086,-0.3148854076862335,0.619579017162323
1761841500552927500,4.864927490234375,3.6427512168884277,-0.6986644864082336,1.0810425281524658
1761841500562996700,4.874996826171875,5.613807201385498,-1.0006966590881348,1.332277536392212
1761841500573066500,4.88506640625,7.104053974151611,-0.9932754039764404,1.557154893875122
1761841500583135500,4.895135498046875,8.124489784240723,-0.7256941199302673,1.8676509857177734
1761841500593205000,4.905205078125,8.853574752807617,-0.38167819380760193,2.2832417488098145
1761841500603274800,4.915274658203125,9.414143562316895,-0.29040879011154175,2.840985059738159
1761841500613344000,4.925343994140625,9.675654411315918,-0.405977725982666,3.47912335395813
1761841500623413800,4.935413818359375,9.345772743225098,-0.9960664510726929,4.1185622215271
1761841500633483000,4.94548291015625,8.178351402282715,-2.1579434871673584,4.59218692779541
1761841500643553000,4.955552978515625,6.110123157501221,-2.951479434967041,4.682103157043457
1761841500653622000,4.9656220703125,3.4104623794555664,-2.835751533508301,4.242976665496826
1761841500663692000,4.975692138671875,0.3965153098106384,-2.153473377227783,3.3057994842529297
1761841500673760800,4.9857607421875,-2.395880699157715,-0.8448695540428162,2.0133135318756104
1761841500683831000,4.9958310546875,-4.794417858123779,0.3547753393650055,0.4927605092525482
1761841500693899800,5.005899658203125,-6.615993499755859,1.054801106452942,-0.8508963584899902
1761841500703970000,5.015969970703125,-7.825202465057373,1.3103622198104858,-1.8673213720321655
1761841500714038800,5.026038818359375,-8.547956466674805,1.4149185419082642,-2.601414203643799
1761841500724109000,5.036109130859375,-8.989218711853027,1.5309029817581177,-3.0694363117218018
1761841500734177800,5.046177734375,-9.300895690917969,1.6050688028335571,-3.2848241329193115
1761841500744247800,5.056247802734375,-9.402100563049316,1.6157786846160889,-3.3896901607513428
1761841500754316800,5.06631689453125,-9.031789779663086,1.402968406677246,-3.461292266845703
1761841500764386800,5.07638671875,-7.811755180358887,1.2916361093521118,-3.4281957149505615
1761841500774456000,5.0864560546875,-5.603149890899658,1.1148335933685303,-2.991685628890991
1761841500784525800,5.09652587890625,-2.5193119049072266,0.45538926124572754,-1.921305775642395
1761841500794595000,5.106594970703125,0.9937872886657715,-0.7769544720649719,-0.5574191212654114
1761841500804664800,5.116664794921875,4.494458198547363,-1.6455203294754028,0.6990416049957275
1761841500814734000,5.126734130859375,7.266808032989502,-2.3128108978271484,1.400397777557373
1761841500824803800,5.136803955078125,9.247726440429688,-2.5346696376800537,1.6936079263687134
1761841500834873000,5.146873046875,10.477937698364258,-2.406254768371582,1.8348158597946167
1761841500844942800,5.15694287109375,11.028459548950195,-2.1039321422576904,1.8473643064498901
1761841500855012900,5.167012939453125,11.021039009094238,-1.8591105937957764,1.6807838678359985
1761841500865081900,5.177081787109375,10.403215408325195,-1.9283912181854248,1.512784719467163
1761841500875152000,5.18715185546875,8.878824234008789,-2.2946860790252686,1.394348382949829
1761841500885221000,5.19722119140625,6.392983913421631,-2.25361704826355,1.1496840715408325
1761841500895291000,5.207290771484375,3.192889928817749,-1.6106051206588745,0.7061155438423157
1761841500905360000,5.21735986328125,-0.19456227123737335,-0.22480538487434387,-0.01882406696677208
1761841500915430000,5.227429931640625,-3.4067113399505615,1.0102113485336304,-0.9144906401634216
1761841500925499000,5.237498779296875,-5.9446940422058105,1.6411901712417603,-1.4876915216445923
1761841500935569000,5.24756884765625,-7.64257287979126,1.9445122480392456,-1.7160594463348389
1761841500945638000,5.257637939453125,-8.669936180114746,1.9188354015350342,-1.7719604969024658
1761841500955708000,5.2677080078125,-9.154576301574707,1.6923435926437378,-1.6889151334762573
1761841500965777000,5.27777685546875,-9.30554485321045,1.37449312210083,-1.5812280178070068
1761841500975847000,5.287846923828125,-9.294304847717285,1.2886685132980347,-1.5218051671981812
1761841500985916000,5.297916015625,-9.167423248291016,1.3203519582748413,-1.5110564231872559
1761841500995986000,5.30798583984375,-8.595016479492188,1.1806018352508545,-1.553788661956787
1761841501006055000,5.318054931640625,-7.103068828582764,0.9551647305488586,-1.5192867517471313
1761841501016125000,5.328125,-4.663690090179443,0.7192209362983704,-1.1539160013198853
1761841501026194000,5.33819384765625,-1.7098158597946167,0.041216280311346054,-0.36905860900878906
1761841501036264000,5.348263916015625,1.518446445465088,-0.6837071180343628,0.4893684685230255
1761841501046333000,5.3583330078125,4.4303669929504395,-1.2777189016342163,0.8826475143432617
1761841501056403000,5.36840283203125,6.712204933166504,-1.7252370119094849,1.0104498863220215
1761841501066472000,5.378471923828125,8.432198524475098,-1.942435622215271,1.0492826700210571
1761841501076542000,5.3885419921875,9.656930923461914,-2.0100486278533936,1.0488940477371216
1761841501086610700,5.398610595703125,10.395577430725098,-1.9533487558364868,0.9984676837921143
1761841501096681000,5.408680908203125,10.704906463623047,-1.984424352645874,0.9170045256614685
1761841501106751000,5.4187509765625,10.485976219177246,-2.309823513031006,0.8826620578765869
1761841501116820000,5.428820068359375,9.506113052368164,-2.7873241901397705,0.9829436540603638
1761841501126890000,5.438889892578125,7.48799991607666,-2.847827672958374,1.0847889184951782
1761841501136958700,5.448958740234375,4.3706746101379395,-2.2170989513397217,0.9769154191017151
1761841501147029000,5.459029052734375,0.8483783006668091,-0.5359772443771362,0.5408161282539368
1761841501157097700,5.46909765625,-2.5621464252471924,1.1043363809585571,-0.20797821879386902
1761841501167168000,5.47916796875,-5.454686164855957,2.0217385292053223,-0.8618162274360657
1761841501177236700,5.48923681640625,-7.531149864196777,2.579021453857422,-1.1259845495224
1761841501187307000,5.49930712890625,-8.88244342803955,2.8301405906677246,-1.1367928981781006
1761841501197376000,5.5093759765625,-9.614843368530273,2.834963321685791,-1.0098754167556763
1761841501207445800,5.51944580078125,-9.88482666015625,2.673175573348999,-0.7771676182746887
1761841501217515000,5.529514892578125,-9.883278846740723,2.3921098709106445,-0.5374277234077454
1761841501227584800,5.539584716796875,-9.675841331481934,2.0677950382232666,-0.4154602289199829
1761841501237654000,5.549654052734375,-9.141843795776367,1.7743171453475952,-0.4606594145298004
1761841501247723800,5.559723876953125,-8.118400573730469,1.6990166902542114,-0.6205373406410217
1761841501257793000,5.56979296875,-6.522435665130615,1.5271567106246948,-0.7343651056289673
1761841501267862800,5.57986279296875,-4.1693267822265625,0.9796149134635925,-0.743487536907196
1761841501277932000,5.58993212890625,-1.1557890176773071,0.09701434522867203,-0.5525215864181519
1761841501288002000,5.600001953125,1.96733558177948,-1.0634653568267822,-0.10870684683322906
1761841501298071800,5.61007177734375,4.769314289093018,-1.789664626121521,0.2107188105583191
1761841501308141000,5.62014111328125,6.912260055541992,-2.2816951274871826,0.27868974208831787
1761841501318210800,5.6302109375,8.47754955291748,-2.497983694076538,0.2857702970504761
1761841501328280000,5.640280029296875,9.54765796661377,-2.6854965686798096,0.31230461597442627
1761841501338349800,5.650349853515625,10.136784553527832,-2.762237787246704,0.30690184235572815
1761841501348419000,5.660419189453125,10.293403625488281,-2.8001668453216553,0.23176369071006775
1761841501358488800,5.67048876953125,10.036005973815918,-2.9316976070404053,0.21000033617019653
1761841501368557800,5.680557861328125,9.130520820617676,-2.9963972568511963,0.3156259059906006
1761841501378628000,5.690628173828125,7.295137882232666,-2.7403602600097656,0.43102625012397766
1761841501388696800,5.70069677734375,4.60078763961792,-1.9587798118591309,0.4086817502975464
1761841501398767000,5.71076708984375,1.5088224411010742,-0.6391541957855225,0.14838679134845734
1761841501408835800,5.7208359375,-1.5572853088378906,0.7852442264556885,-0.13413575291633606
1761841501418905900,5.73090576171875,-4.211930751800537,1.834676742553711,-0.28050628304481506
1761841501428974800,5.740974853515625,-6.185481548309326,2.502014398574829,-0.2684188485145569
1761841501439044900,5.751044921875,-7.50144624710083,2.814751386642456,-0.17790015041828156
1761841501449113900,5.76111376953125,-8.23398208618164,2.8536996841430664,-0.03411291167140007
1761841501459183900,5.771183837890625,-8.517315864562988,2.6995341777801514,0.11203950643539429
1761841501469252900,5.7812529296875,-8.483469009399414,2.432141065597534,0.17333221435546875
1761841501479323000,5.791322998046875,-8.193222999572754,2.1616744995117188,0.11268163472414017
1761841501489391900,5.801391845703125,-7.615532875061035,1.7580153942108154,-0.020380830392241478
1761841501499462000,5.8114619140625,-6.529994487762451,1.1936012506484985,-0.16552577912807465
1761841501509532000,5.821531982421875,-4.7724289894104,0.6567299365997314,-0.14256596565246582
1761841501519601000,5.831600830078125,-2.4856176376342773,0.13847555220127106,0.04222652688622475
1761841501529671000,5.8416708984375,0.08645986020565033,-0.45937392115592957,0.3291768729686737
1761841501539740000,5.851739990234375,2.6233808994293213,-0.9873138666152954,0.493608683347702
1761841501549810000,5.861809814453125,4.740863800048828,-1.3927096128463745,0.45873621106147766
1761841501559879000,5.87187890625,6.368431568145752,-1.6870176792144775,0.3871421813964844
1761841501569949000,5.881948974609375,7.5925164222717285,-1.9402580261230469,0.31208980083465576
1761841501580018000,5.892017822265625,8.483813285827637,-2.2258524894714355,0.29079917073249817
1761841501590089200,5.902089111328125,9.031339645385742,-2.4481234550476074,0.33118197321891785
1761841501600158200,5.912158203125,9.181414604187012,-2.5877716541290283,0.39744728803634644
1761841501610228200,5.922228271484375,8.833526611328125,-2.707860231399536,0.4949741065502167
1761841501620297500,5.93229736328125,7.796974182128906,-2.677347183227539,0.6346286535263062
1761841501630367200,5.9423671875,5.900228977203369,-2.3131351470947266,0.7345248460769653
1761841501640436500,5.9524365234375,3.321298599243164,-1.410593867301941,0.5997065305709839
1761841501650506200,5.96250634765625,0.3983440101146698,-0.0262586809694767,0.22807660698890686
1761841501660575500,5.972575439453125,-2.522127628326416,1.3044192790985107,-0.10182113945484161
1761841501670645200,5.982645263671875,-4.952638626098633,2.3481457233428955,-0.3988923132419586
1761841501680714500,5.992714599609375,-6.799574851989746,3.0031607151031494,-0.5545154809951782
1761841501690784300,6.0027841796875,-8.044747352600098,3.38553524017334,-0.6041681170463562
1761841501700854300,6.012854248046875,-8.797442436218262,3.496957540512085,-0.5747303366661072
1761841501710923500,6.022923583984375,-9.250601768493652,3.552746057510376,-0.4630547761917114
1761841501720993300,6.0329931640625,-9.568381309509277,3.6903433799743652,-0.31882116198539734
1761841501731062500,6.0430625,-9.760553359985352,3.8428914546966553,-0.21938683092594147
1761841501741132300,6.05313232421875,-9.662090301513672,3.9050981998443604,-0.25381991267204285
1761841501751201300,6.063201171875,-9.007737159729004,3.5030014514923096,-0.46757811307907104
1761841501761271300,6.073271240234375,-7.4351725578308105,2.6718027591705322,-0.8057878613471985
1761841501771340300,6.08334033203125,-4.846902847290039,1.989450454711914,-1.142802357673645
1761841501781410300,6.093410400390625,-1.7564619779586792,0.8960111737251282,-1.2162610292434692
1761841501791479300,6.103479248046875,1.520237684249878,-0.47493356466293335,-0.9130828380584717
1761841501801549300,6.11354931640625,4.684232711791992,-1.4781380891799927,-0.5734991431236267
1761841501811618300,6.123618408203125,7.226248741149902,-2.3972935676574707,-0.425035297870636
1761841501821688300,6.133688232421875,9.121599197387695,-3.0884265899658203,-0.32232198119163513
1761841501831757300,6.14375732421875,10.436978340148926,-3.6386961936950684,-0.18005108833312988
1761841501841827300,6.153827392578125,11.202849388122559,-4.080876350402832,-0.007547755725681782
1761841501851896300,6.163896240234375,11.401373863220215,-4.319561004638672,0.13571137189865112
1761841501861966300,6.17396630859375,11.016756057739258,-4.3280463218688965,0.20968440175056458
1761841501872035300,6.184035400390625,9.888776779174805,-4.078732967376709,0.295359343290329
1761841501882105300,6.194105224609375,7.88434362411499,-3.335975408554077,0.355134516954422
1761841501892174300,6.20417431640625,5.131750583648682,-2.1914479732513428,0.23670350015163422
1761841501902244400,6.214244384765625,2.0293548107147217,-0.7940188646316528,-0.015060825273394585
1761841501912314400,6.224314453125,-1.0581307411193848,0.8742436170578003,-0.3229002356529236
1761841501922383400,6.23438330078125,-3.873366117477417,2.0117979049682617,-0.5062543749809265
1761841501932453400,6.244453369140625,-6.027970314025879,2.764556646347046,-0.3893575370311737
1761841501942522400,6.2545224609375,-7.482629299163818,3.1895034313201904,-0.07068660855293274
1761841501952592400,6.26459228515625,-8.341450691223145,3.286611318588257,0.2846417725086212
1761841501962661400,6.274661376953125,-8.698877334594727,3.117596387863159,0.5568240284919739
1761841501972731400,6.2847314453125,-8.674086570739746,2.6925899982452393,0.6812163591384888
1761841501982800100,6.294800048828125,-8.301538467407227,1.945932388305664,0.6287664175033569
1761841501992870400,6.304870361328125,-7.458122730255127,0.9214546084403992,0.39247795939445496
1761841502002939100,6.314939208984375,-5.99855375289917,-0.16012325882911682,0.17104145884513855
1761841502013009400,6.325009521484375,-3.9764766693115234,-0.9903739094734192,0.19031308591365814
1761841502023078100,6.335078125,-1.6793310642242432,-1.3772262334823608,0.3397315740585327
1761841502033148400,6.3451484375,0.5817214250564575,-1.6064656972885132,0.7124239802360535
1761841502043217400,6.355217529296875,2.737515449523926,-1.6113818883895874,1.0273245573043823
1761841502053287200,6.365287109375,4.52115535736084,-1.7268145084381104,1.0489779710769653
1761841502063356400,6.3753564453125,5.962327003479004,-1.782734751701355,0.9058679342269897
1761841502073426200,6.38542626953125,7.120419025421143,-1.7515158653259277,0.7888045310974121
1761841502083495400,6.395495361328125,8.008944511413574,-1.6745829582214355,0.7776203155517578
1761841502093565200,6.405565185546875,8.712650299072266,-1.671677827835083,0.8442762494087219
1761841502103635200,6.41563525390625,9.284624099731445,-1.8579188585281372,0.9522378444671631
1761841502113704200,6.4257041015625,9.650397300720215,-2.3640401363372803,1.1153484582901
1761841502123774200,6.435774169921875,9.606504440307617,-3.119955062866211,1.3088998794555664
1761841502133843500,6.445843505859375,8.83465576171875,-3.8581886291503906,1.5412119626998901
1761841502143913200,6.455913330078125,7.1434245109558105,-4.025015830993652,1.642382025718689
1761841502153982500,6.465982421875,4.6943254470825195,-3.1097240447998047,1.3906689882278442
1761841502164052200,6.47605224609375,1.724007248878479,-1.430979609489441,0.8433821797370911
1761841502174121500,6.48612158203125,-1.3582497835159302,0.1637231707572937,0.26568764448165894
1761841502184191200,6.496191162109375,-4.092429161071777,1.6007094383239746,-0.3680408298969269
1761841502194260500,6.506260498046875,-6.327149868011475,2.2775185108184814,-0.9075505137443542
1761841502204330200,6.516330322265625,-7.978289604187012,2.7332558631896973,-1.1387542486190796
1761841502214399200,6.526399169921875,-9.133049011230469,3.0140724182128906,-1.2449963092803955
1761841502224469500,6.536469482421875,-9.865691184997559,3.1761696338653564,-1.2609018087387085
1761841502234538200,6.546538330078125,-10.289864540100098,3.231532335281372,-1.2068660259246826
1761841502244608500,6.5566083984375,-10.45627498626709,3.1932120323181152,-1.1407411098480225
1761841502254677200,6.56667724609375,-10.3246488571167,3.038710594177246,-1.087239146232605
1761841502264747300,6.576747314453125,-9.72955322265625,2.8042469024658203,-1.0669184923171997
1761841502274817300,6.5868173828125,-8.42933464050293,2.5041890144348145,-1.1050885915756226
1761841502284886300,6.59688623046875,-6.300765037536621,1.9757823944091797,-1.0228896141052246
1761841502294956300,6.606956298828125,-3.607412338256836,1.1352791786193848,-0.7425714731216431
1761841502305025300,6.617025390625,-0.6711553335189819,-0.024910153821110725,-0.36776241660118103
1761841502315095600,6.627095458984375,2.3013298511505127,-0.913049578666687,-0.10490941256284714
1761841502325164300,6.637164306640625,4.843898296356201,-1.6101913452148438,-0.10299167037010193
1761841502335234300,6.647234375,6.838622093200684,-2.052201986312866,-0.19832484424114227
1761841502345303300,6.65730322265625,8.36021900177002,-2.2520737648010254,-0.24657121300697327
1761841502355373300,6.667373291015625,9.548348426818848,-2.3434760570526123,-0.20779936015605927
1761841502365442300,6.6774423828125,10.450746536254883,-2.522176742553711,-0.047729797661304474
1761841502375512300,6.68751220703125,11.07281494140625,-2.922201156616211,0.232289120554924
1761841502385581300,6.697581298828125,11.364100456237793,-3.5210349559783936,0.6111789345741272
1761841502395651300,6.7076513671875,11.066211700439453,-4.055248260498047,1.085556149482727
1761841502405720300,6.71772021484375,9.840702056884766,-4.215499401092529,1.564784288406372
1761841502415790300,6.727790283203125,7.585522651672363,-3.6214206218719482,1.8267062902450562
1761841502425859300,6.737859375,4.553109645843506,-2.3477017879486084,1.636779546737671
1761841502435929300,6.747929443359375,1.2020072937011719,-0.5963640213012695,1.183495044708252
1761841502445999400,6.757999267578125,-2.132716655731201,1.063355803489685,0.5108334422111511
1761841502456068400,6.768068359375,-5.009547233581543,2.231046438217163,-0.20440669357776642
1761841502466138400,6.778138427734375,-7.14213752746582,2.9671192169189453,-0.6178286075592041
1761841502476207400,6.788207275390625,-8.576952934265137,3.3742787837982178,-0.7613698840141296
1761841502486277400,6.79827734375,-9.412010192871094,3.4602718353271484,-0.7567996382713318
1761841502496346000,6.80834619140625,-9.819540977478027,3.360457420349121,-0.6676118969917297
1761841502506416400,6.81841650390625,-9.98236083984375,3.1714251041412354,-0.5125112533569336
1761841502516485000,6.828485107421875,-9.9830322265625,2.9650230407714844,-0.3370809853076935
1761841502526555400,6.838555419921875,-9.817015647888184,2.7002530097961426,-0.2031674087047577
1761841502536624400,6.848624267578125,-9.417400360107422,2.3933308124542236,-0.16491597890853882
1761841502546694400,6.8586943359375,-8.6831693649292,2.0101897716522217,-0.24859996140003204
1761841502556763400,6.868763427734375,-7.4901347160339355,1.411831021308899,-0.38545048236846924
1761841502566833200,6.878833251953125,-5.549530982971191,1.1456533670425415,-0.37827032804489136
1761841502576902400,6.88890234375,-3.0839390754699707,0.9107092618942261,-0.12277284264564514
1761841502586975000,6.89897509765625,-0.4108237624168396,0.2594699561595917,0.3248344957828522
1761841502597044000,6.9090439453125,2.3490848541259766,-0.3537224531173706,0.5210102200508118
1761841502607114000,6.919114013671875,4.81973934173584,-1.0532193183898926,0.26983556151390076
1761841502617183000,6.929182861328125,6.839562892913818,-1.7407307624816895,-0.07881075888872147
1761841502627253000,6.9392529296875,8.457334518432617,-2.2967498302459717,-0.34172385931015015
1761841502637323300,6.9493232421875,9.712268829345703,-2.7421884536743164,-0.49195748567581177
1761841502647392000,6.95939208984375,10.626051902770996,-3.1668128967285156,-0.5235862731933594
1761841502657462000,6.9694619140625,11.183369636535645,-3.5549070835113525,-0.3980516195297241
1761841502667531000,6.979531005859375,11.356292724609375,-3.9127609729766846,-0.13887065649032593
1761841502677601000,6.98960107421875,11.035820960998535,-4.136960983276367,0.23746514320373535
1761841502687670000,6.999669921875,9.91099739074707,-4.09407901763916,0.713142454624176
1761841502697740000,7.009739990234375,7.769322872161865,-3.6767327785491943,1.09404456615448
1761841502707809000,7.01980908203125,4.847418785095215,-2.669833183288574,1.0966873168945312
1761841502717879000,7.029879150390625,1.53266179561615,-0.8985661864280701,0.8777543306350708
1761841502727948300,7.0399482421875,-1.8187780380249023,0.5714630484580994,0.5299941897392273
1761841502738018000,7.05001806640625,-4.736236572265625,1.7967734336853027,0.03165005147457123
1761841502748087000,7.060087158203125,-7.037141799926758,2.448538064956665,-0.49472108483314514
1761841502758157000,7.070156982421875,-8.658707618713379,2.882005453109741,-0.8204584121704102
1761841502768226000,7.08022607421875,-9.705156326293945,3.0853867530822754,-0.971468448638916
1761841502778296000,7.090296142578125,-10.28851318359375,3.1499249935150146,-0.9928432703018188
1761841502788366000,7.100365966796875,-10.506312370300293,3.127547025680542,-0.9523198008537292
1761841502798435000,7.11043505859375,-10.492110252380371,3.003789186477661,-0.8943873047828674
1761841502808505000,7.120505126953125,-10.236772537231445,2.719461679458618,-0.88022780418396
1761841502818574000,7.130573974609375,-9.584426879882812,2.2637760639190674,-0.9467833042144775
1761841502828644000,7.14064404296875,-8.373604774475098,1.891330361366272,-1.072716474533081
1761841502838713000,7.150713134765625,-6.562965393066406,1.4235695600509644,-1.1627846956253052
1761841502848783000,7.160783203125,-4.094886779785156,0.7259894013404846,-1.0372507572174072
1761841502858852000,7.17085205078125,-1.1466724872589111,-0.09021589905023575,-0.641685426235199
1761841502868922000,7.180922119140625,1.8543601036071777,-1.1067782640457153,0.04483729600906372
1761841502878991000,7.1909912109375,4.549133777618408,-1.8258709907531738,0.6292633414268494
1761841502889060900,7.201060791015625,6.676670074462891,-2.4670727252960205,0.7785226106643677
1761841502899130000,7.211130126953125,8.313727378845215,-3.011093854904175,0.8075580596923828
1761841502909200000,7.221199951171875,9.521241188049316,-3.476999282836914,0.8632311224937439
1761841502919269000,7.23126904296875,10.295095443725586,-3.6925902366638184,0.923114538192749
1761841502929339100,7.241339111328125,10.652206420898438,-3.7321510314941406,0.9656129479408264
1761841502939408100,7.251408203125,10.675088882446289,-3.731257438659668,1.0089138746261597
1761841502949478100,7.26147802734375,10.358623504638672,-3.663296699523926,1.099149227142334
1761841502959548000,7.2715478515625,9.488397598266602,-3.50976824760437,1.2633278369903564
1761841502969617200,7.2816171875,7.817343235015869,-3.093719244003296,1.4209028482437134
1761841502979687000,7.29168701171875,5.288710594177246,-2.4327540397644043,1.3219499588012695
1761841502989756200,7.301756103515625,2.2515017986297607,-1.3353477716445923,0.9791892170906067
1761841502999826000,7.311825927734375,-0.8239841461181641,0.16354107856750488,0.3311595916748047
1761841503009895200,7.321895263671875,-3.676328182220459,1.4312944412231445,-0.48390406370162964
1761841503019965200,7.331965087890625,-6.020218372344971,2.1946983337402344,-1.191023588180542
1761841503030034200,7.3420341796875,-7.742636680603027,2.7499241828918457,-1.5554777383804321
1761841503040104200,7.352104248046875,-8.939306259155273,3.070345163345337,-1.6933319568634033
1761841503050173000,7.3621728515625,-9.69279956817627,3.2115867137908936,-1.655877709388733
1761841503060243200,7.3722431640625,-10.090983390808105,3.194700241088867,-1.4869436025619507
1761841503070312000,7.38231201171875,-10.191117286682129,2.9917232990264893,-1.253577709197998
1761841503080382200,7.39238232421875,-9.952322006225586,2.5689592361450195,-1.059607982635498
1761841503090451000,7.402450927734375,-9.221466064453125,2.090912342071533,-0.9753774404525757
1761841503100521000,7.41252099609375,-8.038487434387207,1.5272181034088135,-0.9076557159423828
1761841503110591200,7.42259130859375,-6.371038436889648,1.1485663652420044,-0.6209837198257446
1761841503120660000,7.432659912109375,-4.276348114013672,0.8063942790031433,-0.10088227689266205
1761841503130730200,7.442730224609375,-1.896296739578247,0.21721012890338898,0.5418801307678223
1761841503140799000,7.452799072265625,0.5876421332359314,-0.4180784821510315,1.1958675384521484
1761841503150869200,7.462869140625,2.9302666187286377,-0.7179210782051086,1.453321933746338
1761841503160938000,7.47293798828125,4.847274303436279,-0.8766595125198364,1.3521851301193237
1761841503171008000,7.483008056640625,6.335682392120361,-0.8057693243026733,1.1168562173843384
1761841503181077000,7.493076904296875,7.471896171569824,-0.7613435387611389,0.8297567367553711
1761841503191147000,7.50314697265625,8.419060707092285,-0.7764402031898499,0.5512974262237549
1761841503201216000,7.513216064453125,9.197532653808594,-0.9862374663352966,0.3484020531177521
1761841503211286000,7.5232861328125,9.739051818847656,-1.6171553134918213,0.29225435853004456
1761841503221355000,7.53335498046875,9.89797306060791,-2.4844772815704346,0.4272288382053375
1761841503231425000,7.543425048828125,9.451652526855469,-2.9918835163116455,0.6709222197532654
1761841503241494300,7.553494384765625,8.077620506286621,-2.834146022796631,0.8522177934646606
1761841503251564000,7.56356396484375,5.796964645385742,-1.9058350324630737,0.7669345736503601
1761841503261634000,7.573634033203125,2.8510944843292236,-0.4731689393520355,0.3983410596847534
1761841503271703000,7.583703125,-0.412533700466156,0.6187435984611511,0.14642520248889923
1761841503281773000,7.59377294921875,-3.4370174407958984,2.018031358718872,-0.10528315603733063
1761841503291842000,7.603842041015625,-6.111721515655518,2.918356418609619,-0.32258087396621704
1761841503301912000,7.613912109375,-8.165465354919434,3.4871325492858887,-0.40853941440582275
1761841503311981000,7.62398095703125,-9.609968185424805,3.8541858196258545,-0.4380243420600891
1761841503322051000,7.634051025390625,-10.502838134765625,3.910766124725342,-0.4358173608779907
1761841503332120000,7.6441201171875,-10.916484832763672,3.7403111457824707,-0.4518594443798065
1761841503342190000,7.654190185546875,-10.910276412963867,3.3282365798950195,-0.5002619624137878
1761841503352259000,7.664259033203125,-10.412710189819336,2.572740077972412,-0.5762110352516174
1761841503362329000,7.6743291015625,-9.298565864562988,1.5957117080688477,-0.5801606774330139
1761841503372398000,7.684398193359375,-7.5352911949157715,0.6024935841560364,-0.21623441576957703
1761841503382468000,7.694468017578125,-5.180246829986572,-0.05278316140174866,0.4338529109954834
1761841503392537000,7.704537109375,-2.402580499649048,-0.3855677843093872,1.1036349534988403
1761841503402606800,7.71460693359375,0.35670092701911926,-0.6107690930366516,1.4785252809524536
1761841503412677000,7.724677001953125,2.8169941902160645,-0.9339279532432556,1.4464890956878662
1761841503422746000,7.73474609375,4.850718975067139,-1.150292992591858,1.1210777759552002
1761841503432816000,7.744816162109375,6.445708751678467,-1.3238786458969116,0.7081339359283447
1761841503442885000,7.754885009765625,7.720468044281006,-1.5603519678115845,0.38023266196250916
1761841503452955000,7.764954833984375,8.683691024780273,-1.9238598346710205,0.19289234280586243
1761841503463024000,7.775024169921875,9.315885543823242,-2.2621490955352783,0.0676240548491478
1761841503473094000,7.785093994140625,9.612113952636719,-2.4720799922943115,-0.0011097376700490713
1761841503483163100,7.7951630859375,9.403182983398438,-2.628685712814331,0.04220495745539665
1761841503493233000,7.80523291015625,8.541364669799805,-2.613438844680786,0.12336292117834091
1761841503503302100,7.81530224609375,6.876535892486572,-2.173898696899414,0.12171893566846848
1761841503513372200,7.8253720703125,4.434627532958984,-1.1853312253952026,-0.05491762235760689
1761841503523441200,7.835441162109375,1.6068097352981567,0.17577290534973145,-0.3960873484611511
1761841503533511200,7.84551123046875,-1.2760639190673828,1.3311206102371216,-0.6817209720611572
1761841503543580200,7.855580078125,-3.907214403152466,2.1299517154693604,-0.8210245966911316
1761841503553650200,7.865650146484375,-5.990904331207275,2.82047700881958,-0.8569053411483765
1761841503563720000,7.875719970703125,-7.528817176818848,3.3357911109924316,-0.8262593746185303
1761841503573789200,7.8857890625,-8.530542373657227,3.5268781185150146,-0.7674620747566223
1761841503583859000,7.89585888671875,-9.073246955871582,3.334221363067627,-0.7143850326538086
1761841503593930000,7.905929931640625,-9.214085578918457,2.676284074783325,-0.7170295119285583
1761841503604000000,7.916,-8.948410034179688,1.6306647062301636,-0.8214192986488342
1761841503614069000,7.926069091796875,-8.161691665649414,0.6368242502212524,-0.9320797920227051
1761841503624139000,7.936138916015625,-6.803065776824951,-0.13720270991325378,-0.8103227019309998
1761841503634208000,7.9462080078125,-4.907058238983154,-0.7449440360069275,-0.37978726625442505
1761841503644278000,7.956278076171875,-2.5398428440093994,-0.9452865719795227,0.06168629229068756
1761841503654347300,7.96634716796875,0.04509853571653366,-1.1203147172927856,0.4058801531791687
1761841503664417000,7.9764169921875,2.512983560562134,-1.4023197889328003,0.6095240116119385
1761841503674486300,7.986486328125,4.611820220947266,-1.7948262691497803,0.6840872168540955
1761841503684556000,7.99655615234375,6.334129333496094,-2.2197842597961426,0.7504178881645203
1761841503694625000,8.006625,7.701432228088379,-2.3619015216827393,0.8377740979194641
1761841503704695000,8.016695068359375,8.648849487304688,-2.2639870643615723,0.9591806530952454
1761841503714765000,8.02676513671875,9.251516342163086,-2.105276584625244,1.0403498411178589
1761841503724834000,8.036833984375,9.57213306427002,-2.046354055404663,1.1025724411010742
1761841503734904000,8.046904052734375,9.581494331359863,-2.188504934310913,1.1462922096252441
1761841503744973000,8.05697314453125,9.112847328186035,-2.6871349811553955,1.1806000471115112
1761841503755043000,8.06704296875,7.79216194152832,-3.0402374267578125,1.1979619264602661
1761841503765112000,8.077112060546876,5.4762349128723145,-2.5176568031311035,0.9521793723106384
1761841503775182000,8.08718212890625,2.43349027633667,-1.187961220741272,0.40339192748069763
1761841503785251000,8.0972509765625,-0.9287691712379456,0.5801778435707092,-0.14404135942459106
1761841503795321000,8.107321044921875,-4.142085552215576,2.157392740249634,-0.708017885684967
1761841503805390000,8.11739013671875,-6.883754730224609,3.408949375152588,-1.1505534648895264
1761841503815459800,8.1274599609375,-8.9645414352417,4.247159481048584,-1.2819477319717407
1761841503825529000,8.137529052734376,-10.370211601257324,4.7730512619018555,-1.2265299558639526
1761841503835599000,8.14759912109375,-11.175414085388184,4.8857421875,-1.0532054901123047
1761841503845669000,8.157669189453125,-11.440248489379883,4.601205825805664,-0.8276943564414978
1761841503855738000,8.167738037109375,-11.148028373718262,3.925222873687744,-0.6523504853248596
1761841503865808100,8.17780810546875,-10.074441909790039,2.9502787590026855,-0.6130351424217224
1761841503875877000,8.187877197265625,-8.052675247192383,1.7979899644851685,-0.6345673203468323
1761841503885947000,8.19794677734375,-5.216634273529053,0.6938677430152893,-0.545181155204773
1761841503896016100,8.20801611328125,-1.7948365211486816,-0.2915729284286499,-0.2653615176677704
1761841503906086000,8.2180859375,1.7725661993026733,-1.1056196689605713,0.21359694004058838
1761841503916155100,8.228155029296875,4.880482196807861,-1.772800087928772,0.5965738892555237
1761841503926225200,8.23822509765625,7.19096565246582,-2.3356549739837646,0.7487114667892456
1761841503936294100,8.248294189453125,8.772706031799316,-2.5804529190063477,0.8519744873046875
1761841503946364200,8.2583642578125,9.732538223266602,-2.4630823135375977,0.9670397043228149
1761841503956433200,8.26843310546875,10.116129875183105,-2.253495216369629,1.0574846267700195
1761841503966503200,8.278503173828126,9.935539245605469,-1.9414665699005127,1.0215586423873901
1761841503976572200,8.288572265625,9.141915321350098,-1.6279650926589966,0.8941872119903564
1761841503986642200,8.29864208984375,7.549044609069824,-1.1269766092300415,0.6732220649719238
1761841503996712000,8.3087119140625,5.126750469207764,-0.23197893798351288,0.29864418506622314
1761841504006781200,8.31878125,2.1074297428131104,1.0521495342254639,-0.1768810898065567
1761841504016851200,8.328851318359375,-1.0674279928207397,2.661632537841797,-0.6271523237228394
1761841504026920200,8.338920166015624,-4.104780673980713,4.1946797370910645,-0.8948633074760437
1761841504036990200,8.348990234375,-6.736952781677246,5.375070571899414,-0.8669188022613525
1761841504047059000,8.359058837890625,-8.72867488861084,6.133959770202637,-0.5810180902481079
1761841504057129200,8.369129150390625,-10.076093673706055,6.403101921081543,-0.13366273045539856
1761841504067198000,8.379197998046875,-10.849295616149902,6.290027141571045,0.3819885551929474
1761841504077268200,8.389268310546875,-11.145094871520996,5.965279579162598,0.8673997521400452
1761841504087337000,8.3993369140625,-10.995739936828613,5.162832260131836,1.2124366760253906
1761841504097407000,8.409406982421874,-10.13365364074707,3.628384828567505,1.2898532152175903
1761841504107476000,8.41947607421875,-8.366155624389648,1.6976335048675537,1.1997014284133911
1761841504117546000,8.4295458984375,-5.584017753601074,0.38694673776626587,1.0670541524887085
1761841504127616300,8.4396162109375,-2.19425630569458,-0.3549753427505493,1.0337432622909546
1761841504137685000,8.44968505859375,1.2951810359954834,-1.2569283246994019,1.0513672828674316
1761841504147755300,8.45975537109375,4.5215864181518555,-2.334198236465454,0.9078103303909302
1761841504157824000,8.469823974609374,7.153425693511963,-3.429874897003174,0.71833336353302
1761841504167894000,8.47989404296875,9.082990646362305,-4.221639633178711,0.6255569458007812
1761841504177963000,8.489962890625,10.36008071899414,-4.679203033447266,0.6203917264938354
1761841504188033000,8.500032958984375,11.027127265930176,-4.831066608428955,0.6202794313430786
1761841504198102000,8.51010205078125,11.097436904907227,-4.648131370544434,0.5121905207633972
1761841504208172000,8.520172119140625,10.645376205444336,-4.215392112731934,0.31477516889572144
1761841504218241000,8.530240966796875,9.745814323425293,-3.575819969177246,0.07441315054893494
1761841504228311000,8.54031103515625,8.368271827697754,-2.827575206756592,-0.1724097579717636
1761841504238380000,8.550380126953126,6.436460494995117,-1.8676023483276367,-0.4054217040538788
1761841504248450000,8.560449951171876,3.9317052364349365,-0.7836282253265381,-0.6531236171722412
1761841504258520000,8.57052001953125,1.066684603691101,0.5376197695732117,-0.9332370162010193
1761841504268589000,8.580589111328125,-1.7747751474380493,1.8381834030151367,-1.107414960861206
1761841504278659000,8.5906591796875,-4.2406697273254395,2.785219430923462,-1.0432298183441162
1761841504288728000,8.60072802734375,-6.113569259643555,3.4668362140655518,-0.7716245055198669
1761841504298798000,8.610798095703124,-7.3672943115234375,3.8412413597106934,-0.4334371089935303
1761841504308867000,8.6208671875,-8.042289733886719,3.7680258750915527,-0.10524207353591919
1761841504318937000,8.63093701171875,-8.154068946838379,3.051424264907837,0.14195945858955383
1761841504329008000,8.641008056640626,-7.562636852264404,1.5695875883102417,0.20267415046691895
1761841504339077000,8.6510771484375,-6.078460216522217,-0.12494194507598877,0.25036871433258057
1761841504349147100,8.661147216796875,-3.637732982635498,-1.289817214012146,0.6634120941162109
1761841504359215900,8.6712158203125,-0.6728343367576599,-1.6289353370666504,1.2342846393585205
1761841504369286100,8.6812861328125,2.2628729343414307,-2.012683629989624,1.6091026067733765
1761841504379355000,8.69135498046875,4.894503593444824,-2.281104326248169,1.6745988130569458
1761841504389425200,8.701425048828124,6.879392623901367,-2.4605324268341064,1.6058515310287476
1761841504399494100,8.711494140625,8.223503112792969,-2.3428657054901123,1.5189772844314575
1761841504409564000,8.72156396484375,8.911652565002441,-2.1611053943634033,1.3962239027023315
1761841504419633200,8.731633056640625,9.035202980041504,-1.9688801765441895,1.1850330829620361
1761841504429703000,8.741702880859375,8.620843887329102,-1.667634129524231,0.8608880043029785
1761841504439773200,8.751773193359375,7.665530681610107,-1.4212414026260376,0.4759981334209442
1761841504449842000,8.761842041015624,6.143713474273682,-0.9783545732498169,0.10816656798124313
1761841504459912000,8.771911865234374,4.04873514175415,-0.17106257379055023,-0.21817240118980408
1761841504469981000,8.78198095703125,1.6029818058013916,0.8359406590461731,-0.532862663269043
1761841504480051000,8.792051025390625,-0.8171088099479675,1.863008975982666,-0.733923077583313
1761841504490120200,8.8021201171875,-2.9290976524353027,2.6119298934936523,-0.7148513197898865
1761841504500190000,8.81218994140625,-4.546697616577148,3.032505750656128,-0.5553886890411377
1761841504510259200,8.82225927734375,-5.703447341918945,3.207185745239258,-0.3830120861530304
1761841504520329000,8.832328857421874,-6.451292514801025,3.040670156478882,-0.3177475929260254
1761841504530398200,8.842398193359376,-6.815478801727295,2.6806461811065674,-0.3575582206249237
1761841504540468000,8.852468017578126,-6.867143154144287,2.3702328205108643,-0.4817560613155365
1761841504550538000,8.8625380859375,-6.591114521026611,2.21169376373291,-0.6156918406486511
1761841504560607000,8.87260693359375,-5.922379970550537,2.0483944416046143,-0.6356133818626404
1761841504570677000,8.882677001953125,-4.797876358032227,1.8903394937515259,-0.5666505098342896
1761841504580746200,8.892746337890625,-3.3347747325897217,1.6145836114883423,-0.469110906124115
1761841504590811100,8.90281103515625,-1.6800161600112915,1.1072208881378174,-0.41476115584373474
1761841504600880000,8.912880126953125,-0.053620267659425735,0.44093573093414307,-0.4911661744117737
1761841504610950100,8.9229501953125,1.3210840225219727,-0.19854453206062317,-0.6382263898849487
1761841504621019100,8.93301904296875,2.2907423973083496,-0.6412290334701538,-0.8060082197189331
1761841504631089200,8.943089111328124,2.7867040634155273,-0.7964036464691162,-0.9529445767402649
1761841504641158100,8.953158203125,2.794753313064575,-0.6285203695297241,-1.0752304792404175
1761841504651228200,8.963228271484375,2.3841135501861572,-0.192910298705101,-1.1696540117263794
1761841504661298000,8.9732978515625,1.666418194770813,0.3698002099990845,-1.2480082511901855
1761841504671367200,8.9833671875,0.7916568517684937,0.8340151906013489,-1.3000409603118896
1761841504681437200,8.993437255859375,-0.06356966495513916,1.0829148292541504,-1.3131074905395508
1761841504691506200,9.003506103515624,-0.7527649402618408,1.201508641242981,-1.2996739149093628
1761841504701576200,9.013576171875,-1.171228051185608,1.2478172779083252,-1.226065993309021
1761841504711645200,9.023645263671876,-1.3374707698822021,1.1469396352767944,-1.1136717796325684
1761841504721715200,9.033715087890625,-1.2978187799453735,0.9065168499946594,-1.043148398399353
1761841504731784200,9.0437841796875,-1.1043384075164795,0.7268707752227783,-1.1003247499465942
1761841504741854200,9.053854248046875,-0.7691401839256287,0.6327961683273315,-1.2331712245941162
1761841504751923200,9.063923095703124,-0.3187223970890045,0.47740209102630615,-1.3691881895065308
1761841504761993200,9.0739931640625,0.19644665718078613,0.300519198179245,-1.5016473531723022
1761841504772062000,9.08406201171875,0.6609126329421997,0.1271807700395584,-1.6034539937973022
1761841504782132200,9.09413232421875,0.9581312537193298,0.02175341546535492,-1.6439849138259888
1761841504792202200,9.1042021484375,1.0727906227111816,0.06616032123565674,-1.7032549381256104
1761841504802271200,9.114271240234375,0.9854404926300049,0.32655197381973267,-1.8041194677352905
1761841504812341200,9.12434130859375,0.7760111093521118,0.6239228844642639,-2.000124931335449
1761841504822410000,9.134409912109374,0.4846400022506714,0.6695823073387146,-2.0946266651153564
1761841504832480300,9.144480224609374,0.23728804290294647,0.7426202893257141,-2.233952045440674
1761841504842549000,9.154549072265626,0.06504890322685242,0.9537922143936157,-2.5060746669769287
1761841504852619300,9.164619384765626,-0.23092514276504517,2.0496115684509277,-2.7087042331695557
1761841504862688000,9.17468798828125,-0.575525164604187,2.258345127105713,-2.9566683769226074
1761841504872758300,9.18475830078125,-1.024945855140686,2.4101383686065674,-2.789151668548584
1761841504882827000,9.194826904296875,-1.3017064332962036,2.3226866722106934,-2.4270381927490234
1761841504892897000,9.20489697265625,-1.4840359687805176,1.7199125289916992,-2.069807767868042
1761841504902967300,9.21496728515625,-1.6055917739868164,1.0418853759765625,-1.6860541105270386
1761841504913036000,9.2250361328125,-1.6094878911972046,0.139298677444458,-1.3590538501739502
1761841504923106300,9.235106201171876,-1.6047117710113525,-0.8270303606987,-1.2561253309249878
1761841504933175000,9.245175048828125,-1.5089105367660522,-1.7016546726226807,-1.2378491163253784
1761841504943245000,9.2552451171875,-1.3333349227905273,-2.231090784072876,-1.1463806629180908
1761841504953314000,9.26531396484375,-1.0116039514541626,-2.0828986167907715,-0.9864774942398071
1761841504963384000,9.275384033203125,-0.6258347034454346,-1.8549960851669312,-0.9287638664245605
1761841504973453000,9.285453125,-0.2954537868499756,-1.8226994276046753,-0.9553810954093933
1761841504983523000,9.295523193359376,-0.14253056049346924,-1.747714877128601,-1.003579020500183
1761841504993592300,9.30559228515625,-0.05243055149912834,-1.6168676614761353,-1.0743836164474487
1761841505003662000,9.315662109375,-0.002319446997717023,-1.5318634510040283,-1.149458646774292
1761841505013731300,9.3257314453125,0.018889082595705986,-1.240390419960022,-1.1625738143920898
1761841505023801000,9.335801025390625,-0.012656327337026596,-0.8976683020591736,-1.0800299644470215
1761841505033871000,9.34587109375,-0.034986525774002075,-0.6300528049468994,-0.8906700611114502
1761841505043940000,9.355940185546874,-0.05364729464054108,-0.42357125878334045,-0.623645007610321
1761841505054010000,9.366010009765626,-0.08448296040296555,-0.30283668637275696,-0.3054831922054291
1761841505064079000,9.3760791015625,-0.11093880236148834,-0.21239839494228363,0.02119903266429901
1761841505074149000,9.386149169921875,-0.12571357190608978,-0.15713365375995636,0.3230222165584564
1761841505084218400,9.39621826171875,-0.12517641484737396,-0.17446789145469666,0.5203635692596436
1761841505094288100,9.4062880859375,-0.12381576001644135,-0.19238366186618805,0.611779510974884
1761841505104357000,9.416357177734374,-0.12790317833423615,-0.19626441597938538,0.6377767324447632
1761841505114427100,9.42642724609375,-0.16132834553718567,-0.21541590988636017,0.6263889670372009
1761841505124496100,9.43649609375,-0.18292391300201416,-0.2409479022026062,0.5812225341796875
1761841505134566100,9.446566162109375,-0.19241872429847717,-0.3110189139842987,0.5074679851531982
1761841505144636200,9.45663623046875,-0.18094661831855774,-0.3424633741378784,0.4270263910293579
1761841505154705200,9.466705078125,-0.16350823640823364,-0.3408912718296051,0.3638041019439697
1761841505164775200,9.476775146484375,-0.14716307818889618,-0.3034541606903076,0.3150775730609894
1761841505174844200,9.48684423828125,-0.12722498178482056,-0.25192511081695557,0.2802533507347107
1761841505184914200,9.4969140625,-0.10695485770702362,-0.1879677027463913,0.28690966963768005
1761841505194983200,9.506983154296876,-0.10765381157398224,-0.1641782522201538,0.302885502576828
1761841505205053200,9.51705322265625,-0.10365267843008041,-0.14579124748706818,0.29565104842185974
1761841505215122200,9.5271220703125,-0.08618766814470291,-0.12986502051353455,0.25934043526649475
1761841505225192200,9.537192138671875,-0.05965778976678848,-0.122622549533844,0.20677097141742706
1761841505235261200,9.54726123046875,-0.015718674287199974,-0.140928715467453,0.1574137657880783
1761841505245331000,9.5573310546875,0.020998593419790268,-0.14657966792583466,0.1179869994521141
1761841505255401200,9.567401123046874,0.03567424789071083,-0.15769603848457336,0.06938166916370392
1761841505265470200,9.57747021484375,0.02952873893082142,-0.15447893738746643,0.019486814737319946
1761841505275540200,9.587540283203126,-0.005362802185118198,-0.1436208039522171,-0.06066222861409187
1761841505285609200,9.597609130859375,-0.05732506886124611,-0.15269659459590912,-0.1441137045621872
1761841505295679000,9.607678955078125,-0.11194472759962082,-0.14373023808002472,-0.21410594880580902
1761841505305748200,9.617748291015625,-0.1757303774356842,-0.13936637341976166,-0.2538253962993622
1761841505315818000,9.62781787109375,-0.17722119390964508,-0.09371088445186615,-0.249224454164505
