time,seconds_elapsed,z,y,x
1761232175060634600,0.077634521484375,0.07776543498039246,-0.26765990257263184,-0.09453552961349487
1761232175070704600,0.08770458984375,0.0667160302400589,-0.29953980445861816,-0.06288424879312515
1761232175080773600,0.097773681640625,0.03880317136645317,-0.27004554867744446,0.00637524900957942
1761232175090842600,0.107842529296875,-0.004451216198503971,-0.21590641140937805,0.049079153686761856
1761232175100912600,0.11791259765625,-0.03590048477053642,-0.14053043723106384,0.08229223638772964
1761232175110981600,0.127981689453125,-0.04502994194626808,-0.05755780637264252,0.10632634162902832
1761232175121050600,0.138050537109375,-0.0404418483376503,0.005235537886619568,0.10664885491132736
1761232175131120600,0.14812060546875,-0.04385793209075928,0.026440538465976715,0.07390416413545609
1761232175141189600,0.158189697265625,-0.03883760794997215,0.03168323636054993,0.04195208474993706
1761232175151259100,0.168259033203125,-0.02910582348704338,0.04333290457725525,0.015481897629797459
1761232175161328400,0.178328369140625,-0.028055205941200256,0.04485410079360008,-0.005471587181091309
1761232175171397000,0.188397216796875,-0.03261198848485947,0.05214420706033707,-0.016768168658018112
1761232175181467400,0.19846728515625,-0.03636118769645691,0.06023648753762245,-0.019991926848888397
1761232175191536000,0.2085361328125,-0.03902139142155647,0.07611557841300964,-0.028143050149083138
1761232175201605400,0.21860546875,-0.04014924168586731,0.0805811733007431,-0.03481799736618996
1761232175211675100,0.228675048828125,-0.03868968039751053,0.08502063155174255,-0.029542800039052963
1761232175221744400,0.238744384765625,-0.024701159447431564,0.08531437814235687,-0.01682513952255249
1761232175231814100,0.248814208984375,-0.011801190674304962,0.08912213146686554,-0.004746361635625362
1761232175241883400,0.25888330078125,0.0018626900855451822,0.08299633115530014,0.004935560282319784
1761232175251952000,0.2689521484375,0.007201584987342358,0.08069838583469391,0.005529132671654224
1761232175262022100,0.279022216796875,0.004265716299414635,0.09096433967351913,0.008770465850830078
1761232175272091100,0.289091064453125,-0.003322489093989134,0.0986311137676239,0.01579691655933857
1761232175282161200,0.2991611328125,-0.003860980272293091,0.10120345652103424,0.0271648857742548
1761232175292230400,0.30923046875,-0.0016399137675762177,0.09582658857107162,0.04168348014354706
1761232175302299100,0.319299072265625,-0.000020179199054837227,0.10063812136650085,0.05100241303443909
1761232175312369400,0.329369384765625,0.002958440687507391,0.09777525812387466,0.06267064064741135
1761232175322438100,0.339438232421875,0.0033382074907422066,0.0924992635846138,0.06142774224281311
1761232175332508400,0.34950830078125,0.0003703057300299406,0.08779747039079666,0.05468088760972023
1761232175342577200,0.3595771484375,-0.0024164258502423763,0.08501127362251282,0.048213135451078415
1761232175352646400,0.369646484375,-0.004732838831841946,0.08052368462085724,0.04595538228750229
1761232175362716200,0.379716064453125,-0.0031687640585005283,0.07501253485679626,0.055321190506219864
1761232175372785400,0.389785400390625,0.0006844981107860804,0.06934875249862671,0.06872529536485672
1761232175382854100,0.399854248046875,0.0033793507609516382,0.0660722628235817,0.09086282551288605
1761232175392924400,0.40992431640625,0.008213399909436703,0.05362504720687866,0.10216681659221649
1761232175402993200,0.4199931640625,0.022288471460342407,0.048166364431381226,0.10631602257490158
1761232175413063200,0.430063232421875,0.030925821512937546,0.053729087114334106,0.10426317155361176
1761232175423132200,0.440132080078125,0.0322566032409668,0.07090621441602707,0.09234125912189484
1761232175433201400,0.450201416015625,0.02809133566915989,0.07975862920284271,0.08702302724123001
1761232175443271200,0.460271240234375,0.019947921857237816,0.09629925340414047,0.08051746338605881
1761232175453340400,0.47034033203125,0.01034216582775116,0.11374535411596298,0.08966542035341263
1761232175463409200,0.4804091796875,-0.02333507314324379,0.13089755177497864,0.11199863255023956
1761232175473479200,0.490479248046875,-0.06845628470182419,0.14733533561229706,0.13247795403003693
1761232175483548200,0.500548095703125,-0.15262974798679352,0.14568017423152924,0.15883873403072357
1761232175493618200,0.5106181640625,-0.21076494455337524,0.1597588211297989,0.18263815343379974
1761232175503687200,0.520687255859375,-0.25658464431762695,0.1661655753850937,0.19261248409748077
1761232175513756200,0.530756103515625,-0.28980037569999695,0.1875707358121872,0.2051897943019867
1761232175523826400,0.540826416015625,-0.29919761419296265,0.2042999118566513,0.210114523768425
1761232175533895200,0.550895263671875,-0.3023534119129181,0.20464494824409485,0.20802399516105652
1761232175543965400,0.56096533203125,-0.2969628870487213,0.20153091847896576,0.20182016491889954
1761232175554034200,0.5710341796875,-0.29089710116386414,0.2048010230064392,0.1926596760749817
1761232175564103400,0.581103515625,-0.27862152457237244,0.2079038769006729,0.19525359570980072
1761232175574173200,0.591173095703125,-0.2716880738735199,0.21186082065105438,0.19503572583198547
1761232175584242400,0.601242431640625,-0.25798240303993225,0.21991555392742157,0.19136802852153778
1761232175594312200,0.611312255859375,-0.23615561425685883,0.21377941966056824,0.17778322100639343
1761232175604381400,0.62138134765625,-0.2128841131925583,0.20054323971271515,0.16038106381893158
1761232175614450200,0.6314501953125,-0.17217791080474854,0.1828075796365738,0.13722704350948334
1761232175624520200,0.641520263671875,-0.1253773719072342,0.17208142578601837,0.1047372817993164
1761232175634589200,0.651589111328125,-0.08241870999336243,0.1468680053949356,0.0600547268986702
1761232175644658400,0.661658447265625,-0.05652053281664848,0.10653389245271683,0.006046358495950699
1761232175654728200,0.671728271484375,-0.04652271047234535,0.06910422444343567,-0.04365820437669754
1761232175664797200,0.681797119140625,-0.04144299775362015,0.04220789670944214,-0.07973071932792664
1761232175674867200,0.6918671875,-0.03819258511066437,0.01902347430586815,-0.10035650432109833
1761232175684936200,0.701936279296875,-0.031497132033109665,0.0046780901029706,-0.09974078088998795
1761232175695005200,0.712005126953125,-0.014255102723836899,0.01268836297094822,-0.08694270253181458
1761232175705075200,0.7220751953125,-0.0027502463199198246,0.022659238427877426,-0.06548774242401123
1761232175715144200,0.732144287109375,-0.0026633567176759243,0.03231467306613922,-0.03805140405893326
1761232175725214200,0.742214111328125,-0.010885333642363548,0.04440036416053772,-0.0026806273963302374
1761232175735283500,0.752283447265625,-0.02005908451974392,0.04825613647699356,0.03401985019445419
1761232175745352200,0.762352294921875,-0.02469751052558422,0.04932219907641411,0.07473611831665039
1761232175755422500,0.77242236328125,-0.029805641621351242,0.03198377788066864,0.09933315962553024
1761232175765491200,0.7824912109375,-0.032298360019922256,0.035877589136362076,0.10971256345510483
1761232175775560200,0.792560302734375,-0.03823256865143776,0.03414326161146164,0.11067307740449905
1761232175785630200,0.802630126953125,-0.05045434832572937,0.03959394991397858,0.10735451430082321
1761232175795699500,0.812699462890625,-0.05917904153466225,0.031380534172058105,0.09313693642616272
1761232175805769200,0.822769287109375,-0.06837759912014008,0.023612890392541885,0.067805215716362
1761232175815838500,0.83283837890625,-0.05692511796951294,0.01769697666168213,0.039859578013420105
1761232175825907200,0.8429072265625,-0.0384124219417572,0.0057428451254963875,0.0055330293253064156
1761232175835977200,0.852977294921875,-0.01812509074807167,-0.002278038300573826,-0.01629730686545372
1761232175846046200,0.863046142578125,0.0010480708442628384,-0.011739183217287064,-0.032818228006362915
1761232175856116200,0.8731162109375,0.009834530763328075,-0.03137395903468132,-0.04637514054775238
1761232175866185200,0.883185302734375,0.018303116783499718,-0.044691361486911774,-0.058754317462444305
1761232175876254200,0.893254150390625,0.02288159541785717,-0.05240504443645477,-0.066255584359169
1761232175886324200,0.90332421875,0.02397269196808338,-0.057405661791563034,-0.06707397103309631
1761232175896393200,0.913393310546875,0.025654351338744164,-0.0725260004401207,-0.06516969949007034
1761232175906462200,0.923462158203125,0.03117614984512329,-0.09200995415449142,-0.06235526502132416
1761232175916532200,0.9335322265625,0.03281912952661514,-0.10304583609104156,-0.05286135897040367
1761232175926601200,0.943601318359375,0.037283118814229965,-0.09748728573322296,-0.04152747616171837
1761232175936671200,0.953671142578125,0.03421672806143761,-0.08139283955097198,-0.03300183638930321
1761232175946740200,0.963740234375,0.023546505719423294,-0.06257973611354828,-0.026905061677098274
1761232175956809200,0.973809326171875,0.010357617400586605,-0.041393790394067764,-0.027319710701704025
1761232175966879500,0.98387939453125,-0.01052875630557537,-0.01891724392771721,-0.014320822432637215
1761232175976948200,0.9939482421875,-0.02178853563964367,0.0006591621786355972,0.004254839848726988
1761232175987018200,1.004018310546875,-0.02582349069416523,0.00505284545943141,0.015502436086535454
1761232175997087200,1.014087158203125,-0.02355620078742504,0.010038040578365326,0.02419058233499527
1761232176007156500,1.024156494140625,-0.012758415192365646,0.013927055522799492,0.027779724448919296
1761232176017226200,1.034226318359375,0.0009466791525483131,0.00879164133220911,0.022396031767129898
1761232176027295200,1.044295166015625,0.007546258624643087,0.01420451607555151,0.01783084124326706
1761232176037365200,1.054365234375,0.005958010442554951,0.018932361155748367,0.007309790700674057
1761232176047434200,1.064434326171875,0.0024487627670168877,0.02082160860300064,-0.011950189247727394
1761232176057503200,1.074503173828125,0.0024971477687358856,0.017273545265197754,-0.02454310469329357
1761232176067573200,1.0845732421875,0.008727080188691616,0.030862323939800262,-0.013111218810081482
1761232176077642200,1.094642333984375,0.00027980469167232513,0.03952303156256676,0.0023812642320990562
1761232176087711200,1.104711181640625,-0.013140663504600525,0.03694003075361252,0.004418316297233105
1761232176097781200,1.11478125,-0.015144345350563526,0.05409114435315132,0.016447629779577255
1761232176107850200,1.124850341796875,-0.023834506049752235,0.10425498336553574,0.040406759828329086
1761232176117920300,1.134920166015625,-0.04581344500184059,0.13286647200584412,0.04202725365757942
1761232176127989200,1.1449892578125,-0.04765821620821953,0.06885392963886261,-0.016985999420285225
1761232176138058200,1.155058349609375,-0.027938658371567726,0.02214028500020504,-0.08315426111221313
1761232176148127500,1.16512744140625,0.003611278720200062,0.0010749469511210918,-0.12379249930381775
1761232176158196500,1.175196533203125,0.021412137895822525,-0.018739771097898483,-0.12822361290454865
1761232176168266500,1.1852666015625,0.01757771708071232,-0.024045586585998535,-0.1062498688697815
1761232176178335700,1.195335693359375,0.008730421774089336,-0.020357320085167885,-0.06731594353914261
1761232176188404500,1.205404541015625,0.006566602736711502,-0.025535039603710175,-0.04530065506696701
1761232176198474800,1.215474853515625,0.001823924365453422,-0.048196811228990555,-0.04486556351184845
1761232176208543500,1.22554345703125,-0.006979420781135559,-0.06944137811660767,-0.0663122683763504
1761232176218613500,1.235613525390625,-0.008155280724167824,-0.09102015942335129,-0.11251305788755417
1761232176228682500,1.2456826171875,-0.005961102899163961,-0.11244582384824753,-0.17195507884025574
1761232176238751700,1.255751708984375,0.0016676431987434626,-0.11677493155002594,-0.22776153683662415
1761232176248821500,1.265821533203125,0.009944748133420944,-0.09707765281200409,-0.26063746213912964
1761232176258890800,1.275890869140625,0.015052087604999542,-0.08922333270311356,-0.2616184949874878
1761232176268960500,1.28596044921875,0.01755412667989731,-0.08785340189933777,-0.23735632002353668
1761232176279029500,1.296029541015625,0.02057841792702675,-0.0833970308303833,-0.19542741775512695
1761232176289098500,1.306098388671875,0.020747795701026917,-0.07647468149662018,-0.16453900933265686
1761232176299168500,1.31616845703125,0.018087582662701607,-0.05713783949613571,-0.14413994550704956
1761232176309237500,1.326237548828125,0.014185785315930843,-0.06074722111225128,-0.1316923350095749
1761232176319307500,1.3363076171875,-0.003881837474182248,-0.027158968150615692,-0.14166849851608276
1761232176329376500,1.34637646484375,-0.019549213349819183,0.012459015473723412,-0.15742962062358856
1761232176339445500,1.356445556640625,-0.0029449372086673975,0.05974237248301506,-0.15816065669059753
1761232176349515500,1.366515625,-0.001881803385913372,0.10927397757768631,-0.1652313470840454
1761232176359584500,1.37658447265625,0.010498549789190292,0.13646994531154633,-0.15929730236530304
1761232176369653500,1.386653564453125,0.05380847305059433,0.13167385756969452,-0.14682066440582275
1761232176379723500,1.3967236328125,0.10066365450620651,0.10463620722293854,-0.14557486772537231
1761232176389792500,1.40679248046875,0.14482338726520538,0.08697278797626495,-0.1604563444852829
1761232176399862500,1.416862548828125,0.1845909208059311,0.11074402928352356,-0.16348551213741302
1761232176409931800,1.426931884765625,0.20513588190078735,0.15646810829639435,-0.17625243961811066
1761232176420000500,1.43700048828125,0.22132238745689392,0.21159493923187256,-0.22085489332675934
1761232176430070500,1.447070556640625,0.2546390891075134,0.29731887578964233,-0.2776787579059601
1761232176440139500,1.457139404296875,0.3174908757209778,0.3256100118160248,-0.32880857586860657
1761232176450209500,1.46720947265625,0.3969164490699768,0.35348132252693176,-0.3527381420135498
1761232176460278500,1.477278564453125,0.4741191864013672,0.3699754476547241,-0.3573831021785736
1761232176470347500,1.487347412109375,0.5548688769340515,0.3887600302696228,-0.3452609181404114
1761232176480417500,1.49741748046875,0.624772310256958,0.4102350175380707,-0.3314940333366394
1761232176490486500,1.507486572265625,0.6930294036865234,0.4579700529575348,-0.3113781213760376
1761232176500556500,1.517556640625,0.7547089457511902,0.4955449104309082,-0.3210795223712921
1761232176510625500,1.52762548828125,0.8177054524421692,0.5147063732147217,-0.3645196557044983
1761232176520694500,1.537694580078125,0.8890447020530701,0.5346674919128418,-0.43506836891174316
1761232176530764500,1.5477646484375,0.9507027268409729,0.5379263758659363,-0.542215883731842
1761232176540833500,1.55783349609375,0.9910963177680969,0.5884912014007568,-0.6670665144920349
1761232176550903600,1.567903564453125,1.0077307224273682,0.5784077048301697,-0.7504830956459045
1761232176560972500,1.57797265625,1.002808690071106,0.46742233633995056,-0.801867663860321
1761232176571041500,1.58804150390625,0.9705162048339844,0.3648240566253662,-0.8030626177787781
1761232176581111600,1.598111572265625,0.9119654297828674,0.3606116771697998,-0.7410632371902466
1761232176591180500,1.6081806640625,0.8355172276496887,0.42771080136299133,-0.6428831219673157
1761232176601249500,1.61824951171875,0.7467449307441711,0.532322883605957,-0.5286534428596497
1761232176611319600,1.628319580078125,0.6683582067489624,0.5891633033752441,-0.3682672381401062
1761232176621388500,1.638388427734375,0.6215830445289612,0.7055146098136902,-0.1348109394311905
1761232176631458600,1.64845849609375,0.5868700742721558,0.7977843284606934,0.10143514722585678
1761232176641527600,1.658527587890625,0.577041745185852,0.8510062098503113,0.3181201219558716
1761232176651596500,1.668596435546875,0.6057361960411072,0.8654493093490601,0.5119335055351257
1761232176661666600,1.67866650390625,0.6704477667808533,0.9456639885902405,0.7031818628311157
1761232176671735600,1.688735595703125,0.7440069317817688,1.0963499546051025,0.8976746797561646
1761232176681805600,1.6988056640625,0.7985501289367676,1.2885072231292725,1.0838212966918945
1761232176691874600,1.70887451171875,0.8434065580368042,1.4872525930404663,1.2776826620101929
1761232176701944600,1.718944580078125,0.8533129692077637,1.723751425743103,1.4820700883865356
1761232176712013600,1.729013671875,0.8321259021759033,1.9455411434173584,1.6722978353500366
1761232176722082600,1.73908251953125,0.7703321576118469,2.08549165725708,1.8090991973876953
1761232176732152600,1.749152587890625,0.651448130607605,1.684922695159912,1.5670212507247925
1761232176742221600,1.7592216796875,0.34666916728019714,0.6766982078552246,0.6881381869316101
1761232176752290600,1.76929052734375,-0.03421826288104057,0.3315160870552063,-0.08204269409179688
1761232176762360600,1.779360595703125,-0.30970582365989685,0.706246554851532,-0.31884753704071045
1761232176772429600,1.7894296875,-0.4378581941127777,1.006388545036316,-0.3642888069152832
1761232176782499600,1.79949951171875,-0.4536777138710022,0.8942244648933411,-0.4115661382675171
1761232176792568300,1.809568359375,-0.41353321075439453,0.8163672089576721,-0.4260481595993042
1761232176802637600,1.819637451171875,-0.34288111329078674,0.7187710404396057,-0.42180755734443665
1761232176812707600,1.82970751953125,-0.21856552362442017,0.6354290246963501,-0.41962379217147827
1761232176822776600,1.839776611328125,-0.06106380373239517,0.6389568448066711,-0.4371635913848877
1761232176832846600,1.8498466796875,0.10053015500307083,0.6582440137863159,-0.49037912487983704
1761232176842915600,1.85991552734375,0.23163992166519165,0.6642523407936096,-0.5564349889755249
1761232176852984600,1.869984619140625,0.30522996187210083,0.7024921774864197,-0.6191015839576721
1761232176863054600,1.8800546875,0.3122761845588684,0.7008189558982849,-0.6889411807060242
1761232176873123600,1.89012353515625,0.2826583683490753,0.6876760125160217,-0.7679038643836975
1761232176883193600,1.900193603515625,0.2611561119556427,0.6047282814979553,-0.8193924427032471
1761232176893262600,1.9102626953125,0.25458183884620667,0.559482753276825,-0.815150260925293
1761232176903331600,1.92033154296875,0.24571172893047333,0.4624342918395996,-0.7021046876907349
1761232176913401600,1.930401611328125,0.24090231955051422,0.35375654697418213,-0.5269635319709778
1761232176923470600,1.940470703125,0.2312539517879486,0.2633510231971741,-0.36561453342437744
1761232176933540600,1.95054052734375,0.22889386117458344,0.19966895878314972,-0.25883057713508606
1761232176943609600,1.960609619140625,0.2222994714975357,0.1597965657711029,-0.16018573939800262
1761232176953678600,1.9706787109375,0.20883479714393616,0.14858733117580414,-0.061081256717443466
1761232176963748400,1.980748291015625,0.18737871944904327,0.16925537586212158,0.031004158779978752
1761232176973817600,1.990817626953125,0.1543280929327011,0.1953442394733429,0.11003639549016953
1761232176983887400,2.000887451171875,0.13199029862880707,0.20327156782150269,0.17719724774360657
1761232176993956600,2.01095654296875,0.11899300664663315,0.19139359891414642,0.22805216908454895
1761232177004025300,2.021025390625,0.09382252395153046,0.15797612071037292,0.2660960257053375
1761232177014095600,2.031095703125,0.04949553683400154,0.1071142703294754,0.29880470037460327
1761232177024164400,2.041164306640625,0.007628792896866798,0.05411944165825844,0.32910579442977905
1761232177034234600,2.051234619140625,-0.026099076494574547,-0.018631458282470703,0.36156758666038513
1761232177044303600,2.0613037109375,-0.008635192178189754,-0.07765449583530426,0.3634922206401825
1761232177054372600,2.07137255859375,0.05105263739824295,-0.13162025809288025,0.34230837225914
1761232177064442600,2.081442626953125,0.14045676589012146,-0.20829471945762634,0.3247908651828766
1761232177074511600,2.09151171875,0.21213653683662415,-0.30776965618133545,0.3159622251987457
1761232177084581600,2.10158154296875,0.24877405166625977,-0.3898012936115265,0.2990020513534546
1761232177094650600,2.111650634765625,0.2617543041706085,-0.42803335189819336,0.2364947348833084
1761232177104719600,2.1217197265625,0.2725955545902252,-0.4374014735221863,0.1350526362657547
1761232177114789400,2.131789306640625,0.27241578698158264,-0.43976715207099915,0.028993850573897362
1761232177124858600,2.141858642578125,0.24855871498584747,-0.4476749897003174,-0.04652468115091324
1761232177134928400,2.151928466796875,0.2267247885465622,-0.5025121569633484,-0.09438062459230423
1761232177144997600,2.16199755859375,0.23037764430046082,-0.5703315138816833,-0.10597370564937592
1761232177155067000,2.17206689453125,0.24143429100513458,-0.639773964881897,-0.07740304619073868
1761232177165137000,2.182136962890625,0.26987674832344055,-0.664687991142273,-0.037727613002061844
1761232177175206000,2.192205810546875,0.29622551798820496,-0.6766282916069031,0.03324749320745468
1761232177185276000,2.20227587890625,0.3112037181854248,-0.7011817693710327,0.12080660462379456
1761232177195345000,2.212344970703125,0.32437971234321594,-0.7306118011474609,0.20756572484970093
1761232177205414000,2.222413818359375,0.3418125510215759,-0.765896737575531,0.2760629951953888
1761232177215484000,2.23248388671875,0.3640262484550476,-0.7742923498153687,0.32576796412467957
1761232177225553200,2.24255322265625,0.3913886845111847,-0.8161934018135071,0.352448433637619
1761232177235623000,2.252622802734375,0.4352858364582062,-0.8599387407302856,0.35810232162475586
1761232177245692000,2.26269189453125,0.4958125650882721,-0.9484905004501343,0.3784606158733368
1761232177255761000,2.272760986328125,0.5396599173545837,-1.0443379878997803,0.40624937415122986
1761232177265831000,2.282830810546875,0.581195056438446,-1.0954217910766602,0.38088735938072205
1761232177275900000,2.29289990234375,0.6297240257263184,-1.1305904388427734,0.29244911670684814
1761232177285970000,2.302969970703125,0.7071942090988159,-1.1598014831542969,0.15757952630519867
1761232177296039000,2.313038818359375,0.8093040585517883,-1.1830681562423706,0.017823221161961555
1761232177306108000,2.32310791015625,0.8831202387809753,-1.2106596231460571,-0.08418276906013489
1761232177316178000,2.333177978515625,0.9213408827781677,-1.2631547451019287,-0.13405364751815796
1761232177326247000,2.343246826171875,0.9469873905181885,-1.2776376008987427,-0.11925031989812851
1761232177336317000,2.35331689453125,0.9487624168395996,-1.3617689609527588,-0.07946722209453583
1761232177346386000,2.363385986328125,0.9918027520179749,-1.5292177200317383,0.056379180401563644
1761232177356455000,2.373454833984375,1.0470993518829346,-1.8798476457595825,0.26834946870803833
1761232177366525000,2.38352490234375,1.1046971082687378,-2.2903976440429688,0.525799572467804
1761232177376594000,2.393593994140625,1.178788423538208,-2.6475470066070557,0.768844723701477
1761232177386664000,2.403663818359375,1.207829236984253,-3.095163106918335,0.9347631335258484
1761232177396733000,2.41373291015625,1.246552586555481,-3.4263598918914795,0.9759372472763062
1761232177406802000,2.423802001953125,1.2143754959106445,-3.5756938457489014,1.028004765510559
1761232177416872000,2.433871826171875,1.0542664527893066,-3.5900840759277344,1.1532988548278809
1761232177426941000,2.44394091796875,0.8164112567901611,-3.496285915374756,1.3518712520599365
1761232177437011000,2.454010986328125,0.5643976330757141,-3.2807655334472656,1.515395998954773
1761232177447080000,2.464079833984375,0.25373390316963196,-2.9951696395874023,1.6484122276306152
1761232177457149000,2.47414892578125,-0.10920462012290955,-2.6731107234954834,1.7845042943954468
1761232177467219000,2.484218994140625,-0.4654218852519989,-2.374427318572998,1.8994941711425781
1761232177477288000,2.494287841796875,-0.7502501010894775,-2.0778467655181885,1.9768717288970947
1761232177487358000,2.50435791015625,-1.0390594005584717,-1.8251243829727173,2.0386054515838623
1761232177497427000,2.514427001953125,-1.2864090204238892,-1.6165869235992432,2.073880910873413
1761232177507497000,2.5244970703125,-1.5255244970321655,-1.4799184799194336,2.0747201442718506
1761232177517566000,2.53456591796875,-1.8083354234695435,-1.3990771770477295,2.042703151702881
1761232177527635000,2.544635009765625,-2.063326358795166,-1.2525938749313354,1.9553649425506592
1761232177537705000,2.554705078125,-2.3580760955810547,-1.1081984043121338,1.849603295326233
1761232177547774000,2.56477392578125,-2.6706783771514893,-0.9030551314353943,1.7471007108688354
1761232177557844000,2.574843994140625,-2.9921367168426514,-0.6403031349182129,1.6295559406280518
1761232177567912700,2.58491259765625,-3.2981808185577393,-0.3515940308570862,1.4857486486434937
1761232177577982000,2.59498193359375,-3.577610731124878,-0.038811348378658295,1.318796992301941
1761232177588052000,2.605052001953125,-3.8295083045959473,0.25245681405067444,1.1717923879623413
1761232177598121000,2.615120849609375,-4.045851230621338,0.5026373267173767,1.0399537086486816
1761232177608191000,2.62519091796875,-4.192781925201416,0.7414677739143372,0.9105470776557922
1761232177618260000,2.635260009765625,-4.326419353485107,0.8361886739730835,0.8158674240112305
1761232177628329000,2.645328857421875,-4.4690985679626465,0.773499071598053,0.7517073154449463
1761232177638399000,2.65539892578125,-4.592729091644287,0.6107101440429688,0.6775566339492798
1761232177648468000,2.665468017578125,-4.68304443359375,0.3655260503292084,0.5770297050476074
1761232177658538000,2.6755380859375,-4.71451473236084,0.03984621539711952,0.39333575963974
1761232177668607000,2.68560693359375,-4.726241111755371,-0.32577601075172424,0.0815596655011177
1761232177678676000,2.695676025390625,-4.712216854095459,-0.6012027859687805,-0.31268829107284546
1761232177688746000,2.70574609375,-4.618247032165527,-0.5769495964050293,-0.6758647561073303
1761232177698815000,2.71581494140625,-4.357876777648926,-0.19208447635173798,-0.8954319953918457
1761232177708885000,2.725885009765625,-4.019087314605713,0.24839843809604645,-0.8658773899078369
1761232177718953700,2.73595361328125,-3.6400556564331055,0.6208018064498901,-0.6063733696937561
1761232177729023000,2.74602294921875,-3.2162091732025146,0.8833467364311218,-0.2440371960401535
1761232177739092700,2.7560927734375,-2.7653257846832275,0.8158241510391235,0.055142857134342194
1761232177749162000,2.766161865234375,-2.2302935123443604,0.49777910113334656,0.18364262580871582
1761232177759232000,2.77623193359375,-1.6098064184188843,0.06002601236104965,0.21731269359588623
1761232177769301000,2.786301025390625,-0.9397545456886292,-0.3987257480621338,0.2771814167499542
1761232177779369700,2.79636962890625,-0.22996246814727783,-0.7426181435585022,0.4178368151187897
1761232177789440000,2.80643994140625,0.4691940248012543,-0.9577602744102478,0.6281474828720093
1761232177799508700,2.8165087890625,1.095367670059204,-1.0652214288711548,0.8348497748374939
1761232177809579000,2.8265791015625,1.640598177909851,-1.1292929649353027,0.9835754632949829
1761232177819648000,2.83664794921875,2.1371207237243652,-1.207580804824829,1.0591298341751099
1761232177829717800,2.8467177734375,2.612776517868042,-1.3309662342071533,1.0802615880966187
1761232177839787000,2.856787109375,3.0404446125030518,-1.5004167556762695,1.10176682472229
1761232177849856000,2.86685595703125,3.3988022804260254,-1.6141648292541504,1.1365325450897217
1761232177859926000,2.876926025390625,3.6895272731781006,-1.6287059783935547,1.2021304368972778
1761232177869994800,2.886994873046875,3.921574831008911,-1.623599648475647,1.3170688152313232
1761232177880065000,2.89706494140625,4.136507034301758,-1.5659722089767456,1.469375729560852
1761232177890133800,2.9071337890625,4.31943416595459,-1.5117160081863403,1.6646485328674316
1761232177900203000,2.917203125,4.443857669830322,-1.448380470275879,1.8689583539962769
1761232177910272800,2.927272705078125,4.500410079956055,-1.35099458694458,2.024845838546753
1761232177920342000,2.937342041015625,4.490326404571533,-1.2263432741165161,2.132633686065674
1761232177930411800,2.947411865234375,4.419918060302734,-1.0818071365356445,2.2002100944519043
1761232177940481000,2.95748095703125,4.346512794494629,-1.0165289640426636,2.2677648067474365
1761232177950549800,2.9675498046875,4.241466045379639,-1.0862634181976318,2.314502239227295
1761232177960620000,2.9776201171875,4.119541645050049,-1.0496675968170166,2.296583652496338
1761232177970688800,2.987688720703125,3.979271411895752,-0.8532037138938904,2.2514474391937256
1761232177980758800,2.9977587890625,3.780533790588379,-0.6385470628738403,2.244577169418335
1761232177990828000,3.007828125,3.594295024871826,-0.45893117785453796,2.2509799003601074
1761232178000897000,3.01789697265625,3.4013266563415527,-0.3589521050453186,2.2323079109191895
1761232178010967000,3.027967041015625,3.2009823322296143,-0.34807631373405457,2.1887521743774414
1761232178021036000,3.0380361328125,2.993577241897583,-0.36670008301734924,2.1541740894317627
1761232178031106000,3.04810595703125,2.7736589908599854,-0.41290006041526794,2.1268811225891113
1761232178041174800,3.0581748046875,2.526557207107544,-0.45175236463546753,2.1282832622528076
1761232178051244000,3.068244140625,2.2364134788513184,-0.4888334572315216,2.1651856899261475
1761232178061313800,3.078313720703125,1.8332154750823975,-0.546962559223175,2.218398094177246
1761232178071383000,3.088383056640625,1.307163119316101,-0.5215969085693359,2.2496063709259033
1761232178081452800,3.098452880859375,0.6813601851463318,-0.3573291301727295,2.237727642059326
1761232178091522000,3.10852197265625,-0.027667632326483727,-0.23274625837802887,2.175264358520508
1761232178101590800,3.1185908203125,-0.7024785876274109,-0.012214962393045425,2.058025360107422
1761232178111661000,3.1286611328125,-1.3198093175888062,0.18476030230522156,1.9229867458343506
1761232178121729800,3.138729736328125,-1.864424228668213,0.4261537492275238,1.741037130355835
1761232178131800000,3.148800048828125,-2.3374876976013184,0.6175918579101562,1.4319206476211548
1761232178141868800,3.158868896484375,-2.7299156188964844,0.7030385732650757,1.0399047136306763
1761232178151939800,3.16893994140625,-3.0407052040100098,0.7173553705215454,0.6069373488426208
1761232178162008800,3.1790087890625,-3.283548593521118,0.6723125576972961,0.18477913737297058
1761232178172077600,3.18907763671875,-3.46219539642334,0.5792402029037476,-0.20750387012958527
1761232178182147800,3.19914794921875,-3.5967657566070557,0.4486883282661438,-0.5416309833526611
1761232178192216800,3.209216796875,-3.6976029872894287,0.25980260968208313,-0.7841295003890991
1761232178202286800,3.219286865234375,-3.7593836784362793,0.05252961069345474,-0.9629232287406921
1761232178212355800,3.22935595703125,-3.7699573040008545,-0.04014882072806358,-1.1423522233963013
1761232178222424800,3.2394248046875,-3.7655258178710938,-0.06789283454418182,-1.3197342157363892
1761232178232494800,3.249494873046875,-3.7795464992523193,-0.1090918555855751,-1.4665826559066772
1761232178242563800,3.259563720703125,-3.8056693077087402,-0.18495412170886993,-1.587773323059082
1761232178252633900,3.2696337890625,-3.836744546890259,-0.2639893591403961,-1.6971104145050049
1761232178262702600,3.27970263671875,-3.852740526199341,-0.3730092942714691,-1.7769187688827515
1761232178272772900,3.28977294921875,-3.8289716243743896,-0.5036728978157043,-1.816457748413086
1761232178282841600,3.299841552734375,-3.7497689723968506,-0.556075394153595,-1.8020631074905396
1761232178292910800,3.309910888671875,-3.668625831604004,-0.5068796277046204,-1.7345170974731445
1761232178302980600,3.319980712890625,-3.6011595726013184,-0.47004434466362,-1.583553433418274
1761232178313049900,3.3300498046875,-3.529003381729126,-0.4380165636539459,-1.3714683055877686
1761232178323119600,3.34011962890625,-3.449738025665283,-0.4001466929912567,-1.1165616512298584
1761232178333188900,3.35018896484375,-3.4002158641815186,-0.35310038924217224,-0.8629568219184875
1761232178343257600,3.360257568359375,-3.4118094444274902,-0.428772509098053,-0.6451438069343567
1761232178353327900,3.370327880859375,-3.448878288269043,-0.43109744787216187,-0.5161207318305969
1761232178363396600,3.380396728515625,-3.518723487854004,-0.25027012825012207,-0.4385644495487213
1761232178373466600,3.390466552734375,-3.6663262844085693,-0.023014869540929794,-0.3656558692455292
1761232178383535900,3.400535888671875,-3.888045310974121,0.17239616811275482,-0.3209214210510254
1761232178393604900,3.41060498046875,-4.125933647155762,0.39917200803756714,-0.31725597381591797
1761232178403675000,3.4206748046875,-4.373312950134277,0.5481569766998291,-0.35705825686454773
1761232178413743600,3.43074365234375,-4.556773662567139,0.5741691589355469,-0.3692719340324402
1761232178423814000,3.44081396484375,-4.643429756164551,0.5314533710479736,-0.3583758473396301
1761232178433882600,3.450882568359375,-4.6404595375061035,0.5192975997924805,-0.3025762140750885
1761232178443951900,3.460951904296875,-4.574574947357178,0.6882266998291016,-0.21827943623065948
1761232178454021600,3.471021728515625,-4.504727363586426,1.1216545104980469,-0.13371703028678894
1761232178464091000,3.4810908203125,-4.4363603591918945,1.4653959274291992,-0.10112527012825012
1761232178474160600,3.49116064453125,-4.134679794311523,1.5410488843917847,-0.025509411469101906
1761232178484230000,3.50122998046875,-3.5633623600006104,1.4696314334869385,0.11970370262861252
1761232178494298600,3.511298583984375,-2.8732690811157227,1.2273540496826172,0.33036625385284424
1761232178504369000,3.521368896484375,-2.181373357772827,0.8627199530601501,0.516657292842865
1761232178514437600,3.531437744140625,-1.4650377035140991,0.5303214192390442,0.5817186236381531
1761232178524507600,3.541507568359375,-0.6936364769935608,0.3580018877983093,0.5467686057090759
1761232178534576600,3.55157666015625,0.08659230917692184,0.24768097698688507,0.4912841320037842
1761232178544646700,3.561646728515625,0.816774308681488,0.09339259564876556,0.42135459184646606
1761232178554716000,3.5717158203125,1.4774738550186157,-0.07342353463172913,0.3266579210758209
1761232178564784600,3.58178466796875,2.060098171234131,-0.1965675801038742,0.17664870619773865
1761232178574855000,3.59185498046875,2.5558724403381348,-0.2462097704410553,-0.00230422499589622
1761232178584923600,3.601923583984375,2.9727394580841064,-0.2595205008983612,-0.18673504889011383
1761232178594994000,3.611993896484375,3.374948740005493,-0.27335190773010254,-0.3235042095184326
1761232178605062700,3.622062744140625,3.768904447555542,-0.2922201454639435,-0.40490052103996277
1761232178615132000,3.6321318359375,4.148372650146484,-0.31837448477745056,-0.44611310958862305
1761232178625201700,3.64220166015625,4.493668079376221,-0.37300845980644226,-0.4705963432788849
1761232178635271000,3.65227099609375,4.799588203430176,-0.44366076588630676,-0.490541011095047
1761232178645340700,3.662340576171875,5.0787034034729,-0.5404599905014038,-0.4996306598186493
1761232178655410000,3.672409912109375,5.332632541656494,-0.6407049894332886,-0.48069217801094055
1761232178665478700,3.682478759765625,5.55673360824585,-0.7247753739356995,-0.4204179048538208
1761232178675548700,3.692548583984375,5.749639987945557,-0.7804012298583984,-0.3018786907196045
1761232178685617700,3.70261767578125,5.878805160522461,-0.8540157675743103,-0.14855624735355377
1761232178695687700,3.712687744140625,5.93372106552124,-0.970230758190155,-0.0010754817631095648
1761232178705756700,3.722756591796875,5.943636417388916,-1.0345458984375,0.1454622894525528
1761232178715826700,3.73282666015625,5.913899898529053,-1.0293190479278564,0.32789987325668335
1761232178725895700,3.742895751953125,5.840467929840088,-0.9938225150108337,0.5337507724761963
1761232178735964700,3.752964599609375,5.776942253112793,-0.9208043217658997,0.7974690794944763
1761232178746035000,3.763034912109375,5.758525848388672,-0.8389001488685608,1.1287850141525269
1761232178756103700,3.773103759765625,5.73282527923584,-0.8708500862121582,1.5086708068847656
1761232178766174000,3.783174072265625,5.63975191116333,-0.9634753465652466,1.8885507583618164
1761232178776242700,3.79324267578125,5.486825942993164,-0.9837194681167603,2.229659080505371
1761232178786312000,3.80331201171875,5.280889511108398,-0.841189444065094,2.5118393898010254
1761232178796381700,3.813381591796875,5.078389644622803,-0.5675172805786133,2.7712504863739014
1761232178806451000,3.823450927734375,4.8598456382751465,-0.3470938205718994,3.027174472808838
1761232178816520700,3.833520751953125,4.588102340698242,-0.23612870275974274,3.241807460784912
1761232178826589700,3.843589599609375,4.25145959854126,-0.14797461032867432,3.3441030979156494
1761232178836658700,3.85365869140625,3.8025410175323486,0.054310426115989685,3.345853090286255
1761232178846728700,3.863728759765625,3.222017288208008,0.3477702736854553,3.199495315551758
1761232178856797700,3.873797607421875,2.5030996799468994,0.6177228689193726,2.9008398056030273
1761232178866867700,3.88386767578125,1.6850342750549316,0.8012130856513977,2.4656639099121094
1761232178876936700,3.893936767578125,0.9015447497367859,0.8594896793365479,1.9401823282241821
1761232178887006700,3.9040068359375,0.21774090826511383,0.8979310393333435,1.5133402347564697
1761232178897075700,3.91407568359375,-0.346706748008728,1.0780117511749268,1.081579327583313
1761232178907144700,3.924144775390625,-0.8552567958831787,1.1171096563339233,0.6241931319236755
1761232178917215000,3.934215087890625,-1.2338111400604248,1.1031417846679688,0.24334628880023956
1761232178927283700,3.94428369140625,-1.5210436582565308,1.023553490638733,-0.039313904941082
1761232178937353700,3.954353759765625,-1.7459481954574585,0.8559090495109558,-0.25586044788360596
1761232178947422700,3.964422607421875,-1.8829319477081299,0.6041838526725769,-0.4372454285621643
1761232178957492000,3.974491943359375,-1.945133090019226,0.2943711578845978,-0.6178953647613525
1761232178967561700,3.984561767578125,-1.9674564599990845,-0.04976169764995575,-0.8115668296813965
1761232178977631000,3.994630859375,-1.9922977685928345,-0.36027130484580994,-1.0355424880981445
1761232178987700700,4.00470068359375,-2.062688112258911,-0.5827797055244446,-1.2945036888122559
1761232178997769700,4.014769775390625,-2.1920650005340576,-0.6849808096885681,-1.5464752912521362
1761232179007838700,4.024838623046875,-2.3595216274261475,-0.7585045099258423,-1.7556750774383545
1761232179017908700,4.03490869140625,-2.532517194747925,-0.8350363969802856,-1.8969857692718506
1761232179027977700,4.044977783203125,-2.7062289714813232,-0.853159487247467,-1.9947962760925293
1761232179038047700,4.0550478515625,-2.896092414855957,-0.8078488707542419,-2.0605294704437256
1761232179048116700,4.06511669921875,-3.122476100921631,-0.7285335659980774,-2.077138662338257
1761232179058186800,4.075186767578125,-3.380582094192505,-0.6104101538658142,-2.0429840087890625
1761232179068255700,4.085255859375,-3.6539862155914307,-0.4681374430656433,-1.9664041996002197
1761232179078324700,4.09532470703125,-3.917509078979492,-0.327411025762558,-1.830437183380127
1761232179088394800,4.105394775390625,-4.1706695556640625,-0.21023856103420258,-1.6406147480010986
1761232179098463700,4.115463623046875,-4.413424015045166,-0.11490218341350555,-1.424957275390625
1761232179108533800,4.12553369140625,-4.640467166900635,-0.06926864385604858,-1.221123456954956
1761232179118602800,4.135602783203125,-4.838654041290283,-0.07631704956293106,-1.0474860668182373
1761232179128671700,4.145671630859375,-4.979089736938477,-0.09316500276327133,-0.9135609865188599
1761232179138741800,4.15574169921875,-5.061516761779785,-0.08120661973953247,-0.7887234687805176
1761232179148810800,4.165810791015625,-5.133541584014893,0.05527345836162567,-0.636793315410614
1761232179158880500,4.175880615234375,-5.24666690826416,0.3163124918937683,-0.45068562030792236
1761232179168949500,4.185949462890625,-5.391392230987549,0.5804506540298462,-0.24551276862621307
1761232179179018500,4.1960185546875,-5.509941101074219,0.8491523861885071,-0.019533388316631317
1761232179189088500,4.206088623046875,-5.577662944793701,1.1049507856369019,0.2712688744068146
1761232179199157500,4.216157470703125,-5.639493942260742,1.2671873569488525,0.5998590588569641
1761232179209227500,4.2262275390625,-5.680270195007324,1.2984970808029175,0.9270150661468506
1761232179219296500,4.236296630859375,-5.713479995727539,1.1669503450393677,1.1811670064926147
1761232179229366500,4.246366455078125,-5.723858833312988,0.8525639772415161,1.3382525444030762
1761232179239435500,4.256435546875,-5.672504901885986,0.428275465965271,1.385058879852295
1761232179249504500,4.26650439453125,-5.497984886169434,-0.07355276495218277,1.304430365562439
1761232179259574500,4.276574462890625,-5.140398025512695,-0.6923171877861023,1.1691263914108276
1761232179269643500,4.2866435546875,-4.57858419418335,-1.137223720550537,1.037686824798584
1761232179279713300,4.29671337890625,-3.978574514389038,-1.2089595794677734,0.9304448366165161
1761232179289782500,4.306782470703125,-3.4769022464752197,-0.9646435976028442,0.8848520517349243
1761232179299851500,4.3168515625,-3.102797269821167,-0.5238739848136902,0.8638110756874084
1761232179309921500,4.326921630859375,-2.783461809158325,-0.03382676839828491,0.8348795175552368
1761232179319990300,4.336990234375,-2.446669578552246,0.2610642611980438,0.7336874008178711
1761232179330060500,4.347060546875,-2.021800994873047,0.2667998969554901,0.5429275631904602
1761232179340129500,4.357129638671875,-1.484500527381897,0.07861606776714325,0.3260323405265808
1761232179350198500,4.367198486328125,-0.8893031477928162,-0.18894055485725403,0.14357677102088928
1761232179360268500,4.3772685546875,-0.2792275846004486,-0.36373159289360046,0.016878793016076088
1761232179370337500,4.387337646484375,0.2611781358718872,-0.3572944700717926,-0.05025017634034157
1761232179380407600,4.397407470703125,0.7060632109642029,-0.2152988612651825,-0.09234588593244553
1761232179390476500,4.4074765625,1.0884835720062256,0.008675644174218178,-0.16021467745304108
1761232179400546600,4.417546630859375,1.4374639987945557,0.18355439603328705,-0.25293752551078796
1761232179410615600,4.427615478515625,1.7984460592269897,0.2834431827068329,-0.3455561399459839
1761232179420684500,4.4376845703125,2.200126886367798,0.33807939291000366,-0.4071320593357086
1761232179430754300,4.44775439453125,2.6211788654327393,0.3550940454006195,-0.43009117245674133
1761232179440823600,4.457823486328125,3.03617000579834,0.3713305592536926,-0.43439018726348877
1761232179450893300,4.467893310546875,3.4232640266418457,0.35696282982826233,-0.44104036688804626
1761232179460962600,4.477962646484375,3.8018605709075928,0.33279719948768616,-0.4463546872138977
1761232179471031600,4.488031494140625,4.182219505310059,0.30955740809440613,-0.43438616394996643
1761232179481101600,4.4981015625,4.5426344871521,0.2897392809391022,-0.4073754549026489
1761232179491170300,4.50817041015625,4.865807056427002,0.23939354717731476,-0.3730020523071289
1761232179501240600,4.518240478515625,5.139623165130615,0.17839355766773224,-0.3422017991542816
1761232179511309600,4.5283095703125,5.375064849853516,0.1388069987297058,-0.3461872339248657
1761232179521378600,4.538378662109375,5.570623874664307,0.10393816977739334,-0.3593868911266327
1761232179531448600,4.548448486328125,5.712038993835449,0.09610234946012497,-0.3653198778629303
1761232179541517600,4.558517578125,5.788974761962891,0.12687312066555023,-0.3771001100540161
1761232179551587600,4.568587646484375,5.819991588592529,0.16354486346244812,-0.3847742974758148
1761232179561656600,4.578656494140625,5.811391353607178,0.1356302946805954,-0.3933263123035431
1761232179571726600,4.5887265625,5.7968597412109375,0.016341719776391983,-0.40619683265686035
1761232179581795300,4.59879541015625,5.795384407043457,-0.049193691462278366,-0.39305490255355835
1761232179591864600,4.608864501953125,5.768587589263916,-0.0160655677318573,-0.31363731622695923
1761232179601934300,4.618934326171875,5.6879658699035645,0.11497432738542557,-0.13879670202732086
1761232179612003600,4.629003662109375,5.584138870239258,0.32328733801841736,0.10062467306852341
1761232179622073300,4.6390732421875,5.473533630371094,0.3932880759239197,0.38845014572143555
1761232179632142600,4.649142578125,5.3658671379089355,0.2654006779193878,0.672131359577179
1761232179642211300,4.65921142578125,5.307901859283447,0.08740982413291931,0.9054171442985535
1761232179652281600,4.669281494140625,5.279364585876465,0.03571653366088867,1.0972622632980347
1761232179662350300,4.679350341796875,5.262908458709717,0.11922670900821686,1.2850407361984253
1761232179672420600,4.689420654296875,5.21726655960083,0.2323032021522522,1.5140358209609985
1761232179682489300,4.6994892578125,5.170512676239014,0.29681196808815,1.7628012895584106
1761232179692558600,4.70955859375,5.120066165924072,0.3117816150188446,1.990787148475647
1761232179702628600,4.719628662109375,5.003992557525635,0.25664615631103516,2.1662890911102295
1761232179712697600,4.729697509765625,4.77765417098999,0.158921480178833,2.302050828933716
1761232179722767600,4.739767578125,4.389083385467529,0.135675847530365,2.3652734756469727
1761232179732836600,4.749836669921875,3.9515626430511475,0.13821890950202942,2.363558053970337
1761232179742906600,4.75990673828125,3.383788585662842,0.31071019172668457,2.2968924045562744
1761232179752975400,4.769975341796875,2.6874828338623047,0.5685251951217651,2.096204996109009
1761232179763044600,4.780044677734375,1.9257935285568237,0.7307338714599609,1.862480878829956
1761232179773114400,4.7901142578125,1.2931023836135864,0.7805715203285217,1.5660796165466309
1761232179783183600,4.80018359375,0.7344410419464111,0.7555729150772095,1.2360495328903198
1761232179793253400,4.81025341796875,0.21429237723350525,0.722425103187561,0.8540816903114319
1761232179803322600,4.820322509765625,-0.2792126536369324,0.644566535949707,0.48428481817245483
1761232179813391400,4.830391357421875,-0.7025375366210938,0.5207487344741821,0.13935406506061554
1761232179823461600,4.840461669921875,-1.0677917003631592,0.35014617443084717,-0.15099267661571503
1761232179833530400,4.8505302734375,-1.3920789957046509,0.161408469080925,-0.38101255893707275
1761232179843600400,4.860600341796875,-1.6664708852767944,-0.020801808685064316,-0.5639805197715759
1761232179853669400,4.87066943359375,-1.893878698348999,-0.18288205564022064,-0.7328502535820007
1761232179863739400,4.880739501953125,-2.0809316635131836,-0.3304577171802521,-0.9069265127182007
1761232179873808600,4.89080859375,-2.2481741905212402,-0.4569096863269806,-1.123941421508789
1761232179883877600,4.900877685546875,-2.3928568363189697,-0.5672884583473206,-1.3801405429840088
1761232179893947600,4.91094775390625,-2.5267436504364014,-0.7003067135810852,-1.6183797121047974
1761232179904016400,4.921016357421875,-2.6437528133392334,-0.8428606986999512,-1.8059898614883423
1761232179914086700,4.931086669921875,-2.7586090564727783,-0.9749982357025146,-1.9290729761123657
1761232179924155400,4.9411552734375,-2.870955228805542,-1.0685666799545288,-1.995286226272583
1761232179934224600,4.951224609375,-2.9914803504943848,-1.1249761581420898,-2.0165889263153076
1761232179944294400,4.96129443359375,-3.116792917251587,-1.1353408098220825,-2.019447088241577
1761232179954363600,4.97136376953125,-3.2360472679138184,-1.1272082328796387,-1.9946871995925903
1761232179964433400,4.981433349609375,-3.360748291015625,-1.1467605829238892,-1.9302985668182373
1761232179974502700,4.991502685546875,-3.5003714561462402,-1.2289975881576538,-1.8471368551254272
1761232179984572400,5.001572509765625,-3.653346538543701,-1.3129292726516724,-1.7792019844055176
1761232179994641700,5.0116416015625,-3.8424201011657715,-1.2192965745925903,-1.8051148653030396
1761232180004710400,5.02171044921875,-4.084095478057861,-0.9023576378822327,-1.8472316265106201
1761232180014780400,5.031780517578125,-4.384075164794922,-0.5504310727119446,-1.8079614639282227
1761232180024849400,5.041849365234375,-4.705995559692383,-0.2740097641944885,-1.6759756803512573
1761232180034919400,5.05191943359375,-5.014418601989746,-0.08666037023067474,-1.5071358680725098
1761232180044988400,5.061988525390625,-5.314486503601074,0.030960384756326675,-1.362937569618225
1761232180055057400,5.072057373046875,-5.586963653564453,0.2787614166736603,-1.2939941883087158
1761232180065127700,5.082127685546875,-5.857909679412842,0.6543512940406799,-1.2256059646606445
1761232180075196400,5.092196533203125,-6.168490886688232,1.0656341314315796,-1.0930529832839966
1761232180085266700,5.1022666015625,-6.5405778884887695,1.5793483257293701,-0.908668041229248
1761232180095335400,5.11233544921875,-6.936972618103027,2.20005202293396,-0.6465796828269958
1761232180105405700,5.12240576171875,-7.349911689758301,2.7721807956695557,-0.3107088506221771
1761232180115474400,5.132474365234375,-7.741071701049805,3.123053789138794,0.04886716976761818
1761232180125543700,5.142543701171875,-8.041436195373535,3.2100560665130615,0.36879152059555054
1761232180135613400,5.152613525390625,-8.199349403381348,3.06330943107605,0.6382389664649963
1761232180145682700,5.1626826171875,-8.206266403198242,2.716500759124756,0.8341631293296814
1761232180155752200,5.172752197265625,-7.994122505187988,2.3445777893066406,0.9798646569252014
1761232180165821200,5.1828212890625,-7.548492431640625,2.0722854137420654,1.139602780342102
1761232180175890200,5.19289013671875,-6.96267032623291,1.805328130722046,1.3597745895385742
1761232180185960000,5.2029599609375,-6.350311756134033,1.546373963356018,1.6235557794570923
1761232180196029200,5.213029296875,-5.78094482421875,1.2764263153076172,1.7898573875427246
1761232180206099000,5.223098876953125,-5.217837333679199,0.9525275230407715,1.7751121520996094
1761232180216168200,5.233168212890625,-4.619543552398682,0.5716856122016907,1.5314472913742065
1761232180226237200,5.2432373046875,-3.9393599033355713,0.22544457018375397,1.060291051864624
1761232180236307200,5.25330712890625,-3.1854779720306396,-0.10641326755285263,0.5046308040618896
1761232180246376000,5.2633759765625,-2.365795135498047,-0.4229462742805481,-0.007600945886224508
1761232180256446200,5.2734462890625,-1.5311230421066284,-0.651293933391571,-0.37806981801986694
1761232180266515000,5.283514892578125,-0.7436570525169373,-0.7732223868370056,-0.5811325311660767
1761232180276585200,5.293585205078125,-0.007261050399392843,-0.8223620057106018,-0.6579386591911316
1761232180286654200,5.303654296875,0.6515867114067078,-0.8273352384567261,-0.6855107545852661
1761232180296723200,5.31372314453125,1.2170748710632324,-0.8391737937927246,-0.7140981554985046
1761232180306793200,5.323793212890625,1.7204982042312622,-0.8516215085983276,-0.7458513975143433
1761232180316862200,5.3338623046875,2.176572799682617,-0.8129209876060486,-0.7478370666503906
1761232180326932200,5.34393212890625,2.594809055328369,-0.7033272385597229,-0.7184889912605286
1761232180337001000,5.3540009765625,2.9698214530944824,-0.5348671078681946,-0.6826430559158325
1761232180347070200,5.3640703125,3.3067526817321777,-0.35717183351516724,-0.6560486555099487
1761232180357140000,5.374139892578125,3.648926258087158,-0.20635835826396942,-0.6455914974212646
1761232180367209200,5.384209228515625,4.015295028686523,-0.12477154284715652,-0.637871265411377
1761232180377279000,5.394279052734375,4.399749279022217,-0.141311913728714,-0.6251301765441895
1761232180387348200,5.40434814453125,4.784786701202393,-0.2456325739622116,-0.6019054055213928
1761232180397417000,5.4144169921875,5.154562950134277,-0.35212811827659607,-0.5807404518127441
1761232180407487200,5.4244873046875,5.487601280212402,-0.4228908121585846,-0.573488175868988
1761232180417556000,5.434555908203125,5.755551338195801,-0.4534037113189697,-0.5584741234779358
1761232180427626200,5.444626220703125,5.939009666442871,-0.451648086309433,-0.5514029264450073
1761232180437695000,5.454695068359375,6.038101673126221,-0.38050442934036255,-0.5514020919799805
1761232180447765000,5.464764892578125,6.069332599639893,-0.285358726978302,-0.571014404296875
1761232180457834200,5.474834228515625,6.056977272033691,-0.16588477790355682,-0.6185286641120911
1761232180467903200,5.4849033203125,6.0321431159973145,-0.06112120300531387,-0.6638126373291016
1761232180477973200,5.49497314453125,5.993417263031006,-0.010831397958099842,-0.6752706170082092
1761232180488042200,5.505042236328125,5.935210704803467,-0.05059684067964554,-0.6509120464324951
1761232180498112300,5.5151123046875,5.8554301261901855,-0.11685203015804291,-0.6240631341934204
1761232180508181000,5.525180908203125,5.7590789794921875,-0.2162274271249771,-0.5723612308502197
1761232180518250200,5.535250244140625,5.635658264160156,-0.3519010841846466,-0.47696125507354736
1761232180528320000,5.545320068359375,5.486429691314697,-0.4578401446342468,-0.35506486892700195
1761232180538389200,5.55538916015625,5.343761444091797,-0.5024632811546326,-0.21495117247104645
1761232180548459000,5.565458984375,5.2368903160095215,-0.49195197224617004,-0.05093244090676308
1761232180558528300,5.5755283203125,5.1643147468566895,-0.5906630754470825,0.1574612408876419
1761232180568597000,5.585596923828125,5.125751972198486,-0.8072766065597534,0.39288637042045593
1761232180578667300,5.595667236328125,5.112155914306641,-1.0058916807174683,0.6196329593658447
1761232180588736000,5.605736083984375,5.099639415740967,-1.1845123767852783,0.8134357929229736
1761232180598806000,5.615805908203125,5.081099033355713,-1.2596417665481567,1.0003581047058105
1761232180608875000,5.625875,5.045501708984375,-1.2924718856811523,1.1943488121032715
1761232180618945000,5.635945068359375,4.989253044128418,-1.3738148212432861,1.3871010541915894
1761232180629014000,5.646013916015625,4.9311628341674805,-1.4524152278900146,1.568813443183899
1761232180639083300,5.656083251953125,4.817359447479248,-1.5111379623413086,1.7261139154434204
1761232180649153300,5.6661533203125,4.59868049621582,-1.4986950159072876,1.8382203578948975
1761232180659222000,5.676221923828125,4.241905689239502,-1.3374353647232056,1.8745908737182617
1761232180669292300,5.686292236328125,3.7347331047058105,-1.0609500408172607,1.8161412477493286
1761232180679361000,5.696361083984375,3.110980272293091,-0.7946746349334717,1.6804624795913696
1761232180689431300,5.706431396484375,2.411863088607788,-0.6113867163658142,1.4717944860458374
1761232180699500000,5.7165,1.6450437307357788,-0.44294410943984985,1.1583458185195923
1761232180709569300,5.7265693359375,0.823203444480896,-0.2276626080274582,0.7895853519439697
1761232180719639000,5.73663916015625,-0.060498639941215515,-0.008771808817982674,0.3770768940448761
1761232180729708300,5.746708251953125,-0.9510300755500793,0.2391929179430008,-0.06437573581933975
1761232180739778000,5.756778076171875,-1.7880932092666626,0.500507116317749,-0.5019938349723816
1761232180749847300,5.766847412109375,-2.505080223083496,0.7311344742774963,-0.8675194978713989
1761232180759916000,5.776916015625,-3.070327043533325,0.8833373188972473,-1.1007764339447021
1761232180769986000,5.786986083984375,-3.4863831996917725,0.9528244137763977,-1.204026699066162
1761232180780055000,5.797054931640625,-3.7684273719787598,0.9869692921638489,-1.2234078645706177
1761232180790125000,5.807125,-3.938683032989502,0.9668492078781128,-1.2217259407043457
1761232180800194000,5.817194091796875,-4.045814514160156,0.8439507484436035,-1.2487943172454834
1761232180810264000,5.82726416015625,-4.117615222930908,0.6615825891494751,-1.321881651878357
1761232180820333300,5.837333251953125,-4.202541351318359,0.4724275469779968,-1.4427963495254517
1761232180830403000,5.847403076171875,-4.299990177154541,0.3033095896244049,-1.5983335971832275
1761232180840472300,5.857472412109375,-4.399441242218018,0.24370591342449188,-1.7636823654174805
1761232180850542000,5.8675419921875,-4.5204010009765625,0.24631746113300323,-1.8961210250854492
1761232180860611300,5.877611328125,-4.660955429077148,0.34248635172843933,-1.9875664710998535
1761232180870681000,5.88768115234375,-4.837960720062256,0.49688032269477844,-2.011582136154175
1761232180880750000,5.89775,-5.0380730628967285,0.6674808263778687,-1.9409772157669067
1761232180890820000,5.907820068359375,-5.246984481811523,0.8518287539482117,-1.7765421867370605
1761232180900889000,5.91788916015625,-5.47636079788208,1.0698162317276,-1.5554814338684082
1761232180910958000,5.9279580078125,-5.736568450927734,1.327986717224121,-1.3013426065444946
1761232180921028000,5.938028076171875,-6.020523548126221,1.592721939086914,-1.0075205564498901
1761232180931097000,5.94809716796875,-6.3440022468566895,1.8532947301864624,-0.7060631513595581
1761232180941167000,5.9581669921875,-6.6912760734558105,2.1668617725372314,-0.4003942906856537
1761232180951236400,5.968236328125,-7.086108684539795,2.463364601135254,-0.09915675967931747
1761232180961305000,5.97830517578125,-7.5149312019348145,2.747572898864746,0.20242466032505035
1761232180971375000,5.988375,-7.949825286865234,3.055499315261841,0.4833561182022095
1761232180981444000,5.998444091796875,-8.356643676757812,3.3537707328796387,0.7571927309036255
1761232180991514000,6.00851416015625,-8.70215129852295,3.5484912395477295,1.023923397064209
1761232181001583000,6.0185830078125,-8.912821769714355,3.678964853286743,1.2564849853515625
1761232181011653000,6.028653076171875,-8.99370002746582,3.7124993801116943,1.425479769706726
1761232181021722000,6.03872216796875,-8.92959976196289,3.4530904293060303,1.5080775022506714
1761232181031791000,6.048791015625,-8.658790588378906,2.814487934112549,1.4376503229141235
1761232181041861000,6.058861083984375,-8.068367004394531,1.8982545137405396,1.2423369884490967
1761232181051930000,6.06893017578125,-7.0897650718688965,0.9621923565864563,1.0139174461364746
1761232181062000000,6.079000244140625,-5.845519065856934,0.08414307236671448,0.8427378535270691
1761232181072069000,6.089069091796875,-4.575115203857422,-0.6901878118515015,0.7447419762611389
1761232181082138000,6.09913818359375,-3.4532628059387207,-1.2180277109146118,0.6905689835548401
1761232181092208000,6.1092080078125,-2.5404212474823,-1.4250462055206299,0.6104782223701477
1761232181102277000,6.119277099609375,-1.7858951091766357,-1.4617583751678467,0.4663839042186737
1761232181112347100,6.12934716796875,-1.0917750597000122,-1.460827350616455,0.2891158163547516
1761232181122416000,6.139416015625,-0.3918081820011139,-1.5085517168045044,0.1583349108695984
1761232181132485000,6.149485107421875,0.30128708481788635,-1.6525630950927734,0.1128712147474289
1761232181142555100,6.15955517578125,0.9608452320098877,-1.804818868637085,0.15647940337657928
1761232181152624000,6.1696240234375,1.552483320236206,-1.8480677604675293,0.23904554545879364
1761232181162694100,6.179694091796875,2.0034472942352295,-1.782417893409729,0.2950859069824219
1761232181172763100,6.18976318359375,2.318024158477783,-1.5850309133529663,0.27059587836265564
1761232181182833200,6.199833251953125,2.554004669189453,-1.286170482635498,0.1586187779903412
1761232181192902100,6.209902099609375,2.763026237487793,-0.9414821267127991,0.010582206770777702
1761232181202971100,6.21997119140625,3.004145860671997,-0.5999377965927124,-0.14054898917675018
1761232181213041200,6.230041259765625,3.2923502922058105,-0.353893905878067,-0.2825793921947479
1761232181223110100,6.240110107421875,3.62972354888916,-0.22856418788433075,-0.4235953688621521
1761232181233180200,6.25018017578125,4.01683235168457,-0.19324152171611786,-0.552727460861206
1761232181243249200,6.260249267578125,4.444272994995117,-0.23913471400737762,-0.6805605292320251
1761232181253318100,6.270318115234375,4.892131805419922,-0.37192001938819885,-0.7894563674926758
1761232181263388200,6.28038818359375,5.327993392944336,-0.5596323609352112,-0.8646107316017151
1761232181273457200,6.29045703125,5.72364616394043,-0.7562879323959351,-0.9048614501953125
1761232181283527200,6.300527099609375,6.0462517738342285,-0.9082497954368591,-0.9025828242301941
1761232181293596000,6.310595947265625,6.28255558013916,-1.009534478187561,-0.8644251823425293
1761232181303666200,6.320666259765625,6.426885604858398,-1.0529993772506714,-0.8198305368423462
1761232181313735200,6.330735107421875,6.523439884185791,-1.0766103267669678,-0.7888681888580322
1761232181323804200,6.34080419921875,6.581202507019043,-1.1100796461105347,-0.7521966695785522
1761232181333874200,6.350874267578125,6.645765781402588,-1.1390917301177979,-0.7018681168556213
1761232181343943200,6.360943115234375,6.7217559814453125,-1.140868902206421,-0.597801923751831
1761232181354013200,6.37101318359375,6.778137683868408,-1.205026626586914,-0.44741329550743103
1761232181364082200,6.381082275390625,6.796123027801514,-1.3280284404754639,-0.2593863904476166
1761232181374151200,6.391151123046875,6.777912139892578,-1.410278558731079,-0.07445269823074341
1761232181384221200,6.40122119140625,6.7093987464904785,-1.4481297731399536,0.09746766835451126
1761232181394290200,6.411290283203125,6.617124080657959,-1.4738004207611084,0.26835787296295166
1761232181404360000,6.42135986328125,6.5145649909973145,-1.4967960119247437,0.44099196791648865
1761232181414429200,6.43142919921875,6.423063278198242,-1.59042489528656,0.6117619276046753
1761232181424499000,6.4414990234375,6.353569030761719,-1.7694939374923706,0.7779223918914795
1761232181434568200,6.451568115234375,6.312612533569336,-1.9813156127929688,0.9046086668968201
1761232181444637200,6.46163720703125,6.285807132720947,-2.2095601558685303,1.0377806425094604
1761232181454707200,6.471707275390625,6.2538533210754395,-2.416769504547119,1.1864949464797974
1761232181464776000,6.48177587890625,6.212274074554443,-2.55536150932312,1.3573018312454224
1761232181474846200,6.49184619140625,6.10060453414917,-2.566556453704834,1.5325641632080078
1761232181484915000,6.5019150390625,5.849499702453613,-2.4865915775299072,1.7092688083648682
1761232181494984200,6.511984130859375,5.439122676849365,-2.242866277694702,1.85262131690979
1761232181505054200,6.52205419921875,4.856156826019287,-1.8428469896316528,1.9368467330932617
1761232181515123200,6.532123291015625,4.068610668182373,-1.291717290878296,1.9273377656936646
1761232181525193200,6.542193115234375,3.1335811614990234,-0.6792531609535217,1.7807507514953613
1761232181535262200,6.55226220703125,2.1715433597564697,-0.062384285032749176,1.5598762035369873
1761232181545332200,6.562332275390625,1.2015070915222168,0.428615003824234,1.2596617937088013
1761232181555401000,6.57240087890625,0.30303770303726196,0.8439393043518066,0.8743534088134766
1761232181565470200,6.58247021484375,-0.48578473925590515,1.1253467798233032,0.45809704065322876
1761232181575540000,6.5925400390625,-1.147212266921997,1.2909927368164062,0.03000665456056595
1761232181585609200,6.602609130859375,-1.6820464134216309,1.3906205892562866,-0.36839503049850464
1761232181595679000,6.612678955078125,-2.0930845737457275,1.4410600662231445,-0.7475563287734985
1761232181605748200,6.622748291015625,-2.379818916320801,1.4278582334518433,-1.0913026332855225
1761232181615818000,6.63281787109375,-2.5927841663360596,1.3725401163101196,-1.3699594736099243
1761232181625887200,6.64288720703125,-2.7694764137268066,1.2952224016189575,-1.5889860391616821
1761232181635956000,6.6529560546875,-2.9386866092681885,1.2135552167892456,-1.7672860622406006
1761232181646026200,6.663026123046875,-3.1174886226654053,1.181105613708496,-1.9066344499588013
1761232181656095000,6.673094970703125,-3.337777853012085,1.2202333211898804,-1.9999462366104126
1761232181666165000,6.6831650390625,-3.612417221069336,1.3257783651351929,-2.0384182929992676
1761232181676234200,6.693234130859375,-3.922452211380005,1.4712101221084595,-1.9987398386001587
1761232181686304000,6.703303955078125,-4.240108489990234,1.6124681234359741,-1.8841395378112793
1761232181696373200,6.713373291015625,-4.548780918121338,1.745521068572998,-1.7271766662597656
1761232181706442200,6.723442138671875,-4.8522562980651855,1.9162633419036865,-1.546411156654358
1761232181716512300,6.73351220703125,-5.148346900939941,2.1551315784454346,-1.3395106792449951
1761232181726581000,6.7435810546875,-5.434680461883545,2.417370080947876,-1.074103832244873
1761232181736651300,6.7536513671875,-5.708799362182617,2.6757991313934326,-0.7638656497001648
1761232181746720000,6.763719970703125,-5.97880220413208,2.900651216506958,-0.4377194941043854
1761232181756789200,6.773789306640625,-6.265095233917236,3.087682008743286,-0.13097423315048218
1761232181766859000,6.78385888671875,-6.564103126525879,3.235036611557007,0.13420896232128143
1761232181776928300,6.79392822265625,-6.873496055603027,3.382016897201538,0.3467510938644409
1761232181786998000,6.803998046875,-7.200781345367432,3.574866771697998,0.5132290720939636
1761232181797067300,6.8140673828125,-7.528184413909912,3.81210994720459,0.6967843770980835
1761232181807137300,6.82413720703125,-7.860713958740234,4.050526142120361,0.9059551954269409
1761232181817206300,6.834206298828125,-8.173970222473145,4.326023101806641,1.1503336429595947
1761232181827275000,6.84427490234375,-8.438396453857422,4.573651313781738,1.4063349962234497
1761232181837345000,6.854344970703125,-8.655961990356445,4.747213363647461,1.6699961423873901
1761232181847414000,6.8644140625,-8.817322731018066,4.846627712249756,1.9331485033035278
1761232181857484000,6.874484130859375,-8.910879135131836,4.7929792404174805,2.138195514678955
1761232181867553300,6.88455322265625,-8.900875091552734,4.499605178833008,2.252964973449707
1761232181877622000,6.8946220703125,-8.6840238571167,4.038862705230713,2.27668833732605
1761232181887692300,6.9046923828125,-8.201629638671875,3.5351836681365967,2.2183425426483154
1761232181897761000,6.914760986328125,-7.521265983581543,2.8852639198303223,2.073112964630127
1761232181907831300,6.924831298828125,-6.729408264160156,1.9966423511505127,1.8638451099395752
1761232181917900000,6.934900146484375,-5.866771221160889,1.0032621622085571,1.5666470527648926
1761232181927970000,6.944969970703125,-4.9653730392456055,0.029425926506519318,1.1479134559631348
1761232181938039000,6.9550390625,-4.029151916503906,-0.8407140970230103,0.6283285021781921
1761232181948108300,6.9651083984375,-3.1058030128479004,-1.5437774658203125,0.10157253593206406
1761232181958178000,6.975177978515625,-2.232933282852173,-2.0187227725982666,-0.3098900020122528
1761232181968247300,6.985247314453125,-1.4235868453979492,-2.163573980331421,-0.5105628967285156
1761232181978317000,6.995317138671875,-0.6947516202926636,-2.011228322982788,-0.4775222837924957
1761232181988386000,7.005385986328125,-0.022514361888170242,-1.721721887588501,-0.2554157078266144
1761232181998455000,7.015455078125,0.6148133873939514,-1.4853235483169556,0.03437736630439758
1761232182008525000,7.025525146484375,1.2617141008377075,-1.3833491802215576,0.26363903284072876
1761232182018594000,7.035593994140625,1.9099687337875366,-1.3950395584106445,0.3351588249206543
1761232182028664000,7.0456640625,2.4797801971435547,-1.5021106004714966,0.25984516739845276
1761232182038733300,7.0557333984375,2.955045223236084,-1.5861265659332275,0.07764297723770142
1761232182048803000,7.065802978515625,3.364222526550293,-1.5565392971038818,-0.1608702540397644
1761232182058872300,7.075872314453125,3.734717607498169,-1.4330229759216309,-0.40512654185295105
1761232182068941000,7.085941162109375,4.0739336013793945,-1.3037294149398804,-0.6202734708786011
1761232182079011300,7.09601123046875,4.4123759269714355,-1.169426441192627,-0.8115144968032837
1761232182089080000,7.106080078125,4.743503093719482,-1.0812358856201172,-0.9927713871002197
1761232182099150000,7.116150146484375,5.07102632522583,-1.0521379709243774,-1.1586410999298096
1761232182109219000,7.126218994140625,5.396233081817627,-1.0687156915664673,-1.308499813079834
1761232182119288300,7.136288330078125,5.700823783874512,-1.1497844457626343,-1.4140737056732178
1761232182129358000,7.146358154296875,5.959190845489502,-1.2805509567260742,-1.478241205215454
1761232182139427000,7.156427001953125,6.1938042640686035,-1.4524083137512207,-1.4922741651535034
1761232182149497000,7.1664970703125,6.3962812423706055,-1.5757973194122314,-1.491111159324646
1761232182159566000,7.176566162109375,6.560122489929199,-1.62710440158844,-1.4912095069885254
1761232182169636400,7.18663623046875,6.671757698059082,-1.6800559759140015,-1.4552501440048218
1761232182179705000,7.196705078125,6.727756977081299,-1.7826075553894043,-1.4039201736450195
1761232182189774000,7.206774169921875,6.746224403381348,-1.8983615636825562,-1.3533848524093628
1761232182199844000,7.216843994140625,6.756142616271973,-1.9383386373519897,-1.301192045211792
1761232182209913000,7.2269130859375,6.737461566925049,-1.971098780632019,-1.2427163124084473
1761232182219983000,7.236983154296875,6.6873064041137695,-2.0746500492095947,-1.1716289520263672
1761232182230052400,7.24705224609375,6.645404815673828,-2.1960175037384033,-1.051864743232727
1761232182240121000,7.25712109375,6.636790752410889,-2.246978282928467,-0.912624716758728
1761232182250191000,7.267191162109375,6.625943183898926,-2.3173069953918457,-0.7454772591590881
1761232182260260000,7.277260009765625,6.597916603088379,-2.501448631286621,-0.5443018078804016
1761232182270330000,7.287330078125,6.577213764190674,-2.766353130340576,-0.3377310037612915
1761232182280399000,7.297399169921875,6.5770440101623535,-3.1578681468963623,-0.1736016571521759
1761232182290469000,7.30746923828125,6.646122455596924,-3.519693613052368,-0.00391940725967288
1761232182300538000,7.3175380859375,6.742524147033691,-3.768368721008301,0.14311975240707397
1761232182310607000,7.327607177734375,6.779665946960449,-3.963594913482666,0.2870844006538391
1761232182320677000,7.337677001953125,6.740376949310303,-4.107204914093018,0.4412497282028198
1761232182330746000,7.34774609375,6.588525295257568,-4.150144577026367,0.5614954233169556
1761232182340816100,7.357816162109375,6.31105899810791,-4.103745937347412,0.6719756126403809
1761232182350885000,7.367885009765625,5.933334827423096,-3.9412574768066406,0.7637382745742798
1761232182360955100,7.377955078125,5.472142219543457,-3.6349246501922607,0.8286356329917908
1761232182371024100,7.388024169921875,4.929290771484375,-3.2004776000976562,0.8838251233100891
1761232182381093000,7.398093017578125,4.286177158355713,-2.633358955383301,0.9288814067840576
1761232182391163100,7.4081630859375,3.504648208618164,-1.9587352275848389,0.9531760811805725
1761232182401232100,7.418232177734375,2.603203773498535,-1.229862093925476,0.9253379702568054
1761232182411302100,7.42830224609375,1.6629714965820312,-0.49049562215805054,0.8251953721046448
1761232182421371100,7.43837109375,0.7696948647499084,0.18405209481716156,0.6226361393928528
1761232182431440100,7.448440185546875,-0.035453811287879944,0.7044699788093567,0.3184080421924591
1761232182441510100,7.45851025390625,-0.7227974534034729,1.0524876117706299,-0.0424056313931942
1761232182451579100,7.4685791015625,-1.2793320417404175,1.2322008609771729,-0.4041558504104614
1761232182461649200,7.478649169921875,-1.6972436904907227,1.2633881568908691,-0.7371277213096619
1761232182471718100,7.48871826171875,-1.9941149950027466,1.215216875076294,-0.999228835105896
1761232182481788200,7.4987880859375,-2.227349281311035,1.1714266538619995,-1.2037174701690674
1761232182491857200,7.508857177734375,-2.426029920578003,1.129530668258667,-1.329868197441101
1761232182501926100,7.518926025390625,-2.61386775970459,1.1121249198913574,-1.403017520904541
1761232182511996000,7.528995849609375,-2.8016648292541504,1.1291342973709106,-1.4455349445343018
1761232182522065200,7.539065185546875,-3.0020182132720947,1.1582785844802856,-1.4654064178466797
1761232182532135200,7.54913525390625,-3.2211902141571045,1.225555658340454,-1.4546453952789307
1761232182542204200,7.5592041015625,-3.4490537643432617,1.3211184740066528,-1.4092665910720825
1761232182552274200,7.569274169921875,-3.685567855834961,1.4013783931732178,-1.3250486850738525
1761232182562343200,7.57934326171875,-3.9417474269866943,1.5049489736557007,-1.2226563692092896
1761232182572412200,7.589412109375,-4.216156482696533,1.6381605863571167,-1.103089451789856
1761232182582482200,7.599482177734375,-4.486631870269775,1.7999926805496216,-0.9860925078392029
1761232182592551200,7.60955126953125,-4.733314037322998,2.0232858657836914,-0.8530276417732239
1761232182602621200,7.61962109375,-4.968456745147705,2.2502613067626953,-0.6802275776863098
1761232182612690200,7.629690185546875,-5.197747230529785,2.452049493789673,-0.48985445499420166
1761232182622760000,7.639760009765625,-5.411312103271484,2.583033800125122,-0.31136268377304077
1761232182632829200,7.6498291015625,-5.606897354125977,2.6161913871765137,-0.1399400532245636
1761232182642898200,7.659898193359375,-5.773786544799805,2.5800442695617676,0.004191365092992783
1761232182652968200,7.66996826171875,-5.942902565002441,2.5229618549346924,0.1185898408293724
1761232182663037200,7.680037109375,-6.14875602722168,2.450204849243164,0.1838657110929489
1761232182673107200,7.690107177734375,-6.3532633781433105,2.405198812484741,0.18834567070007324
1761232182683176000,7.700176025390625,-6.526165962219238,2.4491825103759766,0.13742542266845703
1761232182693246200,7.71024609375,-6.65158748626709,2.5028235912323,0.06161455437541008
1761232182703315000,7.72031494140625,-6.712425708770752,2.5284371376037598,0.008028276264667511
1761232182713384200,7.73038427734375,-6.701785564422607,2.5802955627441406,-0.03108477033674717
1761232182723454200,7.7404541015625,-6.664231777191162,2.611384630203247,-0.05026835575699806
1761232182733523200,7.750523193359375,-6.600772380828857,2.4836513996124268,-0.0809495747089386
1761232182743593200,7.76059326171875,-6.477959156036377,2.26656436920166,-0.10120678693056107
1761232182753662200,7.770662109375,-6.24283504486084,2.052058219909668,-0.10993503034114838
1761232182763731200,7.780731201171875,-5.924847602844238,1.9138671159744263,-0.07752278447151184
1761232182773801200,7.79080126953125,-5.523077964782715,1.9387117624282837,0.010050736367702484
1761232182783870200,7.8008701171875,-5.080728530883789,2.074883460998535,0.12351223826408386
1761232182793940000,7.81093994140625,-4.655395984649658,2.003035306930542,0.21275396645069122
1761232182804009200,7.82100927734375,-4.215571880340576,1.689837098121643,0.18885941803455353
1761232182814079000,7.831078857421875,-3.6824588775634766,1.2114604711532593,0.03405413776636124
1761232182824148200,7.841148193359375,-3.032501220703125,0.6885274648666382,-0.16387757658958435
1761232182834217000,7.851217041015625,-2.2935612201690674,0.22344258427619934,-0.32956746220588684
1761232182844287200,7.861287353515625,-1.5277429819107056,-0.17955513298511505,-0.4130847454071045
1761232182854356000,7.87135595703125,-0.7900186777114868,-0.5880941152572632,-0.40447553992271423
1761232182864426200,7.88142626953125,-0.06827220320701599,-0.921808123588562,-0.2939263582229614
1761232182874495000,7.891494873046875,0.6748203039169312,-1.203812599182129,-0.06678056716918945
1761232182884564200,7.901564208984375,1.4403554201126099,-1.4842302799224854,0.2717941105365753
1761232182894634200,7.91163427734375,2.1857006549835205,-1.679787278175354,0.6524336338043213
1761232182904703200,7.921703125,2.871670722961426,-1.769209861755371,0.9794038534164429
1761232182914773200,7.931773193359375,3.444939374923706,-1.7969080209732056,1.1851400136947632
1761232182924842200,7.94184228515625,3.952040195465088,-1.7666274309158325,1.2630449533462524
1761232182934912300,7.951912353515625,4.419569969177246,-1.7534197568893433,1.2610158920288086
1761232182944981000,7.96198095703125,4.854951858520508,-1.7846012115478516,1.2307628393173218
1761232182955050200,7.97205029296875,5.259798526763916,-1.84598970413208,1.1959198713302612
1761232182965120000,7.9821201171875,5.626053810119629,-1.9035046100616455,1.15596342086792
1761232182975189200,7.992189208984375,5.948563098907471,-1.927461862564087,1.1172081232070923
1761232182985259000,8.002259033203124,6.213313102722168,-1.8976343870162964,1.0691866874694824
1761232182995328300,8.012328369140626,6.412473201751709,-1.840961217880249,1.024377465248108
1761232183005398000,8.02239794921875,6.531196594238281,-1.7736079692840576,0.9724626541137695
1761232183015467300,8.03246728515625,6.594017028808594,-1.732397437095642,0.9082727432250977
1761232183025536000,8.042535888671875,6.623510360717773,-1.706836223602295,0.8189469575881958
1761232183035606300,8.052606201171875,6.63906192779541,-1.70928156375885,0.711487889289856
1761232183045675000,8.062675048828124,6.648287773132324,-1.7637230157852173,0.5927802324295044
1761232183055745000,8.0727451171875,6.655372619628906,-1.7984617948532104,0.5037142634391785
1761232183065814000,8.08281396484375,6.628777980804443,-1.8970860242843628,0.46313172578811646
1761232183075883300,8.09288330078125,6.552804470062256,-2.0462474822998047,0.47828859090805054
1761232183085953300,8.102953369140625,6.443695068359375,-2.2005951404571533,0.5308834910392761
1761232183096022000,8.11302197265625,6.31012487411499,-2.3379323482513428,0.6101980209350586
1761232183106092300,8.12309228515625,6.147921085357666,-2.4931576251983643,0.7068995237350464
1761232183116161000,8.1331611328125,5.955391883850098,-2.6905570030212402,0.8211458921432495
1761232183126231300,8.143231201171876,5.770528316497803,-2.8586511611938477,0.95045006275177
1761232183136300000,8.153300048828125,5.5946526527404785,-2.924344062805176,1.0864076614379883
1761232183146369300,8.163369384765625,5.411305904388428,-2.830923318862915,1.252201795578003
1761232183156439000,8.17343896484375,5.193328380584717,-2.619443416595459,1.4458242654800415
1761232183166508000,8.183508056640624,4.930915355682373,-2.357307195663452,1.6402019262313843
1761232183176578000,8.193578125,4.620194911956787,-2.0117623805999756,1.806236743927002
1761232183186647000,8.20364697265625,4.265329360961914,-1.6279237270355225,1.9200682640075684
1761232183196717000,8.213717041015625,3.859250783920288,-1.2746169567108154,1.9857028722763062
1761232183206785800,8.223785888671875,3.3802380561828613,-0.9861465692520142,1.9811524152755737
1761232183216855000,8.23385498046875,2.835808753967285,-0.7105677723884583,1.8809759616851807
1761232183226924800,8.2439248046875,2.231114625930786,-0.4284094274044037,1.6772282123565674
1761232183236994000,8.253994140625,1.5682790279388428,-0.1463380753993988,1.4186991453170776
1761232183247064000,8.26406396484375,0.8898746967315674,0.16888022422790527,1.1120922565460205
1761232183257133000,8.274133056640625,0.2325780838727951,0.4884912371635437,0.7883592247962952
1761232183267203000,8.284203125,-0.3702262341976166,0.7702288627624512,0.4415195882320404
1761232183277272000,8.29427197265625,-0.9006863236427307,0.999992847442627,0.08450153470039368
1761232183287341000,8.304341064453125,-1.3386811017990112,1.155739188194275,-0.25852444767951965
1761232183297411000,8.3144111328125,-1.6890391111373901,1.2113467454910278,-0.5679520964622498
1761232183307480000,8.32447998046875,-1.9565993547439575,1.200079321861267,-0.8382412791252136
1761232183317549800,8.3345498046875,-2.1702568531036377,1.1785870790481567,-1.070716381072998
1761232183327619000,8.344619140625,-2.3491616249084473,1.1299958229064941,-1.2570436000823975
1761232183337688800,8.354688720703125,-2.511852264404297,1.074205756187439,-1.3934624195098877
1761232183347758000,8.364758056640625,-2.667797565460205,1.0074527263641357,-1.5028842687606812
1761232183357827000,8.3748271484375,-2.8095741271972656,1.0076543092727661,-1.61275315284729
1761232183367897000,8.38489697265625,-2.9523112773895264,1.0322158336639404,-1.7012951374053955
1761232183377965800,8.3949658203125,-3.101231336593628,1.0553017854690552,-1.746842861175537
1761232183388036000,8.4050361328125,-3.2649247646331787,1.1194219589233398,-1.7613376379013062
1761232183398104800,8.415104736328125,-3.4523229598999023,1.2273433208465576,-1.7451037168502808
1761232183408175000,8.425175048828125,-3.671719551086426,1.3707002401351929,-1.698143482208252
1761232183418244000,8.435244140625,-3.900115728378296,1.5573214292526245,-1.6148107051849365
1761232183428313000,8.44531298828125,-4.142693042755127,1.7768274545669556,-1.4961168766021729
1761232183438383000,8.455383056640626,-4.40248441696167,2.0258302688598633,-1.3477641344070435
1761232183448452000,8.4654521484375,-4.689587116241455,2.267271041870117,-1.191250205039978
1761232183458522000,8.475522216796875,-4.972747802734375,2.5066020488739014,-1.036255121231079
1761232183468590800,8.4855908203125,-5.268634796142578,2.781019926071167,-0.8966067433357239
1761232183478660000,8.49566015625,-5.565766334533691,3.023439407348633,-0.7392820715904236
1761232183488729900,8.505729736328124,-5.856005668640137,3.1828103065490723,-0.553946852684021
1761232183498799000,8.515799072265626,-6.113958358764648,3.2844576835632324,-0.3638099431991577
1761232183508868900,8.525868896484376,-6.342846393585205,3.3795487880706787,-0.19216640293598175
1761232183518938000,8.535938232421875,-6.5633158683776855,3.533651828765869,-0.04465364292263985
1761232183529007900,8.5460078125,-6.783113956451416,3.573613166809082,0.07705147564411163
1761232183539077000,8.5560771484375,-6.92140531539917,3.4662063121795654,0.15655988454818726
1761232183549145900,8.566145751953124,-6.890429496765137,3.237928867340088,0.18784217536449432
1761232183559216000,8.576216064453124,-6.6828179359436035,2.876108407974243,0.247158482670784
1761232183569284900,8.586284912109376,-6.314656734466553,2.4184625148773193,0.3349651098251343
1761232183579355000,8.59635498046875,-5.836694240570068,1.9621714353561401,0.44500187039375305
1761232183589423900,8.606423828125,-5.328465938568115,1.5656312704086304,0.5385375618934631
1761232183599494000,8.616493896484375,-4.872352600097656,0.9969670176506042,0.5444713234901428
1761232183609563100,8.626563232421875,-4.354145526885986,0.33467939496040344,0.42453545331954956
1761232183619632000,8.636632080078124,-3.70163631439209,-0.31208473443984985,0.17638316750526428
1761232183629702100,8.6467021484375,-2.922229766845703,-0.9533169865608215,-0.10757526755332947
1761232183639771000,8.65677099609375,-2.0590171813964844,-1.4014286994934082,-0.3774664103984833
1761232183649841200,8.666841064453125,-1.1826527118682861,-1.5563178062438965,-0.5911167860031128
1761232183659910000,8.676909912109375,-0.33052778244018555,-1.5439995527267456,-0.7110311985015869
1761232183669980200,8.686980224609375,0.47070762515068054,-1.5896631479263306,-0.7185055017471313
1761232183680049000,8.697048828125,1.2551298141479492,-1.8121275901794434,-0.6560575366020203
1761232183690118100,8.7071181640625,2.0504519939422607,-2.23614239692688,-0.5702368021011353
1761232183700188000,8.71718798828125,2.8192620277404785,-2.7242298126220703,-0.48743245005607605
1761232183710257200,8.727257080078125,3.4889233112335205,-3.093564033508301,-0.498468279838562
1761232183720327000,8.737326904296875,4.00299596786499,-3.301551342010498,-0.6680240035057068
1761232183730396200,8.747396240234375,4.330668926239014,-3.4032342433929443,-0.920393705368042
1761232183740465000,8.75746484375,4.516361713409424,-3.3176751136779785,-1.2010142803192139
1761232183750535000,8.767534912109374,4.546001434326172,-3.0919644832611084,-1.460105299949646
1761232183760604000,8.77760400390625,4.472201347351074,-2.746532678604126,-1.670198917388916
1761232183770674000,8.787673828125,4.340517997741699,-2.3190479278564453,-1.8579013347625732
1761232183780743200,8.7977431640625,4.19045352935791,-1.8156880140304565,-2.026888847351074
1761232183790813000,8.80781298828125,4.015141487121582,-1.3796064853668213,-2.134577751159668
1761232183800882200,8.817882080078125,3.8143081665039062,-0.9987456798553467,-2.1783642768859863
1761232183810951000,8.827950927734374,3.5923032760620117,-0.611266553401947,-2.1805357933044434
1761232183821021200,8.838021240234376,3.351153612136841,-0.24101419746875763,-2.138451099395752
1761232183831090000,8.84808984375,3.095137357711792,0.03606871888041496,-2.0647101402282715
1761232183841160000,8.858159912109375,2.849599599838257,0.20524975657463074,-2.000389814376831
1761232183851229000,8.86822900390625,2.6450893878936768,0.29665863513946533,-1.9646282196044922
1761232183861299000,8.878298828125,2.486752986907959,0.35427534580230713,-1.9417129755020142
1761232183871368000,8.888367919921874,2.365736722946167,0.3927915394306183,-1.9357357025146484
1761232183881437200,8.898437255859376,2.268214225769043,0.37950050830841064,-1.9564874172210693
1761232183891507000,8.9085068359375,2.1823015213012695,0.24938751757144928,-1.9869478940963745
1761232183901576000,8.918575927734375,2.110307216644287,0.09037338197231293,-2.0099339485168457
1761232183911646200,8.928646240234375,2.042955160140991,-0.04168621078133583,-1.987492561340332
1761232183921715000,8.93871484375,1.9633488655090332,-0.13097214698791504,-1.9475370645523071
1761232183931785200,8.94878515625,1.9063916206359863,-0.09054116159677505,-1.9064750671386719
1761232183941854000,8.95885400390625,1.8558237552642822,0.01779969409108162,-1.8696293830871582
1761232183951923000,8.9689228515625,1.7627558708190918,0.153372660279274,-1.8249684572219849
1761232183961993000,8.978992919921875,1.6798700094223022,0.20328909158706665,-1.7980384826660156
1761232183972062200,8.989062255859375,1.5637564659118652,0.2714962065219879,-1.8206422328948975
1761232183982132000,8.999132080078125,1.4434380531311035,0.3578718304634094,-1.906514286994934
1761232183992201200,9.009201171875,1.3557230234146118,0.47288602590560913,-2.025930404663086
1761232184002271000,9.01927099609375,1.2776015996932983,0.5519632697105408,-2.135899782180786
1761232184012340000,9.029340087890626,0.25324153900146484,0.1193043440580368,-1.0969290733337402
1761232184022409000,9.039408935546875,-0.2797025442123413,0.4493674635887146,-0.7851977944374084
1761232184032479000,9.04947900390625,-0.5459530353546143,0.8234656453132629,-0.6679004430770874
1761232184042548000,9.0595478515625,-0.792246401309967,0.8498932719230652,-0.394165575504303
1761232184052618000,9.069617919921875,-1.1807169914245605,0.03694437816739082,0.07128933817148209
1761232184062687000,9.07968701171875,-1.6465526819229126,-0.8202288746833801,0.43375062942504883
1761232184072756000,9.089755859375,-1.933493971824646,-1.1990498304367065,0.554730236530304
1761232184082826000,9.099825927734376,-1.9368245601654053,-1.049805760383606,0.4627302885055542
1761232184092895000,9.10989501953125,-1.7735012769699097,-0.9391775727272034,0.36055999994277954
1761232184102965000,9.119965087890625,-1.528096318244934,-0.723949134349823,0.4507644772529602
1761232184113034000,9.130033935546875,-1.2843612432479858,-0.7617229223251343,0.5298849940299988
1761232184123104000,9.14010400390625,-0.9840730428695679,-0.9110764265060425,0.41513097286224365
1761232184133173000,9.150173095703124,-0.7076802849769592,-0.7688730359077454,0.16461493074893951
1761232184143242200,9.1602421875,-0.4586464762687683,-0.5434617400169373,-0.0125124491751194
1761232184153312000,9.17031201171875,-0.2714429199695587,-0.5347239375114441,-0.10875360667705536
1761232184163381000,9.180381103515625,-0.1591845601797104,-0.6467615365982056,-0.16793303191661835
1761232184173451000,9.190450927734375,-0.07794089615345001,-0.7846537828445435,-0.17935271561145782
1761232184183520000,9.20052001953125,-0.01720084622502327,-0.900039792060852,-0.15766526758670807
1761232184193590000,9.210590087890624,0.008050975389778614,-0.96837317943573,-0.14858342707157135
1761232184203659000,9.220658935546876,0.022533511742949486,-0.9509949684143066,-0.14897437393665314
1761232184213728000,9.23072802734375,0.0021660076454281807,-0.826682448387146,-0.17006434500217438
1761232184223798000,9.240798095703125,-0.04132474586367607,-0.577954113483429,-0.17964240908622742
1761232184233867000,9.250866943359375,-0.0660976693034172,-0.4302089512348175,-0.12643492221832275
1761232184243937000,9.26093701171875,-0.07395665347576141,-0.3435584604740143,-0.052589189261198044
1761232184254006000,9.271006103515624,-0.06500177830457687,-0.24071066081523895,0.006333514582365751
1761232184264076000,9.281075927734374,-0.06764736026525497,-0.1528513878583908,0.016242871060967445
1761232184274145000,9.29114501953125,-0.09005773067474365,-0.08634188771247864,-0.0027192123234272003
1761232184284214000,9.301214111328125,-0.11374654620885849,-0.03546991944313049,-0.0112003143876791
1761232184294284000,9.311283935546875,-0.1264752745628357,0.005877004005014896,-0.00161159154959023
1761232184304353000,9.32135302734375,-0.1350754201412201,0.019864458590745926,-0.0021399627439677715
1761232184314423000,9.331423095703125,-0.14536152780056,-0.007629058323800564,-0.014062648639082909
1761232184324492000,9.341491943359374,-0.15698301792144775,-0.0678926631808281,-0.016514087095856667
1761232184334562000,9.35156201171875,-0.16301336884498596,-0.11307002604007721,0.0035226265899837017
1761232184344631000,9.361631103515625,-0.16942065954208374,-0.11775293201208115,0.06385387480258942
1761232184354700000,9.371699951171875,-0.15751008689403534,-0.1307358294725418,0.12340083718299866
1761232184364770000,9.38177001953125,-0.12747548520565033,-0.15264858305454254,0.1353970468044281
1761232184374839000,9.391839111328125,-0.10801498591899872,-0.1565772294998169,0.10115664452314377
1761232184384908800,9.40190869140625,-0.08817443996667862,-0.14718292653560638,0.04695279151201248
1761232184394978000,9.41197802734375,-0.08393806219100952,-0.1413264125585556,-0.04952993616461754
1761232184405047000,9.422047119140625,-0.08370157331228256,-0.11464660614728928,-0.14089153707027435
1761232184415117000,9.432116943359375,-0.07943927496671677,-0.09909859299659729,-0.19960512220859528
1761232184425185800,9.442185791015625,-0.08222893625497818,-0.09910737723112106,-0.2369687408208847
1761232184435256000,9.452256103515625,-0.10160701721906662,-0.16610050201416016,-0.2757945954799652
1761232184445324800,9.46232470703125,-0.1165659949183464,-0.2657567858695984,-0.3274056017398834
1761232184455395000,9.47239501953125,-0.1286122053861618,-0.30509519577026367,-0.3990411162376404
1761232184465464000,9.482464111328126,-0.12971581518650055,-0.28616198897361755,-0.45327264070510864
1761232184475533000,9.492532958984375,-0.139288991689682,-0.2624589204788208,-0.4509058892726898
1761232184485603000,9.50260302734375,-0.15464451909065247,-0.26352256536483765,-0.41734766960144043
1761232184495672000,9.512672119140625,-0.15312576293945312,-0.33963462710380554,-0.3378516733646393
1761232184505742000,9.5227421875,-0.10270413756370544,-0.34261152148246765,-0.1666884571313858
1761232184515811000,9.53281103515625,-0.07019369304180145,-0.30369871854782104,-0.034424781799316406
1761232184525881000,9.542881103515626,-0.04769504442811012,-0.26233798265457153,0.027044173330068588
1761232184535949800,9.55294970703125,-0.0308018047362566,-0.24839052557945251,0.042959101498126984
1761232184546019000,9.56301904296875,-0.02135211043059826,-0.22559839487075806,0.032849475741386414
1761232184556088800,9.5730888671875,-0.01562245562672615,-0.17921988666057587,0.017598580569028854
1761232184566158000,9.583157958984375,-0.032735664397478104,-0.12855111062526703,0.009705238044261932
1761232184576227800,9.593227783203124,-0.05972082540392876,-0.11193884164094925,-0.004638798534870148
