time,seconds_elapsed,z,y,x
1761232175046791700,0.063791748046875,0.014703578315675259,-0.21327099204063416,-0.08175212144851685
1761232175056860700,0.073860595703125,0.06505410373210907,-0.2664910852909088,-0.08767206221818924
1761232175066930400,0.083930419921875,0.07195354998111725,-0.30057260394096375,-0.08004849404096603
1761232175076999700,0.093999755859375,0.05025358125567436,-0.29753822088241577,-0.01630467176437378
1761232175087068700,0.104068603515625,0.011213505640625954,-0.24661403894424438,0.038304779678583145
1761232175097138700,0.114138671875,-0.027238279581069946,-0.18194903433322906,0.0746966078877449
1761232175107207400,0.12420751953125,-0.047083623707294464,-0.0938311517238617,0.10369177162647247
1761232175117276700,0.134276611328125,-0.044380247592926025,-0.021379590034484863,0.11410020291805267
1761232175127346400,0.144346435546875,-0.04312616586685181,0.014269749633967876,0.09087051451206207
1761232175137415700,0.154415771484375,-0.04410940408706665,0.0216581579297781,0.059667326509952545
1761232175147485200,0.164485107421875,-0.035782232880592346,0.0326671339571476,0.03080318681895733
1761232175157554200,0.17455419921875,-0.030609840527176857,0.03803473338484764,0.006043245084583759
1761232175167623200,0.184623046875,-0.033719878643751144,0.042329080402851105,-0.008638761937618256
1761232175177693400,0.194693359375,-0.03651833161711693,0.04963812604546547,-0.0167307760566473
1761232175187762200,0.20476220703125,-0.039506398141384125,0.06216004490852356,-0.022356171160936356
1761232175197831200,0.2148310546875,-0.0423453263938427,0.06860196590423584,-0.027467576786875725
1761232175207901200,0.224901123046875,-0.03963476046919823,0.075258269906044,-0.03142663091421127
1761232175217970400,0.234970458984375,-0.03189534693956375,0.08057872951030731,-0.019121229648590088
1761232175228040200,0.245040283203125,-0.01702718622982502,0.08079764246940613,-0.006373210810124874
1761232175238109400,0.255109375,-0.004036819562315941,0.07600342482328415,0.005718073341995478
1761232175248178200,0.26517822265625,0.004144943784922361,0.06955350935459137,0.009039567783474922
1761232175258248400,0.27524853515625,0.004269313532859087,0.07585375010967255,0.013873204588890076
1761232175268317200,0.285317138671875,-0.005845372099429369,0.08684222400188446,0.018911905586719513
1761232175278387200,0.29538720703125,-0.0032775523141026497,0.09332834929227829,0.02689473144710064
1761232175288456200,0.305456298828125,-0.00515747768804431,0.09198345243930817,0.04005980119109154
1761232175298525400,0.315525390625,-0.0032621060963720083,0.09277947247028351,0.05227891728281975
1761232175308595200,0.32559521484375,0.0006141249323263764,0.09168145060539246,0.06478565186262131
1761232175318664200,0.335664306640625,0.004712463356554508,0.08702890574932098,0.06762218475341797
1761232175328734200,0.345734130859375,-0.0013946974650025368,0.08039230853319168,0.06431160867214203
1761232175338803200,0.35580322265625,-0.0022189458832144737,0.07723034173250198,0.057433731853961945
1761232175348872200,0.3658720703125,-0.005709018558263779,0.07319644838571548,0.049557168036699295
1761232175358942200,0.375942138671875,-0.004996090196073055,0.06726691871881485,0.05693625286221504
1761232175369011200,0.38601123046875,0.0001675128296483308,0.0637960210442543,0.06639580428600311
1761232175379080200,0.396080078125,-0.00041625206358730793,0.05984975025057793,0.08587042987346649
1761232175389150200,0.406150146484375,0.0062301987782120705,0.05233697220683098,0.10262224823236465
1761232175399219200,0.41621923828125,0.013600497506558895,0.041970618069171906,0.10628090053796768
1761232175409289500,0.42628955078125,0.026733342558145523,0.042439866811037064,0.10697305202484131
1761232175419358200,0.436358154296875,0.03256220370531082,0.055984970182180405,0.10313543677330017
1761232175429427200,0.44642724609375,0.02899596467614174,0.07019399851560593,0.09438002854585648
1761232175439497200,0.456497314453125,0.021260812878608704,0.08067327737808228,0.0863569900393486
1761232175449566500,0.46656640625,0.011981029063463211,0.09993725270032883,0.08953361213207245
1761232175459635200,0.47663525390625,-0.009108010679483414,0.11579850316047668,0.10594774037599564
1761232175469705200,0.486705322265625,-0.04916355013847351,0.13464570045471191,0.13188159465789795
1761232175479774200,0.496774169921875,-0.12513980269432068,0.13586010038852692,0.15308569371700287
1761232175489844200,0.50684423828125,-0.19398625195026398,0.14832182228565216,0.17627596855163574
1761232175499913200,0.516913330078125,-0.24118173122406006,0.15194132924079895,0.19712531566619873
1761232175509982500,0.526982421875,-0.2800005078315735,0.17113739252090454,0.20397363603115082
1761232175520052200,0.53705224609375,-0.29770493507385254,0.19035182893276215,0.21338550746440887
1761232175530121200,0.547121337890625,-0.3037140667438507,0.19422753155231476,0.21516530215740204
1761232175540191200,0.557191162109375,-0.3021084666252136,0.19309063255786896,0.2091638743877411
1761232175550260200,0.56726025390625,-0.2948896884918213,0.19202110171318054,0.20561228692531586
1761232175560329200,0.5773291015625,-0.2834479510784149,0.19927848875522614,0.1989474594593048
1761232175570399200,0.587399169921875,-0.27579936385154724,0.2029363363981247,0.2005717158317566
1761232175580468200,0.59746826171875,-0.2643328607082367,0.20892125368118286,0.1999405473470688
1761232175590538200,0.607538330078125,-0.24524225294589996,0.20876891911029816,0.188456729054451
1761232175600607200,0.617607177734375,-0.22578997910022736,0.19766487181186676,0.17370441555976868
1761232175610676200,0.62767626953125,-0.188250333070755,0.18023714423179626,0.14857375621795654
1761232175620746500,0.63774658203125,-0.14681687951087952,0.17002631723880768,0.12625832855701447
1761232175630815200,0.647815185546875,-0.09855853021144867,0.15178287029266357,0.08536975830793381
1761232175640884200,0.65788427734375,-0.0643419697880745,0.10878373682498932,0.031632762402296066
1761232175650954200,0.667954345703125,-0.05245921388268471,0.07494454830884933,-0.020748687908053398
1761232175661023200,0.678023193359375,-0.044499557465314865,0.04234585911035538,-0.06024576351046562
1761232175671093200,0.68809326171875,-0.043044671416282654,0.02003948763012886,-0.09097331762313843
1761232175681162200,0.698162353515625,-0.03502030298113823,-0.00033209618413820863,-0.09663599729537964
1761232175691231200,0.708231201171875,-0.02171541564166546,0.00026072346372529864,-0.09146573394536972
1761232175701301200,0.71830126953125,-0.0068027786910533905,0.010551444254815578,-0.06942620873451233
1761232175711370200,0.728370361328125,-0.003946804907172918,0.01901257410645485,-0.0424281507730484
1761232175721440300,0.738440185546875,-0.00999111495912075,0.030067088082432747,-0.014445518143475056
1761232175731509200,0.74850927734375,-0.01966984197497368,0.039149533957242966,0.02774587646126747
1761232175741578200,0.758578125,-0.023913854733109474,0.042284607887268066,0.06186017021536827
1761232175751648300,0.768648193359375,-0.031256988644599915,0.03285861387848854,0.09577739238739014
1761232175761717200,0.77871728515625,-0.03098241612315178,0.02556448243558407,0.11153638362884521
1761232175771786200,0.7887861328125,-0.03985367342829704,0.025470472872257233,0.11681902408599854
1761232175781856300,0.798856201171875,-0.04764022305607796,0.030047114938497543,0.11108817160129547
1761232175791925200,0.80892529296875,-0.059658270329236984,0.027598870918154716,0.10296100378036499
1761232175801995300,0.818995361328125,-0.0679422989487648,0.018865566700696945,0.08224906772375107
1761232175812064300,0.829064208984375,-0.0629616528749466,0.014733672142028809,0.05354178696870804
1761232175822133200,0.83913330078125,-0.04568919166922569,0.002582467393949628,0.024056600406765938
1761232175832203300,0.849203369140625,-0.02671496756374836,-0.011033742688596249,-0.004093012306839228
1761232175842272300,0.859272216796875,-0.006003564223647118,-0.017102288082242012,-0.022887472063302994
1761232175852342300,0.86934228515625,0.005829393398016691,-0.02996215969324112,-0.03747120872139931
1761232175862411300,0.879411376953125,0.01625087484717369,-0.04652968421578407,-0.05022881552577019
1761232175872480300,0.889480224609375,0.01943468488752842,-0.05772082135081291,-0.05872216820716858
1761232175882550300,0.89955029296875,0.02153591811656952,-0.06347857415676117,-0.06371186673641205
1761232175892619300,0.909619384765625,0.024297082796692848,-0.07212026417255402,-0.06282263994216919
1761232175902688300,0.919688232421875,0.02635251171886921,-0.09480267763137817,-0.06019063666462898
1761232175912758300,0.92975830078125,0.03045085072517395,-0.1119648814201355,-0.054194796830415726
1761232175922827300,0.9398271484375,0.034625086933374405,-0.10879332572221756,-0.0406198650598526
1761232175932897300,0.949897216796875,0.03554787486791611,-0.09706129878759384,-0.03165912628173828
1761232175942966300,0.95996630859375,0.026089124381542206,-0.07578637450933456,-0.025500832125544548
1761232175953035300,0.97003515625,0.01489372830837965,-0.05716928094625473,-0.023915186524391174
1761232175963105300,0.980105224609375,-0.0032682311721146107,-0.03838573768734932,-0.014996792189776897
1761232175973174300,0.99017431640625,-0.016932910308241844,-0.01492062583565712,0.0010016148444265127
1761232175983244300,1.000244384765625,-0.028929919004440308,-0.003555319970473647,0.01900857873260975
1761232175993313300,1.010313232421875,-0.0243157260119915,-0.00047404266661033034,0.028448419645428658
1761232176003382300,1.02038232421875,-0.01721121184527874,0.004473045468330383,0.030797859653830528
1761232176013452300,1.030452392578125,-0.004053597338497639,0.0024549018125981092,0.03069905750453472
1761232176023521300,1.040521240234375,0.0037388119380921125,0.001449292292818427,0.02364061400294304
1761232176033591300,1.05059130859375,0.005852829199284315,0.008526642806828022,0.0161235760897398
1761232176043660300,1.060660400390625,0.001746234716847539,0.011083543300628662,0.0014586133183911443
1761232176053729300,1.070729248046875,0.00023036343918647617,0.0075721656903624535,-0.016443422064185143
1761232176063799000,1.080799072265625,0.007163370493799448,0.015137407928705215,-0.012706740759313107
1761232176073868300,1.090868408203125,0.00224903947673738,0.027664117515087128,0.0013528858544304967
1761232176083937300,1.100937255859375,-0.011344267055392265,0.02737782895565033,0.010452641174197197
1761232176094007300,1.11100732421875,-0.01581944338977337,0.036251746118068695,0.015222628600895405
1761232176104076000,1.121075927734375,-0.01793772168457508,0.07095193862915039,0.03286021202802658
1761232176114146300,1.131146240234375,-0.03954075276851654,0.1290282905101776,0.052839245647192
1761232176124215300,1.14121533203125,-0.051836032420396805,0.08754129707813263,0.016955813392996788
1761232176134284300,1.1512841796875,-0.041246771812438965,0.025778600946068764,-0.05620308592915535
1761232176144353500,1.161353515625,-0.008700280450284481,0.00046578687033616006,-0.110488161444664
1761232176154422500,1.171422607421875,0.014579208567738533,-0.01793559081852436,-0.12744690477848053
1761232176164492500,1.181492431640625,0.01835503801703453,-0.03527223691344261,-0.11311190575361252
1761232176174561500,1.1915615234375,0.009794307872653008,-0.03136591240763664,-0.0752289742231369
1761232176184630500,1.201630615234375,0.005469067487865686,-0.030408505350351334,-0.046293728053569794
1761232176194700500,1.211700439453125,0.0027651600539684296,-0.0399135947227478,-0.03856177255511284
1761232176204769500,1.22176953125,-0.005657352972775698,-0.07405771315097809,-0.05048234760761261
1761232176214839600,1.231839599609375,-0.009894974529743195,-0.09016185253858566,-0.08797379583120346
1761232176224908500,1.241908447265625,-0.009942911565303802,-0.11531141400337219,-0.14147084951400757
1761232176234977500,1.2519775390625,-0.0027348001021891832,-0.12558189034461975,-0.20661522448062897
1761232176245047600,1.262047607421875,0.005424859002232552,-0.11506533622741699,-0.24957014620304108
1761232176255116500,1.272116455078125,0.01079752016812563,-0.10078759491443634,-0.25888827443122864
1761232176265186600,1.2821865234375,0.014495586045086384,-0.09717927873134613,-0.24552853405475616
1761232176275255600,1.292255615234375,0.01884026639163494,-0.09806797653436661,-0.20584210753440857
1761232176285324500,1.302324462890625,0.02315751649439335,-0.08616285026073456,-0.1715666949748993
1761232176295394600,1.31239453125,0.021329257637262344,-0.07336422801017761,-0.14658863842487335
1761232176305463600,1.322463623046875,0.01534646563231945,-0.0719309151172638,-0.13251489400863647
1761232176315533600,1.332533447265625,0.0019542276859283447,-0.04815128445625305,-0.130885049700737
1761232176325602600,1.3426025390625,-0.012762666679918766,-0.013760020956397057,-0.14614363014698029
1761232176335671600,1.352671630859375,-0.01008219551295042,0.03477422520518303,-0.1512821912765503
1761232176345741600,1.362741455078125,-0.0029060414526611567,0.08381687104701996,-0.15948739647865295
1761232176355810600,1.372810546875,-0.0006261091912165284,0.1212257593870163,-0.15892013907432556
1761232176365879600,1.382879638671875,0.03374118730425835,0.1329338103532791,-0.15002624690532684
1761232176375949600,1.392949462890625,0.08150631189346313,0.10768997669219971,-0.14171825349330902
1761232176386018600,1.4030185546875,0.1266588717699051,0.08342485129833221,-0.1499950885772705
1761232176396088600,1.413088623046875,0.17348231375217438,0.07791024446487427,-0.16175507009029388
1761232176406157600,1.423157470703125,0.19759643077850342,0.13814322650432587,-0.1615963578224182
1761232176416226600,1.4332265625,0.20957106351852417,0.17622749507427216,-0.1954009234905243
1761232176426296600,1.443296630859375,0.2380376011133194,0.2565920948982239,-0.25215527415275574
1761232176436365600,1.453365478515625,0.29039135575294495,0.30766966938972473,-0.30712318420410156
1761232176446435300,1.463435302734375,0.3641875386238098,0.3360815942287445,-0.3411378860473633
1761232176456504600,1.473504638671875,0.4467625916004181,0.3459254503250122,-0.3547112047672272
1761232176466573600,1.483573486328125,0.5223790407180786,0.3798932731151581,-0.34636008739471436
1761232176476643600,1.4936435546875,0.5986765027046204,0.3889344334602356,-0.3338160514831543
1761232176486712600,1.503712646484375,0.6677897572517395,0.4328289330005646,-0.30668723583221436
1761232176496782600,1.513782470703125,0.7301799058914185,0.4768347144126892,-0.31018397212028503
1761232176506851300,1.523851318359375,0.7937319874763489,0.5024676322937012,-0.33978286385536194
1761232176516920600,1.533920654296875,0.8617475032806396,0.5265138745307922,-0.3985050320625305
1761232176526990600,1.543990478515625,0.928148090839386,0.5270878076553345,-0.4977796971797943
1761232176537059600,1.5540595703125,0.9772410988807678,0.5558887720108032,-0.6217471957206726
1761232176547129600,1.564129638671875,1.003686785697937,0.5811566114425659,-0.7190343141555786
1761232176557198600,1.574198486328125,1.0069608688354492,0.5061017870903015,-0.7743479013442993
1761232176567267600,1.584267578125,0.9830907583236694,0.3824794590473175,-0.806939423084259
1761232176577337600,1.594337646484375,0.9351854920387268,0.33562034368515015,-0.7675616145133972
1761232176587406600,1.604406494140625,0.8649675250053406,0.39044737815856934,-0.6783406734466553
1761232176597475600,1.6144755859375,0.7770752310752869,0.4850359261035919,-0.5741466283798218
1761232176607545600,1.624545654296875,0.6927502751350403,0.5560683012008667,-0.4361323118209839
1761232176617614600,1.634614501953125,0.6338738799095154,0.6526816487312317,-0.21911583840847015
1761232176627684600,1.6446845703125,0.5958463549613953,0.7616621851921082,0.023677898570895195
1761232176637753600,1.654753662109375,0.5748379826545715,0.8240461945533752,0.24272902309894562
1761232176647822600,1.664822509765625,0.5874097347259521,0.8530312776565552,0.4458078444004059
1761232176657892400,1.674892333984375,0.6421424746513367,0.8898816704750061,0.6364427804946899
1761232176667961600,1.684961669921875,0.7148350477218628,1.0201057195663452,0.8302724361419678
1761232176678031400,1.69503125,0.7792433500289917,1.2030107975006104,1.0160340070724487
1761232176688100600,1.7051005859375,0.826006293296814,1.4039380550384521,1.2088367938995361
1761232176698170600,1.715170654296875,0.8527154326438904,1.6284505128860474,1.409833550453186
1761232176708239600,1.725239501953125,0.844597578048706,1.8579652309417725,1.6072962284088135
1761232176718308400,1.735308349609375,0.7953770160675049,2.049123764038086,1.7767924070358276
1761232176728378600,1.745378662109375,0.7150563597679138,1.9237314462661743,1.7398966550827026
1761232176738447600,1.755447509765625,0.4704391360282898,1.0229052305221558,1.0541760921478271
1761232176748516600,1.7655166015625,0.11123917251825333,0.34205108880996704,0.1566724330186844
1761232176758586600,1.775586669921875,-0.2251036912202835,0.5105261206626892,-0.27306029200553894
1761232176768655600,1.785655517578125,-0.40563803911209106,0.9433488845825195,-0.3400654196739197
1761232176778725600,1.7957255859375,-0.46059849858283997,0.9401128888130188,-0.3907264769077301
1761232176788794600,1.805794677734375,-0.43686333298683167,0.8327038884162903,-0.4196811616420746
1761232176798863600,1.815863525390625,-0.37942081689834595,0.7532168030738831,-0.41882067918777466
1761232176808933400,1.825933349609375,-0.27474021911621094,0.6490022540092468,-0.4161309003829956
1761232176819002600,1.836002685546875,-0.12570838630199432,0.6216611266136169,-0.42187029123306274
1761232176829072400,1.846072265625,0.03817242011427879,0.6478184461593628,-0.4629434049129486
1761232176839141600,1.8561416015625,0.18568970263004303,0.6453659534454346,-0.5261974930763245
1761232176849210600,1.866210693359375,0.2820812165737152,0.6835505962371826,-0.5850677490234375
1761232176859280600,1.87628076171875,0.3137485980987549,0.6926413178443909,-0.6577187776565552
1761232176869349400,1.886349365234375,0.291729599237442,0.703683078289032,-0.7377318143844604
1761232176879419600,1.896419677734375,0.2663635015487671,0.6264932155609131,-0.7998290061950684
1761232176889488400,1.90648828125,0.2540575861930847,0.5705127716064453,-0.8160010576248169
1761232176899557600,1.9165576171875,0.24740739166736603,0.49502676725387573,-0.7539494037628174
1761232176909627400,1.92662744140625,0.24023790657520294,0.3826344609260559,-0.5885167717933655
1761232176919696600,1.936696533203125,0.23534327745437622,0.2886453866958618,-0.4156733751296997
1761232176929766700,1.9467666015625,0.22871068120002747,0.21590566635131836,-0.29047152400016785
1761232176939835600,1.956835693359375,0.22194038331508636,0.16405631601810455,-0.18977658450603485
1761232176949904400,1.966904296875,0.2110200971364975,0.13932566344738007,-0.09176880121231079
1761232176959974400,1.976974365234375,0.1987338662147522,0.15195544064044952,0.0016234630020335317
1761232176970043600,1.987043701171875,0.16409386694431305,0.17321784794330597,0.08698150515556335
1761232176980113400,1.997113525390625,0.13561801612377167,0.19307997822761536,0.15802451968193054
1761232176990182700,2.0071826171875,0.12338265776634216,0.18701675534248352,0.21579088270664215
1761232177000251600,2.017251708984375,0.10432667285203934,0.16245761513710022,0.25573110580444336
1761232177010321700,2.02732177734375,0.06481148302555084,0.12234215438365936,0.29066139459609985
1761232177020390400,2.037390380859375,0.02101154252886772,0.06550177931785583,0.32315969467163086
1761232177030460700,2.047460693359375,-0.01775502786040306,0.000988032785244286,0.35836055874824524
1761232177040529400,2.057529296875,-0.024295752868056297,-0.06516329199075699,0.37465590238571167
1761232177050598700,2.0675986328125,0.020648552104830742,-0.11964117735624313,0.35466888546943665
1761232177060668400,2.07766845703125,0.1048973873257637,-0.18400712311267853,0.33080294728279114
1761232177070737700,2.087737548828125,0.1844255030155182,-0.27866145968437195,0.3215588629245758
1761232177080807400,2.097807373046875,0.24101528525352478,-0.3697564899921417,0.3123549818992615
1761232177090876700,2.107876708984375,0.2530650198459625,-0.425812304019928,0.26771000027656555
1761232177100945400,2.1179453125,0.26593607664108276,-0.44517984986305237,0.18057963252067566
1761232177111015700,2.128015625,0.27350398898124695,-0.44413483142852783,0.07244117558002472
1761232177121084400,2.13808447265625,0.2571178078651428,-0.45232272148132324,-0.018021078780293465
1761232177131154400,2.148154541015625,0.2326391041278839,-0.4876847267150879,-0.07795445621013641
1761232177141223700,2.1582236328125,0.2250341773033142,-0.5526083111763,-0.0996757298707962
1761232177151293000,2.16829296875,0.23464126884937286,-0.6276415586471558,-0.08623315393924713
1761232177161363000,2.178363037109375,0.25793302059173584,-0.6660656332969666,-0.05048847571015358
1761232177171432000,2.188431884765625,0.28517261147499084,-0.6800216436386108,0.007732754573225975
1761232177181502000,2.198501953125,0.30646511912345886,-0.7011762261390686,0.08905051648616791
1761232177191571000,2.208571044921875,0.3173193633556366,-0.7232626080513,0.1822504997253418
1761232177201640000,2.218639892578125,0.33305758237838745,-0.7623674273490906,0.25525787472724915
1761232177211710000,2.2287099609375,0.3539484739303589,-0.778935968875885,0.31499814987182617
1761232177221779000,2.238779052734375,0.37609028816223145,-0.8087024092674255,0.35276496410369873
1761232177231849000,2.248848876953125,0.41573888063430786,-0.8483811020851135,0.35838985443115234
1761232177241918000,2.25891796875,0.4742927551269531,-0.9173623323440552,0.37059056758880615
1761232177251987000,2.268987060546875,0.5249085426330566,-1.0173701047897339,0.4024832546710968
1761232177262056700,2.279056640625,0.5615120530128479,-1.0882786512374878,0.4024302661418915
1761232177272126000,2.2891259765625,0.6064241528511047,-1.1237149238586426,0.3368493914604187
1761232177282196000,2.299196044921875,0.6720207333564758,-1.1650184392929077,0.21615253388881683
1761232177292265000,2.309264892578125,0.772199273109436,-1.18001389503479,0.07043395191431046
1761232177302334000,2.319333984375,0.8612625598907471,-1.2063227891921997,-0.04646017774939537
1761232177312404000,2.329404052734375,0.9068250060081482,-1.2527371644973755,-0.11506374180316925
1761232177322472700,2.33947265625,0.9380854368209839,-1.2714500427246094,-0.12142310291528702
1761232177332543000,2.34954296875,0.9476938843727112,-1.3414452075958252,-0.1000397801399231
1761232177342612000,2.359612060546875,0.9606932997703552,-1.4480738639831543,-0.005101284943521023
1761232177352681000,2.369680908203125,1.0283995866775513,-1.7391176223754883,0.1865038275718689
1761232177362751000,2.3797509765625,1.0808959007263184,-2.1487839221954346,0.4280083477497101
1761232177372820000,2.389820068359375,1.1521152257919312,-2.5243589878082275,0.6854798197746277
1761232177382890000,2.399889892578125,1.1969153881072998,-2.9410150051116943,0.8911195397377014
1761232177392959000,2.409958984375,1.2254709005355835,-3.325307607650757,0.9796538949012756
1761232177403028000,2.420028076171875,1.2386032342910767,-3.5395495891571045,1.0079563856124878
1761232177413098000,2.430097900390625,1.1244292259216309,-3.6029834747314453,1.0985970497131348
1761232177423167000,2.4401669921875,0.911260724067688,-3.55348539352417,1.2836819887161255
1761232177433236700,2.45023681640625,0.6558878421783447,-3.3782105445861816,1.460726261138916
1761232177443306000,2.460305908203125,0.37910789251327515,-3.119105577468872,1.6046757698059082
1761232177453375000,2.470375,0.028783444315195084,-2.7994229793548584,1.7365269660949707
1761232177463445000,2.480445068359375,-0.33902227878570557,-2.495877742767334,1.8640366792678833
1761232177473513700,2.490513671875,-0.6443150639533997,-2.1967272758483887,1.9534437656402588
1761232177483584000,2.500583984375,-0.9362417459487915,-1.9236334562301636,2.0240039825439453
1761232177493652700,2.51065283203125,-1.1988224983215332,-1.6990059614181519,2.0703673362731934
1761232177503723000,2.520722900390625,-1.431666612625122,-1.5265417098999023,2.083008289337158
1761232177513792000,2.5307919921875,-1.7046196460723877,-1.4435478448867798,2.0628488063812256
1761232177523861000,2.540861083984375,-1.9700568914413452,-1.321523904800415,1.9963537454605103
1761232177533931000,2.550930908203125,-2.245767593383789,-1.1711698770523071,1.8916289806365967
1761232177544000000,2.561,-2.5547046661376953,-1.000260353088379,1.7901662588119507
1761232177554070000,2.571070068359375,-2.871868371963501,-0.7489488124847412,1.677561640739441
1761232177564139000,2.581138916015625,-3.1856184005737305,-0.47372761368751526,1.5484769344329834
1761232177574208000,2.5912080078125,-3.478743076324463,-0.1662941724061966,1.386512279510498
1761232177584277800,2.60127783203125,-3.7386467456817627,0.14147856831550598,1.2302839756011963
1761232177594347000,2.611346923828125,-3.9752607345581055,0.3997860252857208,1.0941046476364136
1761232177604416800,2.621416748046875,-4.145907402038574,0.6514618992805481,0.9653152227401733
1761232177614486000,2.631486083984375,-4.2763590812683105,0.8185803294181824,0.8539761304855347
1761232177624554800,2.6415546875,-4.4175872802734375,0.8015507459640503,0.7822255492210388
1761232177634625000,2.651625,-4.5485734939575195,0.6748575568199158,0.713777482509613
1761232177644693800,2.66169384765625,-4.658370494842529,0.4561379849910736,0.624634861946106
1761232177654764000,2.671763916015625,-4.710330963134766,0.16302087903022766,0.47939348220825195
1761232177664832800,2.681832763671875,-4.72485876083374,-0.20269905030727386,0.21974994242191315
1761232177674902000,2.691902099609375,-4.725577354431152,-0.523404598236084,-0.15693822503089905
1761232177684971800,2.7019716796875,-4.673190593719482,-0.6420699954032898,-0.5406233072280884
1761232177695041000,2.712041015625,-4.4710893630981445,-0.3737986385822296,-0.8313161134719849
1761232177705111000,2.722111083984375,-4.1546220779418945,0.08297105133533478,-0.9084330201148987
1761232177715180000,2.732179931640625,-3.7891712188720703,0.4783884286880493,-0.7148858904838562
1761232177725248800,2.742248779296875,-3.38236403465271,0.8064081072807312,-0.3792346715927124
1761232177735318800,2.75231884765625,-2.9445786476135254,0.8711189031600952,-0.034683678299188614
1761232177745388000,2.762387939453125,-2.444580554962158,0.6260181069374084,0.15799948573112488
1761232177755457800,2.772457763671875,-1.8523107767105103,0.22303014993667603,0.21235433220863342
1761232177765527000,2.782527099609375,-1.1970772743225098,-0.2434384822845459,0.25281280279159546
1761232177775595800,2.792595703125,-0.5015424489974976,-0.6366947293281555,0.357974112033844
1761232177785666000,2.802666015625,0.21227817237377167,-0.9025766849517822,0.5452236533164978
1761232177795734800,2.81273486328125,0.8694970607757568,-1.0431088209152222,0.7653874158859253
1761232177805805000,2.82280517578125,1.4444868564605713,-1.1151294708251953,0.9423576593399048
1761232177815873800,2.832873779296875,1.9539871215820312,-1.1843348741531372,1.0441458225250244
1761232177825944000,2.842944091796875,2.435608148574829,-1.287388563156128,1.0765620470046997
1761232177836012800,2.8530126953125,2.887122631072998,-1.4445019960403442,1.0981582403182983
1761232177846082000,2.86308203125,3.272688150405884,-1.5941836833953857,1.1220686435699463
1761232177856151800,2.87315185546875,3.587088108062744,-1.6390712261199951,1.1730750799179077
1761232177866221000,2.883220947265625,3.8387632369995117,-1.6313512325286865,1.2756160497665405
1761232177876291000,2.893291015625,4.054320812225342,-1.602105975151062,1.415914535522461
1761232177886359800,2.90335986328125,4.25620174407959,-1.5371403694152832,1.5889207124710083
1761232177896428800,2.9134287109375,4.405153274536133,-1.4841644763946533,1.8011634349822998
1761232177906498800,2.923498779296875,4.485485553741455,-1.4007465839385986,1.976657748222351
1761232177916568000,2.933568115234375,4.500737190246582,-1.2831450700759888,2.101384401321411
1761232177926637800,2.943637939453125,4.444629669189453,-1.1440764665603638,2.185488700866699
1761232177936707000,2.95370703125,4.376408576965332,-1.0283108949661255,2.2433583736419678
1761232177946775800,2.96377587890625,4.2831950187683105,-1.067933201789856,2.3116538524627686
1761232177956846000,2.97384619140625,4.164831161499023,-1.094834566116333,2.311817169189453
1761232177966914800,2.983914794921875,4.033613681793213,-0.9477269053459167,2.269392967224121
1761232177976985000,2.993985107421875,3.855181932449341,-0.7245939373970032,2.247102975845337
1761232177987053800,3.0040537109375,3.6615662574768066,-0.5319405794143677,2.255220413208008
1761232177997123000,3.014123046875,3.473555088043213,-0.3907477855682373,2.2481706142425537
1761232178007192800,3.02419287109375,3.2741377353668213,-0.3514443039894104,2.209822177886963
1761232178017262000,3.034261962890625,3.0696511268615723,-0.3659113943576813,2.168071746826172
1761232178027331800,3.044331787109375,2.858834981918335,-0.406501442193985,2.1405606269836426
1761232178037401000,3.054401123046875,2.620492458343506,-0.44963133335113525,2.1290345191955566
1761232178047469800,3.0644697265625,2.3521363735198975,-0.48235493898391724,2.1508586406707764
1761232178057539800,3.074539794921875,1.9967290163040161,-0.5326101183891296,2.200510025024414
1761232178067608800,3.08460888671875,1.5161874294281006,-0.558580219745636,2.247229814529419
1761232178077678800,3.094678955078125,0.9266559481620789,-0.4277507960796356,2.247450351715088
1761232178087747800,3.104747802734375,0.24157480895519257,-0.283367782831192,2.2109100818634033
1761232178097816800,3.11481689453125,-0.4609614908695221,-0.11386345326900482,2.1141350269317627
1761232178107887000,3.12488720703125,-1.0943288803100586,0.07173676788806915,1.9713597297668457
1761232178117955800,3.134955810546875,-1.6678988933563232,0.3278156816959381,1.8276398181915283
1761232178128026000,3.145026123046875,-2.1737372875213623,0.5521451830863953,1.5671536922454834
1761232178138094800,3.1550947265625,-2.5933449268341064,0.6715664267539978,1.2004376649856567
1761232178148165600,3.16516552734375,-2.9371957778930664,0.7121654748916626,0.7746791839599609
1761232178158235000,3.17523486328125,-3.2009899616241455,0.6878918409347534,0.3470975160598755
1761232178168303600,3.1853037109375,-3.4056596755981445,0.6100708246231079,-0.06423704326152802
1761232178178374000,3.195373779296875,-3.5536258220672607,0.4935750961303711,-0.41755834221839905
1761232178188442600,3.205442626953125,-3.66481876373291,0.33397477865219116,-0.6919390559196472
1761232178198513000,3.215512939453125,-3.7467286586761475,0.11585230380296707,-0.897810697555542
1761232178208581600,3.22558154296875,-3.770662546157837,-0.025829998776316643,-1.069826364517212
1761232178218651000,3.23565087890625,-3.7698004245758057,-0.06724721193313599,-1.2496020793914795
1761232178228720600,3.245720703125,-3.771362066268921,-0.09708526730537415,-1.4124215841293335
1761232178238790000,3.255789794921875,-3.7964296340942383,-0.16452209651470184,-1.538679599761963
1761232178248859600,3.265859619140625,-3.8271372318267822,-0.23829272389411926,-1.6550071239471436
1761232178258929000,3.275928955078125,-3.85298490524292,-0.33666935563087463,-1.7461506128311157
1761232178268999000,3.2859990234375,-3.847504138946533,-0.46935418248176575,-1.8055598735809326
1761232178279067600,3.296067626953125,-3.783738136291504,-0.5582459568977356,-1.8066461086273193
1761232178289136600,3.30613671875,-3.7009997367858887,-0.5420477986335754,-1.7686766386032104
1761232178299206700,3.31620654296875,-3.6280205249786377,-0.48913854360580444,-1.64504873752594
1761232178309276000,3.32627587890625,-3.560436964035034,-0.4576357305049896,-1.4515758752822876
1761232178319345700,3.336345703125,-3.4802794456481934,-0.4284150004386902,-1.209754228591919
1761232178329415000,3.346414794921875,-3.4118971824645996,-0.3695831000804901,-0.9469095468521118
1761232178339483600,3.356483642578125,-3.4038753509521484,-0.39814338088035583,-0.7162808775901794
1761232178349554000,3.366553955078125,-3.433357000350952,-0.4609929025173187,-0.546852707862854
1761232178359622700,3.37662255859375,-3.4865617752075195,-0.340750128030777,-0.46257084608078003
1761232178369693000,3.38669287109375,-3.601219892501831,-0.1146104708313942,-0.3875200152397156
1761232178379761700,3.39676171875,-3.8026998043060303,0.09489961713552475,-0.32496798038482666
1761232178389831000,3.406830810546875,-4.0381598472595215,0.2992061376571655,-0.31000658869743347
1761232178399900700,3.416900634765625,-4.285467624664307,0.5012884140014648,-0.33826035261154175
1761232178409970000,3.426969970703125,-4.49988317489624,0.5667968392372131,-0.3670933246612549
1761232178420039700,3.437039794921875,-4.620544910430908,0.5442686080932617,-0.3608039915561676
1761232178430108700,3.447108642578125,-4.6552205085754395,0.5056746602058411,-0.3230030834674835
1761232178440177700,3.457177734375,-4.602678298950195,0.5807134509086609,-0.24632029235363007
1761232178450247700,3.46724755859375,-4.528135299682617,0.9318366050720215,-0.1588897854089737
1761232178460316700,3.477316650390625,-4.477348804473877,1.3640774488449097,-0.11133557558059692
1761232178470386700,3.48738671875,-4.286273002624512,1.5270024538040161,-0.059597551822662354
1761232178480456000,3.4974560546875,-3.8023276329040527,1.50436270236969,0.06065376102924347
1761232178490524700,3.507524658203125,-3.137294054031372,1.3313534259796143,0.252210408449173
1761232178500595000,3.517594970703125,-2.4419162273406982,0.9963055849075317,0.4657234847545624
1761232178510663700,3.52766357421875,-1.7428189516067505,0.633234977722168,0.5778076648712158
1761232178520734000,3.53773388671875,-0.9904972314834595,0.3961271047592163,0.5699801445007324
1761232178530802700,3.547802734375,-0.20184816420078278,0.28207510709762573,0.517632246017456
1761232178540872700,3.557872802734375,0.5476018190383911,0.14413027465343475,0.45439040660858154
1761232178550941700,3.567941650390625,1.2356537580490112,-0.020295949652791023,0.3700883090496063
1761232178561011000,3.578010986328125,1.8540863990783691,-0.16623345017433167,0.24058757722377777
1761232178571080700,3.588080810546875,2.379821538925171,-0.24179798364639282,0.0716203898191452
1761232178581149700,3.598149658203125,2.8174679279327393,-0.2648487091064453,-0.11539929360151291
1761232178591219700,3.6082197265625,3.2238457202911377,-0.2775874137878418,-0.2749865651130676
1761232178601288700,3.618288818359375,3.6215648651123047,-0.29083770513534546,-0.37350380420684814
1761232178611357700,3.628357666015625,4.006107330322266,-0.3120148777961731,-0.4312962591648102
1761232178621427700,3.638427734375,4.367379665374756,-0.36386290192604065,-0.4554724395275116
1761232178631496700,3.64849658203125,4.686981201171875,-0.42036986351013184,-0.47939616441726685
1761232178641566700,3.658566650390625,4.972282409667969,-0.5137543678283691,-0.495303213596344
1761232178651635700,3.6686357421875,5.236428260803223,-0.6115323305130005,-0.48499545454978943
1761232178661704700,3.67870458984375,5.473250865936279,-0.7056000232696533,-0.4440341591835022
1761232178671775000,3.68877490234375,5.6826934814453125,-0.7715025544166565,-0.3476570248603821
1761232178681843700,3.69884375,5.834396839141846,-0.8292465806007385,-0.20565170049667358
1761232178691913700,3.708913818359375,5.918206691741943,-0.9357932806015015,-0.05071138218045235
1761232178701982700,3.718982666015625,5.939647197723389,-1.0262278318405151,0.09296775609254837
1761232178712052700,3.729052734375,5.929803371429443,-1.0434390306472778,0.26058313250541687
1761232178722121700,3.739121826171875,5.8689069747924805,-1.017560601234436,0.4562474191188812
1761232178732190700,3.749190673828125,5.794775485992432,-0.9665855169296265,0.6932764649391174
1761232178742260700,3.7592607421875,5.759635925292969,-0.8676949143409729,1.002318263053894
1761232178752329700,3.769329833984375,5.7498393058776855,-0.8523540496826172,1.372908592224121
1761232178762399700,3.779399658203125,5.678781986236572,-0.9394407272338867,1.7536805868148804
1761232178772468700,3.78946875,5.550159931182861,-1.0006654262542725,2.1126515865325928
1761232178782537700,3.799537841796875,5.358194351196289,-0.9241427183151245,2.4148895740509033
1761232178792607700,3.809607666015625,5.1532392501831055,-0.6860747933387756,2.678459644317627
1761232178802676700,3.8196767578125,4.940425872802734,-0.4261001646518707,2.9398858547210693
1761232178812746800,3.829746826171875,4.697869300842285,-0.2806257903575897,3.172975540161133
1761232178822815700,3.839815673828125,4.380383491516113,-0.18612726032733917,3.3258156776428223
1761232178832884700,3.849884765625,3.9823334217071533,-0.043056391179561615,3.3658368587493896
1761232178842954800,3.859954833984375,3.4540109634399414,0.22336091101169586,3.2761778831481934
1761232178853023700,3.870023681640625,2.7858939170837402,0.5169131755828857,3.0352890491485596
1761232178863093800,3.88009375,1.9920111894607544,0.729613721370697,2.650491237640381
1761232178873162800,3.890162841796875,1.189064621925354,0.8783435225486755,2.1529572010040283
1761232178883232800,3.900232666015625,0.4545326232910156,0.8206033110618591,1.6579320430755615
1761232178893301800,3.9103017578125,-0.1420287787914276,1.0113343000411987,1.255250096321106
1761232178903370800,3.920370849609375,-0.6761568784713745,1.108656406402588,0.7927002906799316
1761232178913440800,3.930440673828125,-1.1113733053207397,1.1017385721206665,0.3786120116710663
1761232178923509800,3.940509765625,-1.4244012832641602,1.0601202249526978,0.0599253848195076
1761232178933579800,3.950579833984375,-1.6716738939285278,0.9103046655654907,-0.1768868863582611
1761232178943648800,3.960648681640625,-1.840423583984375,0.7019578814506531,-0.36780330538749695
1761232178953717800,3.9707177734375,-1.9294077157974243,0.408409059047699,-0.5449996590614319
1761232178963787800,3.980787841796875,-1.9611790180206299,0.07064807415008545,-0.7334443926811218
1761232178973856800,3.990856689453125,-1.9807771444320679,-0.2575708329677582,-0.9452860951423645
1761232178983926800,4.0009267578125,-2.0297257900238037,-0.5214895606040955,-1.1911725997924805
1761232178993995800,4.010995849609375,-2.139490842819214,-0.6619822382926941,-1.450717568397522
1761232179004064800,4.021064697265625,-2.2968363761901855,-0.737311601638794,-1.6793092489242554
1761232179014134500,4.031134521484375,-2.4686813354492188,-0.8163845539093018,-1.8445647954940796
1761232179024203800,4.041203857421875,-2.642465591430664,-0.8660978078842163,-1.9572169780731201
1761232179034273800,4.051273681640625,-2.8238089084625244,-0.8355407118797302,-2.0369865894317627
1761232179044342800,4.0613427734375,-3.0364890098571777,-0.7704735398292542,-2.071842670440674
1761232179054412800,4.071412841796875,-3.2817223072052,-0.6638190150260925,-2.057813882827759
1761232179064481800,4.081481689453125,-3.555870294570923,-0.5305911898612976,-1.999523401260376
1761232179074550800,4.09155078125,-3.8213112354278564,-0.3866598308086395,-1.8809983730316162
1761232179084620800,4.101620849609375,-4.081442832946777,-0.2611916661262512,-1.7105475664138794
1761232179094689800,4.111689697265625,-4.325695514678955,-0.15404309332370758,-1.5022609233856201
1761232179104759800,4.121759765625,-4.556367874145508,-0.08580651879310608,-1.2896016836166382
1761232179114828800,4.131828857421875,-4.770949363708496,-0.07878642529249191,-1.1043753623962402
1761232179124897800,4.141897705078125,-4.937744617462158,-0.1013689637184143,-0.9596285223960876
1761232179134967800,4.1519677734375,-5.036175727844238,-0.10228589177131653,-0.8316649794578552
1761232179145036800,4.162036865234375,-5.1071624755859375,-0.023563383147120476,-0.6913339495658875
1761232179155106600,4.1721064453125,-5.200662612915039,0.20305964350700378,-0.5231199264526367
1761232179165175600,4.182175537109375,-5.335789203643799,0.47517159581184387,-0.3171193599700928
1761232179175244500,4.19224462890625,-5.474328517913818,0.735819399356842,-0.10500124841928482
1761232179185314300,4.202314208984375,-5.557031631469727,1.010758876800537,0.16066637635231018
1761232179195383600,4.212383544921875,-5.619690418243408,1.2149271965026855,0.4791165292263031
1761232179205453300,4.222453369140625,-5.668389320373535,1.2933034896850586,0.8156964182853699
1761232179215522600,4.2325224609375,-5.705587387084961,1.2322102785110474,1.1021617650985718
1761232179225592600,4.242592529296875,-5.724434852600098,0.9812368750572205,1.2959266901016235
1761232179235661600,4.25266162109375,-5.7027363777160645,0.5858061909675598,1.3851004838943481
1761232179245730300,4.262730224609375,-5.582707405090332,0.1248130351305008,1.3509228229522705
1761232179255800600,4.272800537109375,-5.302598476409912,-0.4707816243171692,1.22769296169281
1761232179265869600,4.28286962890625,-4.808182716369629,-1.018027424812317,1.0890883207321167
1761232179275939600,4.292939697265625,-4.201756000518799,-1.23313570022583,0.969002366065979
1761232179286008600,4.303008544921875,-3.6500234603881836,-1.0952529907226562,0.9007556438446045
1761232179296077600,4.31307763671875,-3.2351367473602295,-0.7135476469993591,0.8780093193054199
1761232179306147600,4.323147705078125,-2.8995635509490967,-0.21438047289848328,0.855444073677063
1761232179316216600,4.333216552734375,-2.5806758403778076,0.1728828251361847,0.7845467329025269
1761232179326286600,4.34328662109375,-2.195765495300293,0.2856306731700897,0.6282492876052856
1761232179336355300,4.353355224609375,-1.6989433765411377,0.15718908607959747,0.4142512381076813
1761232179346424600,4.363424560546875,-1.1176764965057373,-0.09758701175451279,0.21056629717350006
1761232179356494300,4.373494384765625,-0.506952166557312,-0.32966551184654236,0.061282530426979065
1761232179366563600,4.3835634765625,0.0708286315202713,-0.3827689588069916,-0.025889387354254723
1761232179376633300,4.39363330078125,0.5468164682388306,-0.2933163046836853,-0.06964752078056335
1761232179386702600,4.40370263671875,0.9497106671333313,-0.07986580580472946,-0.12351500988006592
1761232179396772600,4.413772705078125,1.3067617416381836,0.11725632101297379,-0.21116843819618225
1761232179406841600,4.423841552734375,1.6572030782699585,0.24751046299934387,-0.30762892961502075
1761232179416910300,4.433910400390625,2.0440304279327393,0.31197306513786316,-0.38592931628227234
1761232179426980600,4.443980712890625,2.4604032039642334,0.3432018458843231,-0.4184989929199219
1761232179437049600,4.454049560546875,2.881289482116699,0.35687023401260376,-0.4269643723964691
1761232179447119400,4.464119384765625,3.282252550125122,0.3591533601284027,-0.43359991908073425
1761232179457188600,4.474188720703125,3.657120943069458,0.33341366052627563,-0.4426506459712982
1761232179467257600,4.484257568359375,4.0395684242248535,0.30865371227264404,-0.43490833044052124
1761232179477327600,4.49432763671875,4.409688949584961,0.29202520847320557,-0.4122767746448517
1761232179487396400,4.504396240234375,4.7472405433654785,0.25286954641342163,-0.3846541941165924
1761232179497466600,4.514466552734375,5.040665626525879,0.18880879878997803,-0.3446796238422394
1761232179507535400,4.524535400390625,5.289856910705566,0.1408625841140747,-0.33602622151374817
1761232179517604600,4.5346044921875,5.501664161682129,0.10718770325183868,-0.3505420386791229
1761232179527674400,4.54467431640625,5.664435863494873,0.0852978527545929,-0.3601568341255188
1761232179537743600,4.55474365234375,5.7662129402160645,0.10246752202510834,-0.3704760670661926
1761232179547813400,4.5648134765625,5.813771724700928,0.14231693744659424,-0.38479748368263245
1761232179557882600,4.574882568359375,5.818272113800049,0.15391579270362854,-0.3838840126991272
1761232179567952400,4.584952392578125,5.796900749206543,0.053044840693473816,-0.3968813121318817
1761232179578021600,4.595021728515625,5.79336404800415,-0.04555363580584526,-0.400594025850296
1761232179588090400,4.60509033203125,5.782164096832275,-0.04657096415758133,-0.34922564029693604
1761232179598160400,4.615160400390625,5.720721244812012,0.04453018307685852,-0.20962566137313843
1761232179608229400,4.6252294921875,5.618228912353516,0.23927782475948334,0.008213987573981285
1761232179618299400,4.63529931640625,5.514989852905273,0.38259637355804443,0.281645804643631
1761232179628368600,4.64536865234375,5.402745246887207,0.3222470283508301,0.575319230556488
1761232179638437600,4.655437744140625,5.322153568267822,0.13799461722373962,0.8296819925308228
1761232179648507600,4.665507568359375,5.282225608825684,0.023688018321990967,1.037671685218811
1761232179658576400,4.675576416015625,5.2706427574157715,0.07072849571704865,1.2157164812088013
1761232179668646700,4.685646728515625,5.236893177032471,0.18856671452522278,1.4279145002365112
1761232179678715400,4.69571533203125,5.182552814483643,0.26998379826545715,1.6760153770446777
1761232179688784600,4.70578466796875,5.140159606933594,0.3051798939704895,1.9132153987884521
1761232179698854400,4.7158544921875,5.057497978210449,0.2788628041744232,2.1078476905822754
1761232179708923600,4.725923583984375,4.876012325286865,0.18139934539794922,2.2628865242004395
1761232179718993400,4.735993408203125,4.551339149475098,0.12793771922588348,2.3567090034484863
1761232179729062700,4.746062744140625,4.116378307342529,0.10532242804765701,2.364959239959717
1761232179739132400,4.75613232421875,3.617598533630371,0.21293410658836365,2.3438215255737305
1761232179749201700,4.76620166015625,2.9579477310180664,0.47419100999832153,2.1827664375305176
1761232179759270400,4.7762705078125,2.2102417945861816,0.6692582368850708,1.9574185609817505
1761232179769340400,4.78634033203125,1.507129192352295,0.760852575302124,1.6818759441375732
1761232179779409400,4.796409423828125,0.9360989928245544,0.7600957155227661,1.3702912330627441
1761232179789479400,4.8064794921875,0.40395838022232056,0.7286310195922852,1.0036414861679077
1761232179799548700,4.816548583984375,-0.10359589755535126,0.6737208962440491,0.6230002045631409
1761232179809617400,4.826617431640625,-0.5562486052513123,0.5630167722702026,0.26689988374710083
1761232179819687700,4.836687744140625,-0.9392164945602417,0.40938031673431396,-0.04151681810617447
1761232179829756400,4.84675634765625,-1.2791458368301392,0.22490954399108887,-0.2951514720916748
1761232179839826700,4.85682666015625,-1.5729377269744873,0.03586585447192192,-0.4920448362827301
1761232179849895400,4.8668955078125,-1.820203185081482,-0.1327980011701584,-0.6607145667076111
1761232179859965400,4.87696533203125,-2.0164601802825928,-0.2828761637210846,-0.8333742022514343
1761232179870034400,4.887034423828125,-2.1912455558776855,-0.42150649428367615,-1.0308302640914917
1761232179880103700,4.897103759765625,-2.341682195663452,-0.5327206254005432,-1.280441403388977
1761232179890173400,4.90717333984375,-2.4800803661346436,-0.6561557650566101,-1.5287138223648071
1761232179900242700,4.91724267578125,-2.6007912158966064,-0.7990122437477112,-1.7394596338272095
1761232179910312400,4.9273125,-2.71893048286438,-0.9400843977928162,-1.886610984802246
1761232179920381400,4.93738134765625,-2.8276612758636475,-1.046625018119812,-1.9721051454544067
1761232179930450400,4.947450439453125,-2.946854829788208,-1.1153619289398193,-2.0082297325134277
1761232179940520400,4.9575205078125,-3.073087453842163,-1.1446162462234497,-2.0124590396881104
1761232179950589400,4.96758935546875,-3.1923983097076416,-1.1393990516662598,-2.0039632320404053
1761232179960659500,4.977659423828125,-3.315232753753662,-1.1375226974487305,-1.9554356336593628
1761232179970728400,4.987728515625,-3.4486708641052246,-1.2009423971176147,-1.8741729259490967
1761232179980798500,4.997798583984375,-3.5984878540039062,-1.2962864637374878,-1.7933238744735718
1761232179990867700,5.00786767578125,-3.76552152633667,-1.2955197095870972,-1.779246211051941
1761232180000936400,5.0179365234375,-3.985291004180908,-1.0481775999069214,-1.8355728387832642
1761232180011006700,5.0280068359375,-4.267383098602295,-0.6820874810218811,-1.8284395933151245
1761232180021075500,5.038075439453125,-4.585938930511475,-0.3745674788951874,-1.7274540662765503
1761232180031145500,5.0481455078125,-4.901967525482178,-0.15519358217716217,-1.568395972251892
1761232180041214500,5.05821435546875,-5.2053632736206055,-0.027875039726495743,-1.4037638902664185
1761232180051283700,5.06828369140625,-5.492229461669922,0.15348222851753235,-1.3057526350021362
1761232180061353500,5.078353515625,-5.7533111572265625,0.4954203963279724,-1.2505269050598145
1761232180071422500,5.08842236328125,-6.044989109039307,0.8986083269119263,-1.1450670957565308
1761232180081492500,5.098492431640625,-6.3974714279174805,1.3590478897094727,-0.9799231886863708
1761232180091561500,5.1085615234375,-6.788785457611084,1.9540706872940063,-0.7519853115081787
1761232180101631500,5.118631591796875,-7.1942901611328125,2.565126419067383,-0.4377562999725342
1761232180111700500,5.128700439453125,-7.604652404785156,3.0164220333099365,-0.07782502472400665
1761232180121769500,5.13876953125,-7.9471964836120605,3.199039936065674,0.2567487061023712
1761232180131839500,5.148839599609375,-8.159056663513184,3.1371846199035645,0.5485552549362183
1761232180141908500,5.158908447265625,-8.222623825073242,2.858874797821045,0.7751234173774719
1761232180151978000,5.16897802734375,-8.106813430786133,2.462757110595703,0.9331090450286865
1761232180162047200,5.179047119140625,-7.741827487945557,2.162808418273926,1.0771235227584839
1761232180172116000,5.189115966796875,-7.190023899078369,1.8966045379638672,1.273787021636963
1761232180182186200,5.199186279296875,-6.580948352813721,1.6294671297073364,1.527373194694519
1761232180192255000,5.2092548828125,-5.990358829498291,1.3775181770324707,1.7513618469238281
1761232180202323200,5.2193232421875,-5.433643341064453,1.0723918676376343,1.8067923784255981
1761232180212392200,5.22939208984375,-4.852549076080322,0.7070623636245728,1.659226894378662
1761232180222461200,5.239461181640625,-4.206850528717041,0.3426753282546997,1.258452296257019
1761232180232531000,5.249531005859375,-3.4760141372680664,0.012488361448049545,0.7176276445388794
1761232180242600200,5.25960009765625,-2.6818530559539795,-0.31750738620758057,0.17550311982631683
1761232180252670000,5.269669921875,-1.8428843021392822,-0.5885588526725769,-0.25427141785621643
1761232180262739200,5.2797392578125,-1.0365004539489746,-0.745229184627533,-0.5195209383964539
1761232180272809000,5.28980908203125,-0.27447310090065,-0.8184157609939575,-0.6343958377838135
1761232180282878200,5.299878173828125,0.4154832065105438,-0.8347353339195251,-0.6748911142349243
1761232180292947000,5.309947021484375,1.0108586549758911,-0.8392043709754944,-0.6999498605728149
1761232180303017200,5.320017333984375,1.5367398262023926,-0.8572134971618652,-0.7275292873382568
1761232180313086000,5.3300859375,2.0095832347869873,-0.8432254791259766,-0.7458059787750244
1761232180323156200,5.34015625,2.4419353008270264,-0.7601463198661804,-0.7293617725372314
1761232180333225200,5.35022509765625,2.831611394882202,-0.6052755117416382,-0.6914160251617432
1761232180343294200,5.360294189453125,3.1770052909851074,-0.43279749155044556,-0.6605046987533569
1761232180353364200,5.3703642578125,3.5181260108947754,-0.26654061675071716,-0.6430785655975342
1761232180363433200,5.38043310546875,3.8731188774108887,-0.15232987701892853,-0.6379788517951965
1761232180373503200,5.390503173828125,4.253772735595703,-0.12903441488742828,-0.6263911724090576
1761232180383572200,5.400572265625,4.638149738311768,-0.2108781486749649,-0.600872814655304
1761232180393641200,5.41064111328125,5.020230293273926,-0.3254249691963196,-0.5813124179840088
1761232180403711000,5.4207109375,5.365196704864502,-0.41020137071609497,-0.5713849067687988
1761232180413780200,5.4307802734375,5.663593292236328,-0.45300528407096863,-0.5624412298202515
1761232180423850000,5.44085009765625,5.878302574157715,-0.47284451127052307,-0.5486764311790466
1761232180433919200,5.450919189453125,6.010272026062012,-0.4190526604652405,-0.5481624603271484
1761232180443988000,5.460988037109375,6.0642170906066895,-0.33001038432121277,-0.5571197271347046
1761232180454058200,5.471058349609375,6.06126070022583,-0.22283761203289032,-0.5949720144271851
1761232180464127000,5.481126953125,6.042392730712891,-0.10352026671171188,-0.6451771259307861
1761232180474197200,5.491197265625,6.007102966308594,-0.03129320964217186,-0.6708726286888123
1761232180484266000,5.501265869140625,5.957322120666504,-0.0446028895676136,-0.6635627746582031
1761232180494336300,5.511336181640625,5.8823370933532715,-0.09761284291744232,-0.6303662061691284
1761232180504405000,5.521405029296875,5.797889232635498,-0.1817982941865921,-0.5929213762283325
1761232180514474200,5.53147412109375,5.6826701164245605,-0.3136617839336395,-0.5109727382659912
1761232180524544300,5.541544189453125,5.542704105377197,-0.4351027309894562,-0.4000701904296875
1761232180534613200,5.55161328125,5.394137859344482,-0.5007264614105225,-0.263751745223999
1761232180544683300,5.561683349609375,5.267560958862305,-0.5049808621406555,-0.11147406697273254
1761232180554752000,5.571751953125,5.18712043762207,-0.5389092564582825,0.07668811827898026
1761232180564821200,5.5818212890625,5.132110595703125,-0.7288392782211304,0.3120654821395874
1761232180574891000,5.59189111328125,5.114782810211182,-0.9442751407623291,0.5483049154281616
1761232180584960300,5.601960205078125,5.105100631713867,-1.1313380002975464,0.7481333613395691
1761232180595030000,5.612030029296875,5.087538719177246,-1.2537981271743774,0.9353250861167908
1761232180605099300,5.622099365234375,5.060894966125488,-1.2831906080245972,1.1255395412445068
1761232180615169000,5.6321689453125,5.006452560424805,-1.3488215208053589,1.3183557987213135
1761232180625238300,5.64223828125,4.955143928527832,-1.4335767030715942,1.5123533010482788
1761232180635307000,5.65230712890625,4.871385097503662,-1.4986393451690674,1.6759363412857056
1761232180645377300,5.662377197265625,4.693480014801025,-1.5241254568099976,1.8115482330322266
1761232180655446000,5.672446044921875,4.392007350921631,-1.4271321296691895,1.875778317451477
1761232180665516000,5.68251611328125,3.9387991428375244,-1.1810860633850098,1.85135018825531
1761232180675585000,5.6925849609375,3.3519601821899414,-0.9021681547164917,1.7438596487045288
1761232180685654300,5.702654296875,2.6802804470062256,-0.6785028576850891,1.563235878944397
1761232180695724300,5.712724365234375,1.936825156211853,-0.5221220254898071,1.2927879095077515
1761232180705793000,5.72279296875,1.139073371887207,-0.319937527179718,0.9373576045036316
1761232180715863300,5.73286328125,0.2738230228424072,-0.09878730028867722,0.5417522192001343
1761232180725932000,5.74293212890625,-0.6228923201560974,0.13077612221240997,0.1047583669424057
1761232180736002300,5.753002197265625,-1.4860254526138306,0.3969678580760956,-0.33657002449035645
1761232180746071000,5.763071044921875,-2.255589723587036,0.643469512462616,-0.7392234802246094
1761232180756140300,5.773140380859375,-2.877664089202881,0.8280654549598694,-1.0262086391448975
1761232180766210000,5.7832099609375,-3.3490617275238037,0.9264727234840393,-1.1731714010238647
1761232180776279300,5.793279296875,-3.678179979324341,0.9732045531272888,-1.2190965414047241
1761232180786349000,5.80334912109375,-3.8846704959869385,0.9726913571357727,-1.21848464012146
1761232180796418300,5.813418212890625,-4.013983249664307,0.8944641947746277,-1.2283079624176025
1761232180806488000,5.823488037109375,-4.095568656921387,0.7222535610198975,-1.2820566892623901
1761232180816557000,5.83355712890625,-4.170618534088135,0.5322652459144592,-1.3864542245864868
1761232180826626000,5.8436259765625,-4.266320705413818,0.34778645634651184,-1.5340760946273804
1761232180836696000,5.853696044921875,-4.360445976257324,0.24758796393871307,-1.6989511251449585
1761232180846765000,5.86376513671875,-4.472585678100586,0.22640889883041382,-1.8457841873168945
1761232180856835000,5.8738349609375,-4.606982231140137,0.2910877764225006,-1.9532654285430908
1761232180866904000,5.883904052734375,-4.765382766723633,0.42944324016571045,-2.007366895675659
1761232180876973000,5.89397314453125,-4.959900856018066,0.5943248867988586,-1.9727349281311035
1761232180887043300,5.904043212890625,-5.167078971862793,0.7708572745323181,-1.8445549011230469
1761232180897112000,5.914112060546875,-5.389261245727539,0.9738572835922241,-1.6379241943359375
1761232180907182300,5.924182373046875,-5.63759708404541,1.2182047367095947,-1.3964053392410278
1761232180917251000,5.9342509765625,-5.910240650177002,1.4860782623291016,-1.115164041519165
1761232180927320300,5.9443203125,-6.2192769050598145,1.7421842813491821,-0.8163036108016968
1761232180937390000,5.95439013671875,-6.558889389038086,2.039867877960205,-0.5135560035705566
1761232180947459300,5.964459228515625,-6.934503078460693,2.3463962078094482,-0.20835906267166138
1761232180957529000,5.974529052734375,-7.353610992431641,2.6298675537109375,0.09700138121843338
1761232180967598000,5.98459814453125,-7.786858081817627,2.929591417312622,0.38311144709587097
1761232180977668000,5.994668212890625,-8.212995529174805,3.241945505142212,0.6602455377578735
1761232180987737000,6.004737060546875,-8.589097023010254,3.4789352416992188,0.9322744011878967
1761232180997806000,6.01480615234375,-8.85271167755127,3.622860908508301,1.175079584121704
1761232181007876000,6.0248759765625,-8.978726387023926,3.7181320190429688,1.3740949630737305
1761232181017945000,6.034945068359375,-8.976343154907227,3.5776865482330322,1.4949119091033936
1761232181028015000,6.04501513671875,-8.78982925415039,3.092714786529541,1.4859064817428589
1761232181038084000,6.055083984375,-8.339786529541016,2.2526702880859375,1.3315682411193848
1761232181048153000,6.065153076171875,-7.499931335449219,1.3017754554748535,1.106492519378662
1761232181058223400,6.075223388671875,-6.329353332519531,0.39523494243621826,0.8999343514442444
1761232181068292000,6.0852919921875,-5.041023254394531,-0.4312736392021179,0.7819080948829651
1761232181078362000,6.095362060546875,-3.8533313274383545,-1.0684623718261719,0.7121745347976685
1761232181088431000,6.10543115234375,-2.861668825149536,-1.3833122253417969,0.652963399887085
1761232181098501000,6.115501220703125,-2.0602307319641113,-1.4628431797027588,0.5291762351989746
1761232181108570000,6.125570068359375,-1.3529950380325317,-1.4678994417190552,0.36583179235458374
1761232181118639000,6.13563916015625,-0.6550654768943787,-1.4880564212799072,0.20253713428974152
1761232181128709000,6.145709228515625,0.04169844463467598,-1.5985469818115234,0.1222556009888649
1761232181138778000,6.155778076171875,0.7192369699478149,-1.7628341913223267,0.13607022166252136
1761232181148848000,6.16584814453125,1.34297776222229,-1.8552237749099731,0.2102416455745697
1761232181158917000,6.175917236328125,1.8525747060775757,-1.8275631666183472,0.28426289558410645
1761232181168986000,6.185986083984375,2.2100884914398193,-1.682050347328186,0.29540395736694336
1761232181179056000,6.19605615234375,2.4711811542510986,-1.4189831018447876,0.21198709309101105
1761232181189125000,6.206125,2.679955244064331,-1.0830421447753906,0.07014766335487366
1761232181199195100,6.216195068359375,2.9028255939483643,-0.7308118939399719,-0.0785033330321312
1761232181209264000,6.22626416015625,3.1748366355895996,-0.44329407811164856,-0.22872425615787506
1761232181219334100,6.236334228515625,3.4939684867858887,-0.2727945148944855,-0.3642970025539398
1761232181229403100,6.246403076171875,3.8645360469818115,-0.20781391859054565,-0.4979626536369324
1761232181239472000,6.25647216796875,4.2774529457092285,-0.21956777572631836,-0.6271238327026367
1761232181249542100,6.266542236328125,4.722393989562988,-0.320459246635437,-0.7456629872322083
1761232181259611100,6.276611083984375,5.16352653503418,-0.4945535361766815,-0.8412827253341675
1761232181269681200,6.28668115234375,5.579123020172119,-0.6984837651252747,-0.8901078104972839
1761232181279750100,6.296750244140625,5.933403015136719,-0.8639203906059265,-0.9020102620124817
1761232181289819100,6.306819091796875,6.200296878814697,-0.9854305982589722,-0.8740960955619812
1761232181299889200,6.31688916015625,6.378777503967285,-1.0512393712997437,-0.8289685249328613
1761232181309958100,6.326958251953125,6.487812042236328,-1.0774306058883667,-0.7967008948326111
1761232181320028200,6.337028076171875,6.55900239944458,-1.1006640195846558,-0.7610768675804138
1761232181330097200,6.34709716796875,6.617382049560547,-1.1406207084655762,-0.7225004434585571
1761232181340166100,6.357166259765625,6.696038246154785,-1.1492083072662354,-0.6420090198516846
1761232181350236200,6.367236083984375,6.758228778839111,-1.1777358055114746,-0.5041547417640686
1761232181360305200,6.37730517578125,6.791629791259766,-1.2914661169052124,-0.32872435450553894
1761232181370375200,6.387375244140625,6.785549163818359,-1.3949695825576782,-0.13925430178642273
1761232181380444200,6.397444091796875,6.737461090087891,-1.4449726343154907,0.038491200655698776
1761232181390514200,6.40751416015625,6.650147438049316,-1.477005958557129,0.20996467769145966
1761232181400583000,6.4175830078125,6.5524797439575195,-1.4916934967041016,0.38077718019485474
1761232181410652200,6.427652099609375,6.45435094833374,-1.5537512302398682,0.5537601113319397
1761232181420722200,6.43772216796875,6.374939441680908,-1.7076112031936646,0.7231302261352539
1761232181430791200,6.447791259765625,6.322121620178223,-1.9061559438705444,0.8655619621276855
1761232181440861200,6.457861083984375,6.292387962341309,-2.1341826915740967,0.9936328530311584
1761232181450930200,6.46793017578125,6.268876552581787,-2.3517932891845703,1.1311728954315186
1761232181461000200,6.478000244140625,6.229246616363525,-2.528059482574463,1.2960838079452515
1761232181471069200,6.488069091796875,6.152838230133057,-2.58225154876709,1.4719467163085938
1761232181481138200,6.49813818359375,5.957796096801758,-2.53934645652771,1.649244785308838
1761232181491208200,6.508208251953125,5.610048770904541,-2.3650801181793213,1.81130051612854
1761232181501277200,6.518277099609375,5.092678546905518,-2.015902042388916,1.9198256731033325
1761232181511347000,6.528346923828125,4.3856940269470215,-1.5187243223190308,1.9511619806289673
1761232181521416200,6.538416259765625,3.4940924644470215,-0.9218193888664246,1.8527814149856567
1761232181531485200,6.548485107421875,2.5306785106658936,-0.2919839322566986,1.6537377834320068
1761232181541555200,6.55855517578125,1.5640217065811157,0.2480737268924713,1.3865673542022705
1761232181551624000,6.5686240234375,0.6252878308296204,0.690921425819397,1.0312460660934448
1761232181561694200,6.578694091796875,-0.20500534772872925,1.028552770614624,0.620979368686676
1761232181571763000,6.588762939453125,-0.9168317914009094,1.2293061017990112,0.19606244564056396
1761232181581833200,6.598833251953125,-1.4997128248214722,1.3508328199386597,-0.2213028222322464
1761232181591902000,6.60890185546875,-1.9560110569000244,1.4195055961608887,-0.6053863167762756
1761232181601971200,6.61897119140625,-2.2856690883636475,1.4277411699295044,-0.9637564420700073
1761232181612041200,6.629041259765625,-2.520031452178955,1.3886730670928955,-1.2703635692596436
1761232181622110200,6.639110107421875,-2.7072999477386475,1.3164151906967163,-1.5073087215423584
1761232181632180200,6.64918017578125,-2.8752169609069824,1.2361596822738647,-1.7004432678222656
1761232181642249200,6.659249267578125,-3.0499703884124756,1.1778063774108887,-1.8540807962417603
1761232181652319200,6.6693193359375,-3.2463178634643555,1.1853489875793457,-1.9674216508865356
1761232181662388000,6.679387939453125,-3.5052456855773926,1.2715387344360352,-2.0303235054016113
1761232181672457200,6.689457275390625,-3.8044145107269287,1.406935214996338,-2.017746686935425
1761232181682527000,6.69952685546875,-4.123783588409424,1.5522409677505493,-1.9265203475952148
1761232181692596200,6.70959619140625,-4.434745788574219,1.6864213943481445,-1.7866157293319702
1761232181702666000,6.719666015625,-4.739269733428955,1.8384767770767212,-1.6084142923355103
1761232181712735200,6.7297353515625,-5.039533615112305,2.050753116607666,-1.4230910539627075
1761232181722804000,6.739803955078125,-5.33158540725708,2.312274217605591,-1.1744800806045532
1761232181732874200,6.749874267578125,-5.610915184020996,2.575852632522583,-0.874195396900177
1761232181742943000,6.75994287109375,-5.876551628112793,2.8151886463165283,-0.5561711192131042
1761232181753013200,6.77001318359375,-6.156445503234863,3.01320743560791,-0.23722586035728455
1761232181763082000,6.78008203125,-6.453885555267334,3.172302722930908,0.04556562006473541
1761232181773152000,6.790152099609375,-6.756959915161133,3.312034845352173,0.27838343381881714
1761232181783221200,6.80022119140625,-7.073543071746826,3.4861862659454346,0.45680829882621765
1761232181793290200,6.810290283203125,-7.406728267669678,3.713181734085083,0.6277989149093628
1761232181803360300,6.8203603515625,-7.736745834350586,3.9518063068389893,0.8302130103111267
1761232181813429000,6.830428955078125,-8.061490058898926,4.208065986633301,1.0604579448699951
1761232181823499300,6.840499267578125,-8.343664169311523,4.480734348297119,1.3144038915634155
1761232181833568000,6.850568115234375,-8.584300994873047,4.680407524108887,1.57468581199646
1761232181843637200,6.86063720703125,-8.763694763183594,4.809454917907715,1.8428232669830322
1761232181853707000,6.87070703125,-8.88460636138916,4.834195613861084,2.0714194774627686
1761232181863776300,6.8807763671875,-8.921235084533691,4.627917766571045,2.224322557449341
1761232181873846000,6.890845947265625,-8.798145294189453,4.214001655578613,2.2828361988067627
1761232181883915300,6.900915283203125,-8.410265922546387,3.71750807762146,2.253643751144409
1761232181893985000,6.910985107421875,-7.7910919189453125,3.1485865116119385,2.1367664337158203
1761232181904054300,6.92105419921875,-7.0379319190979,2.3411576747894287,1.9520347118377686
1761232181914123000,6.931123046875,-6.198644638061523,1.3695915937423706,1.695773720741272
1761232181924193000,6.941193115234375,-5.3097100257873535,0.37734514474868774,1.3195009231567383
1761232181934262000,6.951261962890625,-4.384703636169434,-0.5431951284408569,0.8367007374763489
1761232181944332000,6.96133203125,-3.449526071548462,-1.3114593029022217,0.29412057995796204
1761232181954401000,6.971401123046875,-2.556375026702881,-1.8854714632034302,-0.1737302541732788
1761232181964471000,6.981470947265625,-1.7162702083587646,-2.154222011566162,-0.4545813500881195
1761232181974540300,6.991540283203125,-0.960715115070343,-2.104583263397217,-0.5129013657569885
1761232181984609000,7.001609130859375,-0.2720901072025299,-1.8404467105865479,-0.3514248728752136
1761232181994679300,7.01167919921875,0.3749845325946808,-1.5619237422943115,-0.06814922392368317
1761232182004748000,7.021748046875,1.01362144947052,-1.4224438667297363,0.19255933165550232
1761232182014818300,7.031818359375,1.667401671409607,-1.384882926940918,0.3298594057559967
1761232182024887000,7.041886962890625,2.2749838829040527,-1.4658211469650269,0.3089336156845093
1761232182034956300,7.051956298828125,2.7824764251708984,-1.5692753791809082,0.1631186157464981
1761232182045026000,7.062026123046875,3.2158284187316895,-1.5874930620193481,-0.06425834447145462
1761232182055095300,7.07209521484375,3.596580743789673,-1.493148684501648,-0.31105509400367737
1761232182065165000,7.0821650390625,3.946542501449585,-1.360819697380066,-0.5386804938316345
1761232182075234000,7.092234130859375,4.283021450042725,-1.2250466346740723,-0.737910807132721
1761232182085304000,7.102303955078125,4.618978023529053,-1.1181758642196655,-0.9226002097129822
1761232182095373000,7.112373046875,4.9463396072387695,-1.0636957883834839,-1.0941025018692017
1761232182105442000,7.122442138671875,5.277514934539795,-1.0621399879455566,-1.2505693435668945
1761232182115512000,7.132511962890625,5.592190742492676,-1.1199593544006348,-1.37375807762146
1761232182125581000,7.1425810546875,5.865061283111572,-1.2327584028244019,-1.4570852518081665
1761232182135651000,7.152651123046875,6.106642723083496,-1.4001781940460205,-1.4857360124588013
1761232182145720300,7.16272021484375,6.320256233215332,-1.5441359281539917,-1.485378623008728
1761232182155789000,7.1727890625,6.502390384674072,-1.6216315031051636,-1.487317681312561
1761232182165859300,7.182859375,6.634142875671387,-1.6632682085037231,-1.4709006547927856
1761232182175928000,7.192927978515625,6.711643218994141,-1.7436854839324951,-1.423601746559143
1761232182185998000,7.202998046875,6.742735385894775,-1.8698344230651855,-1.368896245956421
1761232182196067000,7.213067138671875,6.754764556884766,-1.9386110305786133,-1.3170905113220215
1761232182206136300,7.22313623046875,6.746763706207275,-1.9611952304840088,-1.2603542804718018
1761232182216206000,7.2332060546875,6.7076096534729,-2.0314266681671143,-1.1987316608428955
1761232182226275300,7.243275390625,6.653220176696777,-2.1660821437835693,-1.0972020626068115
1761232182236345000,7.253344970703125,6.6358323097229,-2.2411882877349854,-0.9662100076675415
1761232182246414000,7.2634140625,6.630356311798096,-2.2883381843566895,-0.8082576394081116
1761232182256484000,7.273484130859375,6.6061224937438965,-2.4294028282165527,-0.6160085797309875
1761232182266553000,7.283552978515625,6.580358982086182,-2.6625113487243652,-0.4084985554218292
1761232182276622000,7.2936220703125,6.571086883544922,-3.0102145671844482,-0.232390895485878
1761232182286692000,7.303692138671875,6.612482070922852,-3.406996965408325,-0.06054776534438133
1761232182296761000,7.313760986328125,6.706833362579346,-3.695347547531128,0.09649857878684998
1761232182306831000,7.3238310546875,6.7762556076049805,-3.899597406387329,0.23201672732830048
1761232182316900400,7.333900390625,6.764555931091309,-4.071038246154785,0.3906804025173187
1761232182326970000,7.34397021484375,6.6580491065979,-4.152584075927734,0.5251447558403015
1761232182337039400,7.354039306640625,6.427081108093262,-4.141445636749268,0.6367660760879517
1761232182347108000,7.364108154296875,6.081892013549805,-4.027151584625244,0.7356284856796265
1761232182357178000,7.37417822265625,5.6538591384887695,-3.7736597061157227,0.8131951689720154
1761232182367247000,7.3842470703125,5.144021511077881,-3.3886492252349854,0.8701958656311035
1761232182377317000,7.394317138671875,4.540493011474609,-2.86710786819458,0.9180283546447754
1761232182387386000,7.40438623046875,3.815290689468384,-2.229126214981079,0.9537823796272278
1761232182397456100,7.4144560546875,2.950885772705078,-1.514158844947815,0.9466840028762817
1761232182407525000,7.424525146484375,2.0114927291870117,-0.7751601934432983,0.8783219456672668
1761232182417594000,7.434593994140625,1.094606637954712,-0.06496408581733704,0.7171093821525574
1761232182427664100,7.4446640625,0.24922606348991394,0.5202807188034058,0.44681450724601746
1761232182437733000,7.454733154296875,-0.4797879159450531,0.9370459914207458,0.10010077059268951
1761232182447803100,7.46480322265625,-1.0868620872497559,1.1757595539093018,-0.26404842734336853
1761232182457872100,7.4748720703125,-1.5603766441345215,1.26107656955719,-0.6140484809875488
1761232182467942100,7.484942138671875,-1.896332859992981,1.2239429950714111,-0.9059288501739502
1761232182478011100,7.49501123046875,-2.1451756954193115,1.1770048141479492,-1.131677508354187
1761232182488080100,7.505080078125,-2.3528265953063965,1.1357476711273193,-1.2871928215026855
1761232182498150100,7.515150146484375,-2.5449438095092773,1.1066893339157104,-1.3774993419647217
1761232182508219100,7.52521923828125,-2.731644868850708,1.111877679824829,-1.4321894645690918
1761232182518289200,7.5352890625,-2.924888849258423,1.13385808467865,-1.4585824012756348
1761232182528358100,7.545358154296875,-3.139098644256592,1.1840736865997314,-1.45429265499115
1761232182538427100,7.55542724609375,-3.3645975589752197,1.2750749588012695,-1.4272290468215942
1761232182548497200,7.5654970703125,-3.597105026245117,1.362552285194397,-1.356573462486267
1761232182558566100,7.575566162109375,-3.845690965652466,1.4576774835586548,-1.2595572471618652
1761232182568636200,7.58563623046875,-4.114353179931641,1.5767349004745483,-1.1441330909729004
1761232182578705200,7.595705078125,-4.390415668487549,1.7228580713272095,-1.0246421098709106
1761232182588775200,7.605775146484375,-4.64375114440918,1.928680181503296,-0.9039543867111206
1761232182598844200,7.61584423828125,-4.8815741539001465,2.1588799953460693,-0.7459391355514526
1761232182608913200,7.6259130859375,-5.112740993499756,2.3722972869873047,-0.5586366653442383
1761232182618983000,7.63598291015625,-5.3349995613098145,2.53886342048645,-0.37291446328163147
1761232182629052200,7.64605224609375,-5.540034294128418,2.603821039199829,-0.19892588257789612
1761232182639122200,7.6561220703125,-5.714751720428467,2.58850359916687,-0.042758915573358536
1761232182649191200,7.666191162109375,-5.877157688140869,2.533386468887329,0.08504059165716171
1761232182659260200,7.67626025390625,-6.069520950317383,2.474616527557373,0.16933682560920715
1761232182669330200,7.686330078125,-6.281747817993164,2.4001266956329346,0.19430530071258545
1761232182679399200,7.696399169921875,-6.466274261474609,2.419513702392578,0.16796210408210754
1761232182689469200,7.70646923828125,-6.612534999847412,2.4778642654418945,0.09218931198120117
1761232182699538200,7.7165380859375,-6.698143005371094,2.5110249519348145,0.03050437942147255
1761232182709608200,7.726608154296875,-6.712279319763184,2.5507383346557617,-0.0123605290427804
1761232182719677200,7.73667724609375,-6.680819034576416,2.60417103767395,-0.035589419305324554
1761232182729746200,7.74674609375,-6.629740238189697,2.541975975036621,-0.06160930171608925
1761232182739816200,7.756816162109375,-6.538448333740234,2.344306707382202,-0.09194456785917282
1761232182749885200,7.76688525390625,-6.34522819519043,2.1216204166412354,-0.10561191290616989
1761232182759955200,7.776955078125,-6.053754806518555,1.9462032318115234,-0.08820309489965439
1761232182770024000,7.78702392578125,-5.685099124908447,1.894904375076294,-0.025240907445549965
1761232182780094200,7.79709423828125,-5.245655059814453,2.0234954357147217,0.083553746342659
1761232182790163000,7.807162841796875,-4.816792011260986,2.0524582862854004,0.192246675491333
1761232182800232200,7.817232177734375,-4.390478610992432,1.8226288557052612,0.21808093786239624
1761232182810302000,7.827302001953125,-3.897641897201538,1.39534330368042,0.10712192207574844
1761232182820371200,7.83737109375,-3.2926406860351562,0.8757879734039307,-0.0839095488190651
1761232182830441200,7.847441162109375,-2.5823869705200195,0.3778112232685089,-0.27350956201553345
1761232182840510200,7.85751025390625,-1.8143082857131958,-0.04021772742271423,-0.3893083333969116
1761232182850580200,7.867580322265625,-1.066055178642273,-0.44689974188804626,-0.41588616371154785
1761232182860649200,7.877649169921875,-0.34192004799842834,-0.8158980011940002,-0.34156879782676697
1761232182870718200,7.88771826171875,0.38872644305229187,-1.1057639122009277,-0.16428694128990173
1761232182880788000,7.8977880859375,1.1505849361419678,-1.3930151462554932,0.1416143923997879
1761232182890857200,7.907857177734375,1.9096462726593018,-1.626875877380371,0.5170247554779053
1761232182900927000,7.917927001953125,2.626067876815796,-1.7506510019302368,0.8694512248039246
1761232182910996200,7.927996337890625,3.2411208152770996,-1.8027541637420654,1.1286404132843018
1761232182921065200,7.938065185546875,3.7640020847320557,-1.7892287969589233,1.252030849456787
1761232182931135200,7.94813525390625,4.246837615966797,-1.7650434970855713,1.2735912799835205
1761232182941204000,7.958203857421875,4.691171646118164,-1.7769430875778198,1.2456022500991821
1761232182951274200,7.968274169921875,5.108152389526367,-1.8293085098266602,1.2167421579360962
1761232182961343000,7.978343017578125,5.492656707763672,-1.8902286291122437,1.1765000820159912
1761232182971413200,7.988413330078125,5.8311285972595215,-1.9309453964233398,1.1333369016647339
1761232182981482000,7.99848193359375,6.12077522277832,-1.923816442489624,1.0915242433547974
1761232182991551200,8.00855126953125,6.346212863922119,-1.8726458549499512,1.043352723121643
1761232183001621200,8.018621337890625,6.492456436157227,-1.8046287298202515,0.999423623085022
1761232183011690200,8.028690185546875,6.571784496307373,-1.7542953491210938,0.9393051862716675
1761232183021760300,8.03876025390625,6.6142802238464355,-1.7240657806396484,0.8592877984046936
1761232183031829000,8.0488291015625,6.630908966064453,-1.709079623222351,0.7587218284606934
1761232183041898200,8.058898193359376,6.644061088562012,-1.7525134086608887,0.6395922303199768
1761232183051968000,8.068968017578126,6.652823448181152,-1.795525312423706,0.5384006500244141
1761232183062037200,8.079037353515625,6.642767906188965,-1.8578102588653564,0.47507837414741516
1761232183072107000,8.08910693359375,6.580644607543945,-1.9998363256454468,0.4739726185798645
1761232183082176300,8.09917626953125,6.4867634773254395,-2.1515419483184814,0.5108203887939453
1761232183092246000,8.10924609375,6.363658428192139,-2.296295404434204,0.5825390815734863
1761232183102315300,8.119315185546874,6.210992336273193,-2.4349474906921387,0.6718327403068542
1761232183112384000,8.129384033203126,6.025504112243652,-2.6214540004730225,0.7793921828269958
1761232183122454300,8.139454345703125,5.83502721786499,-2.8180992603302,0.9046963453292847
1761232183132523000,8.14952294921875,5.658543109893799,-2.9213569164276123,1.0374476909637451
1761232183142593000,8.159593017578125,5.481040000915527,-2.896703004837036,1.1922059059143066
1761232183152662000,8.169662109375,5.282053470611572,-2.7172842025756836,1.3751932382583618
1761232183162732000,8.17973193359375,5.032705307006836,-2.469310998916626,1.573236346244812
1761232183172801000,8.189801025390626,4.743608474731445,-2.1555755138397217,1.7572975158691406
1761232183182870000,8.1998701171875,4.4034600257873535,-1.7812187671661377,1.8862003087997437
1761232183192940000,8.20993994140625,4.01602840423584,-1.405053973197937,1.970971941947937
1761232183203008800,8.2200087890625,3.568713903427124,-1.0973877906799316,2.0003907680511475
1761232183213079000,8.2300791015625,3.0469493865966797,-0.8270268440246582,1.933995008468628
1761232183223148000,8.24014794921875,2.4662296772003174,-0.5420392751693726,1.7670761346817017
1761232183233218000,8.250218017578124,1.8202921152114868,-0.26898646354675293,1.522002935409546
1761232183243287000,8.260287109375,1.1437243223190308,0.04027178883552551,1.2365738153457642
1761232183253356000,8.27035595703125,0.47457343339920044,0.36358192563056946,0.9167308807373047
1761232183263426000,8.280426025390625,-0.15324601531028748,0.6615353226661682,0.5738949775695801
1761232183273495000,8.2904951171875,-0.7115889191627502,0.909837543964386,0.21987377107143402
1761232183283565000,8.30056494140625,-1.1848890781402588,1.0985872745513916,-0.12865065038204193
1761232183293634000,8.310634033203126,-1.5690069198608398,1.194869041442871,-0.4513637125492096
1761232183303704000,8.3207041015625,-1.8668344020843506,1.2001490592956543,-0.7371200919151306
1761232183313772800,8.330772705078125,-2.094902515411377,1.1797387599945068,-0.983060896396637
1761232183323842000,8.340842041015625,-2.2853550910949707,1.1411594152450562,-1.1857516765594482
1761232183333911800,8.350911865234375,-2.4549453258514404,1.0894032716751099,-1.3468209505081177
1761232183343981000,8.36098095703125,-2.611847400665283,1.0203267335891724,-1.4592492580413818
1761232183354051000,8.371051025390624,-2.7602903842926025,0.989932119846344,-1.5693010091781616
1761232183364120000,8.3811201171875,-2.8983805179595947,1.0189669132232666,-1.6667505502700806
1761232183374190000,8.391190185546876,-3.0434579849243164,1.0378689765930176,-1.730897307395935
1761232183384259000,8.401259033203125,-3.201768398284912,1.0790261030197144,-1.753537893295288
1761232183394328000,8.411328125,-3.3845651149749756,1.1705857515335083,-1.7532734870910645
1761232183404398000,8.421398193359375,-3.5894381999969482,1.3042328357696533,-1.7143529653549194
1761232183414467000,8.431467041015624,-3.8133227825164795,1.4731504917144775,-1.642051339149475
1761232183424536800,8.441536865234376,-4.054109573364258,1.6814980506896973,-1.5368397235870361
1761232183434606000,8.451606201171876,-4.304238319396973,1.9239450693130493,-1.4019734859466553
1761232183444675000,8.461675048828125,-4.579165935516357,2.170926332473755,-1.2450711727142334
1761232183454745000,8.4717451171875,-4.868319988250732,2.4042341709136963,-1.0881366729736328
1761232183464813800,8.481813720703125,-5.159477233886719,2.66870379447937,-0.9454301595687866
1761232183474884000,8.491884033203124,-5.457974910736084,2.9310688972473145,-0.8010525107383728
1761232183484952800,8.501952880859376,-5.7509684562683105,3.1262598037719727,-0.6213756799697876
1761232183495023000,8.512023193359376,-6.021850109100342,3.2458744049072266,-0.4293348491191864
1761232183505091800,8.522091796875,-6.262444496154785,3.3328440189361572,-0.24946415424346924
1761232183515161000,8.5321611328125,-6.482348918914795,3.4641220569610596,-0.09335391223430634
1761232183525231000,8.542231201171875,-6.704051494598389,3.5726699829101562,0.043535493314266205
1761232183535300000,8.552300048828124,-6.889132022857666,3.509519338607788,0.13930995762348175
1761232183545370000,8.5623701171875,-6.927405834197998,3.3337690830230713,0.17899957299232483
1761232183555439000,8.572439208984376,-6.781311511993408,3.01733136177063,0.2237260341644287
1761232183565509000,8.582509033203126,-6.470414638519287,2.5885488986968994,0.3026741147041321
1761232183575577900,8.592577880859375,-6.025459289550781,2.118103265762329,0.4081653952598572
1761232183585647000,8.602647216796875,-5.513768196105957,1.7129685878753662,0.514872133731842
1761232183595716900,8.612716796875,-5.040470600128174,1.2295500040054321,0.5575708746910095
1761232183605786000,8.6227861328125,-4.568037033081055,0.5726142525672913,0.4906003475189209
1761232183615855900,8.63285595703125,-3.9648947715759277,-0.07685963064432144,0.28377604484558105
1761232183625925000,8.642925048828126,-3.231598377227783,-0.7338492274284363,0.002941993996500969
1761232183635995000,8.652994873046875,-2.387730598449707,-1.2797915935516357,-0.2757450342178345
1761232183646064000,8.663064208984375,-1.5132291316986084,-1.5408624410629272,-0.518457293510437
1761232183656132900,8.6731328125,-0.6491281986236572,-1.563366413116455,-0.6759102940559387
1761232183666203100,8.683203125,0.17356832325458527,-1.5619860887527466,-0.7230902910232544
1761232183676271900,8.69327197265625,0.960798978805542,-1.710208535194397,-0.6793023347854614
1761232183686342000,8.703341796875,1.7483340501785278,-2.069864273071289,-0.5997588038444519
1761232183696411000,8.713410888671875,2.536478281021118,-2.5542819499969482,-0.5094171762466431
1761232183706480000,8.723480224609375,3.2513022422790527,-2.9859566688537598,-0.4732429087162018
1761232183716550100,8.733550048828125,3.826714515686035,-3.2456769943237305,-0.5839350819587708
1761232183726619000,8.743618896484374,4.225675582885742,-3.3895325660705566,-0.8162977695465088
1761232183736689200,8.753689208984374,4.461678981781006,-3.3825595378875732,-1.0909020900726318
1761232183746758000,8.7637578125,4.548933506011963,-3.198913097381592,-1.3708254098892212
1761232183756828200,8.773828125,4.507758617401123,-2.8983256816864014,-1.5918095111846924
1761232183766897000,8.78389697265625,4.393839359283447,-2.4888200759887695,-1.7846063375473022
1761232183776966100,8.793966064453125,4.241960048675537,-2.020392656326294,-1.9650893211364746
1761232183787036000,8.804035888671875,4.087006092071533,-1.540729284286499,-2.098797559738159
1761232183797105200,8.814105224609374,3.8904354572296143,-1.1528403759002686,-2.1620540618896484
1761232183807175000,8.8241748046875,3.6748454570770264,-0.7642843723297119,-2.185394287109375
1761232183817244200,8.834244140625,3.440089225769043,-0.37961870431900024,-2.1556339263916016
1761232183827314000,8.84431396484375,3.190124988555908,-0.06607995182275772,-2.0920522212982178
1761232183837383000,8.8543828125,2.9344329833984375,0.149192675948143,-2.0192244052886963
1761232183847452000,8.864451904296875,2.7130672931671143,0.25999268889427185,-1.9722816944122314
1761232183857522000,8.87452197265625,2.5400547981262207,0.3238086998462677,-1.9484634399414062
1761232183867591000,8.8845908203125,2.405106782913208,0.37438371777534485,-1.931801438331604
1761232183877661000,8.894660888671876,2.3027288913726807,0.3875831365585327,-1.941659927368164
1761232183887730200,8.904730224609375,2.211827516555786,0.3007880747318268,-1.9736928939819336
1761232183897800000,8.914800048828125,2.133324384689331,0.14000797271728516,-1.9999346733093262
1761232183907869200,8.924869140625,2.0649847984313965,0.00140987744089216,-1.997865915298462
1761232183917938000,8.93493798828125,1.9889099597930908,-0.12968821823596954,-1.9634064435958862
1761232183928008200,8.94500830078125,1.9221601486206055,-0.12544021010398865,-1.915015697479248
1761232183938077000,8.955076904296876,1.8732235431671143,-0.0392368845641613,-1.8844517469406128
1761232183948147000,8.96514697265625,1.7989333868026733,0.09393155574798584,-1.8408243656158447
1761232183958216000,8.9752158203125,1.7118418216705322,0.17957854270935059,-1.7962459325790405
1761232183968285200,8.98528515625,1.6094547510147095,0.23354165256023407,-1.8044767379760742
1761232183978355000,8.99535498046875,1.4843144416809082,0.3126811981201172,-1.8649823665618896
1761232183988424000,9.005423828125,1.3840389251708984,0.41803959012031555,-1.9743187427520752
1761232183998494000,9.015493896484376,1.3091708421707153,0.5100235939025879,-2.1111669540405273
1761232184008563000,9.02556298828125,0.5722014904022217,0.40404626727104187,-1.4811596870422363
1761232184018633200,9.03563330078125,-0.08814556896686554,0.22682702541351318,-0.8525739908218384
1761232184028702000,9.045701904296875,-0.46615758538246155,0.679633617401123,-0.7331101894378662
1761232184038771000,9.05577099609375,-0.6907435655593872,0.90706467628479,-0.5015829801559448
1761232184048841000,9.065841064453124,-1.029685378074646,0.35184246301651,-0.09874681383371353
1761232184058910000,9.075909912109376,-1.4713387489318848,-0.5178545713424683,0.32300814986228943
1761232184068980000,9.08597998046875,-1.8715298175811768,-1.1598711013793945,0.5416762828826904
1761232184079049200,9.09604931640625,-1.9648817777633667,-1.137264370918274,0.5164172649383545
1761232184089119000,9.106118896484375,-1.8563066720962524,-1.017187476158142,0.3800669014453888
1761232184099188000,9.11618798828125,-1.6219226121902466,-0.799252450466156,0.40310031175613403
1761232184109257000,9.126257080078124,-1.381980061531067,-0.7264994382858276,0.5253162384033203
1761232184119327000,9.136326904296874,-1.10438072681427,-0.8647425174713135,0.48909300565719604
1761232184129396000,9.14639599609375,-0.8086488842964172,-0.8698246479034424,0.26064038276672363
1761232184139466000,9.156466064453125,-0.54939866065979,-0.6139446496963501,0.044138964265584946
1761232184149535000,9.166534912109375,-0.3339446783065796,-0.5285423994064331,-0.07410591840744019
1761232184159605000,9.17660498046875,-0.19762013852596283,-0.6037631034851074,-0.14950241148471832
1761232184169674000,9.186674072265625,-0.10843619704246521,-0.7426680326461792,-0.1793157011270523
1761232184179743000,9.196742919921874,-0.03455265238881111,-0.8700190186500549,-0.16047409176826477
1761232184189813000,9.20681298828125,0.0009510148083791137,-0.9606594443321228,-0.14539314806461334
1761232184199882000,9.216882080078125,0.019291406497359276,-0.978655219078064,-0.1405581831932068
1761232184209952000,9.226951904296875,0.010643855668604374,-0.894063413143158,-0.15605378150939941
1761232184220021000,9.23702099609375,-0.029211681336164474,-0.6774232387542725,-0.1819482296705246
1761232184230091000,9.247091064453125,-0.05639270320534706,-0.48024943470954895,-0.14656920731067657
1761232184240160000,9.257159912109374,-0.07729318737983704,-0.3823055624961853,-0.07753180712461472
1761232184250229200,9.267229248046876,-0.06927361339330673,-0.2915716767311096,-0.006963100749999285
1761232184260299000,9.277299072265626,-0.06505649536848068,-0.18925833702087402,0.022275744006037712
1761232184270368000,9.287367919921875,-0.08142109215259552,-0.11759587377309799,0.010961038060486317
1761232184280438000,9.29743798828125,-0.10619568079710007,-0.062014900147914886,-0.004806472919881344
1761232184290507000,9.307507080078125,-0.12493874132633209,-0.015277490019798279,-0.002596848411485553
1761232184300577000,9.317576904296875,-0.13000354170799255,0.010460097342729568,0.0028959212359040976
1761232184310646000,9.32764599609375,-0.14414386451244354,0.0015188007382676005,-0.00618066405877471
1761232184320715000,9.337715087890626,-0.15214692056179047,-0.050343599170446396,-0.011427357792854309
1761232184330785000,9.347784912109375,-0.1630653589963913,-0.11082238703966141,-0.0016823188634589314
1761232184340854000,9.35785400390625,-0.16920500993728638,-0.1259712427854538,0.0438137948513031
1761232184350924000,9.367924072265625,-0.16919568181037903,-0.12985439598560333,0.10604654252529144
1761232184360993000,9.377992919921875,-0.14022155106067657,-0.1523866057395935,0.14006443321704865
1761232184371063000,9.38806298828125,-0.11663393676280975,-0.1656201183795929,0.12486550211906433
1761232184381132000,9.398132080078126,-0.09507724642753601,-0.1587984412908554,0.07278552651405334
1761232184391201000,9.408200927734375,-0.08353164792060852,-0.1485854834318161,-0.006913566030561924
1761232184401271000,9.41827099609375,-0.08506216108798981,-0.13763242959976196,-0.10401295125484467
1761232184411340000,9.428340087890625,-0.08383950591087341,-0.10509872436523438,-0.17811833322048187
1761232184421410000,9.43841015625,-0.08196410536766052,-0.10506197065114975,-0.2222013771533966
1761232184431479000,9.44847900390625,-0.09431984275579453,-0.13840101659297943,-0.2539534568786621
1761232184441548000,9.458548095703126,-0.11476093530654907,-0.23884373903274536,-0.30467602610588074
1761232184451618000,9.4686181640625,-0.12242444604635239,-0.31780806183815,-0.3657665252685547
1761232184461687000,9.47868701171875,-0.13178759813308716,-0.2981092035770416,-0.4341490566730499
1761232184471757000,9.488757080078125,-0.1387307196855545,-0.2811829447746277,-0.45511558651924133
1761232184481826000,9.498825927734375,-0.14781077206134796,-0.2646431028842926,-0.4274576008319855
1761232184491895800,9.508895751953125,-0.1610725075006485,-0.3242183029651642,-0.38301023840904236
1761232184501965000,9.518965087890624,-0.12251979112625122,-0.36163437366485596,-0.22848936915397644
1761232184512034000,9.529033935546876,-0.08059124648571014,-0.3250310719013214,-0.07049041241407394
1761232184522104000,9.53910400390625,-0.05642678961157799,-0.2848743498325348,0.015310512855648994
1761232184532172800,9.5491728515625,-0.038724493235349655,-0.25894874334335327,0.04259699583053589
1761232184542243000,9.5592431640625,-0.027773041278123856,-0.24583932757377625,0.04350007325410843
1761232184552311800,9.569311767578125,-0.018159030005335808,-0.20758195221424103,0.02899862825870514
1761232184562382000,9.579382080078124,-0.025716016069054604,-0.15370674431324005,0.016593623906373978
1761232184572451000,9.589451171875,-0.05192897841334343,-0.11629544943571091,0.005339371506124735
