time,seconds_elapsed,z,y,x
1761231901691863600,0.078863525390625,0.06666589056253433,-0.17287760957181453,0.4223396059239283
1761231901701932500,0.0889326171875,0.08179916228652,-0.21062544868588445,0.48586427585128694
1761231901712002600,0.09900244140625,0.07280103231668472,-0.2155342635154724,0.5265832397306338
1761231901722071300,0.1090712890625,0.06747077720463275,-0.19845131902843713,0.5949553862217813
1761231901732141600,0.1191416015625,0.015626608198881148,-0.17165595882236956,0.6325888782411814
1761231901742210300,0.129210205078125,-0.04609072004556656,-0.12409575074613094,0.6543699174165726
1761231901752279600,0.139279541015625,-0.08057809605896472,-0.07106880169659853,0.6488591181058436
1761231901762349300,0.149349365234375,-0.09941548299789428,-0.062488897138833994,0.6508138323701917
1761231901772418600,0.15941845703125,-0.15851649126410483,-0.09885989494174718,0.7070347551554441
1761231901782487300,0.1694873046875,-0.21372867539823054,-0.09274550371468067,0.6919009719748049
1761231901792557600,0.1795576171875,-0.1665998444765806,-0.09443360293209552,0.6533568679165095
1761231901802626300,0.189626220703125,-0.1323456926971674,-0.12458528782874345,0.6109591206373647
1761231901812695600,0.199695556640625,-0.1840460693180561,-0.1627680112287402,0.5806792427837848
1761231901822765300,0.209765380859375,-0.1713017385572195,-0.1645265453338623,0.5275802879439666
1761231901832834600,0.21983447265625,-0.08720131359100342,-0.12709464030116796,0.4888041652280837
1761231901842903300,0.2299033203125,-0.06517945139706134,-0.17566431768089533,0.5075184007113799
1761231901852973600,0.2399736328125,-0.07015840885341167,-0.19954174461364746,0.529591189374961
1761231901863042300,0.250042236328125,-0.0014314941078424452,-0.15824030467122793,0.5255823555923999
1761231901873110300,0.2601103515625,0.046989130190014834,-0.11789134314805269,0.5360057325923815
1761231901883180300,0.27018017578125,0.05194938294589519,-0.12580313918590544,0.5585171684015542
1761231901893249300,0.280249267578125,0.10960428405702113,-0.16830431030690668,0.5744665422813967
1761231901903319300,0.2903193359375,0.11946925998926163,-0.21915800697058438,0.5677819864835589
1761231901913388300,0.30038818359375,0.1796937193274498,-0.23878274489492177,0.5052245176205411
1761231901923457300,0.310457275390625,0.17499883950948714,-0.21489538109004497,0.46330162131153046
1761231901933527300,0.32052734375,0.1319353583306074,-0.2040799725651741,0.43361521583907303
1761231901943596300,0.33059619140625,0.16023147848844527,-0.20209289040118456,0.4036516008604318
1761231901953665300,0.340665283203125,0.1421440331339836,-0.20464695879817008,0.36654732034690674
1761231901963735300,0.3507353515625,0.07613631421923638,-0.21801702024191616,0.3381391911819577
1761231901973804300,0.36080419921875,0.06619827305078506,-0.1833595483586192,0.2774798840904608
1761231901983873300,0.370873291015625,0.0850935276567936,-0.14668956760913132,0.18989322444368154
1761231901993943600,0.380943603515625,0.07395546304881573,-0.14610504571944474,0.11950140869319438
1761231902004012300,0.39101220703125,0.07586801867187022,-0.12916121744215486,0.06623692456074058
1761231902014081300,0.401081298828125,0.11299626458287239,-0.08862170178294182,0.026905579114891588
1761231902024151300,0.4111513671875,0.12300503289997577,-0.06333762292265892,0.02524327192585915
1761231902034220500,0.421220458984375,0.1289022742450237,-0.0712657855734229,0.0167901355529204
1761231902044289300,0.431289306640625,0.1927601216495037,-0.08045768454968928,-0.0033966567009687423
1761231902054359600,0.441359619140625,0.1800496931582689,-0.13482377324849365,0.0023420330815017223
1761231902064428300,0.45142822265625,0.17396774289608,-0.18472031531780958,-0.006905358941666781
1761231902074498300,0.461498291015625,0.16265432172119618,-0.16187369273751973,-0.06346749638002365
1761231902084567300,0.4715673828125,0.1808966653764248,-0.1413286250978708,-0.13425649475455284
1761231902094636500,0.481636474609375,0.17971359307169912,-0.13568798886239528,-0.16266564683280885
1761231902104706300,0.491706298828125,0.16262451110482215,-0.13562573728114366,-0.1685534992950037
1761231902114775300,0.501775390625,0.16631109066307545,-0.1431216459944844,-0.17609138398654758
1761231902124844300,0.51184423828125,0.18234803322851656,-0.14697101489901543,-0.18015340926107018
1761231902134914300,0.521914306640625,0.22258009037375448,-0.1709331975057721,-0.19239541652295739
1761231902144983300,0.5319833984375,0.23646833047270774,-0.21499562659412622,-0.22422318140566347
1761231902155052500,0.542052490234375,0.2594271812558174,-0.25589345417171716,-0.24652813485730438
1761231902165122300,0.552122314453125,0.34129707069098947,-0.28588293424397704,-0.27643643945213403
1761231902175191300,0.56219140625,0.35673078666627406,-0.3201522835925221,-0.2880873854856938
1761231902185260300,0.57226025390625,0.35823943766355515,-0.3341577203303575,-0.25822120299953966
1761231902195330300,0.582330322265625,0.37011049272119995,-0.32602555954009294,-0.22783969140239058
1761231902205399300,0.5923994140625,0.40005613365173337,-0.3461751981213689,-0.17312815026678144
1761231902215468300,0.60246826171875,0.4295025928884744,-0.3510422196358442,-0.17425028616450727
1761231902225538300,0.612538330078125,0.42417058421075343,-0.34552491751909253,-0.15569361586309968
1761231902235607300,0.622607177734375,0.3980021237313747,-0.37385844707787036,-0.1123098166886717
1761231902245677300,0.63267724609375,0.3203676799088716,-0.3888911810368299,-0.1217549597736448
1761231902255746300,0.642746337890625,0.2688561038583517,-0.4029416259601712,-0.13205226270854473
1761231902265815300,0.652815185546875,0.2936708116412163,-0.417571039815247,-0.12700630443058908
1761231902275885300,0.66288525390625,0.30261165846586224,-0.46286125713288784,-0.10250734806600957
1761231902285954300,0.672954345703125,0.31719489509165283,-0.5075891643926501,-0.06090915366671979
1761231902296023300,0.683023193359375,0.3663759823679924,-0.5509735480889678,-0.03614270547237247
1761231902306093600,0.693093505859375,0.3510924885183573,-0.5835621047437191,-0.06499982051383704
1761231902316162300,0.703162353515625,0.29278175384700295,-0.5702288681790232,-0.10843355977721511
1761231902326231300,0.713231201171875,0.22819500764608383,-0.5622232563778757,-0.09415186338126659
1761231902336301300,0.72330126953125,0.15325111808180808,-0.5749488824382424,-0.03569653260745108
1761231902346370600,0.73337060546875,0.08011106306910515,-0.5246721088796854,0.05595120246578007
1761231902356439300,0.743439208984375,0.08977320990562439,-0.5033852829620242,0.12967263756301253
1761231902366509300,0.75350927734375,0.08797054439783096,-0.4745610472768545,0.16772325901594012
1761231902376578300,0.763578369140625,0.03938859205842018,-0.44971769792139527,0.16164072423186152
1761231902386648300,0.7736484375,-0.0004161795854568481,-0.4337503134608269,0.14016849527731537
1761231902396717300,0.78371728515625,-0.10040098690390586,-0.36191695713251826,0.12928615899607537
1761231902406786600,0.79378662109375,-0.11434534110426903,-0.28214754710793494,0.0965316346572712
1761231902416856300,0.803856201171875,-0.09972001890242099,-0.2228866721048951,0.05401957681607455
1761231902426925300,0.81392529296875,-0.10918985803723334,-0.2174272376552224,0.029088074253126976
1761231902436994300,0.823994384765625,-0.0864478648751974,-0.17370207769721746,-0.001807524346001446
1761231902447064300,0.834064208984375,-0.04836626376211643,-0.10004559759497642,-0.033517982991971076
1761231902457133300,0.84413330078125,-0.016311667853593826,-0.07613163804411888,-0.052427010395005344
1761231902467202300,0.854202392578125,-0.03879471781849861,-0.06226327168941497,-0.08039780758861452
1761231902477272300,0.864272216796875,-0.02004968533813953,-0.03165039902180433,-0.09564849514719098
1761231902487341300,0.87434130859375,0.03179915984272957,0.007624211268126964,-0.11640753433108329
1761231902497410300,0.884410400390625,0.026691023048758505,-0.0017708090648055075,-0.10612089892067014
1761231902507480300,0.894480224609375,-0.013348141872882842,-0.01731792228668928,-0.05209708432089537
1761231902517549300,0.90454931640625,-0.019420739784836768,-0.020670447584986686,-0.0197173115786165
1761231902527619300,0.914619384765625,-0.03703355336487293,-0.07333937697708606,-0.014025602743029594
1761231902537688300,0.924688232421875,-0.07937105835676193,-0.16201953094899654,0.01895034579411149
1761231902547757300,0.93475732421875,-0.0762350984185934,-0.23320786737203597,0.05510229401886463
1761231902557827300,0.944827392578125,0.004964344409108161,-0.26459406249970197,0.04848817310873419
1761231902567896300,0.954896240234375,-0.000339022696018219,-0.3268251854851842,0.05398150982800871
1761231902577965300,0.96496533203125,0.009252396991848945,-0.36352556137293573,0.10464943812862038
1761231902588035300,0.975035400390625,0.05136427653431892,-0.3358703694671392,0.09148490919433534
1761231902598104300,0.985104248046875,0.12363573201894759,-0.3090387689039111,0.034796478495188056
1761231902608173300,0.99517333984375,0.08884966531991959,-0.23948212533593177,-0.03276573985256254
1761231902618243300,1.005243408203125,0.013591302978992461,-0.08086129691451788,-0.05755896645598113
1761231902628312300,1.015312255859375,-0.1319049631923437,0.033926234999299046,-0.024821502849832176
1761231902638381300,1.02538134765625,-0.25196459029018875,0.1424377553835511,0.022835955055803058
1761231902648451300,1.035451416015625,-0.27199206379652024,0.28649054474830626,0.024020488665252922
1761231902658520600,1.0455205078125,-0.288850259616971,0.3910483590707183,0.04523205738961696
1761231902668589300,1.05558935546875,-0.24180443080365657,0.3989510950192809,0.05055098739005625
1761231902678659300,1.065659423828125,-0.16742928103804589,0.3884109963044524,0.012354016268998383
1761231902688728300,1.075728271484375,-0.046214638686180115,0.3522425353363156,-0.06333579629175365
1761231902698798300,1.08579833984375,0.09679565588831901,0.3457204400911927,-0.21595358490608632
1761231902708867300,1.095867431640625,0.19620354010164737,0.3301780030444264,-0.30337445953190323
1761231902718936300,1.105936279296875,0.18387538892626762,0.27539193536788226,-0.34058877629116174
1761231902729006300,1.11600634765625,0.22309505415856837,0.19207184712439773,-0.5195818000033497
1761231902739075300,1.126075439453125,0.24014906481206416,0.3613122692376375,-0.5956739097546786
1761231902749144300,1.136144287109375,0.1472802269786596,0.42286505457013845,-0.3973174294028431
1761231902759214300,1.14621435546875,0.11220073029100894,-0.004211480215191841,-0.35075156612619757
1761231902769283300,1.156283447265625,0.26563714181184767,-0.03213935158252716,-0.37245574067309495
1761231902779352300,1.166352294921875,0.32366905954182146,0.08718202436864375,-0.5225834660373628
1761231902789422300,1.17642236328125,0.09989712903499602,0.03982113825678825,-0.595778027716279
1761231902799491300,1.1864912109375,0.0228963069409132,-0.002112462109327316,-0.5947763033278286
1761231902809561300,1.196561279296875,0.1459171219319105,-0.0528837411865592,-0.6339182271488011
1761231902819630300,1.20663037109375,0.12440905447900294,-0.06358078402876853,-0.5761005366913974
1761231902829699300,1.21669921875,0.14488310270905494,-0.13254384561777113,-0.5213201681032776
1761231902839769300,1.226769287109375,0.20181202763319014,-0.24838439371585844,-0.5050742589622735
1761231902849838300,1.23683837890625,0.22624212001264093,-0.30432313855886456,-0.4704977433606982
1761231902859907300,1.2469072265625,0.17915946632027624,-0.3637529403880238,-0.40823520232364535
1761231902869977900,1.256977783203125,0.17949556640684602,-0.45314796463102097,-0.34620617778152224
1761231902880046800,1.267046875,0.15513970830738544,-0.5017968447268009,-0.2867277145050466
1761231902890115800,1.27711572265625,0.07011866136491299,-0.4525397696048021,-0.17266455134302378
1761231902900185900,1.287185791015625,-0.008960136047005653,-0.3956616980850696,-0.08290770805031061
1761231902910254800,1.2972548828125,-0.026033435922861097,-0.29836393789350985,-0.04497252967059612
1761231902920323800,1.30732373046875,-0.013614099332690238,-0.17663783888816834,-0.04562456383854151
1761231902930393900,1.317393798828125,-0.05814122332334518,-0.10203940176069735,0.016020137561112643
1761231902940462800,1.327462890625,-0.11714286286830901,-0.08196487424224615,0.11263956009969114
1761231902950532900,1.337532958984375,-0.10333294870257377,-0.04939093063473701,0.1602627504095435
1761231902960601900,1.347601806640625,-0.0700742377012968,-0.01902121907323599,0.1507278832145035
1761231902970670800,1.3576708984375,-0.09412848250567912,-0.010861293493211268,0.14738631770163774
1761231902980740900,1.367740966796875,-0.1884592095851898,-0.06134995623677968,0.2367955166004598
1761231902990809900,1.377809814453125,-0.24540274755656719,-0.06613192981630564,0.3315092516481876
1761231903000878800,1.38787890625,-0.24738310771882532,-0.004976911629736423,0.3345490577355027
1761231903010948900,1.397948974609375,-0.21894261065423487,0.0017938976794481276,0.3285186915300786
1761231903021017900,1.408017822265625,-0.18893267231583594,-0.009468377830088137,0.314247005071491
1761231903031086800,1.4180869140625,-0.15334639514982698,0.008279460306465626,0.3095513946011662
1761231903041156900,1.428156982421875,-0.08406418460905551,0.001443184545636177,0.2885598983682692
1761231903051225900,1.438225830078125,0.00575870965719223,-0.042785541020333766,0.23763635133877395
1761231903061295900,1.4482958984375,0.018703531426191328,-0.040294893248379225,0.18748451933413743
1761231903071364900,1.45836474609375,0.00009118541479110717,-0.011012684662640094,0.21163988642543552
1761231903081433900,1.468433837890625,-0.02031564279794693,-0.009396481637656688,0.27449425587579607
1761231903091503900,1.47850390625,0.02651391291618347,0.00516571220010519,0.27225173764601346
1761231903101572900,1.48857275390625,0.0567506457477808,0.04722469251155853,0.24934374026730655
1761231903111641900,1.498641845703125,0.09593056349158287,0.05470861852616071,0.2603440038397908
1761231903121711600,1.508711669921875,0.10639350531697273,0.070784431797266,0.2698781403824687
1761231903131780900,1.51878076171875,0.10626491050124168,0.140414432862401,0.2477231533281505
1761231903141849900,1.528849853515625,0.05541325966417789,0.23271306959241628,0.2890380372740328
1761231903151919900,1.538919921875,-0.04567454046010971,0.28613720126599074,0.37602556198388337
1761231903161988600,1.548988525390625,-0.11289514229595661,0.3316650267317891,0.41940380820035933
1761231903172057900,1.559057861328125,-0.10640519575476645,0.37054099309295413,0.40973742358013987
1761231903182127900,1.5691279296875,-0.1261199500501156,0.397173563952744,0.3779011465974152
1761231903192196900,1.57919677734375,-0.13818039020001888,0.3944125748068094,0.3322185689613223
1761231903202267000,1.589266845703125,-0.13245967446565626,0.38997108522802587,0.27539807284772394
1761231903212335900,1.5993359375,-0.11846095972955226,0.37513591966778037,0.25208237145096063
1761231903222404900,1.60940478515625,-0.13587678943276404,0.32575288007855413,0.2582229200325906
1761231903232475000,1.619474853515625,-0.12623159373104573,0.28726825112253423,0.2707026085078716
1761231903242543900,1.6295439453125,-0.06449088461101055,0.28867051913589237,0.2396687339492142
1761231903252612900,1.63961279296875,-0.03634264849126339,0.28798692078590393,0.25372151696011425
1761231903262683000,1.649682861328125,-0.02513794838786125,0.26284283491820093,0.3006694383569062
1761231903272751900,1.659751953125,-0.04604395829439163,0.21433979303389786,0.3320579715721309
1761231903282820900,1.66982080078125,-0.04503916516602039,0.18524112432152032,0.31504882297366854
1761231903292891000,1.679890869140625,-0.026412206107378003,0.2160892670497298,0.26651129429787396
1761231903302959900,1.6899599609375,0.01594458810687065,0.24225860431194304,0.2761038830295205
1761231903313030000,1.70002978515625,-0.006995557975769042,0.20464900462478397,0.28391367999762296
1761231903323099000,1.710098876953125,0.06337503232359885,0.09845540579408407,0.24262334597110746
1761231903333167900,1.72016796875,0.10424363380670547,0.02751432213038206,0.15839929462522268
1761231903343238000,1.73023779296875,0.15510405247211456,0.003818681505322456,0.1242507951773703
1761231903353307000,1.740306884765625,0.24250761063694953,0.034768238781392576,0.0494556664340198
1761231903363375900,1.7503759765625,0.24859715968370436,0.05670651434510946,0.0170250768199563
1761231903373445600,1.760445556640625,0.2389712532043457,0.03678308573514223,0.03109218061715364
1761231903383515000,1.770514892578125,0.4076636860460043,0.0531342088162899,0.010580869116634129
1761231903393583900,1.780583984375,0.7420791805297136,-0.015666355687379837,0.17500541538074613
1761231903403654000,1.79065380859375,-0.16650632097423076,-0.2152460942238569,0.4130146916851401
1761231903413723000,1.800722900390625,0.3904395795226097,-0.23024697173982858,0.140800509570539
1761231903423791900,1.8107919921875,0.4010574196487665,-0.012124153035879135,-0.05787278164550662
1761231903433861600,1.820861572265625,0.27066227649748326,-0.0979264134839177,-0.019850217243283987
1761231903443931000,1.830930908203125,0.23221418015956877,-0.1570169003561139,-0.08252513847351074
1761231903454001000,1.8410009765625,0.22023323498666286,-0.15246990457624196,-0.21337503965497015
1761231903464070000,1.85106982421875,0.23916706803739068,-0.21543957096934319,-0.26088790145814417
1761231903474138600,1.861138671875,0.2701145794868469,-0.32773440928459163,-0.24764146639406678
1761231903484209000,1.871208984375,0.19239596451222896,-0.3809384684666991,-0.21244564985036848
1761231903494278000,1.88127783203125,0.05751520037949085,-0.421894163711369,-0.1447154910571873
1761231903504347000,1.891346923828125,0.06312310338914394,-0.4683057862743735,-0.07144348022788763
1761231903514417000,1.9014169921875,0.0723486123740673,-0.49391690513193603,-0.05511573802232742
1761231903524486000,1.91148583984375,0.10162731382846832,-0.5133072497785091,-0.07613850617632269
1761231903534555000,1.921554931640625,0.17440671883523462,-0.5349927196249366,-0.09347001859694719
1761231903544625000,1.931625,0.14853285738825797,-0.5336567948460579,-0.12767828540802
1761231903554694000,1.94169384765625,0.19060265135467053,-0.4691065812632441,-0.16525456734746694
1761231903564764000,1.951763916015625,0.23733517643511293,-0.3965943027600646,-0.182788324341923
1761231903574833000,1.9618330078125,0.26444121002554893,-0.3775716223821044,-0.14746815076619385
1761231903584902000,1.97190185546875,0.27445640808343885,-0.35747283720523115,-0.11317279019355773
1761231903594972000,1.981971923828125,0.25263620594143865,-0.34886809046715495,-0.10019508906826376
1761231903605041000,1.992041015625,0.19341127903461455,-0.3342120808660984,-0.11913549799025058
1761231903615110000,2.00210986328125,0.16479542540311812,-0.28380437440425155,-0.1592196710973978
1761231903625179600,2.0121796875,0.11915244912505149,-0.24985826566070315,-0.18030425244122741
1761231903635249000,2.022248779296875,0.06850713451504707,-0.23799743973612783,-0.17629311710372567
1761231903645318000,2.03231787109375,0.06854688200354575,-0.2333282788813114,-0.18629370211437343
1761231903655388000,2.042387939453125,0.06292553499042987,-0.23844518350362776,-0.20942367168068884
1761231903665457000,2.052456787109375,-0.004179331511259079,-0.26973873191177844,-0.19919015469700097
1761231903675527000,2.06252685546875,-0.020829437538981435,-0.28237872551530596,-0.17435688834413884
1761231903685595600,2.072595703125,0.014249474626779555,-0.2538411978170276,-0.19409867677688597
1761231903695665000,2.082664794921875,0.0729547615736723,-0.2506874099612236,-0.19236440033018587
1761231903705734700,2.092734619140625,0.11548223617970943,-0.3132750912994146,-0.1538007147885859
1761231903715804000,2.102803955078125,0.1533814664632082,-0.3962307301446795,-0.11270634172558784
1761231903725872600,2.11287255859375,0.17370412352383136,-0.457726524592936,-0.10176394582018256
1761231903735943000,2.12294287109375,0.20993805094361304,-0.4790028291165828,-0.09898878201842308
1761231903746011600,2.13301171875,0.21951310401856897,-0.49655602146387096,-0.07697451860904693
1761231903756081000,2.143080810546875,0.18078852882683277,-0.5047460499212145,-0.043750586660206314
1761231903766151000,2.15315087890625,0.17129647786021232,-0.4792416063085198,-0.05581657976806163
1761231903776220000,2.163219970703125,0.17053718392550946,-0.4263052581518888,-0.031964141146093604
1761231903786290000,2.1732900390625,0.14937866056263446,-0.3797103879764676,-0.003193243083357811
1761231903796359000,2.18335888671875,0.12612579526901244,-0.3389262499064207,0.018649901542812583
1761231903806428000,2.193427978515625,0.11338029546439647,-0.2887690110743046,0.04528846375197172
1761231903816498000,2.203497802734375,0.07917465900182724,-0.28683132100999353,0.08108275764547287
1761231903826567000,2.21356689453125,0.02965805616080761,-0.2931476645499468,0.12267558174990117
1761231903836636000,2.223635986328125,0.022477789267897605,-0.2576595870614052,0.12129326054602861
1761231903846706000,2.233705810546875,0.01863105071187019,-0.2068295635342598,0.10021941979192196
1761231903856775000,2.24377490234375,0.0023708207845687863,-0.17925386660546064,0.11988346681334078
1761231903866844000,2.253843994140625,-0.010620178213715553,-0.11196692153513431,0.13221702481620012
1761231903876913700,2.26391357421875,-0.03629237960875034,-0.054853287693858145,0.1266298723336309
1761231903886982700,2.273982666015625,-0.10591478188931941,-0.0007741992428898811,0.1709413808122277
1761231903897052700,2.284052734375,-0.16497428910136222,0.06840425866246223,0.24747188198082148
1761231903907121700,2.29412158203125,-0.15372458081245421,0.11272709225267172,0.2850257328927517
1761231903917191000,2.30419091796875,-0.1391208859205246,0.0896741334453225,0.3383404128424823
1761231903927260700,2.3142607421875,-0.15771744984090327,0.05429214667975902,0.3751125387921929
1761231903937329700,2.32432958984375,-0.16632687275409697,0.051015024705231185,0.4045073409069329
1761231903947398700,2.334398681640625,-0.15980477750897407,0.04222469226717949,0.41699930434189736
1761231903957468700,2.34446875,-0.1183282732605934,0.07455752059519291,0.3803705323856324
1761231903967537700,2.35453759765625,-0.04265022420287132,0.10010901822000741,0.3630676615376025
1761231903977606700,2.364606689453125,0.004258826488256455,0.07210720483362675,0.38351876728348433
1761231903987676700,2.3746767578125,0.02496025373339653,0.03253039672672749,0.4253791562829166
1761231903997745700,2.38474560546875,0.08386135551333426,0.044370179863274094,0.40764936525970696
1761231904007815700,2.394815673828125,0.11713584860563278,0.051010640791058534,0.412713151455298
1761231904017884700,2.404884765625,0.1262578972160816,0.04850216510146856,0.41745033604502674
1761231904027953700,2.41495361328125,0.09321779740154743,0.06643558893799781,0.46179954618550834
1761231904038023700,2.425023681640625,0.013886486533284186,0.07609861255735159,0.5151897025242448
1761231904048092700,2.4350927734375,-0.01577858389019966,0.09600684359818697,0.5420509675733745
1761231904058161700,2.44516162109375,-0.037462592431902884,0.17504267865121365,0.5728144276928157
1761231904068232000,2.45523193359375,-0.048264556953310965,0.18226064720600843,0.5883293191455304
1761231904078300700,2.46530078125,-0.0020879121899604796,0.19507658189833163,0.579761251156032
1761231904088369700,2.47536962890625,0.035218612897396084,0.23096856401264665,0.5608480225019157
1761231904098439700,2.485439697265625,0.06554010140299797,0.24084376907795665,0.5154600438982248
1761231904108509000,2.495509033203125,0.11437865885198116,0.21407500461786985,0.4844284343618899
1761231904118578700,2.50557861328125,0.09152619105279446,0.14691460853666066,0.48488026978261767
1761231904128647700,2.515647705078125,0.11521160254478453,0.0600268909394741,0.5573260589208453
1761231904138716700,2.525716552734375,0.14722528192102907,0.039786066943407056,0.56681262999475
1761231904148786700,2.53578662109375,0.1949643536955118,0.05581511846333742,0.5025598649885505
1761231904158855700,2.545855712890625,0.26993396222293375,0.03094546562284231,0.4646784626226872
1761231904168925000,2.555925048828125,0.2952648028343916,0.029663901379704472,0.433184057880193
1761231904178994700,2.56599462890625,0.36642508220672604,0.009266717778146267,0.3880632057800889
1761231904189063700,2.576063720703125,0.398128380459547,-0.006129588796198368,0.3764456870920956
1761231904199132700,2.586132568359375,0.43500119030475615,-0.05227525389939546,0.39059009390920396
1761231904209202700,2.59620263671875,0.4530599940866232,-0.11447948887795209,0.4072454606339335
1761231904219271700,2.606271728515625,0.5059446120560169,-0.13603753295242785,0.4081907786600292
1761231904229341700,2.616341796875,0.5183510891646147,-0.1589490374624729,0.3884407338555902
1761231904239410700,2.62641064453125,0.485923568290472,-0.19270517659187317,0.44024961235225196
1761231904249479700,2.636479736328125,0.40070670651495455,-0.21639117260575294,0.48965362166427073
1761231904259549700,2.6465498046875,0.38042847311794753,-0.23169220211207867,0.5143045902527869
1761231904269618700,2.65661865234375,0.3597866671055555,-0.2824360086604953,0.5093011559423058
1761231904279687700,2.666687744140625,0.2951099045336246,-0.3636372050538659,0.49158100953027606
1761231904289757700,2.6767578125,0.28331717540919776,-0.41801849132180213,0.47365277332551775
1761231904299826700,2.68682666015625,0.26927228344380855,-0.42642157800793645,0.4512942265231162
1761231904309895700,2.696895751953125,0.2662807004123926,-0.43253187758177514,0.4364125184074044
1761231904319965700,2.706965576171875,0.23552549666464329,-0.4350771781504154,0.4509287176789716
1761231904330034700,2.71703466796875,0.2423345921576023,-0.43325054724514483,0.4597198903672397
1761231904340104700,2.727104736328125,0.24709435390532014,-0.43709085606038567,0.454741846226342
1761231904350173700,2.737173583984375,0.2681464942842722,-0.44161447096467016,0.4624901222655549
1761231904360242700,2.74724267578125,0.27348434818089007,-0.43983343276679515,0.47478170429021116
1761231904370312700,2.757312744140625,0.2679354818820953,-0.4254477645397186,0.4808816286005079
1761231904380381700,2.767381591796875,0.29824294186234473,-0.43094753099977967,0.4783585398636758
1761231904390450700,2.77745068359375,0.3048328416466713,-0.42322248970568177,0.47252464607842265
1761231904400520700,2.787520751953125,0.30002865623533725,-0.4388254247680306,0.4792353592308238
1761231904410589700,2.797589599609375,0.3084258977025747,-0.4869739541262388,0.48753513167295603
1761231904420659000,2.807658935546875,0.30487025104761123,-0.5145888140216469,0.4786723185205832
1761231904430728700,2.817728759765625,0.2836404160141945,-0.5258475823998451,0.4421701686186716
1761231904440797700,2.827797607421875,0.23543138864040372,-0.5488362437993288,0.4290309567887336
1761231904450867700,2.83786767578125,0.19099018936753273,-0.5933820724904537,0.43863381118606776
1761231904460936700,2.847936767578125,0.1449666893392801,-0.615179770539701,0.4381475985717028
1761231904471005700,2.858005615234375,0.15327274539172647,-0.5918287055686116,0.3797457150181755
1761231904481075700,2.86807568359375,0.1344844582915306,-0.6153603878036141,0.34984964885041114
1761231904491144700,2.878144775390625,0.07463526200652122,-0.656001025749743,0.37425665261521934
1761231904501213700,2.888213623046875,0.07146364623308181,-0.6960781845942139,0.4107813796751201
1761231904511283700,2.89828369140625,0.11147592314779758,-0.7101993566662073,0.42205728185120966
1761231904521352700,2.908352783203125,0.13322306005358694,-0.704867640249431,0.4544615314476192
1761231904531421700,2.918421630859375,0.14906944848299025,-0.7036772614210843,0.5230581708770246
1761231904541491700,2.92849169921875,0.1910252606809139,-0.7173392915487289,0.5932173469154164
1761231904551560700,2.938560791015625,0.22963117792904375,-0.767588008056581,0.6151905111294239
1761231904561630700,2.948630615234375,0.2255208200007677,-0.823142722018063,0.6313499840959906
1761231904571699700,2.95869970703125,0.19430559752583504,-0.8818284274816512,0.6473391419969499
1761231904581768700,2.968768798828125,0.21029986999332903,-0.9193725607171654,0.6614524960886686
1761231904591838700,2.978838623046875,0.21474925061762332,-0.934573052458465,0.7044779102794826
1761231904601907700,2.98890771484375,0.23393092094957826,-1.01188717828542,0.7798460166051984
1761231904611976700,2.998976806640625,0.23239245933592317,-1.0637614501684904,0.8073691796291619
1761231904622046700,3.009046630859375,0.20196517236828804,-1.0726812542051076,0.7865562548335641
1761231904632115700,3.01911572265625,0.16409750626683234,-1.1198992247149349,0.7466332636374979
1761231904642184700,3.029184814453125,0.06775251675546169,-1.168297929441929,0.6872751388050615
1761231904652254700,3.039254638671875,-0.11236673450767994,-1.1064008607164024,0.6245378198631107
1761231904662323700,3.04932373046875,-0.31518764692246914,-0.9246332577243447,0.5262406368380412
1761231904672393700,3.059393798828125,-0.4842120881974697,-0.7143056229412555,0.47083022671807556
1761231904682462700,3.069462646484375,-0.5153975000560284,-0.4640463752642274,0.43722642860617483
1761231904692531700,3.07953173828125,-0.5071890591591597,-0.2190595150321722,0.3734557114958763
1761231904702601700,3.089601806640625,-0.5222516037344932,-0.028069910186529157,0.3249766715416685
1761231904712670700,3.099670654296875,-0.455607925003767,0.15550795709788798,0.2869030528056435
1761231904722739700,3.10973974609375,-0.3342904067993164,0.2938400307282805,0.23016289191925896
1761231904732809700,3.119809814453125,-0.2093558671414852,0.37005847027301786,0.18914293579934163
1761231904742878700,3.129878662109375,-0.03407178094983101,0.3903425488889217,0.22215441230759023
1761231904752948700,3.13994873046875,0.15873451792895793,0.33288638522028924,0.2801984953993931
1761231904763017700,3.150017822265625,0.3741729198545217,0.2513943891867995,0.3273560044262558
1761231904773086700,3.160086669921875,0.6066331837296486,0.1702054677531123,0.3381924922717735
1761231904783156700,3.17015673828125,0.7979676564902066,0.10038578933477402,0.2822484501991421
1761231904793225700,3.180225830078125,0.9549772503226995,0.09250292713046074,0.22196868047714233
1761231904803294700,3.190294677734375,1.043504259559512,0.12831629105061293,0.21392715711239724
1761231904813364700,3.20036474609375,1.0339882431954144,0.18941694870144127,0.21138298905491829
1761231904823433700,3.210433837890625,1.0011784450054169,0.26448183429688216,0.22234516737302765
1761231904833502700,3.220502685546875,0.9696621937572956,0.36595541886836286,0.2123572774471715
1761231904843572700,3.23057275390625,0.9113467829108237,0.49450902580618855,0.1516920338052325
1761231904853641700,3.240641845703125,0.77649524487257,0.5480725659504533,0.1419032283817418
1761231904863711700,3.250711669921875,0.6037760407328605,0.4804232173085212,0.12600688159707932
1761231904873781000,3.260781005859375,0.4359083682775497,0.3937199163675308,0.057671925311163066
1761231904883850000,3.27085009765625,0.32339082712233064,0.4122866696715355,-0.12744661381030453
1761231904893920000,3.280919921875,0.27707681971490383,0.5022065945714712,-0.33104583538752047
1761231904903988700,3.29098876953125,0.1518032573610544,0.5473781539455056,-0.4659278781618923
1761231904914058000,3.30105810546875,0.038517654442787166,0.5850725093066692,-0.5518020348023623
1761231904924127700,3.311127685546875,-0.08129530441761017,0.6381935663804411,-0.6087870372952893
1761231904934197000,3.321197021484375,-0.2281342173695564,0.6767801944062113,-0.6110820163646713
1761231904944265700,3.331265625,-0.3462187450021505,0.7401134334146976,-0.5756283160697668
1761231904954336000,3.3413359375,-0.4453612562775612,0.798250565084815,-0.5292214792797342
1761231904964404700,3.35140478515625,-0.5600947199165821,0.7796487404674292,-0.4529473274923861
1761231904974475000,3.36147509765625,-0.6707751087725162,0.7105199669227004,-0.38418271108493207
1761231904984543700,3.371543701171875,-0.7192015782892703,0.6207742295458912,-0.3604766221310943
1761231904994613000,3.381613037109375,-0.7059463753968477,0.4806137714445591,-0.3186601453386247
1761231905004682800,3.391682861328125,-0.6778425629407167,0.2445192427203059,-0.298161949048005
1761231905014752000,3.401751953125,-0.7305512398213148,0.08390081074088811,-0.35276180997006595
1761231905024820700,3.41182080078125,-0.727290776720643,0.025975568255782126,-0.5061372120186686
1761231905034891000,3.42189111328125,-0.6009808570563793,-0.01733662698715925,-0.6718701374676078
1761231905044959700,3.431959716796875,-0.5133657019674778,-0.03899287073910236,-0.8100729586951434
1761231905055029000,3.442029052734375,-0.392611662864685,-0.06117781454026699,-0.9070612145461141
1761231905065099000,3.45209912109375,-0.2980231616318226,-0.1518120251893997,-0.9445832090150564
1761231905075168000,3.46216796875,-0.20382570554316043,-0.24729426039159297,-0.9389347547993063
1761231905085238000,3.472238037109375,-0.10392565389871597,-0.30916853276342154,-0.921513883594796
1761231905095306800,3.482306640625,-0.03798866213262081,-0.35545009920597076,-0.8615911106169223
1761231905105375700,3.492375732421875,0.023342297142744065,-0.42584845429509877,-0.7582657606989145
1761231905115445800,3.50244580078125,0.07902443687617779,-0.4243076545938849,-0.6873232887957245
1761231905125515000,3.512514892578125,0.1326414607733488,-0.39252076971083877,-0.6266343537509441
1761231905135584000,3.522583984375,0.19525135394334792,-0.37013007420450444,-0.5355615324888378
1761231905145654000,3.532654052734375,0.20939386106431482,-0.3576128301978111,-0.4476325622104108
1761231905155722800,3.54272265625,0.20693010129928588,-0.3473252449393272,-0.36553120210692286
1761231905165793000,3.55279296875,0.22564824577271936,-0.34555355909168717,-0.2732238340811804
1761231905175861800,3.56286181640625,0.26109716029465196,-0.28648031561523674,-0.20766382240131495
1761231905185931000,3.572930908203125,0.3436708140850067,-0.2629606160789728,-0.11225648819939232
1761231905196000800,3.583000732421875,0.4091530478209257,-0.3204167797476053,-0.004935173113550991
1761231905206070000,3.593070068359375,0.49792964790463445,-0.3730918466195464,0.09061130469758064
1761231905216138800,3.603138671875,0.564815318697691,-0.4022124349027872,0.18487627306450158
1761231905226209000,3.613208984375,0.6136836867630482,-0.43095951369851826,0.2868978834401816
1761231905236277800,3.62327783203125,0.6453431458741427,-0.4478159559533,0.3965202146105468
1761231905246347000,3.633346923828125,0.665064914432168,-0.4429097714722156,0.4754999720947817
1761231905256416800,3.643416748046875,0.6910954277455806,-0.4046463840514421,0.5191030400430783
1761231905266486000,3.653486083984375,0.6097726507991552,-0.41150341033935545,0.5953139904011041
1761231905276555800,3.6635556640625,0.5370253944963217,-0.45821080097854133,0.6520766919128597
1761231905286625000,3.673625,0.533171641677618,-0.4636673128187656,0.6094433092469349
1761231905296693800,3.68369384765625,0.4625491224437952,-0.4744233923718333,0.5334988643379882
1761231905306763800,3.693763671875,0.3885971665263176,-0.5098977335959672,0.47735371020268647
1761231905316832800,3.703832763671875,0.31407004106938835,-0.5430035921230912,0.39359026210587467
1761231905326902000,3.713902099609375,0.2632125450134277,-0.5806701826944947,0.2651599162215367
1761231905336972000,3.723971923828125,0.21034721626639366,-0.6165834998577833,0.09763955936655401
1761231905347040800,3.734040771484375,0.2101660144805908,-0.648275984455645,-0.07679298802968114
1761231905357111000,3.744111083984375,0.2229810723900795,-0.6420671929433941,-0.2200202863557264
1761231905367179800,3.7541796875,0.20385843876898288,-0.6317202787131071,-0.3170919461738318
1761231905377248800,3.764248779296875,0.1836222909480333,-0.6872399213612079,-0.3745568046055734
1761231905387318800,3.77431884765625,0.21245967837572097,-0.7675088053405285,-0.41838586332947014
1761231905397388000,3.784387939453125,0.20831541817784308,-0.8007353676378727,-0.39557409286685286
1761231905407456800,3.794456787109375,0.24093875388503072,-0.8505091601103544,-0.3673056644335389
1761231905417527000,3.804527099609375,0.29919688158631325,-0.86566113653481,-0.3837493611689657
1761231905427595800,3.814595703125,0.3236433405786753,-0.8535501352414488,-0.42361200047992165
1761231905437665000,3.8246650390625,0.32723230498135086,-0.8564411805078387,-0.46589470654465254
1761231905447734800,3.83473486328125,0.3511480180978775,-0.8704071620181202,-0.5266911936171352
1761231905457804000,3.844803955078125,0.3733540046870708,-0.8489499479696154,-0.5959140021208673
1761231905467873800,3.854873779296875,0.35525253080725666,-0.8090165815100073,-0.6332686041336506
1761231905477943000,3.864943115234375,0.38798867923915387,-0.7788698650494218,-0.6653487728748471
1761231905488011800,3.87501171875,0.3638806584209204,-0.7752920065626502,-0.6599313509359955
1761231905498082000,3.88508203125,0.3518284015774727,-0.8194792310744523,-0.6408159507732838
1761231905508150800,3.89515087890625,0.3571861292183399,-0.8506015145689249,-0.6556885987997054
1761231905518220000,3.905219970703125,0.33028760089874265,-0.8624699392780661,-0.7094064527228474
1761231905528289800,3.915289794921875,0.3594213409245014,-0.8702282983198761,-0.7825563715424388
1761231905538359000,3.925359130859375,0.2834539535313845,-0.9132768741905689,-0.8094184403091669
1761231905548428800,3.9354287109375,0.25611352666318415,-0.9757038120090961,-0.7541136094555259
1761231905558497800,3.945497802734375,0.19177812487483023,-1.0131935847088693,-0.6713141840852797
1761231905568566800,3.95556689453125,0.09611819501817226,-1.079389227411151,-0.5589975723296403
1761231905578636800,3.96563671875,0.010010521882772445,-1.1570958596870302,-0.4550944955889135
1761231905588705800,3.975705810546875,-0.13979191704988478,-1.155870701806247,-0.42847967958152294
1761231905598774800,3.98577490234375,-0.39106852507591244,-1.069036175701022,-0.447343589201197
1761231905608845000,3.995844970703125,-0.6263169583648442,-0.9567118190303444,-0.49032487198933955
1761231905618913800,4.005913818359375,-0.8077133899569511,-0.6887117474794388,-0.6176615043528377
1761231905628982800,4.015982666015625,-0.8556821788340806,-0.29588965673446654,-0.7924838182516396
1761231905639052800,4.026052734375,-0.8516115683943033,0.07592091790288687,-0.8665608618535101
1761231905649122000,4.0361220703125,-0.8005167564511299,0.33902211149632927,-0.8618852712579071
1761231905659191800,4.04619189453125,-0.6949649626553058,0.5452160074755549,-0.8453438132364303
1761231905669261000,4.056260986328125,-0.7040466792553662,0.7084913837045431,-0.7828368689842522
1761231905679329800,4.066329833984375,-0.8098585852921009,0.7350634565487504,-0.6049658350393176
1761231905689400000,4.076400146484375,-0.8989443974554538,0.6549541470453143,-0.3837839940909296
1761231905699468800,4.08646875,-0.851330413365364,0.5880597084239125,-0.2572778212022036
1761231905709538000,4.0965380859375,-0.8035784821093082,0.5819999699935317,-0.2121027546968311
1761231905719607800,4.10660791015625,-0.6921686099350453,0.5711524127647281,-0.21395685813091694
1761231905729677000,4.116677001953125,-0.5924105971097946,0.5949550208956003,-0.22285591164045035
1761231905739745800,4.126745849609375,-0.4575017759263515,0.6510393116891384,-0.24467815960906444
1761231905749816000,4.136816162109375,-0.33376024544537064,0.7026397350668907,-0.2614012578077614
1761231905759884800,4.146884765625,-0.25329437758922574,0.7012737074106932,-0.24881094856485722
1761231905769954800,4.156954833984375,-0.2036445037573576,0.6689721510037779,-0.22068032116703687
1761231905780023800,4.16702392578125,-0.11909867311120033,0.6744573044165969,-0.22622597259543833
1761231905790093000,4.177093017578125,-0.09498480707406998,0.7257201664030551,-0.21890213251337406
1761231905800162800,4.187162841796875,-0.05653846430182457,0.7694315900966525,-0.24193302561938762
1761231905810231800,4.197231689453125,-0.02443944472968578,0.8210659157440066,-0.258353706805408
1761231905820300800,4.20730078125,-0.01615676955282688,0.923983561643958,-0.301568725284189
1761231905830370800,4.217370849609375,0.04670271446406841,0.9483221763476729,-0.29381233900375664
1761231905840439800,4.227439697265625,0.10023439816534518,0.928573519782722,-0.2717714798483997
1761231905850509800,4.237509765625,0.12010697337090968,0.9218769447535275,-0.1990890324100852
1761231905860578800,4.247578857421875,0.17392682636380194,0.9600108605757355,-0.10995419347323476
1761231905870648600,4.257648681640625,0.22894261114299297,0.988781320247054,0.010735109830275178
1761231905880718600,4.267718505859375,0.2354460016876459,0.9632695701107382,0.16863741471879184
1761231905890787600,4.27778759765625,0.2361696397870779,0.9033180824950336,0.34926702665686604
1761231905900856600,4.287856689453125,0.2662596576243639,0.8955518324077129,0.4481612622596323
1761231905910926600,4.297926513671875,0.26495909641981125,0.8428624447494745,0.5490127694100141
1761231905920995600,4.30799560546875,0.2776443904697895,0.7537386386632919,0.6191784847870468
1761231905931064600,4.318064697265625,0.2529793202906847,0.7897504477649927,0.6039487669512629
1761231905941134600,4.328134521484375,0.22875731770396232,0.7787029840499162,0.66581631732136
1761231905951203600,4.33820361328125,0.18068389940857887,0.74040744792521,0.6916703050240874
1761231905961273600,4.348273681640625,0.1327893448114395,0.764106011159718,0.6483189468145371
1761231905971342600,4.358342529296875,0.09767068515717983,0.8188891562268138,0.6119624159283936
1761231905981411600,4.36841162109375,0.09183131147921085,0.8786056660428643,0.5683534296959638
1761231905991481600,4.378481689453125,0.04250058659911155,0.9111030372828245,0.5143190571695566
1761231906001550600,4.388550537109375,-0.030891981869935987,0.8948942452818155,0.4699003619894385
1761231906011619600,4.39861962890625,-0.13549275855123996,0.8476654611170291,0.4749192130647599
1761231906021689600,4.408689697265625,-0.22203765406012535,0.7952592743143438,0.5020487736612558
1761231906031758600,4.418758544921875,-0.3766828568488359,0.8068655409559607,0.49214492702335116
1761231906041828600,4.42882861328125,-0.5339993246734142,0.8459563191115855,0.4681093869194388
1761231906051897600,4.438897705078125,-0.6233101777642965,0.8754539240136742,0.4306424105733633
1761231906061966600,4.448966552734375,-0.7308844172984361,0.8821569287836551,0.4326867758825421
1761231906072036600,4.45903662109375,-0.7840677259534597,0.8288488247051835,0.4110580046594143
1761231906082105600,4.469105712890625,-0.8138590531051159,0.7589531584411859,0.3650811202518642
1761231906092174600,4.479174560546875,-0.7811801878184079,0.6671729926273227,0.31272388715744015
1761231906102244600,4.48924462890625,-0.740006465908885,0.5534533822059631,0.2280273959942162
1761231906112313600,4.499313720703125,-0.6178361302673816,0.3955418710976839,0.1644914740204811
1761231906122382600,4.509382568359375,-0.4608569315731525,0.21975421929806468,0.12802476075813174
1761231906132452600,4.51945263671875,-0.323039529466629,0.11005933434814213,0.10081219805330037
1761231906142521600,4.529521484375,-0.20516718327999114,0.07558072616308927,0.0892953632608056
1761231906152591600,4.539591552734375,-0.17667232567965982,0.07474544438272714,0.11741539619937538
1761231906162660600,4.54966064453125,-0.04439151491224765,0.07715718169957399,0.12624606064781546
1761231906172729600,4.5597294921875,0.00561316370666027,0.09779021988362073,0.20714754344224928
1761231906182799600,4.569799560546875,0.021683424019813536,0.009657178400456904,0.337680779889971
1761231906192868600,4.57986865234375,0.07063947036862372,-0.055201955001056194,0.4358819186620414
1761231906202937600,4.5899375,0.13116671204566954,-0.06594868220388889,0.5005614577129482
1761231906213007600,4.600007568359375,0.19308394677639007,-0.03818243113905191,0.5212266446009278
1761231906223076600,4.61007666015625,0.2828857982546091,0.007382219205796718,0.49376317587494845
1761231906233145600,4.6201455078125,0.3181295455932617,0.02508008072078228,0.4644401968874037
1761231906243215600,4.630215576171875,0.37020109361410136,-0.00445727166980505,0.4583190836586058
1761231906253284600,4.64028466796875,0.43495618211925025,-0.04103577474355698,0.45786607919409866
1761231906263354600,4.650354736328125,0.43557635984420773,-0.07730097408443688,0.48955052661597726
1761231906273423600,4.660423583984375,0.4373591516077518,-0.14407996963262557,0.5546187727235258
1761231906283492600,4.67049267578125,0.4358826493144035,-0.20559096165001392,0.6042670391201973
1761231906293562600,4.680562744140625,0.4197305559366941,-0.20537293498516082,0.6415785326436162
1761231906303631600,4.690631591796875,0.38556408244073387,-0.18263415669351815,0.6879176744922996
1761231906313700600,4.70070068359375,0.3493780858159065,-0.17356763766258954,0.7101319905184209
1761231906323770600,4.7107705078125,0.2892050644040108,-0.17163023985922335,0.7140693299673497
1761231906333839600,4.720839599609375,0.2709896087557077,-0.21308160966634748,0.7372825939029455
1761231906343908600,4.73090869140625,0.24242460852861403,-0.26147213108688594,0.730022101380676
1761231906353978600,4.740978515625,0.2599988436639309,-0.27962212028354405,0.7220809331178665
1761231906364047600,4.751047607421875,0.271848855933547,-0.29466245302706956,0.7063641624175012
1761231906374117600,4.76111767578125,0.26548984229564665,-0.3036123599410057,0.702290483237803
1761231906384186600,4.7711865234375,0.24815350756943225,-0.31798662999123334,0.7034256247475743
1761231906394255600,4.781255615234375,0.22544775476455686,-0.349114174182713,0.6989861809954047
1761231906404325400,4.791325439453125,0.22110358808040617,-0.356978916208446,0.7120341708779334
1761231906414394600,4.80139453125,0.18381109151840208,-0.37343203835934397,0.7493079627394675
1761231906424463600,4.811463623046875,0.18348901995718478,-0.3788260063573718,0.7609513465210795
1761231906434533600,4.82153369140625,0.16562544648647307,-0.37140228609740733,0.7426967279061675
1761231906444602400,4.831602294921875,0.1621159770607948,-0.37426819692254065,0.721088561079651
1761231906454672600,4.841672607421875,0.13516601081490515,-0.3714648299396038,0.7063920733377337
1761231906464741600,4.85174169921875,0.12117957103848456,-0.3582473287090659,0.6924215617828071
1761231906474810600,4.861810546875,0.11107143400013446,-0.34440234322994945,0.6492056665211916
1761231906484880600,4.871880615234375,0.11231120492815971,-0.35817075634151696,0.6139918759293854
1761231906494949600,4.88194970703125,0.13055588667094706,-0.3837608324110508,0.586489244236797
1761231906505018400,4.892018310546875,0.14138883085250853,-0.41644349709004164,0.5618691822431982
1761231906515088600,4.902088623046875,0.156848850312829,-0.444800115263462,0.5444966071598232
1761231906525157600,4.91215771484375,0.18748013541996478,-0.474604886418581,0.5256152349486947
1761231906535226600,4.9222265625,0.21636311555504797,-0.5289508091121912,0.5164895330764353
1761231906545296600,4.932296630859375,0.2631283738613128,-0.585982902149856,0.49360360139906406
1761231906555365600,4.94236572265625,0.2827490201324224,-0.6111491998493671,0.47749593168497084
1761231906565435600,4.952435546875,0.30337036787867544,-0.659915568844974,0.4897511637546122
1761231906575504600,4.962504638671875,0.33712650700807567,-0.727518447996676,0.5077320799946785
1761231906585573600,4.97257373046875,0.3519575809150934,-0.743145056195557,0.5034324100393802
1761231906595643600,4.9826435546875,0.3648725920677185,-0.7749021304622292,0.5423200668383389
1761231906605712600,4.992712646484375,0.38258185175955295,-0.8839104944527149,0.6138080437950789
1761231906615781600,5.00278173828125,0.39616146430075166,-0.9313920843347907,0.6518081041045487
1761231906625851600,5.0128515625,0.43925650966167445,-0.9522916645005345,0.6703790951922536
1761231906635920600,5.022920654296875,0.4152712384402752,-0.9663014851525425,0.6651887600075453
1761231906645989600,5.03298974609375,0.4390986887514591,-0.9657292382225394,0.6783475898534059
1761231906656059400,5.043059326171875,0.4144166674375534,-0.977106372283399,0.7599168889068066
1761231906666128600,5.053128662109375,0.34581659394204617,-1.0341937026396393,0.8202832409337163
1761231906676198400,5.063198486328125,0.2850415149837732,-1.0713175646364688,0.870269507113099
1761231906686267600,5.073267578125,0.18364099564850328,-1.0422338012322783,0.8884084634590893
1761231906696336400,5.08333642578125,0.1303197398275137,-1.018412780661881,0.880773365470767
1761231906706406700,5.09340673828125,0.08558861769735812,-0.9829977684095501,0.8571453101892024
1761231906716475400,5.103475341796875,0.021001286974549293,-0.9290992972224951,0.8177199663169682
1761231906726544600,5.113544677734375,-0.01791793400645256,-0.8735966057091951,0.8146719769231975
1761231906736614700,5.12361474609375,-0.019704817423224448,-0.8685647490218281,0.8302109068386256
1761231906746683600,5.13368359375,0.05227963781356811,-1.0036480499893425,0.8991025836918503
1761231906756752400,5.14375244140625,0.003261632144451141,-1.1148656144618987,0.9733644823413342
1761231906766822700,5.15382275390625,-0.10983400115966796,-1.0380819422498344,0.9040181935884058
1761231906776891600,5.1638916015625,-0.11412672991752623,-0.9677987379729747,0.7974016931705177
1761231906786961700,5.173961669921875,-0.20160686044991016,-0.9667942371055483,0.7421218506276607
1761231906797030700,5.18403076171875,-0.36737609932124615,-0.9099073977574705,0.701127430807799
1761231906807099600,5.194099609375,-0.4857791913837194,-0.6926812356323003,0.5882049255808816
1761231906817169700,5.204169677734375,-0.5908037464350462,-0.374357044249773,0.45351095272451636
1761231906827238700,5.21423876953125,-0.7331313194423914,-0.06890373261719941,0.3859648817939684
1761231906837307600,5.2243076171875,-0.6480237632602452,0.19346943896263838,0.3529175850536674
1761231906847377700,5.234377685546875,-0.5412304449707269,0.4330111855313182,0.36424463289510456
1761231906857446700,5.24444677734375,-0.5063660523384809,0.6069739599913359,0.39640696349442
1761231906867515600,5.254515625,-0.2665390590876341,0.47137774106562136,0.3290834492733702
1761231906877585000,5.2645849609375,-0.1270733052521944,0.48102761294245716,0.3380427450701594
1761231906887654100,5.274654052734375,-0.18489304153621194,0.5815855439737438,0.26138204165063794
1761231906897724000,5.284723876953125,0.09818915607333183,0.4394909029394388,0.24033194709829986
1761231906907793200,5.294793212890625,0.1726706888228655,0.3674555942982435,0.24592505439762025
1761231906917862000,5.30486181640625,0.3217892371445894,0.3380962288230657,0.22910678872875867
1761231906927932000,5.314931884765625,0.47601767582595345,0.27081016053557394,0.22276059803981332
1761231906938001000,5.3250009765625,0.5553887341827154,0.18528671702891586,0.2538180361371487
1761231906948070100,5.335070068359375,0.6242723007947206,0.1206336275935173,0.28052820227779446
1761231906958140000,5.345139892578125,0.6652507923930883,0.11403759032934903,0.3131557392360642
1761231906968209200,5.355209228515625,0.6947931132197379,0.131663847912848,0.31920535813122985
1761231906978279000,5.36527880859375,0.6823182470500468,0.18543489332795143,0.3085986969862133
1761231906988348000,5.375347900390625,0.5879197154313326,0.1936553169235587,0.3157159085802734
1761231906998417000,5.3854169921875,0.454238974738121,0.17006079858541487,0.25155675840796904
1761231907008487000,5.39548681640625,0.3467424766153097,0.23378303691148755,0.15259884645184502
1761231907018556000,5.405555908203125,0.24399112719297408,0.3425751278027892,0.06879351370837539
1761231907028625000,5.415625,0.15628478668928145,0.44427375330179925,0.03185549313984811
1761231907038695000,5.42569482421875,0.09832067349851131,0.5769622680872678,-0.024614276140206493
1761231907048764000,5.435763916015625,0.04296294341385364,0.71862407066226,-0.11579760400550439
1761231907058833000,5.4458330078125,0.01991290721595287,0.8349789980232715,-0.15979980907291172
1761231907068903000,5.45590283203125,-0.060303369793295855,0.9274392550557852,-0.16471308088190853
1761231907078972000,5.465971923828125,-0.11471417441666125,1.0195195728600024,-0.16192997123571112
1761231907089042000,5.4760419921875,-0.11122107160389423,1.0493994550779462,-0.1651074687606655
1761231907099111200,5.486111083984375,-0.14399229134917257,1.0650810083344577,-0.19129498100038617
1761231907109180000,5.496179931640625,-0.12310732423067092,1.049351232022047,-0.2573760574122891
1761231907119250200,5.506250244140625,-0.03306932590901852,1.0603653779894113,-0.3508856773672625
1761231907129319000,5.51631884765625,0.0712158089518547,1.034121514186263,-0.4246842328213155
1761231907139388200,5.52638818359375,0.17899112401604653,0.9142074330389499,-0.47192602259814737
1761231907149458000,5.5364580078125,0.25499708985388275,0.7741130259111523,-0.5496451855620369
1761231907159527200,5.546527099609375,0.27356325863599773,0.6921034357443452,-0.6583084989745169
1761231907169596000,5.556595947265625,0.27601591248512264,0.6392196945577859,-0.8380272066127509
1761231907179666000,5.566666015625,0.2886176199048757,0.6354319927126169,-1.0007765131410211
1761231907189735000,5.57673486328125,0.29611937383711334,0.6142319682955741,-1.10518841618672
1761231907199805000,5.586804931640625,0.29665187327861786,0.5509294166862965,-1.1887974043741822
1761231907209874000,5.5968740234375,0.363381476727128,0.46047056260406966,-1.291431995549053
1761231907219943200,5.606943115234375,0.3713385732114315,0.37125089492797847,-1.3909483085729182
1761231907230013000,5.617012939453125,0.35665772143006325,0.29165041172951456,-1.4399232057526707
1761231907240082000,5.62708203125,0.361669412112236,0.20742285325229168,-1.4314996608003974
1761231907250151000,5.63715087890625,0.378836820012331,0.10320113901644945,-1.3553842432387173
1761231907260221000,5.647220947265625,0.4206377339094877,0.015365326914191246,-1.270804802583903
1761231907270290000,5.6572900390625,0.5362146626353264,-0.06521218462288379,-1.1953422229077666
1761231907280359000,5.66735888671875,0.6119815590202808,-0.1516445596680045,-1.1342283404491842
1761231907290429000,5.677428955078125,0.6281950271964073,-0.2500391751855612,-1.0847412559635936
1761231907300498000,5.687497802734375,0.5604097772151232,-0.37645343200713394,-1.018938558101654
1761231907310568000,5.69756787109375,0.5237666844725608,-0.5016390238165855,-0.9499874792113899
1761231907320637000,5.707636962890625,0.5443786798685789,-0.5967100478693843,-0.9190451553937047
1761231907330706000,5.717705810546875,0.5663730695337057,-0.693983550402522,-0.8621074626412242
1761231907340776000,5.72777587890625,0.5654489404261112,-0.7650488449677825,-0.8102817060749977
1761231907350845000,5.737844970703125,0.529786675414443,-0.8118643721565604,-0.7623222695481031
1761231907360914000,5.747913818359375,0.4761363337695598,-0.8513836048573254,-0.682033073433116
1761231907370984200,5.757984130859375,0.41231355767846106,-0.8493164431944489,-0.6061215809457003
1761231907381053000,5.768052978515625,0.37615854071378707,-0.8087330883935093,-0.5075005727937445
1761231907391122000,5.778121826171875,0.3040869917154312,-0.7806213848918676,-0.3349552273835987
1761231907401192000,5.78819189453125,0.21505729365348814,-0.7865262250214815,-0.1578971903219819
1761231907411261200,5.79826123046875,0.1420744750291109,-0.7646127916380763,-0.0028715459814760832
1761231907421331000,5.8083310546875,-0.012934884896874428,-0.728445207452774,0.11862835218571126
1761231907431400000,5.81839990234375,-0.13530921867787837,-0.6765230047747492,0.2064857733315788
1761231907441469000,5.828468994140625,-0.2464385203450918,-0.5842082936927676,0.26413495708797124
1761231907451539000,5.8385390625,-0.3560170854389667,-0.5015031224772334,0.3253912071593106
1761231907461608000,5.84860791015625,-0.4079004174113273,-0.4927168816924095,0.36866960973050444
1761231907471677200,5.85867724609375,-0.46320378696024417,-0.47818946690708397,0.36266203987877815
1761231907481747000,5.868746826171875,-0.49002983456552024,-0.48589463445693254,0.3476155331227928
1761231907491816000,5.87881591796875,-0.4620125313490629,-0.5029112357094884,0.2726122049888596
1761231907501883100,5.888883056640625,-0.4562929846584797,-0.5245338694527745,0.24799336683796716
1761231907511953000,5.898952880859375,-0.44156770921349525,-0.531957589712739,0.16189283582940697
1761231907522022000,5.90902197265625,-0.4487438844531774,-0.5462044339910149,0.09601093525141477
1761231907532092000,5.919091796875,-0.4255699296146631,-0.60014031457901,0.06501677164863795
1761231907542161000,5.929160888671875,-0.39309973864257336,-0.6370490725204349,0.039779162278585134
1761231907552230000,5.93922998046875,-0.35828210776150227,-0.661627633459866,0.022394896757416426
1761231907562300000,5.9492998046875,-0.2519377022832632,-0.6910434052973985,-0.012984203931316732
1761231907572369000,5.959368896484375,-0.15212474440038204,-0.7052586853936315,-0.05863642296176404
1761231907582438000,5.96943798828125,-0.02221884607076645,-0.7415697697028517,-0.14890344426631927
1761231907592508200,5.979508056640625,0.054746904709935186,-0.7644333434179424,-0.22137550035696477
1761231907602577000,5.989576904296875,0.15278583865761755,-0.7780050649136304,-0.29607739785891024
1761231907612646000,5.99964599609375,0.23262100739479064,-0.765719291575253,-0.37930936942752447
1761231907622716000,6.0097158203125,0.2834422630935907,-0.7463561271965503,-0.4250520797530189
1761231907632785200,6.01978515625,0.37254794900119304,-0.7345394326746464,-0.4443360048830509
1761231907642855000,6.02985498046875,0.3827063549220562,-0.7254805124282836,-0.43384478681124744
1761231907652924200,6.039924072265625,0.4112649254083633,-0.7327914199635386,-0.45458442717492575
1761231907662993000,6.049992919921875,0.46099838587045666,-0.7572317414760589,-0.4853573857750743
1761231907673063000,6.06006298828125,0.48993748010694976,-0.8059767754226923,-0.5128522725526243
1761231907683132000,6.0701318359375,0.49579848109483715,-0.8550780754610896,-0.5274356918415054
1761231907693201200,6.080201171875,0.48714171190857886,-0.8927706772565841,-0.5660698853360489
1761231907703271000,6.09027099609375,0.47892917935848234,-0.9103443278700113,-0.6089357981162146
1761231907713340200,6.100340087890625,0.45540977208316324,-1.0138543867051601,-0.5691847294209524
1761231907723409000,6.110408935546875,0.36502690584659575,-1.1941419802725315,-0.44800614476315676
1761231907733479000,6.12047900390625,0.15015549015402793,-1.3196397067710757,-0.3411723848653957
1761231907743548000,6.1305478515625,-0.030770401316881177,-1.3877207248285413,-0.31125597002934663
1761231907753618000,6.140617919921875,-0.22580548216104507,-1.415257843312621,-0.34696320669390257
1761231907763687000,6.15068701171875,-0.523182747104764,-1.3729074788391589,-0.392326087388955
1761231907773756000,6.160755859375,-0.8669768953084945,-1.2060817166522144,-0.48528011928778136
1761231907783826000,6.170825927734375,-1.1385013415932654,-0.9743240480884909,-0.6323074309512973
1761231907793895000,6.18089501953125,-1.306104810154438,-0.7161617722019553,-0.7738778289157897
1761231907803964000,6.1909638671875,-1.3947528154224156,-0.38704292282164093,-0.7930621295962482
1761231907814034000,6.201033935546875,-1.3811474839180706,-0.12938976550102232,-0.7641529190413653
1761231907824103000,6.21110302734375,-1.3479828809410332,0.19980945563912392,-0.7824814066100865
1761231907834172000,6.221171875,-1.2483616462379694,0.5491966015443206,-0.7831779375068842
1761231907844242000,6.231241943359375,-1.1965484568923712,0.7402566412776708,-0.7027048361923545
1761231907854311000,6.241310791015625,-1.2609370501726864,0.8022238526299595,-0.4894629213977605
1761231907864381200,6.251381103515625,-1.2027864744991064,0.7590040118455886,-0.26239819642323997
1761231907874450000,6.261449951171875,-1.061024134159088,0.6690247579738497,-0.1361518800470978
1761231907884518700,6.2715185546875,-0.9169131848663091,0.5886141274362802,-0.10790106033571063
1761231907894588700,6.281588623046875,-0.6777379335224628,0.5993488719403743,-0.16295578888580203
1761231907904657700,6.29165771484375,-0.39548341890871525,0.6752823570638895,-0.25652130374647675
1761231907914726400,6.301726318359375,-0.12767711636424064,0.75186787635535,-0.3270096021413803
1761231907924796700,6.311796630859375,0.12020049687325954,0.7841963207691908,-0.3822993815563619
1761231907934865400,6.321865478515625,0.33985505518913267,0.8402104689359664,-0.42475327946953473
1761231907944935700,6.331935791015625,0.5041027835816144,0.9041787909775972,-0.43691308834068476
1761231907955004700,6.342004638671875,0.585975595626235,0.8971282879441976,-0.4001596670914441
1761231907965073700,6.35207373046875,0.6320061099171638,0.8535819916844367,-0.366146411395818
1761231907975143700,6.362143798828125,0.6930687736451625,0.8605152980789542,-0.36747809839099643
1761231907985212700,6.372212646484375,0.7276783147335052,0.9041989569827914,-0.39118513719290493
1761231907995281700,6.38228173828125,0.7735545152455567,0.9215490279734134,-0.423742421926558
1761231908005351400,6.392351318359375,0.7911720050007104,0.8862541349694132,-0.41268465601317583
1761231908015420700,6.402420654296875,0.8032330296725034,0.7866027973890304,-0.3060459437634796
1761231908025489700,6.41248974609375,0.7700345244258642,0.7134960601240397,-0.17164551049359142
1761231908035559700,6.4225595703125,0.6738339118212461,0.685218060144782,-0.013231456690654158
1761231908045628700,6.432628662109375,0.6263946997761726,0.6955752035081386,0.14142017583884298
1761231908055698700,6.44269873046875,0.572096123355627,0.7360165194898843,0.302384206385538
1761231908065767400,6.452767333984375,0.499843957093358,0.7585512996420264,0.4673937129307538
1761231908075836700,6.462836669921875,0.5009796831250191,0.7890335316672921,0.6271823430225253
1761231908085906400,6.472906494140625,0.46184828069806094,0.8467085987836122,0.8181675639539957
1761231908095977500,6.4829775390625,0.4071142354696989,0.9316025122150778,1.1163988153785467
1761231908106046700,6.493046630859375,0.3706096744149923,0.8754314199209213,1.2833436739005148
1761231908116116500,6.503116455078125,0.3794073133766651,0.8040633430168033,1.3937322402030228
1761231908126185700,6.513185791015625,0.3404933530926704,0.6868415696933865,1.489330503000319
1761231908136254500,6.52325439453125,0.27541560850441454,0.537328761357069,1.5451181489348411
1761231908146324700,6.53332470703125,0.2672539293587208,0.44906040305644274,1.5144357181623578
1761231908156393500,6.5433935546875,0.21782968097627162,0.4098027439013123,1.4317247017279267
1761231908166463500,6.55346337890625,0.15989713196754454,0.3596156944528222,1.335988345634192
1761231908176532500,6.563532470703125,0.06928396410644054,0.3285746595010161,1.2738533764995634
1761231908186601700,6.573601806640625,-0.06517652878761292,0.3594078969210386,1.2346044851727782
1761231908196671500,6.58367138671875,-0.16370412303507328,0.4201172171667218,1.1894775686580688
1761231908206740700,6.59374072265625,-0.2807517088353634,0.4787020926043391,1.181833702841401
1761231908216809500,6.6038095703125,-0.46383974677622314,0.5372188712418079,1.2049961864378302
1761231908226879500,6.61387939453125,-0.6363116981565952,0.6081701840385795,1.2236560979180038
1761231908236948500,6.623948486328125,-0.6988239761710167,0.6785349291190504,1.1854252975925803
1761231908247018500,6.6340185546875,-0.7406494399875402,0.7191656301930547,1.146421028676629
1761231908257087700,6.644087646484375,-0.7383423320889473,0.7060176870673894,1.0734948356103151
1761231908267156500,6.654156494140625,-0.647302463248372,0.6508464194655418,1.0101874616954476
1761231908277226800,6.664226806640625,-0.533865469160676,0.5242024455413222,0.9251134424567222
1761231908287295500,6.67429541015625,-0.3815197754859924,0.36013679571747775,0.8403897710256278
1761231908297364500,6.684364501953125,-0.20771277610957622,0.19533990900963544,0.7018827792197465
1761231908307434500,6.6944345703125,-0.007055179208517074,0.04959814364463091,0.5548256934724748
1761231908317503700,6.704503662109375,0.20399054071605205,-0.13246084350943566,0.4520440219771117
1761231908327572500,6.714572509765625,0.33188334565758704,-0.2971285508796572,0.4182505465120077
1761231908337642800,6.724642822265625,0.4207692513346672,-0.39636312435269355,0.3702551618888974
1761231908347711500,6.73471142578125,0.5285965888470411,-0.48739890154004095,0.3407298652622849
1761231908357781800,6.74478173828125,0.5523872142791748,-0.5687693170204758,0.3433458929795772
1761231908367850500,6.7548505859375,0.5212427189528942,-0.6430678944185376,0.34718444822914896
1761231908377919700,6.764919677734375,0.44521687937080856,-0.7123600418314338,0.3134199796628207
1761231908387989500,6.774989501953125,0.3803466400533914,-0.7391235455945133,0.2595836139265448
1761231908398058800,6.785058837890625,0.30700667855441566,-0.7555225994706154,0.20591339853741228
1761231908408127500,6.79512744140625,0.17948036883771418,-0.7431839269012213,0.16904460728019474
1761231908418197500,6.805197509765625,0.06872399213612079,-0.7336714176684618,0.12482749908678233
1761231908428266500,6.8152666015625,0.019499650239944457,-0.710459176646173,0.08930639611147344
1761231908438335700,6.825335693359375,-0.06287000541090965,-0.6877177680060267,0.08823650185763836
1761231908448405500,6.835405517578125,-0.13779869740605352,-0.6727408558875322,0.08292155391257255
1761231908458474800,6.845474853515625,-0.1747568474471569,-0.6376344711929559,0.09185593446381389
1761231908468544500,6.85554443359375,-0.2415501637816429,-0.6241437059789896,0.13677395746819673
1761231908478613500,6.865613525390625,-0.27654490479528904,-0.6174868784382939,0.22017869178783148
1761231908488682500,6.8756826171875,-0.2922083378732204,-0.6128861066445708,0.32412480395268645
1761231908498752500,6.88575244140625,-0.35723990523219107,-0.5998878011226654,0.42369211651142685
1761231908508821500,6.895821533203125,-0.35836043369472026,-0.6010311259388923,0.5077606119694188
1761231908518890500,6.905890380859375,-0.31767420304119587,-0.5745365022450685,0.5457162851478904
1761231908528960800,6.915960693359375,-0.2994306903421879,-0.5673080122962594,0.5656139947947114
1761231908539029500,6.926029541015625,-0.23839491462111473,-0.6039125265941023,0.5735924263279885
1761231908549099800,6.936099853515625,-0.19455986454784868,-0.60092357391119,0.5455914897244424
1761231908559168500,6.94616845703125,-0.11176643052697181,-0.6149763569220901,0.5140155076457187
1761231908569237800,6.95623779296875,-0.07280453944802284,-0.6227832312807441,0.47202791207004335
1761231908579307500,6.9663076171875,-0.015553542962670325,-0.6414747800081968,0.4494397577628493
1761231908589376800,6.976376708984375,0.09049509443938732,-0.6514911471098661,0.42809787718970327
1761231908599445500,6.986445556640625,0.16902385675311088,-0.6362549995332956,0.43065695055536923
1761231908609515800,6.996515869140625,0.2395201192587614,-0.6391951446384191,0.46070459055565294
1761231908619584500,7.00658447265625,0.3197206141769886,-0.623436142231524,0.5407457301937043
1761231908629654500,7.016654541015625,0.3373667455047369,-0.6058204060420393,0.6388268227826803
1761231908639723500,7.0267236328125,0.29951719958186146,-0.5729325741797685,0.7493037249557674
1761231908649792800,7.036792724609375,0.2561643800675869,-0.5706108532339335,0.8549602943003177
1761231908659862500,7.046862548828125,0.21848434549272058,-0.5778960418060421,0.9019965515676885
1761231908669931800,7.056931884765625,0.26454817753136156,-0.6977072471007705,1.0197220366295427
1761231908680000500,7.06700048828125,0.262693489575386,-0.9555690787360072,1.1961029050819576
1761231908690070500,7.077070556640625,0.18225626329183578,-1.1185077703565358,1.2549600215896963
1761231908700139500,7.087139404296875,0.12855974441766738,-1.1818830949410795,1.1117021819949149
1761231908710209500,7.09720947265625,-0.00971358476281166,-1.2527686490252614,0.9000650720484554
1761231908720278500,7.107278564453125,-0.1970160255283117,-1.2607228229001164,0.6881524330962449
1761231908730347500,7.117347412109375,-0.45053076786994933,-1.1140823551297188,0.4292031350178644
1761231908740417500,7.12741748046875,-0.7055377945959568,-0.8500207920715213,0.17648023717366157
1761231908750486500,7.137486572265625,-0.8529583068281411,-0.5617953863546252,-0.04216444997992366
1761231908760555500,7.147555419921875,-0.9626263037711381,-0.28868104052990673,-0.1691407611310482
1761231908770625500,7.15762548828125,-1.0542506945013999,-0.07065291437208653,-0.12281112689622677
1761231908780694500,7.167694580078125,-0.963122562855482,0.24283318932950496,-0.12956064682221038
1761231908790763500,7.177763427734375,-0.9212146814525127,0.5178612598210572,-0.13148257306180894
1761231908800833800,7.187833740234375,-0.8856295733302831,0.6370271529495716,-0.07334713102527894
1761231908810902500,7.197902587890625,-0.7797416794478893,0.7031646357238293,-0.014711219520168378
1761231908820972800,7.207972900390625,-0.5770575451552867,0.6681105657383799,0.04021210120259784
1761231908831041500,7.21804150390625,-0.3597843290179968,0.6060670742794871,0.11023204230023548
1761231908841110800,7.22811083984375,-0.14168401440680026,0.5798056748196483,0.1951062463842332
1761231908851180500,7.2381806640625,0.13439619548618792,0.5771756185770034,0.21342242246065288
1761231908861249800,7.248249755859375,0.43821021547913547,0.6177604346826672,0.1999639520810917
1761231908871318500,7.258318603515625,0.7702315083026886,0.6276075826972722,0.20842307980339972
1761231908881389000,7.26838916015625,1.0908055244386194,0.6367506740957498,0.2442344892284833
1761231908891458000,7.2784580078125,1.3669266508638858,0.6390048827633261,0.3042648872992955
1761231908901528000,7.288528076171875,1.648557480621338,0.6526520075827836,0.33968221937287596
1761231908911597000,7.29859716796875,1.7856418922781943,0.6387418479129672,0.31245157302208243
1761231908921666000,7.308666015625,1.7067027955979108,0.6253381764605641,0.27438009144421666
1761231908931736000,7.318736083984375,1.5866981135576963,0.6047232584550977,0.25578701638886703
1761231908941805000,7.32880517578125,1.4506635032147168,0.6196057702884078,0.19658022792693228
1761231908951874000,7.3388740234375,1.356073832938075,0.6903846491277218,0.08636033272221684
1761231908961944000,7.348944091796875,1.1809370462626219,0.7690805847018957,-0.07231807110533117
1761231908972013000,7.359012939453125,0.8530418934583663,0.8470569738298654,-0.2589904338063672
1761231908982083000,7.3690830078125,0.5870020160645246,0.9146358875840902,-0.4330715374164283
1761231908992152000,7.379152099609375,0.4335129975736141,1.0437892139807343,-0.6268729117471724
1761231909002221000,7.389220947265625,0.2690735460013151,1.115788574525714,-0.7090101468816399
1761231909012291000,7.399291015625,0.14364099369347094,1.1009905261054633,-0.7156063302762806
1761231909022360000,7.409360107421875,-0.0028700024783611298,1.062115436527133,-0.6669376495014876
1761231909032429000,7.419428955078125,-0.13818974255025385,0.9577338555544614,-0.5668852568395435
1761231909042499000,7.4294990234375,-0.27135201232731343,0.8691478096067905,-0.47048210740014906
1761231909052568300,7.439568359375,-0.38835458994209765,0.8061179374590516,-0.3943658861208707
1761231909062638000,7.44963818359375,-0.48789808323383327,0.727736474661529,-0.3678922321498394
1761231909072707000,7.45970703125,-0.5683633665680885,0.6119321669206023,-0.37389286080412565
1761231909082776000,7.469776123046875,-0.6366144804954529,0.5202312038227915,-0.4366563005680218
1761231909092846000,7.47984619140625,-0.6973048037797213,0.4391264535412192,-0.5611758296841756
1761231909102915000,7.4899150390625,-0.7501151874691248,0.3555944761127233,-0.6800224642630666
1761231909112984000,7.499984130859375,-0.6983680490970611,0.2273354682072997,-0.7490864289432764
1761231909123054000,7.51005419921875,-0.6818804401546716,0.13948065914362667,-0.7895265758812428
1761231909133123000,7.520123046875,-0.6410071624964475,-0.010011690926551818,-0.8203326330333948
1761231909143192000,7.530192138671875,-0.5447744011878967,-0.15687807640731333,-0.8144172715097665
1761231909153262000,7.540261962890625,-0.44783203030526636,-0.22898031280487774,-0.8080264744941145
1761231909163331000,7.5503310546875,-0.3375532079875469,-0.29568156694173814,-0.7968538500294089
1761231909173401000,7.560401123046875,-0.21492168457508085,-0.3503122979260981,-0.7509852483019233
1761231909183470000,7.570469970703125,-0.11404197424352168,-0.38312341129034755,-0.6927928793132305
1761231909193539000,7.5805390625,-0.02731646147072315,-0.4147429767824709,-0.6330582493185997
1761231909203609000,7.590609130859375,0.04560615139901638,-0.42435061695277687,-0.5913164451975375
1761231909213678000,7.600677978515625,0.08437281216681003,-0.4537523602649569,-0.5172225965913385
1761231909223748000,7.610748046875,0.10457388867437839,-0.47843028992563486,-0.4492224617503583
1761231909233817000,7.620817138671875,0.132314713037014,-0.44600642231330273,-0.38429128602594137
1761231909243886000,7.630885986328125,0.16210077949166296,-0.403584453908354,-0.33188824102841313
1761231909253956000,7.6409560546875,0.17251579052209853,-0.3895823781713843,-0.2738619127890095
1761231909264025000,7.651025146484375,0.16695990996062754,-0.35660306863337754,-0.220949310834147
1761231909274094000,7.661093994140625,0.1628051283687353,-0.3608357377670705,-0.1891504432523623
1761231909284164000,7.6711640625,0.17565291950404643,-0.38224531328156586,-0.16598286335570736
1761231909294233000,7.681233154296875,0.20982114656567571,-0.39215822000876066,-0.18114172617867588
1761231909304302000,7.691302001953125,0.2445820788234472,-0.42413215189650655,-0.1886442472958937
1761231909314372000,7.7013720703125,0.3195014184683561,-0.488391858100146,-0.186482776679378
1761231909324441000,7.711441162109375,0.35455694975852964,-0.5394206190697849,-0.17869546553771942
1761231909334511000,7.721510986328125,0.39537645140290256,-0.5860280564658343,-0.15743357313191517
1761231909344580000,7.731580078125,0.4121194964110851,-0.6375577526949345,-0.13216601614817045
1761231909354649000,7.741649169921875,0.34609190375208854,-0.6898899974785745,-0.09574051167904399
1761231909364719000,7.751718994140625,0.27238310894072054,-0.7232685354672372,-0.07667301491182298
1761231909374788000,7.7617880859375,0.1915700350821018,-0.711694709790498,-0.07712539832182227
1761231909384858000,7.771858154296875,0.07520867798030376,-0.6962791139937937,-0.10594797177286817
1761231909394927000,7.781927001953125,0.006696282768249511,-0.694293347004056,-0.17227776224883273
1761231909404996000,7.79199609375,-0.012004910570383071,-0.6808562116734683,-0.25599340741485355
1761231909415066000,7.802066162109375,-0.029812954461574552,-0.6749164463609456,-0.3032056240373291
1761231909425135000,7.812135009765625,-0.036729601982235904,-0.6927190834246575,-0.3619271862655878
1761231909435204000,7.8222041015625,-0.005969722059369087,-0.7233522682279347,-0.37905378723125904
1761231909445274000,7.832274169921875,0.06387713662683964,-0.7467739142172038,-0.387475469020009
1761231909455343000,7.842343017578125,0.13914134418666363,-0.8113334801502525,-0.41046716262679545
1761231909465413000,7.8524130859375,0.2546247494101524,-0.884890299270302,-0.42549883713982994
1761231909475482000,7.862482177734375,0.29321371552348136,-0.9636774202592671,-0.4200887947898358
1761231909485551000,7.872551025390625,0.34682664776742456,-1.0337284232154489,-0.42566557200886307
1761231909495621000,7.88262109375,0.37734336658418177,-1.0576704398170114,-0.4446329420030117
1761231909505690000,7.892690185546875,0.3603624211668968,-1.096685668518394,-0.4176086684118956
1761231909515759000,7.902759033203125,0.34809330670237537,-1.1737076795309782,-0.38276356500200925
1761231909525829000,7.9128291015625,0.32333763563036916,-1.173505581087619,-0.38033677624650297
1761231909535898000,7.922898193359375,0.27855682913959023,-1.1516577602863312,-0.39803668358810246
1761231909545968000,7.932968017578125,0.21902502824068068,-1.1333419130034743,-0.46800019092392176
1761231909556037000,7.943037109375,0.12632453271150587,-1.1031323604397476,-0.5268705687720329
1761231909566106000,7.953106201171875,0.0795464149236679,-1.086492921936512,-0.5980182078585028
1761231909576176000,7.963176025390625,0.06543021128773689,-1.1245911819234489,-0.6263581671580671
1761231909586245000,7.9732451171875,-0.05289221675395965,-1.1234154161423444,-0.6302700068395585
1761231909596314000,7.983314208984375,-0.2746457931756973,-1.0325520729124547,-0.7125058800429105
1761231909606384000,7.993384033203125,-0.49760231564640994,-0.9575161211505532,-0.8407728520590811
1761231909616453000,8.003453125,-0.725813689905405,-0.9518228779450059,-0.9112770056102424
1761231909626523100,8.013523193359376,-0.932033012586832,-0.901090761834383,-0.9520647238768637
1761231909636592000,8.023592041015625,-1.181813244575262,-0.7462190568134188,-1.003676545431465
1761231909646661000,8.0336611328125,-1.4518278708189725,-0.47537587079107757,-1.044958842281997
1761231909656731100,8.043731201171875,-1.6396359230190514,-0.17820216559544205,-1.0460985138364136
1761231909666800000,8.053800048828125,-1.6932114458620546,0.10928221249580383,-1.0583665323223919
1761231909676869000,8.063869140625,-1.6343039143413305,0.3481494208037853,-1.025131786718592
1761231909686939000,8.07393896484375,-1.4472773679077624,0.5385654635451734,-0.9942852514255791
1761231909697008000,8.084008056640625,-1.248037821111083,0.6891705971628427,-0.942134866014868
1761231909707078000,8.094077880859375,-1.1024287422150372,0.7007856316328048,-0.7974741738848388
1761231909717147100,8.104147216796875,-0.9754664961218833,0.6414312331274151,-0.594021575970389
1761231909727216000,8.114216064453124,-0.7536416080296039,0.5143602659627795,-0.4074971338400617
1761231909737286100,8.1242861328125,-0.5184206472694873,0.38701048185676334,-0.25527031730469313
1761231909747355000,8.13435498046875,-0.30972645890712736,0.29926117899417876,-0.18265797596052288
1761231909757424000,8.144424072265625,-0.13383213186264037,0.23996172554641962,-0.11924506844510324
1761231909767494100,8.154494140625,0.0010848726272583008,0.27052579063624144,-0.1164601139016915
1761231909777563100,8.164563232421875,0.2111035875916481,0.38446664259284735,-0.14429673592215403
1761231909787633200,8.174633056640625,0.34790275256633757,0.502137913249433,-0.17771489353515207
1761231909797702100,8.1847021484375,0.3979518548488617,0.6315323549255728,-0.19674066091934217
1761231909807771100,8.194771240234376,0.4502829305887222,0.7375769006744026,-0.20160459542758763
1761231909817841200,8.204841064453126,0.5361427664428949,0.8475283907338976,-0.20173037723172454
1761231909827910100,8.21491015625,0.5341928014189005,0.9318404126241803,-0.1627101618279703
1761231909837979100,8.224979248046875,0.511326889616251,0.956546691596508,-0.07776806187322363
1761231909848049200,8.235049072265625,0.47626200597584245,1.0105120905399323,0.0074926573103293774
1761231909858118100,8.2451181640625,0.40862347098886964,1.0758888180747628,0.04952480441378429
1761231909868188200,8.255188232421874,0.37673838642835616,1.119729128845036,0.10230227221427485
1761231909878256400,8.26525634765625,0.3511772441923618,1.0953867147490381,0.2180377890353091
1761231909888325000,8.2753251953125,0.354489145219326,0.9887947642505168,0.34550672427527607
1761231909898395400,8.2853955078125,0.35463352212607857,0.8668898015469312,0.4696156998291611
1761231909908464000,8.295464111328124,0.322090265917778,0.7667398667946458,0.621733429966867
1761231909918533400,8.305533447265624,0.25950375362336636,0.7252651161119341,0.73509450927414
1761231909928603100,8.31560302734375,0.2049251912176609,0.7011342989400029,0.7825552755638957
1761231909938672400,8.32567236328125,0.1854272945433855,0.662677727034688,0.8174876188658178
1761231909948742100,8.3357421875,0.1360445472151041,0.6401397320121527,0.8855630839653312
1761231909958811400,8.345811279296875,0.1201584112972021,0.5968424420773982,0.9331601899858564
1761231909968880000,8.355880126953124,0.1454594412922859,0.5894082004234195,0.9310886444088071
1761231909978950100,8.3659501953125,0.2435895606547594,0.6167641171216964,0.9179070182092487
1761231909989019100,8.37601904296875,0.3215940068334341,0.5990405366435647,0.8968307663023471
1761231909999089200,8.386089111328126,0.3288046688646078,0.559177312810719,0.8650240076750516
1761231910009158400,8.396158447265625,0.41356501904428,0.486270482032001,0.823694802942872
1761231910019227400,8.406227294921875,0.47907764791846275,0.4338546506181359,0.815612399578467
1761231910029297400,8.41629736328125,0.5118126273065805,0.3568453529566526,0.8364956131312996
1761231910039366100,8.4263662109375,0.5555407098740339,0.2280611521333456,0.881405525894463
1761231910049435400,8.436435302734376,0.5525479577988386,0.14702712900042533,0.9044679101172834
1761231910059505200,8.446505126953125,0.4828115737497806,0.12543781300485132,0.9021448009319603
1761231910069574400,8.456574462890625,0.39192309607863424,0.13315087160021066,0.9270252674274146
1761231910079644200,8.46664404296875,0.23948855507671832,0.11804361110031604,0.9654767247661947
1761231910089713400,8.47671337890625,0.06263502761125564,0.13953180480897426,0.9669568803213536
1761231910099782100,8.4867822265625,-0.051367783665657044,0.24029081137031316,0.9248837253540754
1761231910109852400,8.496852294921876,-0.13128712355494498,0.3280699248492718,0.908775982574746
1761231910119921200,8.506921142578125,-0.23529636408388613,0.36180355988591906,0.8783822325505316
1761231910129990400,8.516990478515625,-0.34250118578374383,0.3467681955784559,0.8204359472773969
1761231910140060200,8.52706005859375,-0.38534371768832204,0.3140627345457673,0.761104710451886
1761231910150129400,8.53712939453125,-0.3762789522230625,0.2546481302857399,0.6529042287781834
1761231910160199200,8.54719921875,-0.3893418474137783,0.22367460761219263,0.5071399227878078
1761231910170268400,8.557268310546876,-0.3642085752010345,0.16891776603013275,0.41046186539717017
1761231910180337200,8.567337158203125,-0.3297363967567682,0.11414894174933433,0.332427791265212
1761231910190407200,8.5774072265625,-0.22020985411107538,0.01990209356099367,0.2771923358533531
1761231910200476200,8.58747607421875,-0.108446346193552,-0.06586801818311214,0.24688509506881234
1761231910210545400,8.59754541015625,-0.06504618040621281,-0.10631254903525113,0.23307631341423837
1761231910220615200,8.607615234375,0.026330373042821882,-0.1500721957847476,0.2741490956999361
1761231910230684200,8.61768408203125,0.1032049384087324,-0.15643267072737216,0.29935506782270965
1761231910240754400,8.62775439453125,0.18914134663045407,-0.16133125642389057,0.301696954773739
1761231910250823200,8.6378232421875,0.2594517311751842,-0.15394962173998356,0.3259505946077406
1761231910260892200,8.64789208984375,0.3327659737110138,-0.17128712550997732,0.33958800175078213
1761231910270962200,8.657962158203125,0.3964291753262281,-0.17794161496311425,0.33420937745235857
1761231910281031400,8.668031494140624,0.4556944342434406,-0.18948504550158976,0.31284992468990386
1761231910291100200,8.67810009765625,0.4822890111804008,-0.2291778812035918,0.266593784949556
1761231910301170400,8.68817041015625,0.4597878410369158,-0.2745537309780717,0.23648334537874907
1761231910311239200,8.6982392578125,0.48634793118238445,-0.2994818360075354,0.19998755215238778
1761231910321309400,8.708309326171875,0.4233440702587366,-0.3412058852761984,0.1753833087824285
1761231910331378200,8.718378173828125,0.3787701845169067,-0.378079571904242,0.15277104294728486
1761231910341447400,8.728447509765624,0.3441273256808519,-0.3865978094026446,0.12596059476993976
1761231910351517200,8.73851708984375,0.3126087363451719,-0.38198534717112775,0.08513963182084262
1761231910361586400,8.74858642578125,0.2873965536773205,-0.40545711591243744,0.05151314695309847
1761231910371655200,8.7586552734375,0.27548575113117696,-0.3869599207133054,-0.016485490050539373
1761231910381725200,8.76872509765625,0.23389643415808675,-0.33301381099224087,-0.049087819502316415
1761231910391794200,8.778794189453125,0.16191022535562513,-0.3091121264010668,-0.018743461577780545
1761231910401864200,8.7888642578125,0.1108779572546482,-0.3120692226409912,0.04349009082680568
1761231910411933200,8.79893310546875,0.05777940427362919,-0.32775399076789613,0.08130644686613231
1761231910422002400,8.80900244140625,0.061929509690403936,-0.35935324412435293,0.12242852991996332
1761231910432072200,8.819072265625,0.004994739547371864,-0.3986559114649892,0.12834122456246985
1761231910442141200,8.82914111328125,-0.0359065951615572,-0.43151627079844473,0.11540363625185564
1761231910452210200,8.839210205078125,-0.09797288297414779,-0.4295294808954,0.11532680815597995
1761231910462280200,8.8492802734375,-0.16381342862844467,-0.4351230631187558,0.12414676854731514
1761231910472349200,8.85934912109375,-0.2827431749135256,-0.41597178792506456,0.12668141985777764
1761231910482419200,8.869419189453126,-0.2737742710381746,-0.3794581667810678,0.011164240228850394
1761231910492488200,8.87948828125,-0.12538579055666924,-0.3512941485702991,-0.12166494340263306
1761231910502557200,8.88955712890625,-0.10016250197291374,-0.44770548131614923,-0.23506662871493025
1761231910512627500,8.89962744140625,-0.24562077422142028,-0.5596437612786889,-0.22741284429244696
1761231910522696200,8.9096962890625,-0.5630313578903675,-0.5525505881473421,-0.1617623961164616
1761231910532766500,8.919766357421874,-0.696976886999607,-0.6031745677083731,-0.14841096630794925
1761231910542835200,8.929835205078126,-0.8597773391932249,-0.5947831714600325,-0.1685911278916523
1761231910552904400,8.939904541015625,-0.8843389489978551,-0.5725099648535251,-0.12188857782436534
1761231910562974200,8.94997412109375,-0.899947437018156,-0.6306286840841174,-0.029673856518138197
1761231910573043500,8.96004345703125,-1.003796518549323,-0.6157537710353732,-0.055201955001056194
1761231910583112200,8.9701123046875,-1.0150888969361782,-0.45859249377250666,-0.16581866750363258
1761231910593182200,8.98018212890625,-1.0595698436975478,-0.24054186352193355,-0.3370405092250556
1761231910603251200,8.990251220703126,-1.075880927029252,-0.024930735377967358,-0.4836741088632494
1761231910613321200,9.0003212890625,-1.1277660125672817,0.10520020387917757,-0.6033386722289026
1761231910623390200,9.01039013671875,-1.017023079869151,0.22119243540763853,-0.801484432439506
1761231910633459500,9.02045947265625,-0.6817068371534347,0.5509294166862965,-0.9811568897832185
1761231910643529200,9.030529296875,-0.492497685983777,0.9057792119115591,-1.0074333406817166
1761231910653598200,9.04059814453125,-0.4077870201647281,1.1451651833966374,-0.8742511240951716
1761231910663667200,9.050667236328126,-0.3972650416284799,1.268295303981006,-0.7350525698285549
1761231910673737200,9.0607373046875,-0.45492987961173054,1.2797174462273717,-0.6413936775960027
1761231910683806200,9.07080615234375,-0.5528396342217922,1.2674065384477375,-0.5539776252757758
1761231910693876200,9.080876220703125,-0.7831412587583064,1.2287243410930038,-0.4415744312152266
1761231910703945200,9.0909453125,-0.7084177339464426,1.1483113724678755,-0.41792975359242407
1761231910714014200,9.10101416015625,-0.611686375465989,1.0528083867385982,-0.4623958315782249
1761231910724084500,9.11108447265625,-0.49591596999466414,0.9957581735223531,-0.5429693975925445
1761231910734153200,9.1211533203125,-0.27836861309111116,0.9134718122407793,-0.7604927890986204
1761231910744222200,9.13122216796875,-0.1757540417909622,0.7957564101815223,-0.9549728664085269
1761231910754292200,9.141292236328125,-0.14488719436228276,0.6915598303869366,-1.059629464930296
1761231910764361200,9.151361328125,-0.09144786511957645,0.6830912772491574,-1.1668987301684914
1761231910774431200,9.16143115234375,-0.08745616513490677,0.7313666478574276,-1.2533768440514803
1761231910784500500,9.17150048828125,-0.10393091459572315,0.754128222502768,-1.1907061606049536
1761231910794569200,9.1815693359375,-0.21983225297033784,0.8302052077502011,-1.070295235851407
1761231910804639200,9.19163916015625,-0.20902678131759164,0.9151292240589857,-1.0672776415959
1761231910814708200,9.201708251953125,-0.16232465137541294,0.9316793768435716,-1.1141646996509282
1761231910824778200,9.2117783203125,-0.1615191802114248,0.9766790867820382,-1.1811760426502673
1761231910834847200,9.22184716796875,0.017765958315134046,1.086108306533098,-1.269718614782393
1761231910844916200,9.231916259765624,0.029925767186284064,1.2238660874068736,-1.2265002353027463
1761231910854986200,9.241986328125,0.3559136250644922,1.3949334326863287,-1.1434856328118592
1761231910865055200,9.25205517578125,0.47051498675644393,1.7824071481406687,-0.7616816335570067
1761231910875124200,9.262124267578125,-0.5102776728242635,1.5506693533211946,-0.6199900203656404
1761231910885198000,9.272197998046876,0.14353928688466547,1.1072560162410139,-0.9550926203306764
1761231910895267300,9.282267333984375,0.31201135497391225,1.0249383830383418,-0.9155973530273884
1761231910905337300,9.29233740234375,0.400299294757843,0.9016279374510049,-0.7838551061160862
1761231910915406300,9.30240625,0.5382353548079729,0.7998834269836544,-0.755028605408594
1761231910925475000,9.31247509765625,0.6490858395338058,0.7051032025709748,-0.7541300491336733
1761231910935545000,9.322545166015624,0.7504243995487689,0.6630646805256605,-0.6478299942538142
1761231910945614000,9.332614013671876,0.6731330700755119,0.7998369574934243,-0.5270195487886667
