time,seconds_elapsed,z,y,x
1761232011402127600,0.078127685546875,-0.5113555311888456,-0.049587037728726864,0.36621414286978543
1761232011412197600,0.08819775390625,-0.446001307746768,0.16500146936923266,0.31160978843569753
1761232011422266400,0.098266357421875,-0.33126901315152646,0.29991935064196584,0.2198885862674564
1761232011432335600,0.108335693359375,-0.23952245734632013,0.375526380290091,0.08121354441829025
1761232011442405400,0.1184052734375,-0.041053894922137256,0.3533016890004277,-0.04446721049696207
1761232011452474600,0.128474609375,0.1306020639002323,0.26535803260952234,-0.11034538474790752
1761232011462544400,0.13854443359375,0.1738940931379795,0.15941110201627015,-0.1860187576305121
1761232011472613600,0.148613525390625,0.1626268491923809,0.027139351338148116,-0.20108641677238046
1761232011482683400,0.158683349609375,0.050204585105180735,-0.23459435329437253,-0.18110826230049132
1761232011492752600,0.168752685546875,-0.04208791414499283,-0.38851036502569913,-0.1644528590431437
1761232011502821400,0.1788212890625,0.11546236243546008,-0.3615460779935121,-0.1921659551486373
1761232011512891600,0.1888916015625,0.39639351949095725,-0.21440759757310152,-0.22403445390053092
1761232011522960400,0.19896044921875,0.49440439638793465,-0.12957768928855656,-0.24708459969628602
1761232011533030400,0.209030517578125,0.5070569572120904,-0.04664776940643787,-0.24992300145998594
1761232011543099400,0.219099365234375,0.3995049295097589,0.004306757283210754,-0.1645185446904972
1761232011553169400,0.22916943359375,0.22256080115139484,0.021145663881301877,-0.04087948820330203
1761232011563238700,0.23923876953125,0.1261935998082161,0.049885436153411865,0.045580834294669324
1761232011573307400,0.249307373046875,0.09216858060956001,0.05634352625161409,0.061226402922347184
1761232011583377700,0.259377685546875,0.06556114419102668,0.03039426148086786,0.029607421952113508
1761232011593446400,0.2694462890625,0.03736088562309742,0.024901217022538183,0.03687997023835778
1761232011603516700,0.2795166015625,0.09817454302608966,0.04592939200401306,0.04651110088210553
1761232011613585400,0.28958544921875,0.05241232428252697,0.04860387191027402,0.0964512628974393
1761232011623655700,0.29965576171875,0.011864625316858292,0.014602233587205408,0.10187131518479436
1761232011633724400,0.309724365234375,0.07416589092910289,0.0016907295659184455,0.028313217423111197
1761232011643793700,0.319793701171875,0.12759820590913296,0.018079262048006056,-0.022036950165219605
1761232011653863400,0.329863525390625,0.15939444314241408,0.007348024675250053,-0.0871627716789022
1761232011663932700,0.3399326171875,0.1078366898626089,-0.02999474076926708,-0.09159764885380864
1761232011674002400,0.35000244140625,0.014231354448199271,-0.059468088012933726,-0.03216704330705106
1761232011684071400,0.360071533203125,-0.11428045917451381,-0.08196107484996318,-0.012248729263618587
1761232011694140400,0.370140380859375,-0.09383972869217395,-0.05644815566986799,-0.036576530312374234
1761232011704210400,0.38021044921875,-0.04869125793278217,-0.028063188184797763,-0.09407291639354079
1761232011714279400,0.390279541015625,-0.05164192443192005,-0.06029752457439899,-0.028409444339200854
1761232011724349400,0.400349365234375,-0.005662263545393943,-0.07992138571590185,-0.10283581283539533
1761232011734418400,0.41041845703125,0.13253858492076395,-0.16139409252703188,-0.1247557855574414
1761232011744488400,0.420488525390625,0.25253683722019193,-0.1649795497983694,-0.13162537906598298
1761232011754557700,0.4305576171875,0.22437691066265106,-0.13607991078943013,-0.11094733269643038
1761232011764626400,0.44062646484375,0.2852636333018541,-0.16880378426164389,-0.13875530401114375
1761232011774696700,0.45069677734375,0.18173486976623535,-0.2259387531518936,-0.10208437341358512
1761232011784765400,0.460765380859375,0.13328326580822467,-0.2640589327096939,-0.008636858909390865
1761232011794835500,0.47083544921875,0.056741877919435496,-0.12367401820272207,-0.07104147529825568
1761232011804904400,0.480904541015625,0.12668810532689093,-0.06961392671316861,-0.05142844607802108
1761232011814974500,0.490974365234375,0.16027999380528926,-0.04404255534410476,0.01741668821973726
1761232011825043500,0.50104345703125,0.06373685137331485,-0.0011111761122941971,0.06945340238921344
1761232011835112400,0.511112548828125,0.04235796325802803,0.08231821772456169,0.13747257072422653
1761232011845182500,0.521182373046875,0.005823007065057754,0.1454465818107128,0.2524343814927153
1761232011855251500,0.53125146484375,-0.04468085324764252,0.15353665702491998,0.31527276792265474
1761232011865321500,0.541321533203125,-0.07664660182893276,0.245945768392086,0.17413321738978846
1761232011875390500,0.551390380859375,0.004672667986154556,0.21581074236929415,0.13263545115767045
1761232011885460700,0.561460693359375,-0.05232172338962555,0.13036474801301956,0.13242591832652686
1761232011895529500,0.571529541015625,-0.10888590665459633,0.06391659185439348,0.1626550341072492
1761232011905598500,0.581598388671875,-0.09522270748317241,0.05648848768025636,0.14050351765165103
1761232011915668500,0.59166845703125,-0.09372983857691287,0.060898997598886485,0.05949881194476038
1761232011925737700,0.60173779296875,-0.07884206604659556,0.0553431170374155,-0.025123664134182034
1761232011935807500,0.611807373046875,-0.06915712285637855,0.04863806644082069,-0.06712468544701114
1761232011945876500,0.62187646484375,-0.04887129067480564,0.04473784413188696,-0.11044102714210748
1761232011955946500,0.631946533203125,-0.03549918340444565,0.0424441802367568,-0.11377654650667682
1761232011966015500,0.642015380859375,-0.04046528137922287,0.04307049544155597,-0.09461001894492656
1761232011976084500,0.65208447265625,-0.05038754045665264,0.05330664277374744,-0.09894600232262164
1761232011986155000,0.662155029296875,-0.09615794250667095,0.07982493960410356,-0.09970894951913505
1761232011996224300,0.672224365234375,-0.1443880126684904,0.0844441238373518,-0.06714534464254975
1761232012006294300,0.682294189453125,-0.16099954025149343,0.06957067209333181,-0.034115510493703184
1761232012016363300,0.69236328125,-0.1603255865126848,0.03120645464658737,-0.028604638117738067
1761232012026433300,0.702433349609375,-0.04730944818556308,-0.11551204679608344,-0.051903132651373744
1761232012036502000,0.712501953125,-0.0008756137907505035,0.019161212065815926,0.10141531504560261
1761232012046571300,0.7225712890625,-0.12042086162567138,0.05911094513833522,0.07231091071218251
1761232012056641000,0.73264111328125,0.003956044149398804,0.021552198855578898,0.10879753425139933
1761232012066710300,0.742710205078125,0.07513093656897545,-0.0032177930027246474,0.16323825908899306
1761232012076780000,0.752780029296875,0.07804127105772495,-0.00348258141875267,0.15467673043813557
1761232012086849300,0.762849365234375,0.09523381339907645,0.03212912244945764,0.10335603731721639
1761232012096918000,0.77291796875,0.05353109917938709,0.041889761224389074,0.06440974566619843
1761232012106988300,0.78298828125,0.0522106642305851,0.026987375646829605,0.05019581727683544
1761232012117057000,0.79305712890625,0.04668927046060562,0.003267477363348007,0.06028598026707768
1761232012127127300,0.803127197265625,0.05345628037750721,-0.011963409516215323,0.07425941443145274
1761232012137196000,0.813196044921875,0.07570902871787548,-0.0188376791998744,0.07955299079492688
1761232012147266000,0.82326611328125,0.06574234597682953,-0.012788169902563094,0.0717531672315672
1761232012157335000,0.8333349609375,0.05882745202183723,-0.016437047798931598,0.08655936242565512
1761232012167404300,0.843404296875,0.03228957370817661,0.017953005319833754,0.058433703463897105
1761232012177474000,0.85347412109375,0.027380758878588676,0.011952303600311279,0.0025046032320708033
1761232012187543000,0.86354296875,0.03357669090926647,-0.033550679685175416,0.01320939098931849
1761232012197613300,0.87361328125,0.023899931025505066,-0.04741670795232057,0.028265761552192268
1761232012207682000,0.88368212890625,-0.004874328038096428,-0.04280395345985889,0.054248124874942
1761232012217752300,0.89375244140625,0.0006868132203817367,-0.032145781323313714,0.08817454253733158
1761232012227821000,0.903821044921875,-0.007251578563451767,-0.012526011835038662,0.10184552315641195
1761232012237890300,0.913890380859375,-0.002280219891667366,0.008435527651011944,0.07863521836288273
1761232012247960000,0.9239599609375,-0.01641395918428898,0.013688333612680435,0.03594864420499652
1761232012258029300,0.934029296875,-0.032302433189749714,0.0032706922337412832,0.009214183873310685
1761232012268099000,0.94409912109375,-0.034794250005483626,-0.0021060323685407637,0.006273709974624216
1761232012278168300,0.954168212890625,-0.059390346601605415,-0.013502747912704944,0.03496076567880809
1761232012288238000,0.964238037109375,-0.028436989933252332,-0.03358692004233599,0.06792630241978913
1761232012298307000,0.97430712890625,0.0014975450813770293,-0.03410013026148081,0.08072053673695773
1761232012308376000,0.9843759765625,0.0032592940568923947,-0.035061668770015236,0.08363156534545123
1761232012318446000,0.994446044921875,0.0015939911931753157,-0.003868365865945816,0.06744896723162383
1761232012328515000,1.00451513671875,-0.011090133813023567,0.03836217162013054,0.04486377206649631
1761232012338585000,1.014585205078125,-0.023384967240691185,0.05191285032778978,0.012797376122325657
1761232012348654000,1.024654052734375,-0.02163666226863861,0.04135872308760881,0.0022476693289354443
1761232012358724000,1.03472412109375,0.01362578977048397,0.0450736519575119,-0.014337299040704965
1761232012368793300,1.04479345703125,0.06617664574086665,0.04352583799362182,-0.01809763795491308
1761232012378862000,1.054862060546875,0.0715688601732254,0.01931172645241022,0.03647599254734814
1761232012388932400,1.064932373046875,0.10111293456554413,-0.004882803605496883,0.06025003217086196
1761232012399001000,1.0750009765625,0.11814064173400401,0.0000751110628247261,0.07536675461884587
1761232012409071000,1.085071044921875,0.09998597636222839,0.018980010280013084,0.07172324701733887
1761232012419140000,1.09514013671875,0.020240823996067046,0.06246347043663263,0.03414177744612098
1761232012429210000,1.105210205078125,-0.05657119752764701,0.07889905693084001,-0.034777518066391344
1761232012439279000,1.115279052734375,-0.10655366431474685,0.04652472754865884,-0.06180142633132636
1761232012449348000,1.12534814453125,-0.10458265650272369,0.021676409757137298,-0.06535663459487259
1761232012459418000,1.135418212890625,-0.07699263878762722,0.0021817279532551762,-0.05685154883898794
1761232012469487000,1.145487060546875,-0.041326282122731206,-0.01659457644820213,-0.01917692109160125
1761232012479557000,1.15555712890625,0.007201309680938721,-0.0193844994276762,0.008895473312959075
1761232012489626000,1.165626220703125,0.07723813798129558,-0.016316928550601004,0.025646190170943734
1761232012499696000,1.175696044921875,0.11032266145944594,-0.007623042224347591,0.01136295940503478
1761232012509765000,1.18576513671875,0.1110258412927389,0.010095862078666687,-0.005981631692871451
1761232012519834000,1.195834228515625,0.10062076713442802,0.010654372744262218,-0.011621391145512461
1761232012529904000,1.205904052734375,0.03957330097556114,-0.0009460486784577369,-0.01643522116802633
1761232012539973000,1.21597314453125,-0.008656769186258316,-0.010863047058880328,0.013832345193251966
1761232012550043100,1.226043212890625,-0.017906243568658827,-0.014819675730168819,0.03622384441718459
1761232012560112000,1.236112060546875,-0.010506196445226669,0.012092588853836059,0.050742564439401026
1761232012570182100,1.24618212890625,-0.022784663259983063,0.02283347083777189,0.05155643810555339
1761232012580251100,1.256251220703125,-0.03221417038440704,0.03414046227186918,0.034464871920645235
1761232012590320000,1.266320068359375,0.00014729951620101928,0.047074762646853924,0.02113959946669638
1761232012600390100,1.27639013671875,-0.006550152295827865,0.04340659552812576,0.01907747930511832
1761232012610459100,1.286459228515625,-0.027449147939682006,0.027507015606760978,0.02401062485836446
1761232012620529200,1.296529052734375,-0.008990531185269355,0.010117781649529933,0.019334230545163155
1761232012630598100,1.30659814453125,0.012928455156087875,-0.009629121349751949,0.018075681851431727
1761232012640668200,1.316668212890625,0.050128012737631795,-0.02685118204653263,0.024044088736549018
1761232012650737200,1.326737060546875,0.06521276914477347,-0.02693564545959234,0.021627382983639833
1761232012660806100,1.33680615234375,0.06082710140645504,-0.01918459294140339,-0.008592764039337635
1761232012670876000,1.3468759765625,0.043967152020335194,-0.012410276500880717,-0.03363127064071596
1761232012680945200,1.356945068359375,0.03202478529214859,-0.02085837137252092,-0.02263188385106623
1761232012691015200,1.36701513671875,0.0010918868899345397,-0.009185761496424675,-0.009016396278887987
1761232012701084200,1.377084228515625,-0.01169043779373169,0.0016688099950551987,0.005317176434770226
1761232012711154200,1.387154296875,-0.007094342175126075,0.0007180851414799689,0.0173687026258558
1761232012721223200,1.39722314453125,0.017408230918645858,0.019253566524386406,0.0014057751446962356
1761232012731292200,1.407292236328125,-0.02028466313779354,0.023356033407151696,-0.009887699220702052
1761232012741362200,1.417362060546875,-0.029887773263454435,0.0007645546317100524,-0.016805369654670357
1761232012751431200,1.42743115234375,-0.04844108256399631,0.0010346037447452544,-0.02156242798864841
1761232012761501200,1.437501220703125,-0.027454993158578873,-0.002834638904035091,-0.02085895589441061
1761232012771570200,1.447570068359375,0.0004804769933223724,0.0014469839379191397,-0.019564166843518613
1761232012781640000,1.457639892578125,0.03604337328374386,0.020891104598343372,-0.007787146744877099
1761232012791709200,1.467709228515625,0.06025719256401062,0.018956044882535935,-0.00032053719125688075
1761232012801778200,1.477778076171875,0.059063598865270614,0.022864742758870123,-0.002223082876950502
1761232012811848200,1.48784814453125,0.024213234758377073,0.004485328720510006,-0.0010288315910845995
1761232012821917200,1.497917236328125,-0.013563245928287506,-0.00135024556517601,-0.009860518952831625
1761232012831987200,1.5079873046875,-0.029300913286209106,-0.024054244804382324,0.014057678381726144
1761232012842056000,1.518055908203125,-0.011766425639390945,-0.015944880367815495,0.03007650076858699
1761232012852126200,1.528126220703125,-0.02432721652686596,-0.013278291507065295,0.03435739295817911
1761232012862195200,1.5381953125,-0.005673369461297989,-0.013901684102416038,0.04249368193428963
1761232012872264200,1.54826416015625,0.016356091517210007,-0.030237317353487014,0.053820656710490584
1761232012882334200,1.558334228515625,-0.00386252064704895,-0.029897125613689422,0.04611216469239443
1761232012892403200,1.5684033203125,-0.014196867656707763,0.005300444495677948,0.04011442211493849
1761232012902473200,1.57847314453125,0.01269815353155136,0.05912906531691551,0.033146848124638195
1761232012912542200,1.588542236328125,0.06308920111954212,0.06589665975570679,0.034664632276445624
1761232012922612200,1.5986123046875,0.13819500324726103,0.04932634096592665,0.03788443457316607
1761232012932681000,1.608680908203125,0.16318682116270064,0.023042145152390003,0.05222819988727569
1761232012942751200,1.618751220703125,0.0986520974099636,0.014069441884756088,0.05493318452965468
1761232012952820000,1.628820068359375,-0.05806932713091373,0.03574789746850729,0.0030841201530769466
1761232012962889200,1.63888916015625,-0.16407938608825207,0.059742813301086425,-0.10010883555691688
1761232012972959000,1.648958984375,-0.18494857111573218,0.029524785169959065,-0.13291940093189478
1761232012983027500,1.65902734375,-0.17092881359159945,-0.029953531976044175,-0.06270604702085256
1761232012993097200,1.66909716796875,-0.07686053684055805,-0.05473872140347957,0.0237104728680104
1761232013003166500,1.67916650390625,0.018528174859285353,-0.02663286312073469,0.07721753358468413
1761232013013235500,1.6892353515625,0.08171089948117732,0.013772212503850459,0.08687098565809429
1761232013023305500,1.699305419921875,0.09493395366966724,0.013638356991112231,0.048443749445118006
1761232013033374200,1.709374267578125,0.06936404360532761,-0.004074117571115494,-0.007864742025732993
1761232013043444500,1.719444580078125,0.026073767933249472,-0.021528525719046593,-0.02918232840783894
1761232013053513200,1.72951318359375,-0.02958089927136898,-0.02169248410910368,-0.02577672121543437
1761232013063583500,1.73958349609375,-0.04424889157116413,0.014729074837267398,-0.012028766370005904
1761232013073652200,1.74965234375,-0.044431262400746345,0.029072949749231337,0.003009776275232434
1761232013083722200,1.75972216796875,-0.04963292269706726,0.017678280031681058,0.04328190970253199
1761232013093791500,1.76979150390625,-0.011927753680944442,-0.00047755438387393946,0.07434917507413774
1761232013103860500,1.779860595703125,0.024654548785090446,0.004282791885733604,0.07667356290109455
1761232013113930500,1.789930419921875,0.03798690856695175,0.0046659459844231605,0.06899999606590718
1761232013123999200,1.799999267578125,0.05626198544800281,-0.0036582302466034887,0.05597242791689932
1761232013134069500,1.810069580078125,0.032843115937709805,-0.010216858109831809,0.04892630879767239
1761232013144138200,1.82013818359375,0.003776595929265022,0.0030190555602312087,0.05813439172375947
1761232013154208500,1.83020849609375,-0.0234235456854105,0.006663549542427063,0.07731105708703398
1761232013164277200,1.84027734375,0.06894026523530483,-0.012499708350002765,0.09551657586321234
1761232013174346500,1.850346435546875,0.2339163079023361,-0.03959025211036205,0.15533292932454495
1761232013184416300,1.860416259765625,0.4412637578308582,-0.0500800819426775,0.08118735053110868
1761232013194485500,1.870485595703125,0.41555180894732474,0.03359744143635034,0.022793321490474045
1761232013204555300,1.88055517578125,0.15865385390818118,0.12937632149755954,-0.004485949775017798
1761232013214624500,1.89062451171875,-0.05051204361915588,0.13331599903404712,0.01868862611800432
1761232013224694500,1.900694580078125,-0.08830489091873168,0.06678337946236133,0.020753888084739446
1761232013234763300,1.91076318359375,-0.02496317634284496,-0.07019406468868256,0.003312047157436609
1761232013244832300,1.920832275390625,0.06267477509975433,-0.08484276776611804,0.005671140971593558
1761232013254902300,1.93090234375,0.14033259979784488,0.0721110042259097,0.10963785753306
1761232013264971500,1.940971435546875,0.19155133038163183,-0.07962590990066527,0.20921572801843286
1761232013275041300,1.951041259765625,0.21637655955851076,-0.08069266234934329,0.09929054144397377
1761232013285110500,1.961110595703125,0.20166355907320976,-0.02385404605716467,-0.045306328202225264
1761232013295180300,1.97118017578125,0.11059212605059146,-0.041515959475934505,-0.12348375632762908
1761232013305249500,1.98124951171875,-0.02062368583381176,-0.04285568364709615,-0.11154076854493468
1761232013315318300,1.991318359375,-0.09279460355341435,-0.02865852372944355,-0.13055420617051422
1761232013325388500,2.001388427734375,-0.03433715388774872,-0.036108255213499064,-0.12329769570361822
1761232013335457300,2.011457275390625,-0.09002572336196898,-0.030884383085370063,-0.1420921202836558
1761232013345527300,2.02152734375,-0.10311959821283817,-0.005574293000996112,-0.12546079202163965
1761232013355596300,2.03159619140625,-0.11505495067834853,0.013287936118245124,-0.0706493707081303
1761232013365666300,2.041666259765625,-0.17277414919734,0.02091243964731693,-0.04071253413856029
1761232013375735300,2.0517353515625,-0.18257599676549432,0.0338259894952178,-0.02957856118381023
1761232013385804300,2.06180419921875,-0.12065233229398727,-0.0018728081345558165,-0.029356278468947856
1761232013395874600,2.07187451171875,-0.024071195939183235,-0.03884995513707399,-0.05445245180800557
1761232013405943300,2.081943359375,0.09631050271987915,-0.07020487834364175,-0.07861072324244305
1761232013416013600,2.092013671875,0.2904576948136091,-0.10479513020962476,-0.1194518887293525
1761232013426082300,2.102082275390625,0.5230056369721889,-0.12144552849829196,-0.10325138963265344
1761232013436152600,2.112152587890625,0.7597814259588718,-0.2370972760260105,-0.14631912686154244
1761232013446221300,2.12222119140625,1.363556297647953,-0.5893173072695732,-0.1939164886103943
1761232013456290600,2.13229052734375,2.1552070260763165,-1.024160676664114,-0.3160423640556633
1761232013466360300,2.1423603515625,2.636810977602005,-1.1168635102808475,-0.7545271586924791
1761232013476429600,2.1524296875,2.709228563559055,-1.5006912704482673,-1.395618638471514
1761232013486499300,2.162499267578125,3.2695676136255263,-1.0966188868924975,-1.0389457925375551
1761232013496568300,2.172568359375,4.459569425353408,-0.928463337406516,-0.2102773659005761
1761232013506638300,2.182638427734375,1.7606717016726732,-1.7717784943595527,-0.22470753085650502
1761232013516707300,2.192707275390625,0.23787469013929366,-1.960011201712489,-0.22190935150533914
1761232013526776300,2.2027763671875,-0.12006138066351413,-1.455032804340124,-0.4775939852319658
1761232013536846300,2.212846435546875,-0.25302082134485243,-0.6112476917877793,-0.9051372607462108
1761232013546915300,2.222915283203125,-0.473196773186326,0.09705255325883626,-1.011861167061329
1761232013556985300,2.2329853515625,-0.38887306085824963,0.3942950859069824,-1.071048026980087
1761232013567054300,2.243054443359375,-0.41179976293742654,0.8072916574135423,-1.2001698622599244
1761232013577124400,2.253124267578125,-0.321541984385252,1.6204519145995377,-1.1892615147545933
1761232013587193600,2.263193603515625,0.2153770271271467,2.8198569299668073,-1.3830989102467894
1761232013597263400,2.273263427734375,0.08746551748514175,3.2123113564431667,-1.0524098889403044
1761232013607332400,2.283332275390625,-1.1777174996942281,2.7743849263414737,-0.6660699998214841
1761232013617401300,2.2934013671875,-1.03541389208436,1.8114812669336795,-0.2342828031271696
1761232013627471400,2.303471435546875,-2.187566742411256,0.2974935847997665,0.5651740690074861
1761232013637540400,2.313540283203125,-3.355447907745838,-0.8731409708961844,1.9227847561240194
1761232013647610400,2.3236103515625,-2.700129895824194,-0.9532970421507954,3.0296248850405214
1761232013657679400,2.333679443359375,0.20536767428815364,-0.35362931351959703,2.640698048168421
1761232013667749400,2.343749267578125,1.325752344432473,-0.18325111954808235,1.271790452620387
1761232013677818400,2.353818359375,0.5988777472972869,-0.2565127551138401,0.567327301518619
1761232013687887400,2.363887451171875,0.08535539346337317,-0.24948855556547642,0.7678986814409494
1761232013697957400,2.373957275390625,-0.5582686735332012,-0.22353607592433689,1.268090136797726
1761232013708026400,2.3840263671875,-3.1510312505722045,-0.7241723524391651,1.2503648027539251
1761232013718096400,2.394096435546875,-4.66600268304646,-1.2247674201607703,2.883530360715091
1761232013728165400,2.404165283203125,-3.2735862016171215,-0.5017056593120098,2.745902343700826
1761232013738235400,2.4142353515625,-3.3732805015563962,-0.7014817972034215,1.520397549176216
1761232013748304400,2.424304443359375,-3.157261084872484,-1.5561854863941669,1.4793363477304577
1761232013758373400,2.434373291015625,0.04272036682963371,-1.3538000427871941,1.4214995141811668
1761232013768443400,2.444443359375,2.3386083677500484,0.2451356210529804,1.200312485601008
1761232013778512400,2.454512451171875,0.35411271312236786,1.1211509783416986,-0.8321599950797856
1761232013788582400,2.46458251953125,-2.123652780905366,-1.410880943402648,-0.7946876119062304
1761232013798651400,2.4746513671875,-4.786821604079008,-3.964976228395104,-1.8504045795679092
1761232013808721400,2.484721435546875,-8.333753622189164,-4.638090009248256,-3.5429826959624884
1761232013818790400,2.494790283203125,-10.23440662600398,-2.8385733208745716,-3.436579546034336
1761232013828859400,2.504859375,-9.97651439923048,-0.8010328892797232,-3.431566978569329
1761232013838929400,2.514929443359375,-7.463015913042426,2.3366765229046345,-4.2930005605369805
1761232013848998400,2.524998291015625,-5.210871776780486,3.7686867635756727,-4.629928330102563
1761232013859068400,2.535068359375,-3.110889794319868,3.545113570511341,-5.347057193771004
1761232013869137400,2.545137451171875,-1.6231173344165086,4.600615726378559,-7.5973413813799615
1761232013879207400,2.55520751953125,-0.8568015382528305,6.244478327181935,-10.947596981179714
1761232013889276400,2.5652763671875,0.20452771633267403,7.212448914590477,-13.146546118348835
1761232013899345400,2.575345458984375,1.4321815055847167,6.7409156907022,-13.8258482324481
1761232013909415400,2.58541552734375,1.6715195462748407,6.706754477903247,-13.706509905362129
1761232013919484400,2.595484375,1.1312760665148496,7.571096348533034,-12.443401356369256
1761232013929554400,2.605554443359375,0.3939318055525422,8.5027874158144,-10.386418557679653
1761232013939623400,2.61562353515625,0.4232283349245786,9.34686917322576,-8.147844681608676
1761232013949693400,2.625693359375,0.42078181855529545,10.411219821459055,-5.1173091114640235
1761232013959762400,2.635762451171875,0.9394766065910458,11.360475187003612,-1.5473676814272999
1761232013969831400,2.64583154296875,0.07176438274532557,11.979797171914576,2.6961890492439267
1761232013979901400,2.6559013671875,-1.023684875845909,12.153900523889064,7.734808070352673
1761232013989970400,2.665970458984375,-1.507825360111892,11.763928561878204,13.754979629498719
1761232014000040400,2.67604052734375,-0.5040967922322451,10.48045643929243,19.572844070971012
1761232014010109700,2.686109619140625,0.17467618342638014,8.396691432139278,24.89984222705364
1761232014020179500,2.696179443359375,0.3551636834800243,5.841213168355822,29.176961912369727
1761232014030248700,2.706248779296875,0.4921979723848402,4.473221518608927,32.09282597819566
1761232014040317400,2.7163173828125,1.4537369193106888,3.8288504326373336,33.247567675971986
1761232014050387700,2.7263876953125,2.9588690948158503,5.09506571547389,32.80259220414162
1761232014060456400,2.73645654296875,3.8340778118968006,7.581334249430895,30.901271091806887
1761232014070526700,2.746526611328125,4.096104361996054,9.82606314100027,27.50868500127792
1761232014080595500,2.756595458984375,3.560164424648881,11.209011536860466,23.428458007371425
1761232014090665500,2.76666552734375,2.578374570724368,11.449628803706169,18.903951122683285
1761232014100734500,2.776734375,1.025077353117615,11.22448032414913,14.377551556116341
1761232014110803700,2.7868037109375,-0.8555855865918099,11.411979748791456,9.36262788337171
1761232014120873500,2.79687353515625,-3.605470716318488,12.53423839611411,2.990302051694691
1761232014130942500,2.8069423828125,-5.767533599638939,13.88596046358347,-5.133537777209281
1761232014141012700,2.8170126953125,-5.71014348694384,14.733931045126914,-12.473908722835779
1761232014151081500,2.82708154296875,-1.664663396769762,15.789341431057451,-18.656153588944672
1761232014161151700,2.83715185546875,2.8918256031125784,17.92997983355522,-23.636494024085998
1761232014171220500,2.847220458984375,7.847260145056247,19.505588982343674,-27.235530907964705
1761232014181290800,2.857290771484375,11.147636738443374,18.941918157505988,-28.941549228429793
1761232014191359500,2.867359375,11.986480595201254,16.986963654661178,-28.717069441914557
1761232014201428700,2.8774287109375,10.638840828609466,16.119776331472394,-26.979769848001002
1761232014211498500,2.88749853515625,9.176830001950263,14.409731824231146,-24.186748902511596
1761232014221567700,2.897567626953125,8.318117077118158,11.724887175822257,-20.577665256392955
1761232014231637500,2.907637451171875,7.4242778938472265,10.22946390890479,-16.704233923751115
1761232014241706500,2.91770654296875,6.17201222590804,9.400623559767007,-12.921419850623607
1761232014251776500,2.927776611328125,4.593196390032768,9.674431733074783,-9.263292479872703
1761232014261845500,2.937845458984375,3.3440462237656114,10.79308680294752,-5.432189299872517
1761232014271914500,2.94791455078125,1.6029776327073573,12.441961094433069,-1.2457339280828832
1761232014281984500,2.957984619140625,-0.8137895680654793,13.86624454024434,3.4573762503474947
1761232014292053500,2.968053466796875,-4.868496263203024,14.362813421189784,9.343904478201269
1761232014302123500,2.97812353515625,-8.588960555401444,13.318684307730198,16.517712988752127
1761232014312192500,2.988192626953125,-9.982400534659623,10.541327379840611,24.161904384112358
1761232014322262500,2.998262451171875,-8.729825070118904,7.3720853497952215,30.747284645187854
1761232014332331800,3.008331787109375,-5.267292752182484,4.669187742823362,35.71780861971378
1761232014342400500,3.018400390625,-1.6300047558426856,2.467151745554805,37.88827868137359
1761232014352470500,3.028470458984375,1.0414251151978968,2.1178443868875503,37.405169001460074
1761232014362539500,3.03853955078125,3.253154238963127,3.7215257839500904,34.93237954227924
1761232014372609500,3.048609619140625,4.299415688276291,5.934276651978492,30.982528986823556
1761232014382678500,3.058678466796875,4.614105907070637,7.431313783833384,26.057282077872753
1761232014392748500,3.06874853515625,3.66322557067275,8.593261467465759,20.63263603298664
1761232014402817500,3.078817626953125,2.2102251489430667,9.4116248462528,14.984472324615716
1761232014412886500,3.088886474609375,0.16789397594034672,10.31430609214902,9.103755413389205
1761232014422956500,3.09895654296875,-2.7872902928829193,12.450738275128602,1.8230922097504139
1761232014433025500,3.109025634765625,-4.980018948101997,15.272373905205725,-6.8128937161982055
1761232014443095600,3.119095458984375,-4.023015160387755,16.831434070253373,-14.607643921816349
1761232014453164500,3.12916455078125,0.16286299603581428,16.350987472069264,-20.480583184778688
1761232014463234600,3.139234619140625,4.792373392987251,15.78938117854595,-24.421511598110197
1761232014473303600,3.149303466796875,8.034047622036933,16.122259380459784,-26.57838334252834
1761232014483373600,3.15937353515625,9.494123681241273,16.279423288071154,-27.655287767386437
1761232014493442600,3.169442626953125,8.98166398820281,14.28650525753498,-26.76695945649147
1761232014503511600,3.179511474609375,7.954446262055635,12.722532770526408,-24.643548083126543
1761232014513581600,3.18958154296875,6.53895402546525,11.27862107965946,-21.41499987763166
1761232014523650600,3.199650634765625,5.688929434001445,9.709230074733496,-17.385739685374496
1761232014533720600,3.209720458984375,5.012693721735477,8.58889158181846,-13.05936818563342
1761232014543789600,3.21978955078125,3.983758670276403,7.860458649325371,-8.848700455868244
1761232014553859600,3.229859619140625,2.388469838505983,7.7281386755913495,-5.263059644657373
1761232014563928600,3.239928466796875,0.3582312543570995,8.057070185706019,-2.0173544065259397
1761232014573997600,3.24999755859375,-2.253756832155585,8.283802135062217,1.3659564906574786
1761232014584067600,3.260067626953125,-5.789266708019375,8.343734917977452,5.267769137522578
1761232014594136600,3.270136474609375,-8.518086107233167,7.986951524341106,9.793170925223826
1761232014604206600,3.28020654296875,-9.668197222599387,7.41910545964539,14.597520002686977
1761232014614275300,3.290275390625,-9.046779142192005,6.547357696673274,19.926938079392908
1761232014624345600,3.300345703125,-6.306115575927495,4.53910765697062,25.725432634484765
1761232014634414300,3.310414306640625,-3.690166184568405,1.297702892512083,29.864612168097494
1761232014644483600,3.320483642578125,-3.1986352977901693,-0.05034954653382301,30.59771952214241
1761232014654553600,3.3305537109375,-3.974301690623164,0.4046978219777345,28.943592716956136
1761232014664622600,3.34062255859375,-3.475044593507051,1.3321668876498938,26.388002224969863
1761232014674692600,3.350692626953125,-1.6412077023804186,2.184149627444148,23.719327790117262
1761232014684761600,3.36076171875,0.24333061745762824,2.8573808971971273,20.61593974972963
1761232014694831600,3.37083154296875,0.8870657436132431,3.6836575333267447,16.60289770182371
1761232014704900600,3.380900634765625,0.7040063472449779,4.61781119132936,11.793969479876756
1761232014714969600,3.390969482421875,-0.20096333838198333,6.219113584300875,6.262908886885643
1761232014725039400,3.401039306640625,-1.3961223502099513,8.483525665983557,-0.39283436570465563
1761232014735108600,3.411108642578125,-1.648191569918394,11.312690522521734,-8.327968024525045
1761232014745178400,3.421178466796875,0.266641277353093,13.840255527985095,-16.158697306019068
1761232014755247600,3.43124755859375,4.5680070037186145,14.697529359924792,-22.517050434184075
1761232014765317400,3.4413173828125,8.743105407452584,15.144515587055682,-26.460436177539822
1761232014775386600,3.45138671875,12.418089220458269,15.036986940228939,-28.417665639579294
1761232014785456600,3.46145654296875,11.817495316892861,16.512961994832754,-27.941530474853515
1761232014795525600,3.471525634765625,10.937567754596472,13.85649003894925,-26.13609900947809
1761232014805594400,3.481594482421875,9.169248753041028,10.912439158558845,-22.917003691983222
1761232014815664600,3.49166455078125,6.42363954706788,9.809887082225083,-18.74304861306548
1761232014825733600,3.501733642578125,4.316080407351255,7.6435209487527604,-14.239016361129282
1761232014835803400,3.511803466796875,2.4927041199624536,5.9519461641818285,-9.662405779716371
1761232014845872600,3.52187255859375,0.5626736304938793,5.310258033683896,-5.199203550818562
1761232014855942400,3.5319423828125,-1.6136346358001232,5.223987863463163,-0.9444478191323578
1761232014866011600,3.54201171875,-4.450938959652185,5.469211747321486,3.3236636532112955
1761232014876080600,3.55208056640625,-7.526754517981409,5.46230445215106,7.883035222792625
1761232014886150700,3.562150634765625,-9.62188438423574,5.281045967724919,12.45404433093667
1761232014896219400,3.572219482421875,-10.809846214568614,5.054989141151308,16.954460730463264
1761232014906289700,3.58228955078125,-10.057889198625087,3.753524265757203,21.414950777792928
1761232014916358400,3.5923583984375,-8.020023772859572,1.2682593558847903,25.713529430723188
1761232014926428700,3.6024287109375,-6.425826243457197,-0.3400719128102064,28.074747689688206
1761232014936497400,3.612497314453125,-5.4048178933441635,-0.3802431796789169,27.97777784627676
1761232014946566700,3.622566650390625,-4.390442113113403,0.5876520044058561,26.45060919553041
1761232014956636700,3.63263671875,-2.777133056005835,1.4940198298603296,24.227106631863116
1761232014966705700,3.64270556640625,-0.8908440931081771,1.8771791892468928,21.506991932630537
1761232014976775700,3.652775634765625,0.36001053898930546,2.4108570268809792,18.151200326013566
1761232014986844400,3.662844482421875,0.7856815908908844,3.092327132669091,14.319168340730666
1761232014996914700,3.672914794921875,0.6079986268639564,3.951658481660485,10.123543866318464
1761232015006983400,3.6829833984375,-0.5047761527985334,5.397281652620435,5.21371839838326
1761232015017053700,3.6930537109375,-2.0978911476612088,7.3314973188191646,-0.9870520122364163
1761232015027122400,3.703122314453125,-3.0228982071340083,9.77990286284983,-8.291514316874743
1761232015037191700,3.713191650390625,-1.743223138743639,12.094031453859806,-15.389353101944922
1761232015047261400,3.723261474609375,2.0424363869428634,12.960980292117595,-21.036659901225566
1761232015057330700,3.73333056640625,6.359245108568668,13.629974947214127,-24.940024599838257
1761232015067400400,3.743400390625,9.285241276830435,14.395918402934074,-27.080286570239064
1761232015077469700,3.7534697265625,10.210129093837738,14.275567683935165,-27.366716324710843
1761232015087539500,3.76353955078125,9.445542897945641,13.41398241853714,-26.043005715239048
1761232015097608400,3.7736083984375,7.779893997269868,11.509507226085661,-23.147193088316914
1761232015107677400,3.783677490234375,6.302630656421184,9.893430457830428,-19.285566759759188
1761232015117747500,3.79374755859375,5.157141940158605,8.504683604824542,-14.854669886660576
1761232015127816400,3.80381640625,4.14424850744009,7.250670216435194,-10.35352400381565
1761232015137886500,3.813886474609375,3.1718226941883563,6.899393018999695,-6.430338167923688
1761232015147955500,3.82395556640625,1.9549496805392204,7.372526663821935,-3.030140433347225
1761232015158025500,3.834025390625,0.7439432208359241,8.263919038462639,0.23020766264274714
1761232015168094500,3.844094482421875,-0.454668013805151,9.082341453960538,3.9374277117341756
1761232015178164500,3.85416455078125,-2.1273756008207796,9.088588823917508,8.194924997213482
1761232015188233700,3.864233642578125,-4.162877220064401,7.874075671267509,13.154644084608554
1761232015198302500,3.874302490234375,-5.330101967316866,6.234340379527211,18.18294804793
1761232015208372500,3.88437255859375,-4.694457793158293,5.393364186915755,22.88448323212862
1761232015218441500,3.89444140625,-3.100570644879341,4.538489232811331,26.903237227940558
1761232015228511500,3.904511474609375,-1.175305323985964,2.731606984105706,28.636047693741318
1761232015238580500,3.91458056640625,0.07651267325095831,2.037107300874591,28.287137225437164
1761232015248650500,3.924650390625,1.057622143695876,2.705961670717597,26.584756969213483
1761232015258719500,3.934719482421875,2.035298205626011,4.347019150972366,23.974983636140824
1761232015268788500,3.94478857421875,2.9905916822910306,5.5677136226058,20.793522175991534
1761232015278858500,3.9548583984375,3.1176269936203953,5.944553715842962,17.22114650454521
1761232015288927500,3.964927490234375,2.0809540413856507,5.9397302412092685,13.225716101175546
1761232015298997500,3.97499755859375,0.6179764155209064,5.536094495505094,9.062986765149235
1761232015309066500,3.98506640625,-1.3106880462914705,5.317824085023999,4.5683571323305365
1761232015319136500,3.995136474609375,-3.6057284904718396,5.913405713385343,-0.9127139796108007
1761232015329205500,4.00520556640625,-5.194398196363449,7.477880889219045,-7.119336331129074
1761232015339274500,4.0152744140625,-4.7053994584113354,9.538186694851516,-13.320427352005243
1761232015349344500,4.025344482421875,-2.209670437669754,10.883227092599869,-19.023599246370793
1761232015359413500,4.03541357421875,1.8864649039864538,11.80949788839817,-23.743620519852637
1761232015369483500,4.0454833984375,5.767720646643638,13.165212240374087,-27.130228120493886
1761232015379552500,4.055552490234375,7.949670718216896,13.691402352601289,-28.405451470172405
1761232015389622500,4.06562255859375,8.557664668905735,13.122254557657241,-27.351808678436278
1761232015399691500,4.07569140625,8.058738995701074,11.53179855287075,-24.535893179571627
1761232015409761500,4.085761474609375,6.573059708684682,10.19225675253868,-20.311733515548706
1761232015419830500,4.09583056640625,4.826717561137676,9.113194857385754,-15.666522860640287
1761232015429899500,4.1058994140625,3.3397149165630338,8.149496540468931,-11.090525442689657
1761232015439969500,4.115969482421875,1.972816322749853,7.71385120704174,-6.916275180217624
1761232015450038500,4.12603857421875,0.5231319302329793,7.644742014980316,-3.1850638685554262
1761232015460108500,4.136108642578125,-1.1966694529235362,7.743036969515681,0.3541732842031866
1761232015470177500,4.146177490234375,-3.3952257913827895,7.481093421524763,4.232327188387513
1761232015480247600,4.15624755859375,-5.286420646500587,6.847608471226692,8.810219041782617
1761232015490316500,4.166316650390625,-6.1259483938693995,5.95388210068047,14.04653680998683
1761232015500385500,4.176385498046875,-5.912092877221107,4.759843580782413,19.139536825102567
1761232015510455600,4.18645556640625,-4.991099145042896,3.5384839232385157,23.49482228463888
1761232015520524500,4.196524658203125,-3.7401661870121954,2.450601008248329,26.34563140223026
1761232015530594600,4.206594482421875,-1.5885703371703623,1.9583406381517647,27.25827114756107
1761232015540663600,4.21666357421875,0.5501216804999858,2.3237404689639805,26.786646153736115
1761232015550733600,4.226733642578125,2.0757132181227207,3.415394719186425,25.21191612586975
1761232015560802600,4.236802490234375,3.0689000798523423,4.716773085340857,22.704574408745763
1761232015570871600,4.24687158203125,3.386120109385252,5.551707075178623,19.65587657444477
1761232015580941300,4.25694140625,3.1117279987096786,5.941464517655969,16.256704091262815
1761232015591010600,4.267010498046875,2.4983237134099006,5.804480643764138,12.54609951429963
1761232015601080300,4.277080322265625,1.3750479979991912,5.50641247394681,8.6889506234169
1761232015611149600,4.287149658203125,-0.062452665914827954,5.39939703733921,4.476537511289119
1761232015621219300,4.29721923828125,-1.8511574437618254,5.894410505536198,-0.6754346250161528
1761232015631288600,4.30728857421875,-3.500645483231544,7.13113081381917,-6.847243729567527
1761232015641357300,4.317357421875,-3.410956444478035,8.660959623685478,-13.04541798621416
1761232015651427600,4.327427490234375,-0.9747311675846576,10.040212087637185,-18.575560879838466
1761232015661496300,4.337496337890625,2.9098645331501958,11.429378627359867,-23.13534132248163
1761232015671566600,4.347566650390625,6.387242538040876,12.340786200547218,-26.338074703240395
1761232015681635600,4.357635498046875,7.975939131939411,12.721806794339418,-27.337962523913383
1761232015691705300,4.367705322265625,9.070913466495275,11.814444112628697,-26.68454187004566
1761232015701774600,4.377774658203125,8.234739705729485,10.340091690790652,-23.69219896017313
1761232015711844400,4.38784423828125,6.715798785102367,9.323469008415938,-19.81833391228914
1761232015721913600,4.39791357421875,5.045153391313552,8.316371694755553,-15.492574991488455
1761232015731982600,4.407982666015625,3.4960289293467994,7.159307106989622,-11.091378844648599
1761232015742052600,4.418052490234375,2.136111864984035,6.7380328287422655,-6.959702818533778
1761232015752121300,4.428121337890625,0.7539362070620059,6.788589296025037,-3.1236002228111026
1761232015762191600,4.438191650390625,-1.087636246752739,7.073339134585857,0.4701005607366562
1761232015772260400,4.44826025390625,-3.423336033579707,7.134014260300994,4.184782177880406
1761232015782330600,4.45833056640625,-5.605055219006538,6.64609805688858,8.417918929085134
1761232015792399400,4.4683994140625,-6.933181306833029,5.699668854680657,12.752281427580117
1761232015802469400,4.478469482421875,-6.424746047005057,4.965498255318403,16.52994235572815
1761232015812538600,4.48853857421875,-5.315723897874355,4.198597352743149,20.090531727790832
1761232015822607600,4.498607666015625,-3.594410977643728,3.076733842217922,22.595865027701855
1761232015832677600,4.508677734375,-1.3707166907966135,2.1704554486125707,23.742575394713878
1761232015842746600,4.51874658203125,0.08060428994614631,2.291702239668369,23.54310846890211
1761232015852816600,4.528816650390625,0.8463562051493674,3.2063767056971786,22.16608244882822
1761232015862885400,4.538885498046875,1.4939058480918406,4.569280676916241,20.255832180106637
1761232015872955600,4.54895556640625,2.246132913148403,6.026319560381769,18.085953654599187
1761232015883024400,4.5590244140625,2.689862184309959,7.12575847313106,15.728897191488741
1761232015893093600,4.56909375,2.6764135046720505,7.541424263846873,13.09646311379671
1761232015903163400,4.579163330078125,2.447135962486267,7.480242357653379,10.298560241484642
1761232015913232600,4.589232666015625,1.8359201271414756,7.029072122836112,7.464848389166593
1761232015923302400,4.599302490234375,1.02528705034554,6.1936220001697535,4.404487297339737
1761232015933371600,4.60937158203125,0.010451233121287077,5.464459584358334,0.6761081403635442
1761232015943441700,4.619441650390625,-1.4844535446137188,5.467019790235161,-3.91238124102205
1761232015953510400,4.629510498046875,-2.453357028958201,5.921976557853817,-8.99820654220283
1761232015963579400,4.639579345703125,-1.9533733711332082,6.689021252813935,-13.928105660873651
1761232015973649400,4.6496494140625,-0.027546690030023455,7.558390596216917,-18.08457652102709
1761232015983718400,4.659718505859375,2.711325243577361,8.39493202125132,-21.36073286539316
1761232015993789000,4.669788818359375,5.094167305329441,8.882031647583842,-23.596996710956095
1761232016003858200,4.679858154296875,6.274785202640294,8.591729435592889,-24.568958413827417
1761232016013928000,4.689927978515625,6.291444076496362,8.12825501499772,-23.87293780463934
1761232016023997200,4.6999970703125,5.558984957227111,7.344558460444212,-21.73440835711956
1761232016034067000,4.71006689453125,4.4953632077902554,6.478706769773364,-18.811508985829352
1761232016044136000,4.720135986328125,3.4197394703924653,5.46040241792202,-15.3573891069293
1761232016054205000,4.730204833984375,2.441459085893631,4.457673820865154,-11.76147356994152
1761232016064275000,4.74027490234375,1.3221446753293276,4.085311165302992,-8.246720066380501
1761232016074344000,4.750343994140625,0.1303461163777858,4.125608688899875,-4.763789103537798
1761232016084414000,4.7604140625,-1.2880389921098947,4.190154518568516,-1.2862687675669788
1761232016094483000,4.77048291015625,-3.0274107161223887,4.322362848621607,2.0510178989358243
1761232016104553000,4.780552978515625,-4.832263504827022,4.313990157073736,5.472771485629678
1761232016114622200,4.790622314453125,-6.159601657146215,4.211733313170075,8.942701512601971
1761232016124691000,4.80069091796875,-6.082514910334348,4.248239627790451,12.35225218193531
1761232016134761200,4.81076123046875,-5.092123232281208,4.020526266181469,15.996276208531855
1761232016144830000,4.820829833984375,-3.756421740764379,3.034304567289352,19.06401659695506
1761232016154900000,4.83089990234375,-2.17640588144958,1.8533686900705098,20.923589986884593
1761232016164969000,4.840968994140625,-0.9706272393971681,1.4116197790712117,21.534057634210587
1761232016175039000,4.8510390625,-0.14961654270542785,1.7186550991982221,21.135488524246213
1761232016185108000,4.86110791015625,0.875333220243454,2.4815514423072336,19.91403417415619
1761232016195177000,4.871177001953125,1.9449591785311697,3.856818636015057,18.130088564401863
1761232016205247000,4.8812470703125,2.7103824097692963,5.409388854521513,16.03888434715867
1761232016215316000,4.89131591796875,2.994121609982848,6.778204680132865,13.914782068920134
1761232016225386000,4.901385986328125,3.022846184685826,7.439428116706013,11.76016657899618
1761232016235455000,4.911455078125,3.156155169457197,7.329111884987354,9.526121578526496
1761232016245525200,4.921525146484375,2.870357283148169,6.824814455616473,7.218283027571439
1761232016255594000,4.931593994140625,1.9271675012528895,6.244750129860639,4.592050142607093
1761232016265663000,4.9416630859375,0.5269214221764356,5.684435045191646,1.2932896061144767
1761232016275733000,4.95173291015625,-1.5158464617431162,5.276370377129316,-3.026816841882467
1761232016285802200,4.96180224609375,-3.0040970605522395,5.301950224065781,-7.941728234779834
1761232016295872000,4.9718720703125,-3.11679755705893,5.947688506737351,-12.425835304540396
1761232016305941000,4.98194091796875,-1.5721663148581981,6.788766406157612,-16.056480794125793
1761232016316011000,4.992010986328125,0.9313087899655104,7.614913862949609,-19.00494715287089
1761232016326080000,5.002080078125,3.2097593338727948,8.300383852028846,-21.332935342407225
1761232016336150000,5.01214990234375,4.8678345844239,8.449563190627098,-22.56933007199764
1761232016346219000,5.022218994140625,5.5164896313250065,7.935079298284649,-22.369690127706527
1761232016356288000,5.0322880859375,5.283757564771175,7.127988424140215,-20.829026035571097
1761232016366358000,5.04235791015625,4.472297389501333,6.169526838833093,-18.291651583755016
1761232016376427000,5.052427001953125,3.1671038489729164,5.245377272972465,-15.1607068434
1761232016386497000,5.0624970703125,1.7930360941827297,4.220552579441667,-11.786376540529726
1761232016396566000,5.07256591796875,0.47763446337282656,3.5423727473706004,-8.371623041856289
1761232016406636000,5.082635986328125,-0.7876536216162144,3.329964506921172,-5.027247147744894
1761232016416704800,5.092704833984375,-2.043159294389933,3.2865409602582454,-1.7570336374312638
1761232016426774000,5.10277392578125,-3.653839902690053,3.1783126407295463,1.3865214320413768
1761232016436844000,5.112843994140625,-5.1505187226265665,3.0377900713175534,4.373429311253131
1761232016446913000,5.1229130859375,-5.84192570053935,2.914355414828658,7.202188801860809
1761232016456983000,5.132983154296875,-5.886729303383827,3.1328263163179155,9.893304201102255
1761232016467052000,5.143052001953125,-5.129591085410118,3.464755254682898,12.634419602787494
1761232016477122000,5.1531220703125,-3.7795571171581743,3.250528566634655,15.258759221351145
1761232016487191000,5.16319091796875,-2.0846550878606736,2.526071552035212,17.373532530230282
1761232016497260000,5.173260009765625,-0.5097019187629223,1.9568986226499079,18.80905048676133
1761232016507330000,5.183330078125,0.6805728646874427,1.7882547051250934,19.398072025954722
1761232016517399000,5.19339892578125,1.451392402011156,1.8837831175565718,19.080673132723568
1761232016527468800,5.20346875,2.068949715337157,2.6015128697276113,17.952984277045726
1761232016537538000,5.2135380859375,2.6080437328010797,3.461223573425412,16.348426097148657
1761232016547607800,5.22360791015625,3.0849200712829825,3.9662458099395033,14.412975920718907
1761232016557677000,5.233677001953125,3.3093846602290866,4.310466659122705,12.331298241233824
1761232016567747000,5.2437470703125,3.322462752988934,4.177505464875698,10.084971266818046
1761232016577816000,5.253816162109375,3.063848641681671,4.0169297029942275,7.657805494692921
1761232016587884800,5.263884765625,2.2361165460467336,3.9859494583189483,5.068215117949247
1761232016597955000,5.273955078125,1.0529330360315738,3.9240468366354704,1.8440164859659969
1761232016608024000,5.284024169921875,-0.4205325199693441,4.349050949060917,-2.3874825810343028
1761232016618094000,5.294093994140625,-1.6108166557699442,5.399176088064909,-7.1565148459225885
1761232016628163000,5.3041630859375,-1.6045089339278638,6.805420603838563,-11.945684474432468
1761232016638232800,5.31423291015625,-0.0005317687891423702,8.173319899126886,-16.19164563589692
1761232016648302000,5.324302001953125,2.692686594080925,8.955369855517148,-19.359011935198307
1761232016658371000,5.33437109375,4.879157357949018,9.251246652770043,-21.227613850235937
1761232016668441000,5.344441162109375,5.710023075434565,9.269456263199448,-21.636802553892135
1761232016678509800,5.354509765625,5.99468932736516,8.327668749317526,-20.888210045945645
1761232016688580000,5.364580078125,4.57444843494296,7.488882175704837,-18.501113833880424
1761232016698648800,5.37464892578125,3.233647574460506,6.877547682416439,-15.852417188173531
1761232016708719000,5.384718994140625,1.982855047813803,6.068619071450829,-12.842705794870852
1761232016718787800,5.394787841796875,1.1862749001592396,5.17524341403842,-9.53739642125666
1761232016728858000,5.404858154296875,0.41716625840663907,4.587622389292717,-5.907519577956199
1761232016738927000,5.414927001953125,-0.7756628857016563,4.271543931010365,-1.7291044508896767
1761232016748996000,5.42499609375,-2.2689041324049235,4.065646679890156,3.0458950518399477
1761232016759066000,5.435066162109375,-2.8986627556562423,3.552814061886072,8.212378236317635
1761232016769135000,5.445135009765625,-2.444427872571349,2.589350138247013,13.178942659562825
1761232016779205000,5.455205078125,-1.7454934217631817,1.685568237632513,16.973801390749216
1761232016789273900,5.46527392578125,-1.4570254394620656,1.2317828518807887,19.505379723507165
1761232016799343000,5.475343017578125,-1.4951649082422256,0.7799351561933755,20.514078627145288
1761232016809412900,5.485412841796875,-1.0022517733253538,0.2658317876011133,20.478097797703743
1761232016819482000,5.495482177734375,-0.061720104723423715,0.5095318228930235,19.885175159418583
1761232016829551900,5.5055517578125,1.1030267081081866,1.200528466439247,18.585450990211964
1761232016839621000,5.51562109375,2.272668453374505,2.0322885024160144,16.583815400213002
1761232016849691000,5.52569091796875,2.9096161113470793,2.903722377133369,13.927068719041346
1761232016859760000,5.535760009765625,2.802074605038762,3.764975049576163,10.867696345990895
1761232016869830000,5.545829833984375,2.6337127193257213,4.248604369449615,7.449156899037956
1761232016879899100,5.555899169921875,2.4482205428525803,4.507051307496428,3.9664322724223133
1761232016889967900,5.5659677734375,2.0396230830878017,4.673789683660864,0.580561096296832
1761232016900038000,5.576037841796875,1.7079288302615283,4.628031556570529,-2.9233401007950306
1761232016910107000,5.58610693359375,1.380693602670729,4.34057771974802,-6.472945137506723
1761232016920177000,5.596177001953125,0.96784491520226,3.9482740999191996,-9.7732849060148
1761232016930246100,5.60624609375,0.7654702852502465,3.631325288543105,-12.606990328592062
1761232016940316000,5.61631591796875,0.865851398409903,3.2067274188309907,-14.744964480316638
1761232016950385200,5.62638525390625,0.7906874363541603,2.7918805432826277,-15.949564726239442
1761232016960454000,5.636453857421875,0.2560334471642971,2.2505559902876615,-16.278897218370435
1761232016970524200,5.646524169921875,-0.47958676648437976,1.7090490664631128,-15.819424434632062
1761232016980593000,5.656593017578125,-1.376236331000924,1.3664374060422182,-14.603044903588295
1761232016990662400,5.666662353515625,-2.755674672913551,0.9327280091136694,-13.084537698203324
1761232017000731400,5.6767314453125,-4.681379700398445,0.70361062592566,-11.674202113723755
1761232017010801400,5.686801513671875,-6.364931922033429,0.15722762049734593,-9.488483045005799
1761232017020870400,5.696870361328125,-7.008641329225897,-0.6424374875605106,-6.5475476662874215
1761232017030939400,5.706939453125,-7.008530270066857,-0.4657254143923521,-3.4245623605042694
1761232017041009400,5.717009521484375,-6.823279501134157,0.36148528771698474,-0.24232144041508435
1761232017051078400,5.727078369140625,-5.7554503631353375,1.0802946518182754,2.8009187130019066
1761232017061148400,5.7371484375,-3.8991765992730856,1.948675568705797,5.374588759297132
1761232017071217400,5.747217529296875,-1.988152131308615,2.8547569784343243,7.616753937858343
1761232017081287400,5.757287353515625,0.05650690011978149,3.1471985405415293,9.714466221821308
1761232017091356200,5.767356201171875,1.8022557579487561,2.5695424449712037,11.505511434447765
1761232017101425400,5.77742529296875,3.2817999032109975,1.9541993005633354,13.117970012205838
1761232017111495400,5.787495361328125,4.193350684261322,1.6554373032629488,14.245143319576977
1761232017121564400,5.797564453125,3.8813574494659897,1.5887211438179014,14.649664031422137
1761232017131634400,5.807634521484375,3.939828927657008,1.7829115905314683,13.84112295846939
1761232017141703400,5.817703369140625,4.357573570473492,2.4934090533614155,12.303341728293894
1761232017151773400,5.8277734375,4.554513023634255,3.4881530814051627,10.288542705339193
1761232017161842400,5.837842529296875,4.324395231232047,4.260562518268824,8.183728480416535
1761232017171912400,5.847912353515625,3.971966817934811,4.848122168216109,5.8929918709099285
1761232017181981400,5.8579814453125,3.4095845716029403,5.183216292613745,3.4653812776267525
1761232017192050400,5.868050537109375,2.7377070545464752,5.050280232807993,1.068936660849303
1761232017202120200,5.8781201171875,2.0671715997487303,4.847895373722911,-1.0737791324444115
1761232017212189400,5.888189453125,1.6346821000039577,4.558953344169259,-2.8460703986316918
1761232017222259200,5.89825927734375,1.233238895907998,3.933815950977802,-4.222626463106274
1761232017232328400,5.908328369140625,0.7801724720805883,3.273447669929266,-5.408827128985524
1761232017242398500,5.9183984375,0.14701573082357644,2.9486814628005025,-6.068175419336557
1761232017252467500,5.928467529296875,-0.23017127615511415,2.4428981787860393,-6.075798753821849
1761232017262536200,5.9385361328125,-0.16566870110630988,1.6072130783200262,-5.4381268732279535
1761232017272606500,5.9486064453125,-0.12823065859377383,0.824919960823655,-4.3818730222105975
1761232017282675500,5.958675537109375,0.025726561930775643,0.7372551213741302,-4.499081643791497
1761232017292744400,5.968744384765625,0.03422726377248764,0.16012100385129452,-3.628020109517872
1761232017302813200,5.978813232421875,0.017705752560496328,-0.13742226530909538,-2.996967939324677
1761232017312883500,5.988883544921875,-0.11424129620790481,-0.19294892221987248,-2.5438062384292484
1761232017322952200,5.9989521484375,0.07512450682818889,-0.05804828434288501,-2.2751418577507136
1761232017333022500,6.0090224609375,0.5845557919561862,0.031710897037386894,-2.187480525432527
1761232017343091500,6.019091552734375,0.8692910174697637,0.4315115946233272,-1.687090771024674
1761232017353161200,6.0291611328125,0.761362557670474,0.6971575042635202,-0.7568008757781237
1761232017363230500,6.03923046875,0.031980361628532405,0.07093874557614326,-0.7239242228969931
1761232017373299500,6.049299560546875,-1.4574299286097288,-0.8859142354905605,-0.6372367040470243
1761232017383369500,6.059369384765625,-5.2043502660572525,-2.076007817155123,-2.8934558346629142
1761232017393438500,6.0694384765625,-5.195666608864069,-2.786770652922988,-3.569403085376322
1761232017403508500,6.079508544921875,-7.124995672065019,-2.313543484598398,-1.9417776258856057
1761232017413577200,6.0895771484375,-1.5623253043234346,-1.1475509094893932,-0.2703857976436615
1761232017423647500,6.0996474609375,2.499904260599613,-0.8958721504032612,-0.6058418872214854
1761232017433716200,6.10971630859375,1.6933149062365294,-1.936838415917754,-0.2578792211614549
1761232017443786500,6.119786376953125,0.35178105530440806,-1.7297154223948716,0.5110195772327483
1761232017453855200,6.129855224609375,-1.1802940721839665,-1.5911661988824606,0.9495618742104619
1761232017463924500,6.139924560546875,-1.81231947132349,-1.6801070496171713,1.379869426806271
1761232017473994500,6.149994384765625,-1.9671417842447756,-1.457457401138544,1.321800684197247
1761232017484063500,6.1600634765625,-2.233713576558232,-0.695285280650854,0.7248011518619955
1761232017494133500,6.170133544921875,-1.8208266029059885,-0.32306407938599585,0.3122324503786862
1761232017504202200,6.1802021484375,-1.272971186837554,-0.05656359874308109,-0.13632971169888042
1761232017514272500,6.1902724609375,-0.6108540162950754,0.13759353022277354,-0.2908898939521052
1761232017524341200,6.20034130859375,-0.371550170135498,0.29667963806837794,-0.1560765507660806
1761232017534410500,6.210410400390625,-0.4981535197883844,-0.23687632675170897,-0.6776335963651537
1761232017544480300,6.220480224609375,-0.2901981670945883,-0.3932262876316905,-0.9614530952733009
1761232017554549500,6.230549560546875,0.0494131424665451,-0.03536415884792805,-0.9724275668174028
1761232017564619300,6.240619384765625,0.46468613447248935,0.2577361594289541,-1.135112795133516
1761232017574688500,6.2506884765625,0.837734434211254,0.3336369113266468,-1.2086084586508572
1761232017584758300,6.26075830078125,1.0979816996783018,0.1264683250963688,-1.2594035569950937
1761232017594827500,6.27082763671875,1.3225859893560408,-0.1720809062361717,-1.1972202186740935
1761232017604896300,6.280896240234375,0.9591741174906492,-0.3900602248162031,-0.9714731156367808
1761232017614966300,6.29096630859375,0.48876200658679003,-0.44697804382443423,-0.7932426737949252
1761232017625035300,6.30103515625,0.3485767063051462,-0.41138913630992174,-0.7427870365381241
1761232017635105300,6.311105224609375,0.2902864298999309,-0.3013374007463455,-0.7010952090386301
1761232017645174500,6.321174560546875,-0.040571664363145826,-0.08689590090364217,-0.5790078755054623
1761232017655244300,6.331244384765625,-0.3079869217634201,-0.017194588167965413,-0.3767654936309904
1761232017665313500,6.3413134765625,-0.3564443709403276,-0.2913675031349063,-0.1218171382896602
1761232017675382300,6.35138232421875,-0.25870997289717196,-0.5713686858639121,0.05481741266287863
1761232017685452500,6.36145263671875,-0.15924012936353682,-0.6982976142093539,0.13537329689003527
1761232017695521300,6.371521240234375,-0.0478361024081707,-0.5881134844377637,0.2073894624393433
1761232017705591600,6.381591552734375,-0.18904431599676608,-0.36579087595641613,0.28675094925016165
1761232017715660300,6.391660400390625,-0.3841951321750879,-0.16107786618471145,0.3334549058232456
1761232017725730300,6.401730224609375,-0.3790320503234863,-0.06550590687245131,0.20431385438628494
1761232017735799300,6.41179931640625,-0.06790566149055957,0.002457622285187244,0.05987235796488821
1761232017745868500,6.42186865234375,0.08245090419352054,0.08580518305748701,-0.015239070186018944
1761232017755938300,6.431938232421875,0.06244914965033531,0.0976981576859951,-0.10331855485104023
1761232017766007300,6.44200732421875,0.10327332746982573,0.07739975828379392,-0.19379465232901275
1761232017776077300,6.452077392578125,0.22086159601807592,0.1138733396783471,-0.19042079198174178
1761232017786146300,6.462146240234375,0.6138923610776662,0.1366325762361288,-0.2725889337111264
1761232017796216600,6.472216552734375,1.3254127372145652,0.3152554514616728,-0.43690030192434787
1761232017806285300,6.482285400390625,0.682603493732214,0.6646431818887591,-0.24699830965232103
1761232017816354300,6.492354248046875,-0.18151625857949255,0.5379474777773022,-0.15774433784782885
1761232017826424300,6.50242431640625,-0.2382294949263334,0.19767127456665037,-0.019407953368499875
1761232017836493600,6.51249365234375,-0.088666125446558,-0.03918254809230566,0.1748277937915176
1761232017846563300,6.522563232421875,0.052156303694844246,-0.166220489770174,0.22284049487560986
