time,seconds_elapsed,z,y,x
1761232011402127600,0.078127685546875,-0.1962609440088272,-0.804432213306427,0.3101890981197357
1761232011412197600,0.08819775390625,-0.21046490967273712,-0.9012801647186279,0.43483009934425354
1761232011422266400,0.098266357421875,-0.21982406079769135,-0.9600076675415039,0.5532912611961365
1761232011432335600,0.108335693359375,-0.23492178320884705,-0.9826146960258484,0.65120929479599
1761232011442405400,0.1184052734375,-0.2408556491136551,-0.9459864497184753,0.7161503434181213
1761232011452474600,0.128474609375,-0.2365221530199051,-0.8565910458564758,0.7469322681427002
1761232011462544400,0.13854443359375,-0.21090222895145416,-0.7633280158042908,0.7375980019569397
1761232011472613600,0.148613525390625,-0.159862220287323,-0.6637995839118958,0.6983917355537415
1761232011482683400,0.158683349609375,-0.09278204292058945,-0.5926536321640015,0.6468223929405212
1761232011492752600,0.168752685546875,-0.019846320152282715,-0.5278280377388,0.5944191217422485
1761232011502821400,0.1788212890625,0.03626479208469391,-0.42856836318969727,0.526250958442688
1761232011512891600,0.1888916015625,0.06875189393758774,-0.3003651201725006,0.43294206261634827
1761232011522960400,0.19896044921875,0.07962683588266373,-0.1867767721414566,0.32901325821876526
1761232011533030400,0.209030517578125,0.08552786707878113,-0.10019128024578094,0.23692460358142853
1761232011543099400,0.219099365234375,0.09283503890037537,-0.05766906961798668,0.16006271541118622
1761232011553169400,0.22916943359375,0.0866176187992096,-0.0492609366774559,0.09517905116081238
1761232011563238700,0.23923876953125,0.06959489732980728,-0.05045470967888832,0.037425022572278976
1761232011573307400,0.249307373046875,0.0548899844288826,-0.057230059057474136,-0.004883018787950277
1761232011583377700,0.259377685546875,0.04913536459207535,-0.0804482251405716,-0.03794007748365402
1761232011593446400,0.2694462890625,0.04163403809070587,-0.09491052478551865,-0.06205393746495247
1761232011603516700,0.2795166015625,0.03617448732256889,-0.0979730412364006,-0.07329186797142029
1761232011613585400,0.28958544921875,0.03080582246184349,-0.1195790022611618,-0.08591524511575699
1761232011623655700,0.29965576171875,0.026118235662579536,-0.11580726504325867,-0.08203481137752533
1761232011633724400,0.309724365234375,0.01812848635017872,-0.09008432179689407,-0.08493340015411377
1761232011643793700,0.319793701171875,0.008525766432285309,-0.04805579036474228,-0.06963444501161575
1761232011653863400,0.329863525390625,0.0004300234140828252,-0.014904230833053589,-0.045039352029561996
1761232011663932700,0.3399326171875,-0.008719217032194138,0.00594536866992712,-0.018151650205254555
1761232011674002400,0.35000244140625,-0.0196301881223917,-0.0037112534046173096,-0.003405993804335594
1761232011684071400,0.360071533203125,-0.028531134128570557,-0.02219979465007782,0.004722276236861944
1761232011694140400,0.370140380859375,-0.0477042980492115,-0.035591233521699905,0.018700143322348595
1761232011704210400,0.38021044921875,-0.07092644274234772,-0.039741773158311844,0.023524390533566475
1761232011714279400,0.390279541015625,-0.09372736513614655,-0.09370248019695282,0.028518084436655045
1761232011724349400,0.400349365234375,-0.12398488819599152,-0.15961924195289612,0.027712322771549225
1761232011734418400,0.41041845703125,-0.1508505940437317,-0.1794632524251938,0.03419578820466995
1761232011744488400,0.420488525390625,-0.16543565690517426,-0.19851620495319366,0.024646829813718796
1761232011754557700,0.4305576171875,-0.17349225282669067,-0.20407742261886597,0.011692415922880173
1761232011764626400,0.44062646484375,-0.17821994423866272,-0.20394492149353027,0.0016756458207964897
1761232011774696700,0.45069677734375,-0.17962715029716492,-0.21551182866096497,0.00406822981312871
1761232011784765400,0.460765380859375,-0.18101662397384644,-0.24359411001205444,0.012378944084048271
1761232011794835500,0.47083544921875,-0.19451698660850525,-0.2605981230735779,0.012411167845129967
1761232011804904400,0.480904541015625,-0.19492430984973907,-0.261290580034256,0.008258659392595291
1761232011814974500,0.490974365234375,-0.18459977209568024,-0.24479283392429352,-0.0027628326788544655
1761232011825043500,0.50104345703125,-0.16331246495246887,-0.21644729375839233,-0.01283433847129345
1761232011835112400,0.511112548828125,-0.13627365231513977,-0.1774066835641861,-0.01819048821926117
1761232011845182500,0.521182373046875,-0.10556630790233612,-0.12218309193849564,-0.012035293504595757
1761232011855251500,0.53125146484375,-0.10050630569458008,-0.09749399125576019,-0.008898623287677765
1761232011865321500,0.541321533203125,-0.11735668778419495,-0.08023113012313843,-0.012626612558960915
1761232011875390500,0.551390380859375,-0.12314373254776001,-0.04930650815367699,-0.012515025213360786
1761232011885460700,0.561460693359375,-0.11647848784923553,-0.04715830832719803,-0.018770731985569
1761232011895529500,0.571529541015625,-0.09883903712034225,-0.0564306378364563,-0.03164312243461609
1761232011905598500,0.581598388671875,-0.0883350744843483,-0.06013002246618271,-0.04145766422152519
1761232011915668500,0.59166845703125,-0.0803234875202179,-0.05146196857094765,-0.048147257417440414
1761232011925737700,0.60173779296875,-0.07896900922060013,-0.01760408654808998,-0.04979323595762253
1761232011935807500,0.611807373046875,-0.0772070661187172,0.025799579918384552,-0.05087394639849663
1761232011945876500,0.62187646484375,-0.07889069616794586,0.0706188827753067,-0.044469285756349564
1761232011955946500,0.631946533203125,-0.06688516587018967,0.10544291138648987,-0.04259255528450012
1761232011966015500,0.642015380859375,-0.05911486595869064,0.13540470600128174,-0.03155515715479851
1761232011976084500,0.65208447265625,-0.04343204200267792,0.16267280280590057,-0.007530249655246735
1761232011986155000,0.662155029296875,-0.0379633866250515,0.18366050720214844,0.024991825222969055
1761232011996224300,0.672224365234375,-0.036196913570165634,0.19047367572784424,0.05593056604266167
1761232012006294300,0.682294189453125,-0.035635966807603836,0.19230052828788757,0.07860858738422394
1761232012016363300,0.69236328125,0.010339515283703804,0.18757395446300507,0.09942145645618439
1761232012026433300,0.702433349609375,0.03581444174051285,0.22103099524974823,0.10837394744157791
1761232012036502000,0.712501953125,-0.00489890156313777,0.19522443413734436,0.09685071557760239
1761232012046571300,0.7225712890625,-0.03714459016919136,0.1540653556585312,0.07926875352859497
1761232012056641000,0.73264111328125,-0.042773716151714325,0.14555709064006805,0.056198857724666595
1761232012066710300,0.742710205078125,-0.027409754693508148,0.1424112617969513,0.030232172459363937
1761232012076780000,0.752780029296875,-0.0164742823690176,0.1447785496711731,0.007902897894382477
1761232012086849300,0.762849365234375,-0.016444765031337738,0.1451517790555954,-0.005539499688893557
1761232012096918000,0.77291796875,-0.018832288682460785,0.14152322709560394,-0.006733661517500877
1761232012106988300,0.78298828125,-0.01869034394621849,0.13576067984104156,-0.0035735543351620436
1761232012117057000,0.79305712890625,-0.02055322378873825,0.124519482254982,-0.005025776103138924
1761232012127127300,0.803127197265625,-0.01749546267092228,0.11051328480243683,-0.005356342066079378
1761232012137196000,0.813196044921875,-0.014935899525880814,0.09707523882389069,-0.007826956920325756
1761232012147266000,0.82326611328125,-0.0070568714290857315,0.08713716268539429,-0.01240294985473156
1761232012157335000,0.8333349609375,0.004366225562989712,0.08587802201509476,-0.020807089284062386
1761232012167404300,0.843404296875,0.005961132235825062,0.0762755274772644,-0.022467613220214844
1761232012177474000,0.85347412109375,0.0030926417093724012,0.08220931887626648,-0.018998045474290848
1761232012187543000,0.86354296875,0.0029748096130788326,0.07978225499391556,-0.01698344759643078
1761232012197613300,0.87361328125,0.006366345100104809,0.06910829991102219,-0.014550916850566864
1761232012207682000,0.88368212890625,0.014700416475534439,0.0521673858165741,-0.012738464400172234
1761232012217752300,0.89375244140625,0.01181301660835743,0.03473779559135437,-0.01662987656891346
1761232012227821000,0.903821044921875,0.01162189245223999,0.022013265639543533,-0.018294673413038254
1761232012237890300,0.913890380859375,0.010550503619015217,0.022325921803712845,-0.024037780240178108
1761232012247960000,0.9239599609375,0.007751625496894121,0.035730473697185516,-0.027298420667648315
1761232012258029300,0.934029296875,0.0004196767695248127,0.053413067013025284,-0.02792213298380375
1761232012268099000,0.94409912109375,-0.003753742203116417,0.056782666593790054,-0.029465412721037865
1761232012278168300,0.954168212890625,-0.006050718482583761,0.042949676513671875,-0.037227995693683624
1761232012288238000,0.964238037109375,-0.0017408909043297172,0.0279525313526392,-0.03920464217662811
1761232012298307000,0.97430712890625,0.006023821420967579,0.003890871535986662,-0.05043252557516098
1761232012308376000,0.9843759765625,0.010412138886749744,-0.016209358349442482,-0.055902149528265
1761232012318446000,0.994446044921875,0.010784449055790901,-0.02112848311662674,-0.0471656508743763
1761232012328515000,1.00451513671875,0.005923284683376551,-0.01588195562362671,-0.03601367771625519
1761232012338585000,1.014585205078125,0.00788949616253376,-0.0004031304270029068,-0.025697123259305954
1761232012348654000,1.024654052734375,0.008493125438690186,0.0074713993817567825,-0.012385524809360504
1761232012358724000,1.03472412109375,0.012453777715563774,0.013525829650461674,-0.017690008506178856
1761232012368793300,1.04479345703125,0.01319509744644165,0.01348474994301796,-0.021059837192296982
1761232012378862000,1.054862060546875,0.016759471967816353,0.018274711444973946,-0.028598448261618614
1761232012388932400,1.064932373046875,0.01653602160513401,0.024905765429139137,-0.04073994606733322
1761232012399001000,1.0750009765625,0.017755484208464622,0.03919415920972824,-0.043463561683893204
1761232012409071000,1.085071044921875,0.017454275861382484,0.05335460975766182,-0.042029790580272675
1761232012419140000,1.09514013671875,0.011200107634067535,0.07766846567392349,-0.03156676143407822
1761232012429210000,1.105210205078125,0.007612085901200771,0.09069381654262543,-0.011448207311332226
1761232012439279000,1.115279052734375,0.0005469862371683121,0.08927701413631439,0.00602053152397275
1761232012449348000,1.12534814453125,-0.009593406692147255,0.0728607177734375,0.018421966582536697
1761232012459418000,1.135418212890625,-0.007751564495265484,0.045032817870378494,0.02962109073996544
1761232012469487000,1.145487060546875,0.0024615172296762466,0.011735283769667149,0.030905691906809807
1761232012479557000,1.15555712890625,0.011397222056984901,-0.013085643760859966,0.026856889948248863
1761232012489626000,1.165626220703125,0.017812667414546013,-0.03089890256524086,0.01620430126786232
1761232012499696000,1.175696044921875,0.023886539041996002,-0.029492486268281937,0.001570763997733593
1761232012509765000,1.18576513671875,0.02616480179131031,-0.015483342111110687,-0.017556779086589813
1761232012519834000,1.195834228515625,0.026187438517808914,0.006379878148436546,-0.03029068373143673
1761232012529904000,1.205904052734375,0.02340402826666832,0.022721270099282265,-0.04505162686109543
1761232012539973000,1.21597314453125,0.024516696110367775,0.024470169097185135,-0.04254452884197235
1761232012550043100,1.226043212890625,0.02748125232756138,0.02012895606458187,-0.03886296600103378
1761232012560112000,1.236112060546875,0.026078300550580025,0.016258317977190018,-0.02950967848300934
1761232012570182100,1.24618212890625,0.026470225304365158,0.008526092395186424,-0.009411249309778214
1761232012580251100,1.256251220703125,0.027053724974393845,0.003104163333773613,0.005701124668121338
1761232012590320000,1.266320068359375,0.022527461871504784,0.004118698183447123,0.022163275629281998
1761232012600390100,1.27639013671875,0.016016565263271332,0.006212742067873478,0.03895557299256325
1761232012610459100,1.286459228515625,0.012547104619443417,0.0007309527136385441,0.05099532753229141
1761232012620529200,1.296529052734375,0.005920093972235918,-0.004322662018239498,0.0485774427652359
1761232012630598100,1.30659814453125,0.006245206110179424,-0.009512025862932205,0.038620106875896454
1761232012640668200,1.316668212890625,0.009062297642230988,-0.01357494480907917,0.020090630277991295
1761232012650737200,1.326737060546875,0.011948321014642715,-0.008120924234390259,0.00006116926670074463
1761232012660806100,1.33680615234375,0.01091847661882639,-0.0022499850019812584,-0.013540126383304596
1761232012670876000,1.3468759765625,0.008645730093121529,0.010545594617724419,-0.025683414191007614
1761232012680945200,1.356945068359375,0.007754902355372906,0.020923133939504623,-0.02957136370241642
1761232012691015200,1.36701513671875,0.007172725163400173,0.02463376335799694,-0.03421126678586006
1761232012701084200,1.377084228515625,0.011997041292488575,0.021879255771636963,-0.03331537917256355
1761232012711154200,1.387154296875,0.014518678188323975,0.016595637425780296,-0.026632916182279587
1761232012721223200,1.39722314453125,0.017688637599349022,0.0074743106961250305,-0.013131221756339073
1761232012731292200,1.407292236328125,0.014865200966596603,-0.004137735813856125,0.0017799083143472672
1761232012741362200,1.417362060546875,0.015940584242343903,-0.01138579472899437,0.021550150588154793
1761232012751431200,1.42743115234375,0.011330140754580498,-0.022002313286066055,0.041971560567617416
1761232012761501200,1.437501220703125,0.005619258154183626,-0.02674141153693199,0.05434327572584152
1761232012771570200,1.447570068359375,0.00643876800313592,-0.02194496989250183,0.06432024389505386
1761232012781640000,1.457639892578125,0.004132204223424196,-0.019071951508522034,0.06800393015146255
1761232012791709200,1.467709228515625,0.006212736014276743,-0.012763840146362782,0.06896711885929108
1761232012801778200,1.477778076171875,0.004825228825211525,-0.008280142210423946,0.06209855526685715
1761232012811848200,1.48784814453125,0.0007032536086626351,-0.01213928870856762,0.05893563851714134
1761232012821917200,1.497917236328125,0.001178894191980362,-0.018323415890336037,0.043184105306863785
1761232012831987200,1.5079873046875,-0.0006977416342124343,-0.01986873894929886,0.03657972812652588
1761232012842056000,1.518055908203125,0.0001693835947662592,-0.02950219064950943,0.029041914269328117
1761232012852126200,1.528126220703125,0.0012596636079251766,-0.04725281149148941,0.0266549214720726
1761232012862195200,1.5381953125,0.007555376272648573,-0.059683915227651596,0.026734285056591034
1761232012872264200,1.54826416015625,0.014455138705670834,-0.07155748456716537,0.027019068598747253
1761232012882334200,1.558334228515625,0.02101903036236763,-0.09913983941078186,0.0324079729616642
1761232012892403200,1.5684033203125,0.02119557186961174,-0.12718161940574646,0.037762969732284546
1761232012902473200,1.57847314453125,0.014654848724603653,-0.1352968066930771,0.03578610718250275
1761232012912542200,1.588542236328125,0.01587073504924774,-0.12057486176490784,0.029418999329209328
1761232012922612200,1.5986123046875,0.013429414480924606,-0.09383805096149445,0.021024717018008232
1761232012932681000,1.608680908203125,0.014208072796463966,-0.06596458703279495,0.011263532564043999
1761232012942751200,1.618751220703125,0.01742384023964405,-0.03621867299079895,0.008915690705180168
1761232012952820000,1.628820068359375,0.006512647029012442,-0.01453588530421257,0.023710178211331367
1761232012962889200,1.63888916015625,-0.015005428344011307,-0.0025734975934028625,0.04314219579100609
1761232012972959000,1.648958984375,-0.03352763131260872,0.0011571608483791351,0.057671137154102325
1761232012983027500,1.65902734375,-0.029899608343839645,-0.01403377577662468,0.06588192284107208
1761232012993097200,1.66909716796875,-0.018648546189069748,-0.04012438654899597,0.05503601208329201
1761232013003166500,1.67916650390625,-0.004947647452354431,-0.06516129523515701,0.03891962394118309
1761232013013235500,1.6892353515625,0.013667229562997818,-0.07519710063934326,0.019599322229623795
1761232013023305500,1.699305419921875,0.018695278093218803,-0.07063031196594238,0.007668893318623304
1761232013033374200,1.709374267578125,0.020978296175599098,-0.05393991991877556,0.006362136919051409
1761232013043444500,1.719444580078125,0.018482381477952003,-0.0363052673637867,0.011265281587839127
1761232013053513200,1.72951318359375,0.011040780693292618,-0.02368173748254776,0.018631773069500923
1761232013063583500,1.73958349609375,0.006440436001867056,-0.017262186855077744,0.030482839792966843
1761232013073652200,1.74965234375,-0.0007776101119816303,-0.024147357791662216,0.03889143839478493
1761232013083722200,1.75972216796875,0.0027188542298972607,-0.03176506236195564,0.04395490884780884
1761232013093791500,1.76979150390625,-0.002971908776089549,-0.03810084983706474,0.04557109624147415
1761232013103860500,1.779860595703125,-0.0011708128731697798,-0.03357640281319618,0.040052227675914764
1761232013113930500,1.789930419921875,0.0004513890016824007,-0.031558647751808167,0.03890938311815262
1761232013123999200,1.799999267578125,0.0015805693110451102,-0.02326849102973938,0.03446643054485321
1761232013134069500,1.810069580078125,0.0012395335361361504,-0.013256852515041828,0.03430745750665665
1761232013144138200,1.82013818359375,0.004803908057510853,-0.02197417989373207,0.0417933352291584
1761232013154208500,1.83020849609375,0.007360450923442841,-0.043255288153886795,0.04373857378959656
1761232013164277200,1.84027734375,0.009471272118389606,-0.0854719877243042,0.045642465353012085
1761232013174346500,1.850346435546875,0.014344677329063416,-0.1556577831506729,0.051510341465473175
1761232013184416300,1.860416259765625,0.02665087953209877,-0.1877526044845581,0.0716337114572525
1761232013194485500,1.870485595703125,0.029758194461464882,-0.19363439083099365,0.10184430330991745
1761232013204555300,1.88055517578125,0.021706126630306244,-0.20836512744426727,0.1312224268913269
1761232013214624500,1.89062451171875,0.00967283546924591,-0.22249990701675415,0.14386941492557526
1761232013224694500,1.900694580078125,0.0029211891815066338,-0.21645931899547577,0.11478608846664429
1761232013234763300,1.91076318359375,0.014169441536068916,-0.18075355887413025,0.04199885576963425
1761232013244832300,1.920832275390625,0.0384870320558548,-0.13497008383274078,-0.05954188108444214
1761232013254902300,1.93090234375,0.07043570280075073,-0.10318707674741745,-0.16220475733280182
1761232013264971500,1.940971435546875,0.08429213613271713,-0.11100425571203232,-0.24372225999832153
1761232013275041300,1.951041259765625,0.08473557233810425,-0.10790948569774628,-0.3035365641117096
1761232013285110500,1.961110595703125,0.0731007531285286,-0.08945883810520172,-0.3179977834224701
1761232013295180300,1.97118017578125,0.07167061418294907,-0.07032500207424164,-0.30614808201789856
1761232013305249500,1.98124951171875,0.05534597113728523,-0.0572747178375721,-0.27777212858200073
1761232013315318300,1.991318359375,0.04206014424562454,-0.030447378754615784,-0.2334429919719696
1761232013325388500,2.001388427734375,0.026858821511268616,0.012093158438801765,-0.1843004822731018
1761232013335457300,2.011457275390625,0.005665109492838383,0.0392364077270031,-0.13759545981884003
1761232013345527300,2.02152734375,-0.012579674832522869,0.05621698871254921,-0.09307937324047089
1761232013355596300,2.03159619140625,-0.025258179754018784,0.06998777389526367,-0.048387203365564346
1761232013365666300,2.041666259765625,-0.030339756980538368,0.06709371507167816,-0.0005754707381129265
1761232013375735300,2.0517353515625,-0.026691293343901634,0.056014928966760635,0.03772253543138504
1761232013385804300,2.06180419921875,-0.014113182201981544,0.03334290534257889,0.05590366944670677
1761232013395874600,2.07187451171875,-0.003430690849199891,0.015798168256878853,0.05892079323530197
1761232013405943300,2.081943359375,0.013263866305351257,0.012799182906746864,0.05946620553731918
1761232013416013600,2.092013671875,0.04120152071118355,0.035557299852371216,0.043520405888557434
1761232013426082300,2.102082275390625,0.08291887491941452,0.10305192321538925,-0.00003426428884267807
1761232013436152600,2.112152587890625,0.13965672254562378,0.23324812948703766,-0.04817455634474754
1761232013446221300,2.12222119140625,0.22774291038513184,0.5529211759567261,-0.0786038339138031
1761232013456290600,2.13229052734375,0.336150586605072,1.0064549446105957,-0.11237078160047531
1761232013466360300,2.1423603515625,0.613784909248352,1.4580708742141724,-0.16884392499923706
1761232013476429600,2.1524296875,0.9458299279212952,1.8228589296340942,-0.17244352400302887
1761232013486499300,2.162499267578125,1.119172215461731,2.5148046016693115,-0.07060369849205017
1761232013496568300,2.172568359375,1.3110630512237549,2.8606293201446533,-0.027796201407909393
1761232013506638300,2.182638427734375,1.6531860828399658,2.6137702465057373,-0.055434487760066986
1761232013516707300,2.192707275390625,2.115164041519165,2.166134834289551,-0.1077413409948349
1761232013526776300,2.2027763671875,2.610137939453125,1.7612767219543457,-0.08944915235042572
1761232013536846300,2.212846435546875,2.9307799339294434,1.4661598205566406,0.0043877046555280685
1761232013546915300,2.222915283203125,3.0450854301452637,1.4086909294128418,0.11839469522237778
1761232013556985300,2.2329853515625,2.9666354656219482,1.6128391027450562,0.10941311717033386
1761232013567054300,2.243054443359375,2.838536262512207,1.9719001054763794,-0.07689443975687027
1761232013577124400,2.253124267578125,2.6605072021484375,2.399324655532837,-0.3078592121601105
1761232013587193600,2.263193603515625,2.3687734603881836,2.85664439201355,-0.4725879728794098
1761232013597263400,2.273263427734375,2.0589866638183594,3.0682151317596436,-0.502255916595459
1761232013607332400,2.283332275390625,1.8264294862747192,3.262904405593872,-0.4195743203163147
1761232013617401300,2.2934013671875,1.735939383506775,3.264694929122925,-0.41444113850593567
1761232013627471400,2.303471435546875,1.7457016706466675,2.858666181564331,-0.6400079727172852
1761232013637540400,2.313540283203125,1.6981765031814575,2.252762794494629,-0.9548827409744263
1761232013647610400,2.3236103515625,1.441843032836914,2.0222702026367188,-1.1009695529937744
1761232013657679400,2.333679443359375,1.0945944786071777,2.2478041648864746,-1.0353076457977295
1761232013667749400,2.343749267578125,0.8074968457221985,2.3448104858398438,-0.9142358899116516
1761232013677818400,2.353818359375,0.5922326445579529,2.349708080291748,-0.8095163106918335
1761232013687887400,2.363887451171875,0.39787110686302185,2.3891894817352295,-0.7224056124687195
1761232013697957400,2.373957275390625,0.19401364028453827,2.282219409942627,-0.50272536277771
1761232013708026400,2.3840263671875,0.3355315923690796,-0.18643581867218018,0.7170359492301941
1761232013718096400,2.394096435546875,0.5415710210800171,-1.5285159349441528,1.7025072574615479
1761232013728165400,2.404165283203125,1.0524989366531372,-2.028932571411133,2.178457498550415
1761232013738235400,2.4142353515625,1.5032626390457153,-2.4623019695281982,2.24558687210083
1761232013748304400,2.424304443359375,1.831160068511963,-2.4581096172332764,2.1356186866760254
1761232013758373400,2.434373291015625,2.0720386505126953,-1.5617297887802124,1.9786086082458496
1761232013768443400,2.444443359375,2.342878818511963,-0.7462456226348877,1.5974924564361572
1761232013778512400,2.454512451171875,2.5717086791992188,-0.5607790350914001,1.1033018827438354
1761232013788582400,2.46458251953125,2.668255567550659,-0.7488282918930054,0.7141430377960205
1761232013798651400,2.4746513671875,2.8896639347076416,-1.5767052173614502,0.5128317475318909
1761232013808721400,2.484721435546875,3.225691318511963,-3.014474868774414,0.6949629187583923
1761232013818790400,2.494790283203125,3.568723201751709,-5.077428340911865,1.3038204908370972
1761232013828859400,2.504859375,3.8815672397613525,-6.875349521636963,2.200714588165283
1761232013838929400,2.514929443359375,3.7005531787872314,-7.732895851135254,3.1285314559936523
1761232013848998400,2.524998291015625,3.2854630947113037,-7.332717418670654,3.7075130939483643
1761232013859068400,2.535068359375,2.531219244003296,-6.261140823364258,3.9984490871429443
1761232013869137400,2.545137451171875,1.3517080545425415,-5.139898777008057,4.067165851593018
1761232013879207400,2.55520751953125,-0.2882178723812103,-4.276805877685547,3.9420244693756104
1761232013889276400,2.5652763671875,-2.1398141384124756,-3.5106778144836426,3.633176565170288
1761232013899345400,2.575345458984375,-4.007353782653809,-2.8007431030273438,3.217991590499878
1761232013909415400,2.58541552734375,-5.855167388916016,-2.2808876037597656,2.9015753269195557
1761232013919484400,2.595484375,-7.539373874664307,-1.926103949546814,2.810903787612915
1761232013929554400,2.605554443359375,-8.930758476257324,-1.5858383178710938,2.8064582347869873
1761232013939623400,2.61562353515625,-10.000750541687012,-0.9435133934020996,2.639091968536377
1761232013949693400,2.625693359375,-10.775067329406738,0.12470398843288422,2.3879711627960205
1761232013959762400,2.635762451171875,-11.408036231994629,1.0569210052490234,2.3998968601226807
1761232013969831400,2.64583154296875,-11.969770431518555,1.4917701482772827,2.594757318496704
1761232013979901400,2.6559013671875,-11.940585136413574,1.8525432348251343,2.717008590698242
1761232013989970400,2.665970458984375,-11.080851554870605,2.3610305786132812,2.9123361110687256
1761232014000040400,2.67604052734375,-9.4410982131958,2.6956334114074707,3.3378729820251465
1761232014010109700,2.686109619140625,-6.841224670410156,2.276777505874634,3.7370758056640625
1761232014020179500,2.696179443359375,-3.313941717147827,1.1345438957214355,3.686361312866211
1761232014030248700,2.706248779296875,0.6624948382377625,-0.43765994906425476,3.0738377571105957
1761232014040317400,2.7163173828125,4.524996280670166,-1.8694322109222412,2.030386447906494
1761232014050387700,2.7263876953125,7.821437835693359,-2.7757043838500977,0.9141957759857178
1761232014060456400,2.73645654296875,10.189650535583496,-3.186763286590576,0.12970766425132751
1761232014070526700,2.746526611328125,11.69261360168457,-2.983220338821411,-0.30745765566825867
1761232014080595500,2.756595458984375,12.585956573486328,-2.4334540367126465,-0.48643073439598083
1761232014090665500,2.76666552734375,13.171670913696289,-1.8143669366836548,-0.5338573455810547
1761232014100734500,2.776734375,13.629471778869629,-1.355078101158142,-0.4811136722564697
1761232014110803700,2.7868037109375,13.895794868469238,-1.2717094421386719,-0.31546878814697266
1761232014120873500,2.79687353515625,13.77323055267334,-1.775826334953308,0.006706483196467161
1761232014130942500,2.8069423828125,12.893396377563477,-2.823420286178589,0.5807556509971619
1761232014141012700,2.8170126953125,11.016349792480469,-3.4763128757476807,1.4224086999893188
1761232014151081500,2.82708154296875,8.28376293182373,-3.1650612354278564,2.5599875450134277
1761232014161151700,2.83715185546875,4.938265323638916,-1.922996997833252,3.646028518676758
1761232014171220500,2.847220458984375,1.3210744857788086,-0.09962041676044464,4.237053394317627
1761232014181290800,2.857290771484375,-1.861090898513794,1.471251368522644,4.175655364990234
1761232014191359500,2.867359375,-4.282715320587158,2.0783963203430176,3.6812245845794678
1761232014201428700,2.8774287109375,-6.031198978424072,1.5838656425476074,2.8016209602355957
1761232014211498500,2.88749853515625,-7.06929349899292,0.7374903559684753,1.594970703125
1761232014221567700,2.897567626953125,-7.709083080291748,-0.18810109794139862,0.19774405658245087
1761232014231637500,2.907637451171875,-8.168413162231445,-0.886013388633728,-1.1020207405090332
1761232014241706500,2.91770654296875,-8.657230377197266,-1.265191912651062,-2.1588714122772217
1761232014251776500,2.927776611328125,-9.388266563415527,-1.1367952823638916,-2.929074764251709
1761232014261845500,2.937845458984375,-10.458555221557617,-0.4473899006843567,-3.428964614868164
1761232014271914500,2.94791455078125,-11.788825988769531,0.7960546612739563,-3.6185901165008545
1761232014281984500,2.957984619140625,-13.042237281799316,2.212907552719116,-3.269829273223877
1761232014292053500,2.968053466796875,-13.621498107910156,3.1678614616394043,-2.26967191696167
1761232014302123500,2.97812353515625,-12.917731285095215,3.384679079055786,-0.6984939575195312
1761232014312192500,2.988192626953125,-10.5811128616333,2.830775499343872,1.1531583070755005
1761232014322262500,2.998262451171875,-6.744025707244873,1.8291772603988647,2.7636160850524902
1761232014332331800,3.008331787109375,-2.1572725772857666,0.7370617389678955,3.573699474334717
1761232014342400500,3.018400390625,2.118126153945923,-0.6025910973548889,3.3541154861450195
1761232014352470500,3.028470458984375,5.81959867477417,-1.5917303562164307,2.2037172317504883
1761232014362539500,3.03853955078125,8.63407039642334,-2.227548599243164,0.7456677556037903
1761232014372609500,3.048609619140625,10.585127830505371,-2.449615716934204,-0.4536018669605255
1761232014382678500,3.058678466796875,11.9126615524292,-2.2290985584259033,-1.2034343481063843
1761232014392748500,3.06874853515625,12.792694091796875,-1.8171683549880981,-1.4324350357055664
1761232014402817500,3.078817626953125,13.425512313842773,-1.4094680547714233,-1.2753195762634277
1761232014412886500,3.088886474609375,13.88969612121582,-1.314082384109497,-0.9081948399543762
1761232014422956500,3.09895654296875,13.901817321777344,-1.9561525583267212,-0.34832996129989624
1761232014433025500,3.109025634765625,13.034759521484375,-2.9732115268707275,0.42743074893951416
1761232014443095600,3.119095458984375,11.090076446533203,-3.3850626945495605,1.2378666400909424
1761232014453164500,3.12916455078125,8.327736854553223,-2.5392346382141113,1.8746439218521118
1761232014463234600,3.139234619140625,5.121281147003174,-0.940229594707489,2.3913309574127197
1761232014473303600,3.149303466796875,1.7030106782913208,0.9192126393318176,2.8237977027893066
1761232014483373600,3.15937353515625,-1.3313226699829102,2.1386313438415527,2.802980661392212
1761232014493442600,3.169442626953125,-3.6245787143707275,2.4787158966064453,2.335512638092041
1761232014503511600,3.179511474609375,-5.250268936157227,2.019791841506958,1.540387749671936
1761232014513581600,3.18958154296875,-6.261539936065674,1.1629016399383545,0.566143274307251
1761232014523650600,3.199650634765625,-6.868399143218994,0.3979329764842987,-0.4734935164451599
1761232014533720600,3.209720458984375,-7.281644344329834,-0.035040825605392456,-1.405963659286499
1761232014543789600,3.21978955078125,-7.621269702911377,-0.19811572134494781,-2.0968270301818848
1761232014553859600,3.229859619140625,-8.002519607543945,-0.2180825024843216,-2.5426976680755615
1761232014563928600,3.239928466796875,-8.45383358001709,-0.24455979466438293,-2.80645489692688
1761232014573997600,3.24999755859375,-8.878427505493164,-0.46901100873947144,-2.935532808303833
1761232014584067600,3.260067626953125,-9.098304748535156,-1.0484689474105835,-2.8747756481170654
1761232014594136600,3.270136474609375,-8.86643123626709,-1.63525390625,-2.434964895248413
1761232014604206600,3.28020654296875,-8.01057243347168,-1.8993687629699707,-1.526520013809204
1761232014614275300,3.290275390625,-6.508753299713135,-1.3554491996765137,-0.23471030592918396
1761232014624345600,3.300345703125,-4.375725269317627,-0.06596003472805023,1.2145487070083618
1761232014634414300,3.310414306640625,-1.892551302909851,1.1624201536178589,2.2738735675811768
1761232014644483600,3.320483642578125,0.6221796274185181,1.3652454614639282,2.6097824573516846
1761232014654553600,3.3305537109375,3.0573127269744873,0.6804921627044678,2.3127760887145996
1761232014664622600,3.34062255859375,5.251483917236328,-0.14503824710845947,1.6652586460113525
1761232014674692600,3.350692626953125,7.104389190673828,-0.5300871133804321,0.9224652051925659
1761232014684761600,3.36076171875,8.608722686767578,-0.45423054695129395,0.32019954919815063
1761232014694831600,3.37083154296875,9.822115898132324,-0.33477047085762024,0.05848033353686333
1761232014704900600,3.380900634765625,10.881842613220215,-0.3030669689178467,0.06295651197433472
1761232014714969600,3.390969482421875,11.701401710510254,-0.6367712020874023,0.1821337640285492
1761232014725039400,3.401039306640625,12.021160125732422,-1.43634033203125,0.40622490644454956
1761232014735108600,3.411108642578125,11.360236167907715,-2.430945634841919,0.6973467469215393
1761232014745178400,3.421178466796875,9.474554061889648,-2.955989360809326,0.9183666706085205
1761232014755247600,3.43124755859375,6.722735404968262,-2.2978675365448,0.9500604271888733
1761232014765317400,3.4413173828125,3.59714937210083,-0.903786301612854,1.0913408994674683
1761232014775386600,3.45138671875,0.2455284297466278,0.8476218581199646,1.0876069068908691
1761232014785456600,3.46145654296875,-2.8821587562561035,1.9480541944503784,0.665509819984436
1761232014795525600,3.471525634765625,-5.064011096954346,2.4167392253875732,0.09302791208028793
1761232014805594400,3.481594482421875,-6.520021915435791,2.13747239112854,-0.5845223665237427
1761232014815664600,3.49166455078125,-7.3231987953186035,1.4741063117980957,-1.320493221282959
1761232014825733600,3.501733642578125,-7.704085826873779,0.7316341996192932,-2.1066181659698486
1761232014835803400,3.511803466796875,-7.884185791015625,0.20594273507595062,-2.8290770053863525
1761232014845872600,3.52187255859375,-8.014055252075195,-0.11922988295555115,-3.3558461666107178
1761232014855942400,3.5319423828125,-8.147069931030273,-0.3309727907180786,-3.627192258834839
1761232014866011600,3.54201171875,-8.217097282409668,-0.5804943442344666,-3.649118423461914
1761232014876080600,3.55208056640625,-8.030709266662598,-0.7506887316703796,-3.3103346824645996
1761232014886150700,3.562150634765625,-7.469574928283691,-0.7768435478210449,-2.4574320316314697
1761232014896219400,3.572219482421875,-6.557629585266113,-0.6186643242835999,-1.2097539901733398
1761232014906289700,3.58228955078125,-5.12532377243042,0.06758664548397064,0.2144152969121933
1761232014916358400,3.5923583984375,-3.2585673332214355,0.937666654586792,1.5309405326843262
1761232014926428700,3.6024287109375,-1.2027703523635864,1.445982575416565,2.346632957458496
1761232014936497400,3.612497314453125,0.9495742917060852,1.3682574033737183,2.5742335319519043
1761232014946566700,3.622566650390625,3.010634183883667,0.8909811973571777,2.3730056285858154
1761232014956636700,3.63263671875,4.878215312957764,0.45028024911880493,1.9175570011138916
1761232014966705700,3.64270556640625,6.486399173736572,0.27836745977401733,1.3466455936431885
1761232014976775700,3.652775634765625,7.8378777503967285,0.26648974418640137,0.8697922825813293
1761232014986844400,3.662844482421875,9.004469871520996,0.24741590023040771,0.6568692326545715
1761232014996914700,3.672914794921875,10.036081314086914,0.1058286800980568,0.6283688545227051
1761232015006983400,3.6829833984375,10.82844352722168,-0.3374430239200592,0.6754551529884338
1761232015017053700,3.6930537109375,11.140806198120117,-1.2738584280014038,0.8484309315681458
1761232015027122400,3.703122314453125,10.534666061401367,-2.4660913944244385,1.211988925933838
1761232015037191700,3.713191650390625,8.818705558776855,-3.1568751335144043,1.610067367553711
1761232015047261400,3.723261474609375,6.264152526855469,-2.6606781482696533,1.8555949926376343
1761232015057330700,3.73333056640625,3.1979148387908936,-1.188171625137329,1.9693007469177246
1761232015067400400,3.743400390625,0.0031524610240012407,0.39446306228637695,2.0369017124176025
1761232015077469700,3.7534697265625,-2.915759801864624,1.465742588043213,1.9234740734100342
1761232015087539500,3.76353955078125,-5.141788005828857,1.803623914718628,1.4502036571502686
1761232015097608400,3.7736083984375,-6.6096038818359375,1.511633276939392,0.7609297037124634
1761232015107677400,3.783677490234375,-7.522833824157715,1.002885341644287,-0.01782056875526905
1761232015117747500,3.79374755859375,-8.085003852844238,0.5584145784378052,-0.7947892546653748
1761232015127816400,3.80381640625,-8.51060676574707,0.3706972002983093,-1.4192982912063599
1761232015137886500,3.813886474609375,-8.98200798034668,0.4683542549610138,-1.7765944004058838
1761232015147955500,3.82395556640625,-9.538745880126953,0.7776243686676025,-1.8645744323730469
1761232015158025500,3.834025390625,-10.105367660522461,1.2990169525146484,-1.7597882747650146
1761232015168094500,3.844094482421875,-10.521902084350586,1.8527828454971313,-1.5391514301300049
1761232015178164500,3.85416455078125,-10.508330345153809,2.1873717308044434,-1.2739393711090088
1761232015188233700,3.864233642578125,-9.764175415039062,2.1377577781677246,-0.8838337659835815
1761232015198302500,3.874302490234375,-8.123298645019531,1.94115149974823,-0.12054196000099182
1761232015208372500,3.88437255859375,-5.649484634399414,1.6549957990646362,0.9456304311752319
1761232015218441500,3.89444140625,-2.63279390335083,1.2088881731033325,1.8645981550216675
1761232015228511500,3.904511474609375,0.3696637749671936,0.5575656890869141,2.121279716491699
1761232015238580500,3.91458056640625,3.0486338138580322,-0.025911584496498108,1.518528938293457
1761232015248650500,3.924650390625,5.184822082519531,-0.4949875473976135,0.4137873947620392
1761232015258719500,3.934719482421875,6.723409175872803,-0.7653934955596924,-0.6910443902015686
1761232015268788500,3.94478857421875,7.868807792663574,-0.6451622247695923,-1.5332125425338745
1761232015278858500,3.9548583984375,8.759427070617676,-0.41048017144203186,-2.0534374713897705
1761232015288927500,3.964927490234375,9.517666816711426,-0.2838290333747864,-2.2738430500030518
1761232015298997500,3.97499755859375,10.251426696777344,-0.3976552188396454,-2.2865848541259766
1761232015309066500,3.98506640625,10.95511531829834,-0.9090779423713684,-2.1333584785461426
1761232015319136500,3.995136474609375,11.416794776916504,-1.961516261100769,-1.779695987701416
1761232015329205500,4.00520556640625,11.256837844848633,-3.2425379753112793,-1.128782033920288
1761232015339274500,4.0152744140625,10.190224647521973,-4.210332870483398,-0.18156352639198303
1761232015349344500,4.025344482421875,8.209586143493652,-4.287623405456543,0.8337623476982117
1761232015359413500,4.03541357421875,5.38895320892334,-3.2182960510253906,1.5886449813842773
1761232015369483500,4.0454833984375,1.9853169918060303,-1.5853593349456787,1.9047925472259521
1761232015379552500,4.055552490234375,-1.4076045751571655,-0.09239955246448517,1.8490252494812012
1761232015389622500,4.06562255859375,-4.3148651123046875,0.8849008679389954,1.4284770488739014
1761232015399691500,4.07569140625,-6.447384357452393,1.3440815210342407,0.7688054442405701
1761232015409761500,4.085761474609375,-7.85951042175293,1.3487257957458496,0.08480177074670792
1761232015419830500,4.09583056640625,-8.742202758789062,1.1983226537704468,-0.5286613702774048
1761232015429899500,4.1058994140625,-9.332676887512207,1.0790746212005615,-0.9958611130714417
1761232015439969500,4.115969482421875,-9.77273178100586,1.0812593698501587,-1.2569812536239624
1761232015450038500,4.12603857421875,-10.148567199707031,1.1372181177139282,-1.3272207975387573
1761232015460108500,4.136108642578125,-10.39443302154541,1.1395944356918335,-1.2716708183288574
1761232015470177500,4.146177490234375,-10.306550025939941,0.9018181562423706,-1.1456990242004395
1761232015480247600,4.15624755859375,-9.661032676696777,0.5566386580467224,-0.8891354203224182
1761232015490316500,4.166316650390625,-8.314225196838379,0.2079247385263443,-0.38032081723213196
1761232015500385500,4.176385498046875,-6.268189430236816,0.06668372452259064,0.3891436457633972
1761232015510455600,4.18645556640625,-3.750803232192993,-0.21984891593456268,1.2731958627700806
1761232015520524500,4.196524658203125,-1.1039719581604004,-0.6553242206573486,1.9305872917175293
1761232015530594600,4.206594482421875,1.3731682300567627,-0.9026020169258118,2.0223169326782227
1761232015540663600,4.21666357421875,3.483731746673584,-0.984104573726654,1.5873851776123047
1761232015550733600,4.226733642578125,5.1084136962890625,-0.8791018724441528,0.8680388927459717
1761232015560802600,4.236802490234375,6.325220584869385,-0.6212047934532166,0.07999677956104279
1761232015570871600,4.24687158203125,7.260847091674805,-0.2871837615966797,-0.580795407295227
1761232015580941300,4.25694140625,8.019790649414062,0.03509441763162613,-0.9998227953910828
1761232015591010600,4.267010498046875,8.730244636535645,0.2504906952381134,-1.1997710466384888
1761232015601080300,4.277080322265625,9.43554401397705,0.16263675689697266,-1.2395936250686646
1761232015611149600,4.287149658203125,10.117814064025879,-0.23696649074554443,-1.1869239807128906
1761232015621219300,4.29721923828125,10.608028411865234,-1.1053154468536377,-0.9928682446479797
1761232015631288600,4.30728857421875,10.57756519317627,-2.3188772201538086,-0.5379419326782227
1761232015641357300,4.317357421875,9.65278148651123,-3.315884828567505,0.1915713995695114
1761232015651427600,4.327427490234375,7.74053955078125,-3.40159010887146,0.9603643417358398
1761232015661496300,4.337496337890625,5.005807399749756,-2.3845486640930176,1.4390861988067627
1761232015671566600,4.347566650390625,1.780825138092041,-1.0418932437896729,1.631442666053772
1761232015681635600,4.357635498046875,-1.3689683675765991,0.18719828128814697,1.6059300899505615
1761232015691705300,4.367705322265625,-4.044154167175293,1.1330077648162842,1.1482971906661987
1761232015701774600,4.377774658203125,-6.016353130340576,1.4684430360794067,0.5006819367408752
1761232015711844400,4.38784423828125,-7.341994762420654,1.4406059980392456,-0.171580508351326
1761232015721913600,4.39791357421875,-8.201566696166992,1.2558667659759521,-0.8371739983558655
1761232015731982600,4.407982666015625,-8.831755638122559,1.1057379245758057,-1.3868149518966675
1761232015742052600,4.418052490234375,-9.351250648498535,1.151564598083496,-1.7356826066970825
1761232015752121300,4.428121337890625,-9.809879302978516,1.3608860969543457,-1.844707727432251
1761232015762191600,4.438191650390625,-10.159046173095703,1.5166282653808594,-1.7518373727798462
1761232015772260400,4.44826025390625,-10.208785057067871,1.439881682395935,-1.5069401264190674
1761232015782330600,4.45833056640625,-9.743132591247559,1.0651594400405884,-1.0746792554855347
1761232015792399400,4.4683994140625,-8.622185707092285,0.6792424917221069,-0.38750767707824707
1761232015802469400,4.478469482421875,-6.827474594116211,0.5819396376609802,0.5057817697525024
1761232015812538600,4.48853857421875,-4.668560981750488,0.38294342160224915,1.4784531593322754
1761232015822607600,4.498607666015625,-2.3878324031829834,0.22958233952522278,2.1796786785125732
1761232015832677600,4.508677734375,-0.15087223052978516,0.08255644142627716,2.306497573852539
1761232015842746600,4.51874658203125,1.9010167121887207,-0.12634803354740143,1.857662320137024
1761232015852816600,4.528816650390625,3.654254198074341,-0.41557368636131287,1.0596596002578735
1761232015862885400,4.538885498046875,5.022566795349121,-0.6245250105857849,0.1952926069498062
1761232015872955600,4.54895556640625,6.020063400268555,-0.5808286070823669,-0.5458683371543884
1761232015883024400,4.5590244140625,6.723005771636963,-0.3233911991119385,-1.0537617206573486
1761232015893093600,4.56909375,7.237970352172852,0.02919859066605568,-1.3621526956558228
1761232015903163400,4.579163330078125,7.664106845855713,0.39697715640068054,-1.570436954498291
1761232015913232600,4.589232666015625,8.054753303527832,0.5544546842575073,-1.7369242906570435
1761232015923302400,4.599302490234375,8.463920593261719,0.5211976766586304,-1.835891604423523
1761232015933371600,4.60937158203125,8.875455856323242,0.10777218639850616,-1.8431981801986694
1761232015943441700,4.619441650390625,9.103171348571777,-0.7535010576248169,-1.687747836112976
1761232015953510400,4.629510498046875,8.845426559448242,-1.7539798021316528,-1.3015433549880981
1761232015963579400,4.639579345703125,7.8657755851745605,-2.4176175594329834,-0.7217986583709717
1761232015973649400,4.6496494140625,6.171023845672607,-2.3113017082214355,-0.09238512814044952
1761232015983718400,4.659718505859375,3.9146535396575928,-1.3538172245025635,0.38466691970825195
1761232015993789000,4.669788818359375,1.310958743095398,-0.14721988141536713,0.6570115089416504
1761232016003858200,4.679858154296875,-1.2505077123641968,0.8680000305175781,0.7068302035331726
1761232016013928000,4.689927978515625,-3.4275882244110107,1.4979426860809326,0.5465289950370789
1761232016023997200,4.6999970703125,-5.071098804473877,1.6621828079223633,0.30027130246162415
1761232016034067000,4.71006689453125,-6.205165863037109,1.4626967906951904,-0.04400056228041649
1761232016044136000,4.720135986328125,-6.932673931121826,1.162272572517395,-0.4992642104625702
1761232016054205000,4.730204833984375,-7.422701358795166,0.8975489735603333,-0.9665127992630005
1761232016064275000,4.74027490234375,-7.795997142791748,0.7406062483787537,-1.3229402303695679
1761232016074344000,4.750343994140625,-8.124823570251465,0.6947945952415466,-1.5134902000427246
1761232016084414000,4.7604140625,-8.378501892089844,0.7165560722351074,-1.51749849319458
1761232016094483000,4.77048291015625,-8.48108196258545,0.6980804800987244,-1.3379273414611816
1761232016104553000,4.780552978515625,-8.32592487335205,0.5322369337081909,-0.9477188587188721
1761232016114622200,4.790622314453125,-7.801329135894775,0.38347524404525757,-0.3230743110179901
1761232016124691000,4.80069091796875,-6.829853534698486,0.617069661617279,0.44879817962646484
1761232016134761200,4.81076123046875,-5.492867469787598,0.9537296295166016,1.3364354372024536
1761232016144830000,4.820829833984375,-3.8628902435302734,1.1745922565460205,2.129257917404175
1761232016154900000,4.83089990234375,-2.001352071762085,1.1800533533096313,2.504782199859619
1761232016164969000,4.840968994140625,-0.05936769023537636,0.8668248057365417,2.3638081550598145
1761232016175039000,4.8510390625,1.7971582412719727,0.3648075759410858,1.8124020099639893
1761232016185108000,4.86110791015625,3.4347593784332275,-0.05194542184472084,1.0275369882583618
1761232016195177000,4.871177001953125,4.71890926361084,-0.27216607332229614,0.22127340734004974
1761232016205247000,4.8812470703125,5.64348840713501,-0.2342197597026825,-0.4604625105857849
1761232016215316000,4.89131591796875,6.258357524871826,-0.036851972341537476,-0.9301223158836365
1761232016225386000,4.901385986328125,6.698540210723877,0.37061911821365356,-1.2340335845947266
1761232016235455000,4.911455078125,7.073888301849365,0.929947018623352,-1.4316625595092773
1761232016245525200,4.921525146484375,7.449042320251465,1.3711891174316406,-1.5681018829345703
1761232016255594000,4.931593994140625,7.871910095214844,1.4678915739059448,-1.6778345108032227
1761232016265663000,4.9416630859375,8.347496032714844,1.0663942098617554,-1.7730683088302612
1761232016275733000,4.95173291015625,8.733460426330566,0.04891818389296532,-1.7799071073532104
1761232016285802200,4.96180224609375,8.724578857421875,-1.3152318000793457,-1.5555614233016968
1761232016295872000,4.9718720703125,8.13034725189209,-2.4312539100646973,-1.090572476387024
1761232016305941000,4.98194091796875,6.916460037231445,-2.772552490234375,-0.46407708525657654
1761232016316011000,4.992010986328125,5.117558479309082,-2.296952486038208,0.14585474133491516
1761232016326080000,5.002080078125,2.8733088970184326,-1.3231514692306519,0.575901985168457
1761232016336150000,5.01214990234375,0.4395625591278076,-0.26826560497283936,0.7251445651054382
1761232016346219000,5.022218994140625,-1.8707762956619263,0.6103453636169434,0.592987596988678
1761232016356288000,5.0322880859375,-3.7995529174804688,1.1708965301513672,0.29165923595428467
1761232016366358000,5.04235791015625,-5.2537641525268555,1.412503719329834,-0.08987534046173096
1761232016376427000,5.052427001953125,-6.277867317199707,1.3824148178100586,-0.5184113383293152
1761232016386497000,5.0624970703125,-6.972192764282227,1.2494405508041382,-0.9270241260528564
1761232016396566000,5.07256591796875,-7.456113815307617,1.0565706491470337,-1.2249054908752441
1761232016406636000,5.082635986328125,-7.808491230010986,0.8715144991874695,-1.3546314239501953
1761232016416704800,5.092704833984375,-8.006016731262207,0.7142760753631592,-1.360597848892212
1761232016426774000,5.10277392578125,-8.00688648223877,0.45284342765808105,-1.2381552457809448
1761232016436844000,5.112843994140625,-7.737685203552246,0.2040802240371704,-0.9409539103507996
1761232016446913000,5.1229130859375,-7.19644021987915,0.0550428107380867,-0.3889709413051605
1761232016456983000,5.132983154296875,-6.445750713348389,0.0618743821978569,0.3773833215236664
1761232016467052000,5.143052001953125,-5.517833232879639,0.282597154378891,1.2024012804031372
1761232016477122000,5.1531220703125,-4.379540920257568,0.6272746324539185,1.897275686264038
1761232016487191000,5.16319091796875,-3.0411829948425293,0.9604161381721497,2.310335397720337
1761232016497260000,5.173260009765625,-1.5618696212768555,1.1875722408294678,2.3812358379364014
1761232016507330000,5.183330078125,-0.015005613677203655,1.2055246829986572,2.123750925064087
1761232016517399000,5.19339892578125,1.5080406665802002,1.0410504341125488,1.6050095558166504
1761232016527468800,5.20346875,2.9089033603668213,0.7987719774246216,0.9135211706161499
1761232016537538000,5.2135380859375,4.132251262664795,0.5950153470039368,0.17608612775802612
1761232016547607800,5.22360791015625,5.162071228027344,0.5079688429832458,-0.4922533333301544
1761232016557677000,5.233677001953125,6.017719268798828,0.5329174995422363,-0.9914631843566895
1761232016567747000,5.2437470703125,6.790787696838379,0.6619386076927185,-1.325787901878357
1761232016577816000,5.253816162109375,7.514944553375244,0.7139756083488464,-1.5304450988769531
1761232016587884800,5.263884765625,8.211176872253418,0.5407547950744629,-1.6518958806991577
1761232016597955000,5.273955078125,8.874765396118164,0.0736192911863327,-1.730252981185913
1761232016608024000,5.284024169921875,9.337027549743652,-0.7720571160316467,-1.7154051065444946
1761232016618094000,5.294093994140625,9.249319076538086,-1.92007577419281,-1.495961308479309
1761232016628163000,5.3041630859375,8.350472450256348,-2.8362228870391846,-1.0995514392852783
1761232016638232800,5.31423291015625,6.616061210632324,-2.8827576637268066,-0.6691836714744568
1761232016648302000,5.324302001953125,4.221097946166992,-1.8731528520584106,-0.3421434462070465
1761232016658371000,5.33437109375,1.445528268814087,-0.5603230595588684,0.06031467020511627
1761232016668441000,5.344441162109375,-1.300266981124878,0.9824181795120239,0.4182147681713104
1761232016678509800,5.354509765625,-3.6990530490875244,2.1160998344421387,0.500060498714447
1761232016688580000,5.364580078125,-5.469066143035889,2.7066874504089355,0.4588712751865387
1761232016698648800,5.37464892578125,-6.686627388000488,2.758120536804199,0.34251365065574646
1761232016708719000,5.384718994140625,-7.4727325439453125,2.4929027557373047,0.1264796257019043
1761232016718787800,5.394787841796875,-8.018388748168945,2.1299941539764404,-0.16100358963012695
1761232016728858000,5.404858154296875,-8.458331108093262,1.7180306911468506,-0.4522615373134613
1761232016738927000,5.414927001953125,-8.763265609741211,1.26198148727417,-0.7217730283737183
1761232016748996000,5.42499609375,-8.767010688781738,0.9605156779289246,-0.9622588157653809
1761232016759066000,5.435066162109375,-8.291717529296875,0.9978954792022705,-0.9588391780853271
1761232016769135000,5.445135009765625,-7.267364025115967,1.3380823135375977,-0.5762814283370972
1761232016779205000,5.455205078125,-5.750163555145264,1.7600027322769165,0.04060027003288269
1761232016789273900,5.46527392578125,-3.9350368976593018,1.8148205280303955,0.565131425857544
1761232016799343000,5.475343017578125,-1.9916114807128906,1.379574179649353,0.7490355968475342
1761232016809412900,5.485412841796875,-0.06806663423776627,0.6432530879974365,0.5442661643028259
1761232016819482000,5.495482177734375,1.720818042755127,-0.13310067355632782,0.06696351617574692
1761232016829551900,5.5055517578125,3.2724192142486572,-0.7137371897697449,-0.4976588487625122
1761232016839621000,5.51562109375,4.481738567352295,-0.949807345867157,-1.0348715782165527
1761232016849691000,5.52569091796875,5.296835899353027,-0.9721600413322449,-1.4450172185897827
1761232016859760000,5.535760009765625,5.75051212310791,-0.8335099220275879,-1.6928948163986206
1761232016869830000,5.545829833984375,5.942796230316162,-0.533289909362793,-1.7814486026763916
1761232016879899100,5.555899169921875,5.907108783721924,-0.21311795711517334,-1.7670563459396362
1761232016889967900,5.5659677734375,5.610513687133789,0.10566401481628418,-1.7134407758712769
1761232016900038000,5.576037841796875,5.034612655639648,0.47830018401145935,-1.668157935142517
1761232016910107000,5.58610693359375,4.156561851501465,0.9098560810089111,-1.6308691501617432
1761232016920177000,5.596177001953125,3.040283203125,1.3610649108886719,-1.5213268995285034
1761232016930246100,5.60624609375,1.760966181755066,1.8615626096725464,-1.2879916429519653
1761232016940316000,5.61631591796875,0.40975770354270935,2.4983184337615967,-0.9631029963493347
1761232016950385200,5.62638525390625,-0.9575421810150146,3.1121654510498047,-0.6280035972595215
1761232016960454000,5.636453857421875,-2.235656499862671,3.601335048675537,-0.31995704770088196
1761232016970524200,5.646524169921875,-3.338944673538208,3.9530587196350098,-0.03536871820688248
1761232016980593000,5.656593017578125,-4.2275872230529785,4.134237289428711,0.24603530764579773
1761232016990662400,5.666662353515625,-4.865891933441162,3.8928864002227783,0.519894540309906
1761232017000731400,5.6767314453125,-5.262820243835449,3.11594820022583,0.7175930738449097
1761232017010801400,5.686801513671875,-5.357739448547363,2.0362234115600586,0.9003234505653381
1761232017020870400,5.696870361328125,-5.178600311279297,0.9797873497009277,1.2095491886138916
1761232017030939400,5.706939453125,-4.860298156738281,0.03951676934957504,1.6954612731933594
1761232017041009400,5.717009521484375,-4.484145641326904,-0.8165861964225769,2.274991035461426
1761232017051078400,5.727078369140625,-4.066070556640625,-1.2908954620361328,2.8086159229278564
1761232017061148400,5.7371484375,-3.6861610412597656,-1.38749361038208,3.172119140625
1761232017071217400,5.747217529296875,-3.308069944381714,-1.1535066366195679,3.2670133113861084
1761232017081287400,5.757287353515625,-2.778153419494629,-0.70493483543396,3.0289602279663086
1761232017091356200,5.767356201171875,-1.9528489112854004,-0.1009163036942482,2.454038619995117
1761232017101425400,5.77742529296875,-0.8291275501251221,0.4939754605293274,1.647178292274475
1761232017111495400,5.787495361328125,0.5045539140701294,0.6823053956031799,0.7223907709121704
1761232017121564400,5.797564453125,1.892335295677185,0.19449728727340698,-0.13867291808128357
1761232017131634400,5.807634521484375,3.2189629077911377,-0.49245738983154297,-0.9254966378211975
1761232017141703400,5.817703369140625,4.302973747253418,-1.063172698020935,-1.609567403793335
1761232017151773400,5.8277734375,5.0289812088012695,-1.4407215118408203,-2.1581215858459473
1761232017161842400,5.837842529296875,5.372581481933594,-1.5201950073242188,-2.5525739192962646
1761232017171912400,5.847912353515625,5.355022430419922,-1.3187739849090576,-2.8024182319641113
1761232017181981400,5.8579814453125,5.054774761199951,-0.9127563834190369,-2.916457414627075
1761232017192050400,5.868050537109375,4.511000156402588,-0.3984869122505188,-2.9186253547668457
1761232017202120200,5.8781201171875,3.7462921142578125,0.18217279016971588,-2.8092637062072754
1761232017212189400,5.888189453125,2.877577066421509,0.8141536712646484,-2.621699094772339
1761232017222259200,5.89825927734375,2.041884660720825,1.4243675470352173,-2.381115436553955
1761232017232328400,5.908328369140625,1.3076834678649902,1.8509771823883057,-2.115206003189087
1761232017242398500,5.9183984375,0.6791035532951355,1.972019910812378,-1.8965991735458374
1761232017252467500,5.928467529296875,0.19337576627731323,1.9284636974334717,-1.7883166074752808
1761232017262536200,5.9385361328125,-0.148307204246521,1.831336259841919,-1.756743311882019
1761232017272606500,5.9486064453125,-0.34875375032424927,1.6991139650344849,-1.7727677822113037
1761232017282675500,5.958675537109375,-0.4253222346305847,1.689454436302185,-1.7845854759216309
1761232017292744400,5.968744384765625,-0.445058137178421,1.6800282001495361,-1.771484613418579
1761232017302813200,5.978813232421875,-0.451995313167572,1.651400089263916,-1.7575234174728394
1761232017312883500,5.988883544921875,-0.5088045597076416,1.7484729290008545,-1.8140841722488403
1761232017322952200,5.9989521484375,-0.6574360132217407,2.0600056648254395,-1.9525147676467896
1761232017333022500,6.0090224609375,-0.901668131351471,2.0855603218078613,-2.005904197692871
1761232017343091500,6.019091552734375,-1.1585367918014526,2.0658180713653564,-2.13158917427063
1761232017353161200,6.0291611328125,-1.4499329328536987,1.7294331789016724,-2.0939278602600098
1761232017363230500,6.03923046875,-1.5435154438018799,1.0029500722885132,-2.1843011379241943
1761232017373299500,6.049299560546875,-1.8690013885498047,-0.14206939935684204,-1.5757501125335693
1761232017383369500,6.059369384765625,-2.5612435340881348,-1.832172155380249,-1.0279279947280884
1761232017393438500,6.0694384765625,-2.909104108810425,-3.2605884075164795,-0.852510392665863
1761232017403508500,6.079508544921875,-2.629995822906494,-3.0791268348693848,-1.1460647583007812
1761232017413577200,6.0895771484375,-2.0694377422332764,-2.3065478801727295,-1.7436245679855347
1761232017423647500,6.0996474609375,-1.6906057596206665,-2.1278882026672363,-2.263193368911743
1761232017433716200,6.10971630859375,-1.443924069404602,-2.4087984561920166,-2.529897689819336
1761232017443786500,6.119786376953125,-1.1554771661758423,-2.8770804405212402,-2.6516854763031006
1761232017453855200,6.129855224609375,-0.8580958843231201,-3.1475751399993896,-2.7167062759399414
1761232017463924500,6.139924560546875,-0.6232314109802246,-3.366962432861328,-2.7638099193573
1761232017473994500,6.149994384765625,-0.48579928278923035,-3.507230043411255,-2.7763495445251465
1761232017484063500,6.1600634765625,-0.4300842583179474,-3.524188280105591,-2.752107858657837
1761232017494133500,6.170133544921875,-0.3946428894996643,-3.3874289989471436,-2.6710407733917236
1761232017504202200,6.1802021484375,-0.39476409554481506,-3.074493169784546,-2.5447194576263428
1761232017514272500,6.1902724609375,-0.4089515805244446,-2.71231746673584,-2.302762031555176
1761232017524341200,6.20034130859375,-0.25947073101997375,-2.402850866317749,-1.8562073707580566
1761232017534410500,6.210410400390625,-0.1526460349559784,-1.9929410219192505,-1.356760025024414
1761232017544480300,6.220480224609375,-0.13271880149841309,-1.593747615814209,-0.8424240946769714
1761232017554549500,6.230549560546875,-0.15015451610088348,-1.1726043224334717,-0.3610934019088745
1761232017564619300,6.240619384765625,-0.17507073283195496,-0.7658795118331909,0.04514056071639061
1761232017574688500,6.2506884765625,-0.16724930703639984,-0.3463863730430603,0.36474063992500305
1761232017584758300,6.26075830078125,-0.144157275557518,0.05995146185159683,0.5992857813835144
1761232017594827500,6.27082763671875,-0.13076423108577728,0.30022263526916504,0.7591140866279602
1761232017604896300,6.280896240234375,-0.09799923002719879,0.4292137324810028,0.8406102657318115
1761232017614966300,6.29096630859375,-0.0816705971956253,0.5254513025283813,0.829596996307373
1761232017625035300,6.30103515625,-0.10721664875745773,0.5598796010017395,0.7006453275680542
1761232017635105300,6.311105224609375,-0.14857794344425201,0.47639161348342896,0.4773230254650116
1761232017645174500,6.321174560546875,-0.18983517587184906,0.32162198424339294,0.2507976293563843
1761232017655244300,6.331244384765625,-0.1927523910999298,0.16518789529800415,0.08222219347953796
1761232017665313500,6.3413134765625,-0.15646101534366608,0.06242536008358002,-0.009486205875873566
1761232017675382300,6.35138232421875,-0.10053703933954239,0.013434380292892456,-0.045836225152015686
1761232017685452500,6.36145263671875,-0.05808626860380173,-0.013565987348556519,-0.0479971282184124
1761232017695521300,6.371521240234375,-0.030894065275788307,-0.06721696257591248,-0.03928273171186447
1761232017705591600,6.381591552734375,-0.01632607728242874,-0.12434711307287216,-0.04181089624762535
1761232017715660300,6.391660400390625,-0.0008017141371965408,-0.13629938662052155,-0.054585814476013184
1761232017725730300,6.401730224609375,0.0007275766110979021,-0.07410892099142075,-0.0578637570142746
1761232017735799300,6.41179931640625,-0.0048027439042925835,-0.00977786723524332,-0.057187315076589584
1761232017745868500,6.42186865234375,0.004220229107886553,0.03771652653813362,-0.044921714812517166
1761232017755938300,6.431938232421875,0.01905749924480915,0.09589993208646774,-0.013927048072218895
1761232017766007300,6.44200732421875,0.034412723034620285,0.1614583134651184,0.03255932778120041
1761232017776077300,6.452077392578125,0.0469474233686924,0.36744555830955505,0.16262651979923248
1761232017786146300,6.462146240234375,-0.0024659885093569756,0.5567440390586853,0.309119313955307
1761232017796216600,6.472216552734375,-0.06862982362508774,0.514478325843811,0.3498118817806244
1761232017806285300,6.482285400390625,-0.0860697403550148,0.3763141334056854,0.26316285133361816
1761232017816354300,6.492354248046875,-0.10264978557825089,0.27648288011550903,0.1028943583369255
1761232017826424300,6.50242431640625,-0.10569098591804504,0.16493366658687592,-0.0642492026090622
1761232017836493600,6.51249365234375,-0.09489559382200241,0.08731982856988907,-0.15648619830608368
1761232017846563300,6.522563232421875,-0.10177628695964813,0.07180449366569519,-0.16523024439811707
