time,seconds_elapsed,z,y,x
1761232011394576600,0.07057666015625,-0.18235942721366882,-0.6990994811058044,0.21201877295970917
1761232011404646400,0.080646484375,-0.19988861680030823,-0.8437485694885254,0.3446332812309265
1761232011414715600,0.090715576171875,-0.21461163461208344,-0.9259510040283203,0.4706716537475586
1761232011424785700,0.10078564453125,-0.2245050072669983,-0.9771297574043274,0.5862011909484863
1761232011434854400,0.1108544921875,-0.23701095581054688,-0.9839493036270142,0.6737512350082397
1761232011444924700,0.120924560546875,-0.2442139983177185,-0.933959424495697,0.733575701713562
1761232011454993400,0.130993408203125,-0.23251207172870636,-0.8450404405593872,0.7545992136001587
1761232011465062700,0.141062744140625,-0.20333980023860931,-0.7470906972885132,0.7336124777793884
1761232011475132400,0.15113232421875,-0.14358513057231903,-0.6526038646697998,0.6912769675254822
1761232011485201700,0.16120166015625,-0.07561299949884415,-0.5876222252845764,0.6391908526420593
1761232011495271400,0.171271484375,-0.006280266214162111,-0.5169088840484619,0.5851708054542542
1761232011505340700,0.181340576171875,0.043709397315979004,-0.4037994146347046,0.5089234113693237
1761232011515410400,0.191410400390625,0.07031197845935822,-0.2763215899467468,0.4134717285633087
1761232011525479700,0.201479736328125,0.07944049686193466,-0.1686989963054657,0.3114053010940552
1761232011535548400,0.21154833984375,0.08475936204195023,-0.0943257063627243,0.22166527807712555
1761232011545618400,0.221618408203125,0.08969499915838242,-0.06186869367957115,0.1484760195016861
1761232011555687400,0.2316875,0.08366453647613525,-0.05507363751530647,0.08551756292581558
1761232011565757400,0.24175732421875,0.06373956799507141,-0.06071927398443222,0.030129939317703247
1761232011575826400,0.251826416015625,0.049557168036699295,-0.07386330515146255,-0.00971467886120081
1761232011585895400,0.2618955078125,0.048049017786979675,-0.09163404256105423,-0.038781218230724335
1761232011595965700,0.271965576171875,0.03933302313089371,-0.10143820941448212,-0.058884356170892715
1761232011606034400,0.282034423828125,0.033491913229227066,-0.11203891783952713,-0.0742742270231247
1761232011616104700,0.292104736328125,0.027468642219901085,-0.12666180729866028,-0.07860586047172546
1761232011626173400,0.30217333984375,0.02275511436164379,-0.12318291515111923,-0.07840585708618164
1761232011636243500,0.312243408203125,0.014542191289365292,-0.0873522162437439,-0.0753011479973793
1761232011646312400,0.3223125,0.002683134749531746,-0.04640531539916992,-0.05762840807437897
1761232011656382500,0.332382568359375,-0.0035654399544000626,-0.01804877445101738,-0.03250148519873619
1761232011666451500,0.342451416015625,-0.015176023356616497,-0.0013464941876009107,-0.009542105719447136
1761232011676520700,0.352520751953125,-0.024337830021977425,-0.020557738840579987,0.0006620618514716625
1761232011686590500,0.362590576171875,-0.03351481631398201,-0.03476836532354355,0.016577377915382385
1761232011696659500,0.372659423828125,-0.05469626933336258,-0.047380298376083374,0.026271551847457886
1761232011706729500,0.3827294921875,-0.07822449505329132,-0.06685332953929901,0.03051876090466976
1761232011716798500,0.392798583984375,-0.10095936805009842,-0.11647015064954758,0.03214568644762039
1761232011726867500,0.402867431640625,-0.13658633828163147,-0.17814576625823975,0.03421629220247269
1761232011736937500,0.4129375,-0.15771692991256714,-0.18979044258594513,0.03548422455787659
1761232011747006500,0.42300634765625,-0.17121756076812744,-0.2089015543460846,0.026134131476283073
1761232011757076500,0.433076416015625,-0.17594014108181,-0.2108888030052185,0.014035391621291637
1761232011767145500,0.4431455078125,-0.18094101548194885,-0.2185182273387909,0.0068387314677238464
1761232011777215500,0.453215576171875,-0.1794389933347702,-0.22492659091949463,0.01179221086204052
1761232011787284700,0.46328466796875,-0.18725989758968353,-0.2573529779911041,0.017646105960011482
1761232011797353500,0.473353515625,-0.19577643275260925,-0.26972389221191406,0.01582130789756775
1761232011807423500,0.483423583984375,-0.1948922574520111,-0.26495736837387085,0.0105354655534029
1761232011817492500,0.493492431640625,-0.18519754707813263,-0.2480154037475586,-0.0018634138396009803
1761232011827562500,0.5035625,-0.15915928781032562,-0.2155759632587433,-0.007995341904461384
1761232011837631500,0.513631591796875,-0.12935851514339447,-0.1743648797273636,-0.012135758996009827
1761232011847701500,0.523701416015625,-0.10340894758701324,-0.1194254606962204,-0.007586546707898378
1761232011857770500,0.5337705078125,-0.10383478552103043,-0.10870730876922607,-0.0034290861804038286
1761232011867839500,0.543839599609375,-0.11895701289176941,-0.08193401247262955,-0.007876032963395119
1761232011877909500,0.553909423828125,-0.1256231665611267,-0.05615274980664253,-0.0065652248449623585
1761232011887978500,0.563978515625,-0.11596362292766571,-0.060514744371175766,-0.02069143019616604
1761232011898048500,0.574048583984375,-0.09514009952545166,-0.0672469511628151,-0.03209055960178375
1761232011908117500,0.584117431640625,-0.08545764535665512,-0.07072290778160095,-0.03839319571852684
1761232011918187500,0.5941875,-0.08225465565919876,-0.051357995718717575,-0.0458495132625103
1761232011928256500,0.604256591796875,-0.07998032122850418,-0.018209896981716156,-0.04375547170639038
1761232011938325500,0.614325439453125,-0.07817576080560684,0.030301978811621666,-0.04852119833230972
1761232011948395500,0.6243955078125,-0.07789479941129684,0.07025125622749329,-0.04159644618630409
1761232011958464500,0.634464599609375,-0.06911329180002213,0.10629448294639587,-0.036021117120981216
1761232011968534500,0.644534423828125,-0.05922124534845352,0.1314517706632614,-0.02323022112250328
1761232011978603500,0.654603515625,-0.04602688178420067,0.16044826805591583,0.0015651397407054901
1761232011988674000,0.664674072265625,-0.04060734808444977,0.17717531323432922,0.03509646654129028
1761232011998743000,0.674742919921875,-0.03779877722263336,0.18481512367725372,0.06809409707784653
1761232012008812300,0.684812255859375,-0.03630181401968002,0.18238046765327454,0.08941563218832016
1761232012018882000,0.694882080078125,0.02857039123773575,0.18546892702579498,0.10722126066684723
1761232012028951300,0.704951416015625,0.02791125886142254,0.2141447812318802,0.11269112676382065
1761232012039021300,0.715021240234375,-0.017423732206225395,0.17322930693626404,0.095347560942173
1761232012049090000,0.725090087890625,-0.04171682149171829,0.1435752809047699,0.07744286209344864
1761232012059160300,0.735160400390625,-0.040347423404455185,0.1360507756471634,0.05299637094140053
1761232012069229000,0.74522900390625,-0.024629445746541023,0.13447125256061554,0.024706678465008736
1761232012079298000,0.755298095703125,-0.017302557826042175,0.13700658082962036,0.007097057998180389
1761232012089368000,0.7653681640625,-0.018846925348043442,0.1375701129436493,-0.0023086944129318
1761232012099437300,0.775437255859375,-0.020378241315484047,0.13115189969539642,-0.0036666402593255043
1761232012109507000,0.785507080078125,-0.02105361968278885,0.1256263703107834,-0.0008711199625395238
1761232012119576300,0.795576416015625,-0.021138574928045273,0.11331643909215927,0.0024557008873671293
1761232012129646000,0.80564599609375,-0.01840324141085148,0.09671429544687271,0.0003842941368930042
1761232012139715000,0.815715087890625,-0.014578942209482193,0.08598681539297104,-0.005393167492002249
1761232012149784000,0.8257841796875,-0.007317834068089724,0.07758533954620361,-0.009754892438650131
1761232012159854000,0.83585400390625,0.002156627830117941,0.07891851663589478,-0.015153919346630573
1761232012169923000,0.845923095703125,0.003656520042568445,0.07057510316371918,-0.020808076485991478
1761232012179993000,0.8559931640625,0.0034794199746102095,0.07626867294311523,-0.012572250328958035
1761232012190062000,0.86606201171875,0.0019198728259652853,0.071056067943573,-0.010155165567994118
1761232012200131000,0.876131103515625,0.00833755824714899,0.055397212505340576,-0.008349808864295483
1761232012210201000,0.886201171875,0.009859022684395313,0.04122759774327278,-0.00983425509184599
1761232012220270000,0.89627001953125,0.007675230037420988,0.019658124074339867,-0.012130964547395706
1761232012230340400,0.90634033203125,0.011087005957961082,0.01389770582318306,-0.017583787441253662
1761232012240409000,0.9164091796875,0.005803560372442007,0.016688965260982513,-0.021469073370099068
1761232012250479000,0.92647900390625,0.004223241005092859,0.03098374791443348,-0.02480281889438629
1761232012260548000,0.936548095703125,-0.0017102820565924048,0.04529344663023949,-0.02364993467926979
1761232012270617300,0.946617431640625,-0.004809935111552477,0.0481848381459713,-0.02586435340344906
1761232012280687000,0.95668701171875,-0.006096774712204933,0.032698024064302444,-0.03021595999598503
1761232012290756400,0.96675634765625,-0.00398621940985322,0.013666809536516666,-0.04068963974714279
1761232012300826000,0.976826171875,0.004218180663883686,-0.011009241454303265,-0.04903918132185936
1761232012310895000,0.98689501953125,0.007506918627768755,-0.029206087812781334,-0.04791266471147537
1761232012320965000,0.996965087890625,0.009857957251369953,-0.02797996997833252,-0.040044888854026794
1761232012331034000,1.0070341796875,0.004750546533614397,-0.016770457848906517,-0.031095867976546288
1761232012341103000,1.01710302734375,0.0075945365242660046,-0.009899236261844635,-0.015533419325947762
1761232012351173000,1.027173095703125,0.008339955471456051,-0.0011544802691787481,-0.00782569870352745
1761232012361242000,1.0372421875,0.009108010679483414,0.005379052832722664,-0.010941331274807453
1761232012371312000,1.04731201171875,0.013732589781284332,0.006399842444807291,-0.02110954560339451
1761232012381381000,1.057381103515625,0.01576617918908596,0.010610033757984638,-0.02851579710841179
1761232012391451100,1.067451171875,0.01679469272494316,0.020892765372991562,-0.03886164352297783
1761232012401520000,1.07752001953125,0.014573615975677967,0.033130522817373276,-0.041247040033340454
1761232012411589000,1.087589111328125,0.015510782599449158,0.049730539321899414,-0.03621446341276169
1761232012421659100,1.0976591796875,0.008994027972221375,0.07570008933544159,-0.024172181263566017
1761232012431728000,1.10772802734375,0.0041638524271547794,0.08263043314218521,-0.003996605984866619
1761232012441798100,1.117798095703125,-0.0057529606856405735,0.0778396725654602,0.014307566918432713
1761232012451867100,1.1278671875,-0.01016688346862793,0.05674850195646286,0.02539297379553318
1761232012461937200,1.137937255859375,-0.003975034225732088,0.027161579579114914,0.0320250429213047
1761232012472006100,1.148006103515625,0.0014500912511721253,-0.004652276169508696,0.03574361652135849
1761232012482075100,1.1580751953125,0.011914982460439205,-0.027899008244276047,0.02797224558889866
1761232012492145200,1.168145263671875,0.018333466723561287,-0.04153439402580261,0.017058346420526505
1761232012502214100,1.178214111328125,0.024087226018309593,-0.036793701350688934,-0.0005158542771823704
1761232012512284200,1.1882841796875,0.024280305951833725,-0.015296664088964462,-0.018041051924228668
1761232012522353200,1.198353271484375,0.023899473249912262,0.003930026665329933,-0.029763488098978996
1761232012532423000,1.2084228515625,0.021654162555933,0.01679416000843048,-0.041012413799762726
1761232012542492200,1.2184921875,0.024147946387529373,0.013364807702600956,-0.040470194071531296
1761232012552561200,1.22856103515625,0.0232283566147089,0.009995109401643276,-0.033679135143756866
1761232012562631200,1.238631103515625,0.024105070158839226,0.0067657604813575745,-0.020605675876140594
1761232012572700000,1.248699951171875,0.023067235946655273,-0.0015403723809868097,-0.001975000137463212
1761232012582770200,1.258770263671875,0.0199247058480978,-0.003356115659698844,0.01564021222293377
1761232012592839200,1.268839111328125,0.021795842796564102,-0.0040975394658744335,0.033841852098703384
1761232012602909200,1.2789091796875,0.014050571247935295,-0.00301709515042603,0.05128795653581619
1761232012612978200,1.288978271484375,0.006943393498659134,-0.008509332314133644,0.05771176517009735
1761232012623047200,1.299047119140625,0.00227860058657825,-0.016918795183300972,0.05156439170241356
1761232012633117200,1.3091171875,0.00310524576343596,-0.020973725244402885,0.037456028163433075
1761232012643186200,1.319186279296875,0.009665676392614841,-0.026217222213745117,0.018147844821214676
1761232012653256200,1.329256103515625,0.010183661244809628,-0.01842108555138111,0.0017457021167501807
1761232012663325200,1.3393251953125,0.007423028815537691,-0.008072573691606522,-0.014601313509047031
1761232012673395200,1.349395263671875,0.0038597192615270615,0.005591040477156639,-0.02285764552652836
1761232012683464000,1.3594638671875,0.0038930089212954044,0.015292936004698277,-0.023427028208971024
1761232012693533200,1.369533203125,0.0057159424759447575,0.013659886084496975,-0.028869464993476868
1761232012703603000,1.37960302734375,0.010451575741171837,0.0121866250410676,-0.028774656355381012
1761232012713672200,1.389672119140625,0.01281539723277092,0.006817159708589315,-0.022222748026251793
1761232012723742200,1.3997421875,0.015908392146229744,-0.003967843484133482,-0.008234494365751743
1761232012733811200,1.409811279296875,0.013051353394985199,-0.012571718543767929,0.012383166700601578
1761232012743881200,1.419881103515625,0.012014318257570267,-0.01841682381927967,0.03421416133642197
1761232012753950200,1.4299501953125,0.006163886282593012,-0.03377314284443855,0.04838883876800537
1761232012764019200,1.440019287109375,0.004122573416680098,-0.038188666105270386,0.06118053197860718
1761232012774089200,1.450089111328125,0.00586747657507658,-0.03153742104768753,0.06797079741954803
1761232012784158200,1.460158203125,0.0028911277186125517,-0.020977986976504326,0.07250509411096573
1761232012794228000,1.47022802734375,0.0023497070651501417,-0.018816564232110977,0.07163557410240173
1761232012804297200,1.480297119140625,0.00007297061529243365,-0.016099607571959496,0.06588713824748993
1761232012814367000,1.490366943359375,0.0004423510399647057,-0.022226741537451744,0.056231316179037094
1761232012824436200,1.500436279296875,-0.002584864152595401,-0.030226878821849823,0.04415707290172577
1761232012834505000,1.5105048828125,-0.002404035534709692,-0.028930984437465668,0.03636093810200691
1761232012844575200,1.5205751953125,-0.00044341632747091353,-0.0437496118247509,0.032347820699214935
1761232012854644000,1.53064404296875,0.0016346483025699854,-0.057319749146699905,0.030826622620224953
1761232012864714200,1.54071435546875,0.0030684941448271275,-0.06906455755233765,0.03606346249580383
1761232012874783000,1.550782958984375,0.0139019675552845,-0.08730960637331009,0.0338735431432724
1761232012884853200,1.560853271484375,0.01954680308699608,-0.11533724516630173,0.03821076825261116
1761232012894922000,1.570921875,0.02219558320939541,-0.14186792075634003,0.04416905716061592
1761232012904992000,1.580991943359375,0.014808240346610546,-0.14168523252010345,0.039869118481874466
1761232012915061200,1.591061279296875,0.01366281509399414,-0.1261715143918991,0.030825557187199593
1761232012925130200,1.601130126953125,0.013256416656076908,-0.09588045626878738,0.02370559610426426
1761232012935200300,1.6112001953125,0.013317669741809368,-0.061883341521024704,0.014244982041418552
1761232012945269000,1.62126904296875,0.013028450310230255,-0.03862781822681427,0.01534380204975605
1761232012955339300,1.63133935546875,-0.0017398431664332747,-0.021684255450963974,0.03388392925262451
1761232012965408000,1.641407958984375,-0.02401532046496868,-0.005382515024393797,0.05427974835038185
1761232012975478300,1.651478271484375,-0.036319125443696976,-0.011487545445561409,0.07047762721776962
1761232012985546200,1.661546142578125,-0.030769098550081253,-0.03025803714990616,0.07203850895166397
1761232012995615500,1.671615478515625,-0.017890850082039833,-0.057135991752147675,0.05609762296080589
1761232013005685200,1.681685302734375,-0.0026879284996539354,-0.07979229837656021,0.03735189884901047
1761232013015754500,1.69175439453125,0.015151788480579853,-0.08479265123605728,0.02040114626288414
1761232013025824300,1.70182421875,0.020717529579997063,-0.07576080411672592,0.00920548290014267
1761232013035893500,1.7118935546875,0.01841709017753601,-0.0583471953868866,0.011420433409512043
1761232013045963300,1.72196337890625,0.015478558838367462,-0.04080415517091751,0.019344935193657875
1761232013056032500,1.732032470703125,0.007979629561305046,-0.03144900128245354,0.029315810650587082
1761232013066101200,1.742101318359375,0.0027110979426652193,-0.025473933666944504,0.03701261430978775
1761232013076171500,1.752171630859375,-0.0021225393284112215,-0.031510788947343826,0.044610876590013504
1761232013086240300,1.762240234375,-0.0021731394808739424,-0.04138951748609543,0.04976489394903183
1761232013096310300,1.772310302734375,-0.0023180153220891953,-0.04579997807741165,0.04995930194854736
1761232013106379300,1.782379150390625,-0.001198955113068223,-0.04483325034379959,0.043228697031736374
1761232013116449300,1.79244921875,-0.002433063928037882,-0.03947284072637558,0.04472299665212631
1761232013126518500,1.8025185546875,-0.003683950752019882,-0.026215357705950737,0.03957643732428551
1761232013136587300,1.812587158203125,-0.0015472965314984322,-0.021154288202524185,0.04193147271871567
1761232013146657500,1.822657470703125,0.004877046681940556,-0.036015257239341736,0.04626762866973877
1761232013156726300,1.832726318359375,0.004579039290547371,-0.060258813202381134,0.04821333661675453
1761232013166796500,1.842796630859375,0.009664611890912056,-0.11394494771957397,0.05061044543981552
1761232013176865300,1.852865234375,0.016646621748805046,-0.17799291014671326,0.062364574521780014
1761232013186935600,1.862935546875,0.02611628919839859,-0.20038822293281555,0.0825747698545456
1761232013197004300,1.87300439453125,0.028785841539502144,-0.20775479078292847,0.11295264959335327
1761232013207073500,1.883073486328125,0.01708337850868702,-0.21938109397888184,0.14368046820163727
1761232013217143300,1.893143310546875,0.006628075148910284,-0.22822411358356476,0.14707733690738678
1761232013227212500,1.903212646484375,0.0013603427214547992,-0.2198689728975296,0.10576824098825455
1761232013237282300,1.9132822265625,0.01918754354119301,-0.18027417361736298,0.021690648049116135
1761232013247351300,1.923351318359375,0.043300602585077286,-0.1302027404308319,-0.08360221982002258
1761232013257421600,1.933421630859375,0.07301082462072372,-0.11584430932998657,-0.1787862628698349
1761232013267490300,1.943490234375,0.08455882966518402,-0.12016209214925766,-0.25702008605003357
1761232013277559300,1.953559326171875,0.07898030430078506,-0.11557453125715256,-0.30700069665908813
1761232013287629300,1.96362939453125,0.06993594020605087,-0.08924013376235962,-0.31084921956062317
1761232013297698600,1.973698486328125,0.06631031632423401,-0.07244917005300522,-0.294951468706131
1761232013307768300,1.983768310546875,0.050884220749139786,-0.061771489679813385,-0.26148006319999695
1761232013317837600,1.993837646484375,0.037797711789608,-0.02556554786860943,-0.2148025780916214
1761232013327907300,2.0039072265625,0.020592892542481422,0.006885869428515434,-0.16811177134513855
1761232013337976600,2.0139765625,-0.00012197277828818187,0.03680435195565224,-0.12269528955221176
1761232013348045300,2.02404541015625,-0.01805783063173294,0.05070312321186066,-0.07938829809427261
1761232013358115300,2.034115234375,-0.02720019593834877,0.06468179076910019,-0.030850591138005257
1761232013368184300,2.044184326171875,-0.03220241144299507,0.0557122640311718,0.013072924688458443
1761232013378254300,2.05425439453125,-0.025165274739265442,0.0430406779050827,0.04638320952653885
1761232013388323300,2.0643232421875,-0.011695804074406624,0.01865650899708271,0.059177834540605545
1761232013398393300,2.074393310546875,-0.002463423879817128,0.007197459228336811,0.06229213625192642
1761232013408462300,2.08446240234375,0.014580007642507553,0.004284759983420372,0.06301438808441162
1761232013418531300,2.09453125,0.04745566472411156,0.039684295654296875,0.039448074996471405
1761232013428601600,2.1046015625,0.0940556600689888,0.1151907742023468,-0.0064975805580616
1761232013438670300,2.11467041015625,0.15526814758777618,0.2873809039592743,-0.05651067942380905
1761232013448740600,2.12474072265625,0.255194753408432,0.6453396081924438,-0.07865779101848602
1761232013458809300,2.134809326171875,0.3688962757587433,1.1176812648773193,-0.12392167747020721
1761232013468879400,2.14487939453125,0.7017906308174133,1.5486537218093872,-0.17415902018547058
1761232013478948400,2.1549482421875,1.0136851072311401,1.8943575620651245,-0.15627188980579376
1761232013489017600,2.165017578125,1.1514488458633423,2.6612870693206787,-0.04399515315890312
1761232013499087400,2.17508740234375,1.3823795318603516,2.8341336250305176,-0.021227523684501648
1761232013509156400,2.18515625,1.7576208114624023,2.4987998008728027,-0.0626671090722084
1761232013519226400,2.195226318359375,2.242389440536499,2.0491697788238525,-0.11160748451948166
1761232013529295400,2.20529541015625,2.7164366245269775,1.6554946899414062,-0.06906002759933472
1761232013539365400,2.215365478515625,2.981201648712158,1.396823763847351,0.036250416189432144
1761232013549434400,2.225434326171875,3.03570818901062,1.4413243532180786,0.13983513414859772
1761232013559504400,2.23550439453125,2.933547019958496,1.677176594734192,0.07913902401924133
1761232013569573400,2.245573486328125,2.797624111175537,2.0947093963623047,-0.12388172745704651
1761232013579642400,2.255642333984375,2.596672773361206,2.4870290756225586,-0.358304888010025
1761232013589712400,2.26571240234375,2.2872655391693115,2.9394092559814453,-0.48608389496803284
1761232013599781400,2.275781494140625,1.991307020187378,3.0956826210021973,-0.48472222685813904
1761232013609851400,2.285851318359375,1.7859421968460083,3.2876551151275635,-0.39873912930488586
1761232013619920400,2.29592041015625,1.7307250499725342,3.1924455165863037,-0.4483519494533539
1761232013629990400,2.305990478515625,1.743831753730774,2.7015631198883057,-0.7167799472808838
1761232013640059400,2.316059326171875,1.6538163423538208,2.1257758140563965,-1.0146195888519287
1761232013650128400,2.32612841796875,1.3554669618606567,2.0514068603515625,-1.0911340713500977
1761232013660198400,2.336198486328125,1.009352207183838,2.287919759750366,-0.9992126822471619
1761232013670267400,2.346267333984375,0.7485448122024536,2.331352710723877,-0.884128212928772
1761232013680337400,2.35633740234375,0.5429714322090149,2.3547606468200684,-0.7810273766517639
1761232013690406400,2.366406494140625,0.3365444540977478,2.403404951095581,-0.6920527815818787
1761232013700476400,2.376476318359375,0.2013152688741684,1.784021258354187,-0.26884105801582336
1761232013710545400,2.38654541015625,0.36077338457107544,-0.6931095123291016,1.0246796607971191
1761232013720614400,2.396614501953125,0.6432021260261536,-1.6778415441513062,1.866868495941162
1761232013730684200,2.40668408203125,1.182854413986206,-2.1430583000183105,2.2320756912231445
1761232013740753400,2.41675341796875,1.5916504859924316,-2.569397449493408,2.2267069816589355
1761232013750823400,2.426823486328125,1.901691198348999,-2.296664237976074,2.1085147857666016
1761232013760892400,2.436892333984375,2.1247940063476562,-1.313597559928894,1.9129512310028076
1761232013770962400,2.44696240234375,2.413672685623169,-0.6597409248352051,1.4727435111999512
1761232013781031400,2.457031494140625,2.5986831188201904,-0.5813249349594116,0.9949138164520264
1761232013791100400,2.467100341796875,2.6923625469207764,-0.895861804485321,0.651610791683197
1761232013801170400,2.47717041015625,2.977944850921631,-1.8821702003479004,0.5179089307785034
1761232013811239400,2.487239501953125,3.2963218688964844,-3.512417793273926,0.8115323185920715
1761232013821309400,2.497309326171875,3.683433771133423,-5.6245436668396,1.5034204721450806
1761232013831378400,2.50737841796875,3.879873037338257,-7.2042365074157715,2.454457998275757
1761232013841448200,2.5174482421875,3.608771324157715,-7.750998020172119,3.318660020828247
1761232013851517400,2.527517333984375,3.1421732902526855,-7.106787204742432,3.8008575439453125
1761232013861586400,2.53758642578125,2.2762303352355957,-5.974032878875732,4.036008834838867
1761232013871656400,2.547656494140625,0.9809527397155762,-4.910487174987793,4.060718059539795
1761232013881725200,2.55772509765625,-0.7482646107673645,-4.0933051109313965,3.8839259147644043
1761232013891795500,2.56779541015625,-2.610213279724121,-3.3294315338134766,3.5384931564331055
1761232013901864200,2.5778642578125,-4.475139617919922,-2.6655983924865723,3.123380184173584
1761232013911934500,2.5879345703125,-6.29848051071167,-2.182605028152466,2.8604583740234375
1761232013922003200,2.598003173828125,-7.925033092498779,-1.869883418083191,2.815603494644165
1761232013932072400,2.608072509765625,-9.22153091430664,-1.453177571296692,2.7890465259552
1761232013942142500,2.618142578125,-10.233920097351074,-0.7455929517745972,2.576425075531006
1761232013952211500,2.62821142578125,-10.924248695373535,0.42378881573677063,2.3598082065582275
1761232013962281500,2.638281494140625,-11.576631546020508,1.1699072122573853,2.450044870376587
1761232013972350500,2.6483505859375,-12.032891273498535,1.5768017768859863,2.6387853622436523
1761232013982420500,2.65842041015625,-11.807025909423828,1.9570484161376953,2.751439332962036
1761232013992489500,2.668489501953125,-10.748522758483887,2.4787797927856445,3.0035243034362793
1761232014002558500,2.678558349609375,-8.890923500061035,2.6590614318847656,3.460620641708374
1761232014012628500,2.68862841796875,-6.037546634674072,2.0387799739837646,3.7824509143829346
1761232014022697500,2.698697509765625,-2.3370845317840576,0.7504228353500366,3.5885117053985596
1761232014032767500,2.708767578125,1.6469824314117432,-0.8423455953598022,2.8503949642181396
1761232014042836700,2.718836669921875,5.424996376037598,-2.145719289779663,1.7419978380203247
1761232014052906500,2.728906494140625,8.498491287231445,-2.9444737434387207,0.6841042637825012
1761232014062975700,2.738975830078125,10.636312484741211,-3.1917314529418945,-0.0032285500783473253
1761232014073044500,2.74904443359375,11.956117630004883,-2.877532720565796,-0.3690475523471832
1761232014083114800,2.75911474609375,12.751398086547852,-2.2820634841918945,-0.4975951313972473
1761232014093183500,2.76918359375,13.2965087890625,-1.687269687652588,-0.529005229473114
1761232014103253500,2.77925341796875,13.71657657623291,-1.2964705228805542,-0.4445950388908386
1761232014113322500,2.789322509765625,13.912520408630371,-1.3482983112335205,-0.25254276394844055
1761232014123392500,2.799392578125,13.635921478271484,-1.9877983331680298,0.13428403437137604
1761232014133461500,2.80946142578125,12.509897232055664,-3.092224359512329,0.7634584903717041
1761232014143530500,2.819530517578125,10.39905834197998,-3.487844944000244,1.694529414176941
1761232014153600500,2.8296005859375,7.4963531494140625,-2.953601837158203,2.854067087173462
1761232014163669500,2.83966943359375,4.037257671356201,-1.497183918952942,3.863251209259033
1761232014173739800,2.84973974609375,0.4586482644081116,0.34116238355636597,4.284580707550049
1761232014183808500,2.85980859375,-2.5461788177490234,1.7162443399429321,4.084124565124512
1761232014193878500,2.86987841796875,-4.789485454559326,2.031266212463379,3.5022389888763428
1761232014203947500,2.879947509765625,-6.348455905914307,1.3810453414916992,2.535036087036133
1761232014214017500,2.890017578125,-7.256772994995117,0.4827061891555786,1.2525403499603271
1761232014224086500,2.90008642578125,-7.838269233703613,-0.3905986547470093,-0.1368768960237503
1761232014234155800,2.91015576171875,-8.274721145629883,-1.025274634361267,-1.3882323503494263
1761232014244225500,2.9202255859375,-8.8132905960083,-1.2975150346755981,-2.373999834060669
1761232014254294500,2.93029443359375,-9.62330436706543,-1.0224636793136597,-3.071345090866089
1761232014264364500,2.940364501953125,-10.777000427246094,-0.19422593712806702,-3.5076329708099365
1761232014274433500,2.95043359375,-12.131263732910156,1.1567953824996948,-3.5834381580352783
1761232014284503600,2.960503662109375,-13.275050163269043,2.4999465942382812,-3.0810463428497314
1761232014294572500,2.970572509765625,-13.586450576782227,3.289461135864258,-1.9148268699645996
1761232014304641500,2.9806416015625,-12.486519813537598,3.3107616901397705,-0.24539990723133087
1761232014314711600,2.990711669921875,-9.752582550048828,2.5878255367279053,1.6107165813446045
1761232014324780500,3.000780517578125,-5.613487720489502,1.565392255783081,3.0598742961883545
1761232014334850600,3.0108505859375,-1.0417399406433105,0.40091413259506226,3.625872850418091
1761232014344919600,3.02091943359375,3.1018612384796143,-0.9127835631370544,3.141287088394165
1761232014354989600,3.030989501953125,6.617216110229492,-1.7823599576950073,1.842215895652771
1761232014365058600,3.04105859375,9.189166069030762,-2.348021984100342,0.41839244961738586
1761232014375127600,3.05112744140625,10.96502685546875,-2.427790641784668,-0.6865613460540771
1761232014385197600,3.061197509765625,12.164728164672852,-2.147404670715332,-1.3014715909957886
1761232014395266600,3.0712666015625,12.964553833007812,-1.7179127931594849,-1.4152027368545532
1761232014405336600,3.081336669921875,13.565174102783203,-1.3408973217010498,-1.197658896446228
1761232014415405600,3.091405517578125,13.946195602416992,-1.4196275472640991,-0.7812896966934204
1761232014425475600,3.1014755859375,13.781786918640137,-2.2122225761413574,-0.16788993775844574
1761232014435544600,3.111544677734375,12.641497611999512,-3.181159257888794,0.6433581709861755
1761232014445613600,3.121613525390625,10.461771965026855,-3.304070234298706,1.4237834215164185
1761232014455683600,3.13168359375,7.543827533721924,-2.176394462585449,2.0048446655273438
1761232014465752600,3.141752685546875,4.272224426269531,-0.4701097011566162,2.5256128311157227
1761232014475822300,3.151822265625,0.877994954586029,1.3038890361785889,2.8690671920776367
1761232014485891600,3.1618916015625,-1.9674384593963623,2.2898342609405518,2.7216758728027344
1761232014495961600,3.171961669921875,-4.09445858001709,2.423645496368408,2.1644914150238037
1761232014506030600,3.182030517578125,-5.5527663230896,1.8148436546325684,1.3155839443206787
1761232014516100600,3.1921005859375,-6.442754745483398,0.9379506707191467,0.3104920983314514
1761232014526169600,3.202169677734375,-6.987972736358643,0.24746252596378326,-0.7193238139152527
1761232014536238600,3.212238525390625,-7.37034797668457,-0.1029767170548439,-1.5970358848571777
1761232014546308600,3.22230859375,-7.711719989776611,-0.21648117899894714,-2.2261104583740234
1761232014556377600,3.232377685546875,-8.110113143920898,-0.22773489356040955,-2.6208229064941406
1761232014566447600,3.242447509765625,-8.568696975708008,-0.28064578771591187,-2.848297595977783
1761232014576516600,3.2525166015625,-8.964618682861328,-0.5955243706703186,-2.9408347606658936
1761232014586586400,3.26258642578125,-9.093856811523438,-1.2120834589004517,-2.801736831665039
1761232014596655600,3.272655517578125,-8.720078468322754,-1.760932445526123,-2.2500898838043213
1761232014606724600,3.282724609375,-7.695052623748779,-1.8653045892715454,-1.232534646987915
1761232014616794600,3.292794677734375,-6.033688068389893,-1.0814540386199951,0.14068947732448578
1761232014626863400,3.30286328125,-3.773346185684204,0.27692586183547974,1.5430868864059448
1761232014636933600,3.31293359375,-1.2607543468475342,1.3201282024383545,2.431321144104004
1761232014647002400,3.32300244140625,1.2414098978042603,1.2383922338485718,2.589693784713745
1761232014657072600,3.33307275390625,3.632607936859131,0.4517000913619995,2.1779940128326416
1761232014667141400,3.343141357421875,5.746471405029297,-0.3048400580883026,1.4879748821258545
1761232014677210600,3.353210693359375,7.5109429359436035,-0.5453599691390991,0.7540173530578613
1761232014687280600,3.36328076171875,8.933656692504883,-0.4281547963619232,0.22817963361740112
1761232014697349600,3.373349609375,10.097681999206543,-0.3154495656490326,0.045580536127090454
1761232014707419600,3.383419677734375,11.11767864227295,-0.3552513122558594,0.08908193558454514
1761232014717488600,3.393488525390625,11.841140747070312,-0.8005422353744507,0.22976236045360565
1761232014727558700,3.40355859375,11.966995239257812,-1.6975747346878052,0.48167183995246887
1761232014737627400,3.41362744140625,10.996063232421875,-2.642116069793701,0.766082227230072
1761232014747697700,3.42369775390625,8.846283912658691,-2.9212539196014404,0.9508765935897827
1761232014757766400,3.433766357421875,5.958788871765137,-2.0647947788238525,0.9627841114997864
1761232014767835600,3.443835693359375,2.782318115234375,-0.42341384291648865,1.1451829671859741
1761232014777905400,3.453905517578125,-0.6122586131095886,1.168283462524414,1.0158311128616333
1761232014787974700,3.463974609375,-3.507763147354126,2.135652542114258,0.5370333790779114
1761232014798044400,3.47404443359375,-5.49478006362915,2.3927478790283203,-0.06511029601097107
1761232014808113700,3.48411376953125,-6.773388862609863,1.9843695163726807,-0.7595998644828796
1761232014818183700,3.49418359375,-7.4499735832214355,1.27534019947052,-1.5104708671569824
1761232014828252700,3.504252685546875,-7.759788990020752,0.5705947875976562,-2.2940802574157715
1761232014838321400,3.5143212890625,-7.918938636779785,0.0983436107635498,-2.9764373302459717
1761232014848391400,3.524391357421875,-8.049988746643066,-0.1824752688407898,-3.4429354667663574
1761232014858460700,3.534460693359375,-8.182138442993164,-0.3969572186470032,-3.649498701095581
1761232014868530400,3.544530517578125,-8.206022262573242,-0.6443853974342346,-3.6021463871002197
1761232014878599700,3.554599609375,-7.926139831542969,-0.7737358808517456,-3.1387276649475098
1761232014888669400,3.56466943359375,-7.281855583190918,-0.7801205515861511,-2.167792320251465
1761232014898738700,3.57473876953125,-6.253591060638428,-0.5001847743988037,-0.8525233864784241
1761232014908807400,3.584807373046875,-4.687484264373779,0.2859918177127838,0.5734648704528809
1761232014918877700,3.594877685546875,-2.7608094215393066,1.1060595512390137,1.7977879047393799
1761232014928946400,3.604946533203125,-0.6677615642547607,1.4729541540145874,2.4574496746063232
1761232014939016700,3.6150166015625,1.474557876586914,1.2611830234527588,2.558765411376953
1761232014949085400,3.62508544921875,3.494380474090576,0.7556679844856262,2.283207893371582
1761232014959155500,3.635155517578125,5.304364204406738,0.371902197599411,1.782761812210083
1761232014969224400,3.645224365234375,6.843926429748535,0.26049870252609253,1.2128344774246216
1761232014979293700,3.655293701171875,8.14146614074707,0.2559388279914856,0.7962803840637207
1761232014989363500,3.665363525390625,9.276345252990723,0.22430181503295898,0.6452434659004211
1761232014999432400,3.675432373046875,10.261434555053711,0.024434769526124,0.6374824643135071
1761232015009502500,3.68550244140625,10.965859413146973,-0.5348895192146301,0.7065486311912537
1761232015019571500,3.695571533203125,11.091239929199219,-1.5741862058639526,0.9280839562416077
1761232015029641700,3.705641845703125,10.20665454864502,-2.730180501937866,1.3206562995910645
1761232015039710500,3.71571044921875,8.244126319885254,-3.1664273738861084,1.6943694353103638
1761232015049780500,3.725780517578125,5.5326313972473145,-2.3587570190429688,1.8960201740264893
1761232015059849500,3.735849365234375,2.3840291500091553,-0.773320734500885,1.9985969066619873
1761232015069918500,3.74591845703125,-0.7722876667976379,0.7135053277015686,2.0439040660858154
1761232015079988500,3.755988525390625,-3.5484275817871094,1.6189223527908325,1.8385928869247437
1761232015090057700,3.7660576171875,-5.574543476104736,1.764370083808899,1.2986899614334106
1761232015100127500,3.77612744140625,-6.882358551025391,1.3808015584945679,0.5780835747718811
1761232015110196500,3.786196533203125,-7.68757963180542,0.8706153035163879,-0.21449631452560425
1761232015120266500,3.7962666015625,-8.198298454284668,0.4756200611591339,-0.968264102935791
1761232015130335500,3.80633544921875,-8.622452735900879,0.3633326590061188,-1.5301969051361084
1761232015140405500,3.816405517578125,-9.114665985107422,0.51861572265625,-1.8191142082214355
1761232015150474500,3.826474609375,-9.68478775024414,0.8804940581321716,-1.8486891984939575
1761232015160543500,3.83654345703125,-10.232368469238281,1.4413666725158691,-1.7054781913757324
1761232015170613500,3.846613525390625,-10.574801445007324,1.9543908834457397,-1.4715362787246704
1761232015180682500,3.8566826171875,-10.397202491760254,2.1961264610290527,-1.1943204402923584
1761232015190752500,3.86675244140625,-9.441271781921387,2.086179733276367,-0.7315045595169067
1761232015200821500,3.876821533203125,-7.573370456695557,1.875568151473999,0.13386645913124084
1761232015210891500,3.8868916015625,-4.928500175476074,1.5525965690612793,1.2167993783950806
1761232015220960500,3.89696044921875,-1.860231876373291,1.0514684915542603,2.012561559677124
1761232015231029500,3.907029541015625,1.0752499103546143,0.3876095116138458,2.051926374435425
1761232015241099500,3.917099609375,3.6400136947631836,-0.16351595520973206,1.2713321447372437
1761232015251168500,3.92716845703125,5.6161041259765625,-0.602440595626831,0.12827780842781067
1761232015261238500,3.937238525390625,7.037895202636719,-0.7756728529930115,-0.923424482345581
1761232015271307500,3.9473076171875,8.112519264221191,-0.5945578813552856,-1.69062340259552
1761232015281377500,3.95737744140625,8.957428932189941,-0.37348198890686035,-2.1280298233032227
1761232015291446500,3.967446533203125,9.69888687133789,-0.29587987065315247,-2.288372755050659
1761232015301515500,3.977515625,10.431007385253906,-0.4873126745223999,-2.2585153579711914
1761232015311585500,3.98758544921875,11.106760025024414,-1.1264276504516602,-2.06320858001709
1761232015321654500,3.997654541015625,11.449363708496094,-2.2971081733703613,-1.6450140476226807
1761232015331724300,4.007724365234375,11.080840110778809,-3.544044256210327,-0.9101946949958801
1761232015341793500,4.01779345703125,9.77016830444336,-4.337843894958496,0.08471568673849106
1761232015351863600,4.027863525390625,7.569930076599121,-4.124418258666992,1.0676732063293457
1761232015361932500,4.0379326171875,4.570643901824951,-2.8376407623291016,1.7163282632827759
1761232015372001500,4.04800146484375,1.1108713150024414,-1.185922622680664,1.9248976707458496
1761232015382071600,4.058071533203125,-2.1965935230255127,0.19023385643959045,1.7829959392547607
1761232015392140500,4.068140625,-4.926133155822754,1.038643479347229,1.2799359560012817
1761232015402210600,4.07821044921875,-6.861468315124512,1.369252324104309,0.5983465313911438
1761232015412279600,4.088279541015625,-8.123772621154785,1.3046168088912964,-0.07298659533262253
1761232015422349600,4.098349609375,-8.911901473999023,1.1523098945617676,-0.6591571569442749
1761232015432418600,4.10841845703125,-9.453252792358398,1.0607279539108276,-1.0792484283447266
1761232015442488300,4.11848828125,-9.874622344970703,1.0828708410263062,-1.2867848873138428
1761232015452557600,4.1285576171875,-10.228449821472168,1.1415032148361206,-1.316909670829773
1761232015462626600,4.13862646484375,-10.411321640014648,1.0944864749908447,-1.2415941953659058
1761232015472696600,4.148696533203125,-10.211416244506836,0.8084776401519775,-1.0933547019958496
1761232015482765300,4.158765380859375,-9.392289161682129,0.4602389633655548,-0.7850450277328491
1761232015492835600,4.168835693359375,-7.8638596534729,0.1481868028640747,-0.20168305933475494
1761232015502904300,4.178904296875,-5.672074794769287,0.015422898344695568,0.6099802851676941
1761232015512974600,4.188974609375,-3.086994171142578,-0.33483046293258667,1.483367681503296
1761232015523043300,4.199043212890625,-0.46307551860809326,-0.749555230140686,2.015685796737671
1761232015533112600,4.209112548828125,1.938334345817566,-0.9479921460151672,1.9576326608657837
1761232015543182600,4.2191826171875,3.9345734119415283,-0.9855381846427917,1.4292829036712646
1761232015553251600,4.22925146484375,5.440811634063721,-0.8339276313781738,0.673194408416748
1761232015563321600,4.239321533203125,6.581119537353516,-0.5465853214263916,-0.09594810009002686
1761232015573390600,4.249390625,7.459695339202881,-0.2113599181175232,-0.7009578347206116
1761232015583460600,4.259460693359375,8.197428703308105,0.10088906437158585,-1.0644506216049194
1761232015593529300,4.269529296875,8.903047561645508,0.2503592371940613,-1.2164406776428223
1761232015603598600,4.2795986328125,9.610483169555664,0.09119196236133575,-1.2305399179458618
1761232015613668400,4.28966845703125,10.266922950744629,-0.4093765914440155,-1.1522893905639648
1761232015623737600,4.299737548828125,10.664294242858887,-1.3990395069122314,-0.9056060314178467
1761232015633807400,4.309807373046875,10.436844825744629,-2.624319076538086,-0.3693135976791382
1761232015643876600,4.319876708984375,9.260062217712402,-3.451307535171509,0.40059107542037964
1761232015653946400,4.3299462890625,7.120419025421143,-3.246501922607422,1.118084192276001
1761232015664015600,4.340015625,4.230556488037109,-2.0411856174468994,1.5078400373458862
1761232015674085600,4.350085693359375,0.9572607278823853,-0.7623609900474548,1.6631683111190796
1761232015684154600,4.360154541015625,-2.098738193511963,0.4853754937648773,1.5312873125076294
1761232015694223400,4.370223388671875,-4.604467868804932,1.2535829544067383,0.9953926801681519
1761232015704293400,4.38029345703125,-6.402451038360596,1.4796568155288696,0.33879217505455017
1761232015714362600,4.390362548828125,-7.589409351348877,1.3925493955612183,-0.3401562571525574
1761232015724432400,4.400432373046875,-8.375907897949219,1.1987903118133545,-0.9831884503364563
1761232015734501600,4.410501708984375,-8.969955444335938,1.0924725532531738,-1.4924941062927246
1761232015744571400,4.4205712890625,-9.472602844238281,1.1899131536483765,-1.7835309505462646
1761232015754640600,4.430640625,-9.916625022888184,1.4041202068328857,-1.8354634046554565
1761232015764709400,4.44070947265625,-10.210028648376465,1.5156364440917969,-1.7021048069000244
1761232015774779600,4.450779541015625,-10.149221420288086,1.367773175239563,-1.41596257686615
1761232015784848400,4.460848388671875,-9.533306121826172,0.9293910264968872,-0.9238508343696594
1761232015794918700,4.470918701171875,-8.22833251953125,0.6397845149040222,-0.17760035395622253
1761232015804987400,4.4809873046875,-6.3120317459106445,0.5356405377388,0.756583571434021
1761232015815057400,4.491057373046875,-4.104734897613525,0.3305550217628479,1.7021335363388062
1761232015825126400,4.50112646484375,-1.8187118768692017,0.18909908831119537,2.274681806564331
1761232015835195600,4.511195556640625,0.38272154331207275,0.02905934862792492,2.248359203338623
1761232015845265700,4.521265625,2.3727238178253174,-0.20399866998195648,1.6820218563079834
1761232015855334400,4.53133447265625,4.02811336517334,-0.4937708377838135,0.8435482978820801
1761232015865404700,4.54140478515625,5.301745414733887,-0.6484400629997253,-0.003989681601524353
1761232015875473400,4.551473388671875,6.215558052062988,-0.538104772567749,-0.6908058524131775
1761232015885543700,4.561543701171875,6.8622918128967285,-0.25496330857276917,-1.1406737565994263
1761232015895612400,4.5716123046875,7.347963809967041,0.12308944016695023,-1.4144331216812134
1761232015905682700,4.5816826171875,7.761804580688477,0.4474920332431793,-1.6115845441818237
1761232015915751400,4.59175146484375,8.15198040008545,0.5564011931419373,-1.764967441558838
1761232015925820700,4.601820556640625,8.565950393676758,0.4519011378288269,-1.845959186553955
1761232015935890400,4.611890380859375,8.959589004516602,-0.07187392562627792,-1.815545916557312
1761232015945959700,4.621959716796875,9.093660354614258,-1.0142632722854614,-1.609184980392456
1761232015956029400,4.632029541015625,8.670750617980957,-1.9790940284729004,-1.1718478202819824
1761232015966098400,4.642098388671875,7.499422550201416,-2.487610101699829,-0.555595338344574
1761232015976168400,4.65216845703125,5.653130531311035,-2.14672589302063,0.0479627326130867
1761232015986238000,4.662238037109375,3.282160758972168,-1.0620390176773071,0.47363734245300293
1761232015996307000,4.672306884765625,0.6485977172851562,0.12721388041973114,0.6984542012214661
1761232016006377000,4.682376953125,-1.8426424264907837,1.0574983358383179,0.6862500309944153
1761232016016446200,4.6924462890625,-3.889652729034424,1.5760307312011719,0.4961056411266327
1761232016026516000,4.702515869140625,-5.40247106552124,1.6261330842971802,0.22854848206043243
1761232016036585200,4.712585205078125,-6.420444011688232,1.381964921951294,-0.14512602984905243
1761232016046655000,4.722655029296875,-7.07259464263916,1.0806900262832642,-0.614995002746582
1761232016056724000,4.732723876953125,-7.524259567260742,0.8398845791816711,-1.06919527053833
1761232016066793000,4.74279296875,-7.88301420211792,0.7114133834838867,-1.3817368745803833
1761232016076863000,4.752863037109375,-8.199201583862305,0.6890218257904053,-1.5282176733016968
1761232016086932000,4.762931884765625,-8.42487621307373,0.711529016494751,-1.4855914115905762
1761232016097002000,4.773001953125,-8.47251033782959,0.6629660129547119,-1.2547366619110107
1761232016107071000,4.783071044921875,-8.233592987060547,0.4694298207759857,-0.8020735383033752
1761232016117141000,4.79314111328125,-7.601341247558594,0.397909015417099,-0.13806067407131195
1761232016127210000,4.8032099609375,-6.526540756225586,0.6986203789710999,0.6651217937469482
1761232016137280000,4.813280029296875,-5.11615514755249,1.0159515142440796,1.5633879899978638
1761232016147349000,4.823348876953125,-3.4188578128814697,1.1940487623214722,2.2757785320281982
1761232016157418000,4.83341796875,-1.518264651298523,1.1190378665924072,2.51709246635437
1761232016167488000,4.843488037109375,0.41492927074432373,0.739180326461792,2.263158082962036
1761232016177557000,4.853556884765625,2.2333781719207764,0.2400786429643631,1.6364495754241943
1761232016187627000,4.863626953125,3.7869529724121094,-0.1378297656774521,0.8261724710464478
1761232016197696000,4.873696044921875,4.9797234535217285,-0.29422202706336975,0.03688637912273407
1761232016207766000,4.88376611328125,5.821818828582764,-0.2096823900938034,-0.5958487391471863
1761232016217835000,4.8938349609375,6.376010417938232,0.03219149261713028,-1.0155749320983887
1761232016227904000,4.903904052734375,6.793521404266357,0.4954952299594879,-1.2844550609588623
1761232016237974000,4.91397412109375,7.168005466461182,1.0557345151901245,-1.4647737741470337
1761232016248043000,4.92404296875,7.545938968658447,1.4205572605133057,-1.5938411951065063
1761232016258113000,4.934113037109375,7.989186763763428,1.4185484647750854,-1.696479082107544
1761232016268182000,4.94418212890625,8.459277153015137,0.8568076491355896,-1.7860548496246338
1761232016278252000,4.954251953125,8.779131889343262,-0.28484371304512024,-1.745619773864746
1761232016288321000,4.964321044921875,8.635136604309082,-1.6536939144134521,-1.4568755626678467
1761232016298390000,4.97439013671875,7.884324550628662,-2.6108601093292236,-0.9407986402511597
1761232016308460000,4.9844599609375,6.515488624572754,-2.729485034942627,-0.2986854910850525
1761232016318529000,4.994529052734375,4.586848735809326,-2.0965654850006104,0.28174805641174316
1761232016328599000,5.00459912109375,2.2711410522460938,-1.0636428594589233,0.6458951234817505
1761232016338668000,5.01466796875,-0.16237773001194,-0.02905668504536152,0.7214210629463196
1761232016348738000,5.024738037109375,-2.3995182514190674,0.769224226474762,0.5311403274536133
1761232016358807000,5.03480712890625,-4.208084583282471,1.2558841705322266,0.20336084067821503
1761232016368877000,5.044876953125,-5.547727584838867,1.4126769304275513,-0.19283470511436462
1761232016378946000,5.054946044921875,-6.477125644683838,1.346100926399231,-0.6200608611106873
1761232016389015000,5.06501513671875,-7.107553005218506,1.199870228767395,-1.0131253004074097
1761232016399085000,5.0750849609375,-7.559764385223389,0.99651038646698,-1.2678133249282837
1761232016409154000,5.085154052734375,-7.87636137008667,0.8246824741363525,-1.3658485412597656
1761232016419224000,5.09522412109375,-8.028236389160156,0.6520044207572937,-1.338050127029419
1761232016429292800,5.105292724609375,-7.967127799987793,0.3762311637401581,-1.1820296049118042
1761232016439363000,5.115363037109375,-7.625728130340576,0.1479915976524353,-0.8217825293540955
1761232016449431800,5.125431884765625,-7.030706882476807,0.02713761106133461,-0.20598725974559784
1761232016459501000,5.1355009765625,-6.2357072830200195,0.09422902762889862,0.590792715549469
1761232016469571000,5.145571044921875,-5.255810737609863,0.3512323200702667,1.3962202072143555
1761232016479640000,5.15564013671875,-4.064155101776123,0.7078852653503418,2.0336639881134033
1761232016489710000,5.1657099609375,-2.6835203170776367,1.0218602418899536,2.3651280403137207
1761232016499779000,5.175779052734375,-1.1801811456680298,1.2074295282363892,2.3509652614593506
1761232016509849000,5.18584912109375,0.3674381971359253,1.1699810028076172,2.0205605030059814
1761232016519918000,5.19591796875,1.870157241821289,0.9776163101196289,1.448536992073059
1761232016529988000,5.205988037109375,3.2310709953308105,0.7300816178321838,0.7324095368385315
1761232016540056800,5.216056884765625,4.407289028167725,0.5548645257949829,0.0023433153983205557
1761232016550126000,5.2261259765625,5.387660026550293,0.4959631562232971,-0.6297949552536011
1761232016560195800,5.23619580078125,6.215506553649902,0.5463283061981201,-1.0848588943481445
1761232016570265000,5.24626513671875,6.9759840965271,0.6865746378898621,-1.3833558559417725
1761232016580334800,5.2563349609375,7.689894676208496,0.682394802570343,-1.5608304738998413
1761232016590404000,5.266404052734375,8.381913185119629,0.4454006254673004,-1.6712406873703003
1761232016600474000,5.27647412109375,9.019644737243652,-0.1080513671040535,-1.7351975440979004
1761232016610543000,5.286543212890625,9.378450393676758,-1.0542775392532349,-1.6741487979888916
1761232016620611800,5.29661181640625,9.10506534576416,-2.200010299682617,-1.401614785194397
1761232016630682000,5.30668212890625,7.989153861999512,-2.9569602012634277,-0.9824172258377075
1761232016640751000,5.316751220703125,6.068068027496338,-2.727034568786621,-0.5762574672698975
1761232016650820900,5.32682080078125,3.5434815883636475,-1.5342992544174194,-0.26111388206481934
1761232016660890000,5.33689013671875,0.7500630617141724,-0.1960158497095108,0.17215046286582947
1761232016670959900,5.3469599609375,-1.952595591545105,1.3197113275527954,0.46651896834373474
1761232016681029000,5.357029052734375,-4.199333190917969,2.303396224975586,0.49995362758636475
1761232016691097900,5.367097900390625,-5.8234944343566895,2.759242534637451,0.44630956649780273
1761232016701168000,5.377168212890625,-6.917858123779297,2.7031917572021484,0.3029415011405945
1761232016711236900,5.38723681640625,-7.625374794006348,2.397674083709717,0.06148866191506386
1761232016721307100,5.39730712890625,-8.13460922241211,2.0260307788848877,-0.23283325135707855
1761232016731375900,5.4073759765625,-8.554277420043945,1.5959924459457397,-0.5124369263648987
1761232016741446100,5.417446044921875,-8.804948806762695,1.150938868522644,-0.7867568731307983
1761232016751515000,5.427514892578125,-8.695901870727539,0.9265523552894592,-0.9880087971687317
1761232016761584000,5.437584228515625,-8.0888032913208,1.053883671760559,-0.8964692950248718
1761232016771654100,5.447654052734375,-6.929089546203613,1.439427137374878,-0.426263689994812
1761232016781723100,5.45772314453125,-5.314046859741211,1.816375970840454,0.19567576050758362
1761232016791793200,5.467793212890625,-3.4567394256591797,1.7410093545913696,0.6545868515968323
1761232016801862000,5.47786181640625,-1.503322720527649,1.2059403657913208,0.7394378781318665
1761232016811932200,5.48793212890625,0.3914915919303894,0.43649208545684814,0.444640576839447
1761232016822001000,5.4980009765625,2.1307249069213867,-0.31030139327049255,-0.0683223307132721
1761232016832071200,5.5080712890625,3.608095169067383,-0.81510329246521,-0.636447012424469
1761232016842140000,5.518139892578125,4.723402500152588,-0.9761031270027161,-1.1485124826431274
1761232016852209200,5.528209228515625,5.439640045166016,-0.9637979865074158,-1.5173653364181519
1761232016862279000,5.53827880859375,5.818665504455566,-0.7784739136695862,-1.7250598669052124
1761232016872348200,5.54834814453125,5.953912258148193,-0.45397523045539856,-1.779400110244751
1761232016882418000,5.55841796875,5.856119155883789,-0.1403222233057022,-1.747951626777649
1761232016892487200,5.568487060546875,5.492328643798828,0.18003953993320465,-1.6941545009613037
1761232016902557000,5.578556884765625,4.838622093200684,0.5759029984474182,-1.6513090133666992
1761232016912626000,5.5886259765625,3.8984196186065674,1.0155266523361206,-1.6128438711166382
1761232016922695000,5.59869482421875,2.7325644493103027,1.4668632745742798,-1.4682047367095947
1761232016932765000,5.608764892578125,1.4293113946914673,2.004018545150757,-1.2102961540222168
1761232016942834000,5.618833984375,0.06654973328113556,2.6512269973754883,-0.8721151947975159
1761232016952904000,5.628904052734375,-1.2918856143951416,3.2381374835968018,-0.5401758551597595
1761232016962973200,5.63897314453125,-2.530944347381592,3.695280075073242,-0.2404453605413437
1761232016973043000,5.64904296875,-3.5849661827087402,4.011447429656982,0.04047951474785805
1761232016983112200,5.6591123046875,-4.414137363433838,4.115312576293945,0.3217165172100067
1761232016993180200,5.66918017578125,-4.990488052368164,3.7347095012664795,0.5813624858856201
1761232017003250400,5.67925048828125,-5.319084644317627,2.848440647125244,0.7616235613822937
1761232017013319400,5.6893193359375,-5.335503101348877,1.7497605085372925,0.9652893543243408
1761232017023389400,5.699389404296875,-5.108049392700195,0.730364203453064,1.3185960054397583
1761232017033458400,5.70945849609375,-4.7769246101379395,-0.19919778406620026,1.8432807922363281
1761232017043528200,5.719528076171875,-4.383552074432373,-0.9869648218154907,2.421490430831909
1761232017053597400,5.729597412109375,-3.967078924179077,-1.3559069633483887,2.92202091217041
1761232017063667200,5.739667236328125,-3.5987143516540527,-1.369780421257019,3.2281575202941895
1761232017073736400,5.749736328125,-3.1961286067962646,-1.06239652633667,3.246478319168091
1761232017083805400,5.759805419921875,-2.6035068035125732,-0.5671995282173157,2.915123224258423
1761232017093875500,5.76987548828125,-1.7025642395019531,0.03652951493859291,2.276052713394165
1761232017103944200,5.779944091796875,-0.5094349980354309,0.6008333563804626,1.423216462135315
1761232017114014500,5.790014404296875,0.8494083285331726,0.6010618805885315,0.5050967335700989
1761232017124083200,5.800083251953125,2.2357828617095947,0.016889767721295357,-0.33793675899505615
1761232017134152400,5.81015234375,3.5171711444854736,-0.6611846089363098,-1.1022248268127441
1761232017144222500,5.820222412109375,4.520241737365723,-1.1833617687225342,-1.7567068338394165
1761232017154291500,5.83029150390625,5.148935317993164,-1.5036625862121582,-2.2660348415374756
1761232017164361500,5.840361572265625,5.399165153503418,-1.4990533590316772,-2.6250791549682617
1761232017174430500,5.850430419921875,5.302181243896484,-1.2406636476516724,-2.8381829261779785
1761232017184500500,5.86050048828125,4.939578056335449,-0.8014304041862488,-2.920707941055298
1761232017194569500,5.870569580078125,4.3342509269714355,-0.2674410343170166,-2.896078586578369
1761232017204639500,5.880639404296875,3.5314042568206787,0.3329784870147705,-2.763314723968506
1761232017214708200,5.890708251953125,2.660568952560425,0.9666537046432495,-2.5593957901000977
1761232017224777500,5.900777587890625,1.8476496934890747,1.5528985261917114,-2.3173561096191406
1761232017234847200,5.91084716796875,1.1355375051498413,1.8936725854873657,-2.049717664718628
1761232017244916500,5.92091650390625,0.5429003238677979,1.96415376663208,-1.8564006090164185
1761232017254986200,5.930986328125,0.09243858605623245,1.9046342372894287,-1.7682178020477295
1761232017265055500,5.941055419921875,-0.21167096495628357,1.785129427909851,-1.755410075187683
1761232017275125500,5.95112548828125,-0.3790093660354614,1.681818962097168,-1.7744554281234741
1761232017285192400,5.9611923828125,-0.43714776635169983,1.6844533681869507,-1.779447317123413
1761232017295261400,5.971261474609375,-0.4454784095287323,1.6608396768569946,-1.7626051902770996
1761232017305331500,5.98133154296875,-0.46064749360084534,1.643391728401184,-1.758569359779358
1761232017315400400,5.991400390625,-0.537666380405426,1.8016372919082642,-1.8380823135375977
1761232017325470500,6.001470458984375,-0.7086562514305115,2.117903709411621,-1.9805870056152344
1761232017335539500,6.01153955078125,-0.9744775295257568,2.041083574295044,-2.0085461139678955
1761232017345609500,6.021609375,-1.2265979051589966,2.0282514095306396,-2.1620075702667236
1761232017355678200,6.03167822265625,-1.5056506395339966,1.6132780313491821,-2.097710132598877
1761232017365747500,6.04174755859375,-1.5692980289459229,0.45018741488456726,-2.0658774375915527
1761232017375817200,6.051817138671875,-2.0196845531463623,-0.4032643735408783,-1.4283350706100464
1761232017385886500,6.061886474609375,-2.7251570224761963,-2.358405590057373,-0.943315863609314
1761232017395956200,6.071956298828125,-2.890719413757324,-3.356067180633545,-0.8772639036178589
1761232017406025500,6.082025390625,-2.4960038661956787,-2.8701443672180176,-1.2682039737701416
1761232017416095500,6.092095458984375,-1.95356285572052,-2.2122316360473633,-1.890051007270813
1761232017426164500,6.10216455078125,-1.6341489553451538,-2.1603879928588867,-2.34854793548584
1761232017436233200,6.112233154296875,-1.3758835792541504,-2.5476019382476807,-2.5661537647247314
1761232017446303500,6.122303466796875,-1.0825499296188354,-2.967829704284668,-2.6679086685180664
1761232017456372500,6.13237255859375,-0.7929553985595703,-3.2017509937286377,-2.725104808807373
1761232017466442200,6.142442138671875,-0.5807132124900818,-3.4232378005981445,-2.768984079360962
1761232017476511500,6.152511474609375,-0.4683517515659332,-3.5265469551086426,-2.7673540115356445
1761232017486581200,6.162581298828125,-0.42373448610305786,-3.5140955448150635,-2.7358243465423584
1761232017496650500,6.172650390625,-0.3861117362976074,-3.3387961387634277,-2.6402206420898438
1761232017506719200,6.18271923828125,-0.4137742817401886,-2.9747016429901123,-2.506512403488159
1761232017516789500,6.19278955078125,-0.38213831186294556,-2.649484395980835,-2.1987791061401367
1761232017526858200,6.202858154296875,-0.22350366413593292,-2.314393997192383,-1.7254586219787598
1761232017536928500,6.212928466796875,-0.144241601228714,-1.8994439840316772,-1.2266032695770264
1761232017546997200,6.222997314453125,-0.13511094450950623,-1.4985274076461792,-0.7133122682571411
1761232017557067500,6.233067626953125,-0.15571077167987823,-1.0737148523330688,-0.24645717442035675
1761232017567136300,6.24313623046875,-0.18041078746318817,-0.6734058260917664,0.1388188749551773
1761232017577205500,6.25320556640625,-0.16438041627407074,-0.24515409767627716,0.43753740191459656
1761232017587275500,6.263275634765625,-0.14280535280704498,0.12958915531635284,0.6495034098625183
1761232017597344500,6.273344482421875,-0.12481969594955444,0.3296479284763336,0.7943714261054993
1761232017607414500,6.28341455078125,-0.09453555941581726,0.4451415240764618,0.8522645235061646
1761232017617483300,6.293483154296875,-0.08609014004468918,0.5359997749328613,0.8077471256256104
1761232017627553500,6.303553466796875,-0.11661370098590851,0.5412158370018005,0.6545000672340393
1761232017637622300,6.313622314453125,-0.1619766503572464,0.43678370118141174,0.4193115234375
1761232017647691500,6.32369140625,-0.19184879958629608,0.2728882431983948,0.20396538078784943
1761232017657761300,6.33376123046875,-0.18889588117599487,0.129520446062088,0.05759352073073387
1761232017667830500,6.34383056640625,-0.14329271018505096,0.03743605688214302,-0.018007496371865273
1761232017677900300,6.353900390625,-0.09083084017038345,-0.001788046327419579,-0.04477572813630104
1761232017687969500,6.363969482421875,-0.05174069106578827,-0.03169561177492142,-0.03731701150536537
1761232017698039300,6.374039306640625,-0.02972806803882122,-0.09269797801971436,-0.03429991751909256
1761232017708108500,6.384108642578125,-0.013302222825586796,-0.14509886503219604,-0.04442765191197395
1761232017718178300,6.39417822265625,-0.002225337317213416,-0.136173278093338,-0.049435459077358246
1761232017728247300,6.404247314453125,-0.005392368417233229,-0.06751006841659546,-0.05426030978560448
1761232017738316300,6.41431640625,-0.006683202926069498,-0.008441687561571598,-0.05151485651731491
1761232017748386300,6.42438623046875,0.00805899128317833,0.041073136031627655,-0.03586132824420929
1761232017758455300,6.434455322265625,0.01955585740506649,0.1031346395611763,-0.00038296254933811724
1761232017768525300,6.444525390625,0.03756655007600784,0.1858377754688263,0.058034006506204605
1761232017778594600,6.454594482421875,0.04111574590206146,0.42062392830848694,0.20651775598526
1761232017788664300,6.464664306640625,-0.027571706101298332,0.5611376166343689,0.33735594153404236
1761232017798733600,6.474733642578125,-0.07896672189235687,0.4711563289165497,0.34239357709884644
1761232017808802300,6.48480224609375,-0.0909448191523552,0.34067314863204956,0.22813303768634796
1761232017818872600,6.49487255859375,-0.10577383637428284,0.2412959784269333,0.06385780870914459
1761232017828941300,6.50494140625,-0.10810703039169312,0.12945599853992462,-0.08863745629787445
1761232017839011300,6.51501123046875,-0.09449081867933273,0.07100946456193924,-0.1624229997396469
