time,seconds_elapsed,z,y,x
1761387545648136700,0.07213671875,0.0999838188290596,0.05948559194803238,-0.2784963548183441
1761387545658205700,0.082205810546875,0.10950634628534317,0.04713256657123566,-0.24147453904151917
1761387545668275700,0.092275634765625,0.11819783598184586,0.03176799416542053,-0.15575270354747772
1761387545678345700,0.102345703125,0.12726156413555145,0.014130576513707638,-0.0459553599357605
1761387545688415700,0.112415771484375,0.13474345207214355,-0.015086431987583637,0.06853632628917694
1761387545698485500,0.122485595703125,0.15543927252292633,-0.04088771715760231,0.17213445901870728
1761387545708554800,0.1325546875,0.17592111229896545,-0.07738367468118668,0.22870852053165436
1761387545718624500,0.14262451171875,0.19121712446212769,-0.11874927580356598,0.2530515193939209
1761387545728694800,0.15269482421875,0.19345258176326752,-0.13241980969905853,0.24455632269382477
1761387545738764800,0.162764892578125,0.18749432265758514,-0.13388773798942566,0.21854013204574585
1761387545748834600,0.17283447265625,0.18446151912212372,-0.13801456987857819,0.17594367265701294
1761387545758904600,0.182904541015625,0.1764618456363678,-0.1206781342625618,0.1327306479215622
1761387545768973600,0.1929736328125,0.1664678007364273,-0.1048877164721489,0.08022244274616241
1761387545779043600,0.203043701171875,0.15317806601524353,-0.09425825625658035,0.025681324303150177
1761387545789113900,0.21311376953125,0.13108395040035248,-0.09298393875360489,-0.014014954678714275
1761387545799183600,0.22318359375,0.10213149338960648,-0.08048133552074432,-0.032032210379838943
1761387545809253600,0.233253662109375,0.07508523017168045,-0.06117687746882439,-0.03021114133298397
1761387545819322600,0.243322509765625,0.05065266042947769,-0.03768111765384674,-0.011069059371948242
1761387545829392600,0.253392578125,0.02481786534190178,-0.03100031241774559,0.005925103556364775
1761387545839462700,0.263462646484375,-0.0025934497825801373,-0.030146971344947815,0.018885165452957153
1761387545849532700,0.27353271484375,-0.015001917257905006,-0.039221957325935364,0.023600026965141296
1761387545859602700,0.283602783203125,-0.026177166029810905,-0.05777828395366669,0.026056120172142982
1761387545869672700,0.293672607421875,-0.03388595208525658,-0.056257084012031555,0.031195487827062607
1761387545879741700,0.30374169921875,-0.040925703942775726,-0.04375790059566498,0.03887170925736427
1761387545889811700,0.313811767578125,-0.03761645779013634,-0.023267272859811783,0.04798957332968712
1761387545899881700,0.3238818359375,-0.03167980536818504,0.009772413410246372,0.05049979314208031
1761387545909951700,0.33395166015625,-0.02497556433081627,0.03845252841711044,0.04776792228221893
1761387545920025300,0.344025390625,-0.03301277011632919,0.050575289875268936,0.03575955703854561
1761387545930094600,0.354094482421875,-0.03346844017505646,0.043339215219020844,0.024325277656316757
1761387545940164400,0.364164306640625,-0.03382967412471771,0.02766657993197441,0.022129496559500694
1761387545950234400,0.374234375,-0.035114649683237076,0.011462310329079628,0.02072601020336151
1761387545960304400,0.384304443359375,-0.03733889386057854,0.0021654064767062664,0.019087161868810654
1761387545970374400,0.39437451171875,-0.04529428854584694,-0.0016431799158453941,0.007678980007767677
1761387545980443400,0.404443359375,-0.046925175935029984,-0.006383413448929787,-0.0006015251856297255
1761387545990513400,0.414513427734375,-0.05095294117927551,-0.006361043080687523,-0.006170461419969797
1761387546000583400,0.42458349609375,-0.044383455067873,-0.001005692407488823,-0.010410480201244354
1761387546010653400,0.4346533203125,-0.03139202296733856,-0.003885900601744652,-0.01826041378080845
1761387546020723500,0.444723388671875,-0.013851712457835674,-0.0024845702573657036,-0.013780789449810982
1761387546030792400,0.45479248046875,0.005418388172984123,0.002767450176179409,-0.004596611484885216
1761387546040862200,0.4648623046875,0.026510119438171387,0.006798604503273964,0.014361429959535599
1761387546050932500,0.474932373046875,0.03321835771203041,0.011242355220019817,0.031250130385160446
1761387546061002500,0.48500244140625,0.03006093204021454,-0.003060702234506607,0.04321930557489395
1761387546071072300,0.495072265625,0.022044017910957336,-0.028871526941657066,0.0422978512942791
1761387546081142500,0.505142578125,0.018667656928300858,-0.053114987909793854,0.035358499735593796
1761387546091211300,0.515211181640625,0.015249489806592464,-0.07682697474956512,0.028440937399864197
1761387546101281300,0.52528125,0.012349719181656837,-0.09805859625339508,0.01875506527721882
1761387546111351600,0.5353515625,0.011048498563468456,-0.09071732312440872,0.011554142460227013
1761387546121421300,0.54542138671875,0.006110933143645525,-0.0776023417711258,0.0017989054322242737
1761387546131491300,0.5554912109375,-0.000189306796528399,-0.045067571103572845,-0.012915858998894691
1761387546141560300,0.565560302734375,-0.0007883458165451884,-0.011618752032518387,-0.03896304592490196
1761387546151630300,0.57563037109375,-0.000504186493344605,0.002208380028605461,-0.05814286693930626
1761387546161700600,0.58570068359375,-0.0021974602714180946,0.00471218628808856,-0.08095258474349976
1761387546171770400,0.595770263671875,-0.007364259101450443,-0.004842969588935375,-0.0773589164018631
1761387546181840400,0.60584033203125,-0.013325183652341366,-0.023471586406230927,-0.06262704730033875
1761387546191910400,0.615910400390625,-0.02348833717405796,-0.04928826913237572,-0.02915005013346672
1761387546201979400,0.6259794921875,-0.03000650182366371,-0.07541864365339279,0.00719196954742074
1761387546212049400,0.63604931640625,-0.018881412222981453,-0.09160187095403671,0.042537178844213486
1761387546222119400,0.646119384765625,0.002242178423330188,-0.09429372847080231,0.08098013699054718
1761387546232189400,0.656189453125,0.024126438423991203,-0.10313569009304047,0.11375805735588074
1761387546242259500,0.666259521484375,0.03509823977947235,-0.10265305638313293,0.14208665490150452
1761387546252328400,0.676328369140625,0.03591715916991234,-0.0953163132071495,0.1611676812171936
1761387546262398500,0.6863984375,0.032593462616205215,-0.08832282572984695,0.1693638116121292
1761387546272468200,0.69646826171875,0.02606924995779991,-0.06773152947425842,0.1539076268672943
1761387546282538500,0.70653857421875,0.02351626753807068,-0.03945311903953552,0.13156984746456146
1761387546292608500,0.7166083984375,0.02208348736166954,0.006072021555155516,0.10276083648204803
1761387546302677500,0.726677490234375,0.031813811510801315,0.06176508590579033,0.08277133852243423
1761387546312747500,0.73674755859375,0.04858506843447685,0.10249386727809906,0.07272988557815552
1761387546322817300,0.7468173828125,0.06424565613269806,0.10846740007400513,0.0703294649720192
1761387546332887300,0.75688720703125,0.07452545315027237,0.08081606030464172,0.08491160720586777
1761387546342957600,0.76695751953125,0.07909244298934937,0.03612739220261574,0.11196978390216827
1761387546353026300,0.7770263671875,0.09922647476196289,0.000004275701940059662,0.11776268482208252
1761387546363096600,0.7870966796875,0.12890034914016724,-0.17380990087985992,0.11332623660564423
1761387546373166300,0.797166259765625,0.1268145591020584,-0.254893034696579,0.1602788269519806
1761387546383236400,0.807236328125,0.10203243792057037,-0.24764692783355713,0.22932982444763184
1761387546393306400,0.817306396484375,0.07079143077135086,-0.26071640849113464,0.2658281922340393
1761387546403376400,0.82737646484375,0.05986209586262703,-0.25238651037216187,0.26957035064697266
1761387546413445400,0.8374453125,0.054486505687236786,-0.20907631516456604,0.2462674230337143
1761387546423515400,0.847515380859375,0.03554310277104378,-0.1379658430814743,0.20154759287834167
1761387546433585400,0.85758544921875,0.01773987151682377,-0.033383507281541824,0.15417689085006714
1761387546443655400,0.867655517578125,-0.0008963567670434713,0.07439754903316498,0.10001987218856812
1761387546453725400,0.877725341796875,-0.01596505381166935,0.14705444872379303,0.04272303357720375
1761387546463794400,0.88779443359375,-0.030307995155453682,0.18880140781402588,-0.007448310498148203
1761387546473864200,0.8978642578125,-0.0410008542239666,0.20328687131404877,-0.03125297650694847
1761387546483934500,0.9079345703125,-0.04998210445046425,0.20391148328781128,-0.03241193667054176
1761387546494004500,0.91800439453125,-0.06173117458820343,0.17265209555625916,-0.022987276315689087
1761387546504074200,0.92807421875,-0.07933419197797775,0.13709770143032074,0.007425631862133741
1761387546514143500,0.9381435546875,-0.08260082453489304,0.11520279198884964,0.035329435020685196
1761387546524213200,0.948213134765625,-0.07178538292646408,0.09667864441871643,0.06861702352762222
1761387546534283500,0.958283447265625,-0.050256915390491486,0.08337323367595673,0.09033270180225372
1761387546544353500,0.968353515625,-0.024814853444695473,0.06612717360258102,0.10250833630561829
1761387546554423300,0.97842333984375,-0.016996610909700394,0.028714289888739586,0.11179611086845398
1761387546564492500,0.988492431640625,-0.01379608828574419,0.004419045522809029,0.11233904957771301
1761387546574562300,0.998562255859375,-0.010447163134813309,-0.02457132562994957,0.11600621789693832
1761387546584632300,1.00863232421875,-0.0039039356634020805,-0.06633473187685013,0.11933229118585587
1761387546594702600,1.01870263671875,-0.00011718703899532557,-0.12111275643110275,0.12576062977313995
1761387546604772400,1.0287724609375,-0.00540386326611042,-0.16765345633029938,0.12461677938699722
1761387546614842400,1.03884228515625,-0.007713090628385544,-0.18591955304145813,0.11517348140478134
1761387546624911400,1.048911376953125,0.0000567467650398612,-0.15966475009918213,0.10670258104801178
1761387546634981400,1.0589814453125,0.0030410850886255503,-0.10095483064651489,0.09726406633853912
1761387546645051400,1.069051513671875,-0.01369333267211914,-0.04600977525115013,0.08922097831964493
1761387546655121400,1.079121337890625,-0.0311420988291502,-0.021979540586471558,0.07502312958240509
1761387546665191400,1.08919140625,-0.04980010539293289,-0.011121445335447788,0.061504755169153214
1761387546675260400,1.099260498046875,-0.04333874210715294,0.03289048746228218,0.05931563302874565
1761387546685330400,1.109330322265625,-0.022355781868100166,0.09597140550613403,0.06762131303548813
1761387546695400400,1.119400390625,0.01444617286324501,0.15645791590213776,0.08435581624507904
1761387546705470200,1.12947021484375,0.060889095067977905,0.1879565715789795,0.09592898190021515
1761387546715540500,1.13954052734375,0.11046703159809113,0.21229201555252075,0.10703302919864655
1761387546725609200,1.149609130859375,0.1548931747674942,0.2137880176305771,0.12032804638147354
1761387546735679500,1.159679443359375,0.18570727109909058,0.20210684835910797,0.1349187046289444
1761387546745749500,1.16974951171875,0.19543220102787018,0.17984269559383392,0.1624557375907898
1761387546755819300,1.1798193359375,0.17228028178215027,0.18239614367485046,0.20663276314735413
1761387546765889300,1.18988916015625,0.09708195924758911,0.056216463446617126,0.23297090828418732
1761387546775959600,1.19995947265625,0.010494603775441647,-0.0874142050743103,0.24711282551288605
1761387546786028300,1.2100283203125,-0.050996333360672,-0.07973963022232056,0.27596521377563477
1761387546796098600,1.2200986328125,-0.07695415616035461,-0.043140336871147156,0.2866077125072479
1761387546806168300,1.230168212890625,-0.09365274012088776,-0.004737846553325653,0.2728598415851593
1761387546816238300,1.24023828125,-0.12006437033414841,0.03387586027383804,0.23978817462921143
1761387546826308600,1.25030859375,-0.15421532094478607,0.05438268184661865,0.1980307549238205
1761387546836377300,1.26037744140625,-0.1960378736257553,0.06975951045751572,0.16902200877666473
1761387546846447400,1.270447265625,-0.2513062059879303,0.07169676572084427,0.17807401716709137
1761387546856517400,1.280517333984375,-0.2989293932914734,0.11847838759422302,0.21310098469257355
1761387546866587400,1.29058740234375,-0.31104764342308044,0.12891556322574615,0.23547758162021637
1761387546876657400,1.300657470703125,-0.2837856709957123,0.10446986556053162,0.23821452260017395
1761387546886726400,1.310726318359375,-0.23775309324264526,0.11461369693279266,0.22242659330368042
1761387546896796400,1.32079638671875,-0.17450594902038574,0.12673267722129822,0.1948615461587906
1761387546906866400,1.330866455078125,-0.10319937020540237,0.09268191456794739,0.16550755500793457
1761387546916936400,1.3409365234375,-0.045745398849248886,0.05959107726812363,0.15116643905639648
1761387546927007000,1.351007080078125,-0.017267677932977676,0.024083320051431656,0.13879120349884033
1761387546937076000,1.361075927734375,-0.00522246677428484,-0.03047366440296173,0.11254442483186722
1761387546947146000,1.37114599609375,0.0005296678282320499,-0.07847142964601517,0.07776718586683273
1761387546957216000,1.381216064453125,0.014523247256875038,-0.11916186660528183,0.028790857642889023
1761387546967285800,1.39128564453125,0.03812284767627716,-0.14544199407100677,-0.018695946782827377
1761387546977356000,1.40135595703125,0.07884097844362259,-0.15313133597373962,-0.057008180767297745
1761387546987425800,1.41142578125,0.12350168824195862,-0.17235516011714935,-0.08819133788347244
1761387546997495000,1.4214951171875,0.1683298796415329,-0.20085018873214722,-0.11006095260381699
1761387547007565000,1.43156494140625,0.20770959556102753,-0.2374279648065567,-0.11865856498479843
1761387547017634800,1.441634765625,0.2355279177427292,-0.26708200573921204,-0.12295983731746674
1761387547027704800,1.451704833984375,0.24227388203144073,-0.2848593294620514,-0.11935058981180191
1761387547037774800,1.46177490234375,0.24936428666114807,-0.28454214334487915,-0.10996800661087036
1761387547047843800,1.47184375,0.2497652918100357,-0.262687623500824,-0.09022724628448486
1761387547057914000,1.4819140625,0.25344446301460266,-0.21857503056526184,-0.07646536082029343
1761387547067984000,1.49198388671875,0.25320497155189514,-0.18845665454864502,-0.0511699877679348
1761387547078054000,1.502053955078125,0.2518116235733032,-0.16034725308418274,-0.013002095744013786
1761387547088124000,1.5121240234375,0.23339422047138214,-0.13912799954414368,0.027441762387752533
1761387547098193000,1.52219287109375,0.18566584587097168,-0.11179731041193008,0.06042128801345825
1761387547108263000,1.532262939453125,0.11956470459699631,-0.07982267439365387,0.06904593855142593
1761387547118333000,1.5423330078125,0.04777786508202553,-0.0494820736348629,0.03886965662240982
1761387547128403000,1.55240283203125,-0.013337096199393272,-0.01311009842902422,-0.022772278636693954
1761387547138472700,1.56247265625,-0.05181045085191727,0.006420458666980267,-0.09349625557661057
1761387547148542000,1.5725419921875,-0.06840332597494125,0.02183648571372032,-0.15775556862354279
1761387547158612000,1.582612060546875,-0.07037113606929779,0.03588812053203583,-0.1966201364994049
1761387547168682000,1.592681884765625,-0.05903712287545204,0.050564490258693695,-0.20819918811321259
1761387547178752000,1.602751953125,-0.044181741774082184,0.050447575747966766,-0.18583981692790985
1761387547188821800,1.61282177734375,-0.03598615154623985,0.044833652675151825,-0.13214102387428284
1761387547198891000,1.62289111328125,-0.03671133145689964,0.042132940143346786,-0.06630236655473709
1761387547208961000,1.6329609375,-0.036191269755363464,0.030869513750076294,0.008151502348482609
1761387547219030800,1.64303076171875,-0.030915282666683197,-0.001036222092807293,0.07224899530410767
1761387547229101000,1.65310107421875,-0.02740313671529293,-0.03143320232629776,0.11768273264169693
1761387547239170800,1.6631708984375,-0.035724181681871414,-0.0385718047618866,0.14008976519107819
1761387547249240800,1.67324072265625,-0.05555002763867378,-0.028825849294662476,0.15182296931743622
1761387547259310000,1.68331005859375,-0.07951635122299194,-0.0033828066661953926,0.13827840983867645
1761387547269379800,1.6933798828125,-0.090814009308815,0.025892525911331177,0.10322428494691849
1761387547279449900,1.703449951171875,-0.07623080909252167,0.05209749564528465,0.05196402594447136
1761387547289519900,1.713519775390625,-0.053748808801174164,0.0680699497461319,-0.003817811608314514
1761387547299590000,1.72358984375,-0.02676992304623127,0.07007744163274765,-0.04659457132220268
1761387547309659000,1.733658935546875,-0.002198181115090847,0.05432884022593498,-0.06579548865556717
1761387547319729000,1.74372900390625,0.013860946521162987,0.02609134465456009,-0.05841587111353874
1761387547329799000,1.753798828125,0.011518530547618866,-0.010838855057954788,-0.039590153843164444
1761387547339869000,1.763868896484375,-0.0007562451064586639,-0.053411081433296204,-0.022153373807668686
1761387547349939000,1.77393896484375,-0.017231039702892303,-0.09150951355695724,-0.008632069453597069
1761387547360008000,1.784008056640625,-0.022044969722628593,-0.11356661468744278,-0.012722419574856758
1761387547370078000,1.794077880859375,-0.008944868110120296,-0.11940179020166397,-0.021455815061926842
1761387547380148000,1.80414794921875,0.009110565297305584,-0.10700025409460068,-0.034762829542160034
1761387547390218000,1.814218017578125,0.02210378460586071,-0.10255181044340134,-0.04488416388630867
1761387547400287700,1.824287841796875,0.016652826219797134,-0.10468234121799469,-0.06180029362440109
1761387547410357000,1.83435693359375,0.005372286308556795,-0.10918936878442764,-0.07940806448459625
1761387547420426800,1.8444267578125,-0.0008174326503649354,-0.10152558982372284,-0.09412842243909836
1761387547430497000,1.8544970703125,0.007988792844116688,-0.07517857849597931,-0.0979079008102417
1761387547440567000,1.864567138671875,0.030805958434939384,-0.048310212790966034,-0.10145203769207001
1761387547450636800,1.87463671875,0.040938034653663635,-0.03908225893974304,-0.0928947776556015
1761387547460706000,1.8847060546875,0.04461825639009476,-0.04973437637090683,-0.09057942777872086
1761387547470775800,1.89477587890625,0.036127667874097824,-0.06334806233644485,-0.09488886594772339
1761387547480845800,1.904845703125,0.026616718620061874,-0.07732167094945908,-0.10320805013179779
1761387547490916000,1.914916015625,0.01070816908031702,-0.09987004846334457,-0.11734593659639359
1761387547500985900,1.92498583984375,0.002311754273250699,-0.12166164070367813,-0.126119464635849
1761387547511056000,1.935055908203125,0.0003415684914216399,-0.13691651821136475,-0.12364765256643295
1761387547521124900,1.945124755859375,0.00023877050261944532,-0.12563270330429077,-0.11607548594474792
1761387547531195000,1.95519482421875,0.004221787676215172,-0.110000379383564,-0.1111627072095871
1761387547541265000,1.965264892578125,0.01938689313828945,-0.08252081274986267,-0.1077842190861702
1761387547551335000,1.9753349609375,0.03683917596936226,-0.06175016984343529,-0.10297548770904541
1761387547561405000,1.985405029296875,0.04047678783535957,-0.07406967878341675,-0.10261543095111847
1761387547571474000,1.995473876953125,0.03938447684049606,-0.09080186486244202,-0.09563768655061722
1761387547581544000,2.0055439453125,0.031266093254089355,-0.10955318063497543,-0.07121356576681137
1761387547591614000,2.015614013671875,0.023694254457950592,-0.1165824830532074,-0.03652177378535271
1761387547601684000,2.02568408203125,0.007331790868192911,-0.1336757093667984,-0.010988716967403889
1761387547611754000,2.03575390625,-0.013147976249456406,-0.17020322382450104,-0.01088524330407381
1761387547621822700,2.04582275390625,-0.03965574875473976,-0.1992441862821579,-0.0344475619494915
1761387547631893000,2.05589306640625,-0.06379171460866928,-0.2030477225780487,-0.06631334871053696
1761387547641963000,2.065962890625,-0.07894616574048996,-0.1648995280265808,-0.0983453169465065
1761387547652032800,2.07603271484375,-0.07812761515378952,-0.07972101122140884,-0.12627846002578735
1761387547662103000,2.08610302734375,-0.056189827620983124,0.01845429092645645,-0.1455586850643158
1761387547672173000,2.096173095703125,-0.023814763873815536,0.08764304965734482,-0.1530512273311615
1761387547682241800,2.10624169921875,0.00904864352196455,0.1059485524892807,-0.1528877168893814
1761387547692312000,2.11631201171875,0.030681956559419632,0.05706373602151871,-0.14315491914749146
1761387547702381800,2.1263818359375,0.03536166250705719,-0.025146182626485825,-0.1372208595275879
1761387547712451800,2.136451904296875,0.03412753343582153,-0.0957506000995636,-0.1368017941713333
1761387547722522000,2.146522216796875,0.014866218902170658,-0.16206809878349304,-0.1329580545425415
1761387547732590800,2.1565908203125,-0.0032925880514085293,-0.21997961401939392,-0.12324999272823334
1761387547742661000,2.1666611328125,-0.021807948127388954,-0.23724380135536194,-0.10987453162670135
1761387547752731000,2.17673095703125,-0.047377679497003555,-0.23006996512413025,-0.10553359240293503
1761387547762801000,2.18680078125,-0.05918107554316521,-0.20931142568588257,-0.11457715928554535
1761387547772871000,2.196870849609375,-0.06279589980840683,-0.137648344039917,-0.10477939248085022
1761387547782940000,2.20693994140625,-0.05453157797455788,-0.02549704536795616,-0.08386106044054031
1761387547793010000,2.217010009765625,-0.040317121893167496,0.05976897478103638,-0.06749317049980164
1761387547803080000,2.227079833984375,-0.020561523735523224,0.1262739598751068,-0.049578092992305756
1761387547813150000,2.23714990234375,0.0030922177247703075,0.1467021107673645,-0.02507675811648369
1761387547823220000,2.247219970703125,0.024136783555150032,0.12372168898582458,0.005077948793768883
1761387547833289000,2.2572890625,0.033929843455553055,0.07756196707487106,0.035993438214063644
1761387547843359000,2.26735888671875,0.03605611249804497,0.0308394655585289,0.06443093717098236
1761387547853428700,2.2774287109375,0.026795238256454468,-0.018844198435544968,0.0767563134431839
1761387547863499000,2.2874990234375,0.01540569681674242,-0.071578249335289,0.06769225001335144
1761387547873569000,2.297569091796875,-0.0035858377814292908,-0.1214161217212677,0.04559173807501793
1761387547883638000,2.307637939453125,-0.020136849954724312,-0.12684310972690582,0.018432023003697395
1761387547893708000,2.3177080078125,-0.033596333116292953,-0.08253081887960434,-0.011491412296891212
1761387547903777800,2.32777783203125,-0.033128682523965836,-0.014204222708940506,-0.03655921295285225
1761387547913847800,2.337847900390625,-0.01735207810997963,0.031468022614717484,-0.05889219790697098
1761387547923913700,2.347913818359375,0.0048965029418468475,0.05501222983002663,-0.0687677338719368
1761387547933983000,2.35798291015625,0.026273444294929504,0.0710248276591301,-0.06041668727993965
1761387547944053000,2.368052978515625,0.038899488747119904,0.07171458750963211,-0.049305178225040436
1761387547954122800,2.378122802734375,0.03981640562415123,0.05002386495471001,-0.046065881848335266
1761387547964192800,2.38819287109375,0.030166706070303917,-0.000315740704536438,-0.0543816052377224
1761387547974262800,2.3982626953125,0.009289611130952835,-0.050166383385658264,-0.08605854958295822
1761387547984331800,2.408331787109375,-0.011150682345032692,-0.09082034230232239,-0.12352895736694336
1761387547994402000,2.418402099609375,-0.027118002995848656,-0.1000387966632843,-0.14878320693969727
1761387548004471800,2.428471923828125,-0.04212624579668045,-0.09869523346424103,-0.1576283574104309
1761387548014541800,2.438541748046875,-0.04961295425891876,-0.06893966346979141,-0.14493288099765778
1761387548024611600,2.448611572265625,-0.04785340651869774,-0.009090976789593697,-0.1103069856762886
1761387548034681900,2.458681884765625,-0.02728034183382988,0.0689283087849617,-0.06681830435991287
1761387548044750800,2.468750732421875,0.006498660892248154,0.1269274353981018,-0.017789505422115326
1761387548054820900,2.47882080078125,0.04701070487499237,0.16285143792629242,0.023720404133200645
1761387548064891000,2.488890869140625,0.07487881928682327,0.16838762164115906,0.04278064891695976
1761387548074960600,2.498960693359375,0.09347042441368103,0.14870329201221466,0.04124610126018524
1761387548085031000,2.509031005859375,0.09799326956272125,0.13506203889846802,0.028687698766589165
1761387548095100000,2.519099853515625,0.08560749888420105,0.06340336799621582,-0.013323789462447166
1761387548105169700,2.529169677734375,0.04999970644712448,-0.05148939788341522,-0.0715591311454773
1761387548115240000,2.539239990234375,0.0013307248009368777,-0.13962456583976746,-0.10978709906339645
1761387548125309700,2.549309814453125,-0.048554010689258575,-0.13792333006858826,-0.12471891194581985
1761387548135379700,2.559379638671875,-0.09678488969802856,-0.06641709804534912,-0.11951988190412521
1761387548145449000,2.569448974609375,-0.13104724884033203,0.026013771072030067,-0.10365782678127289
1761387548155518700,2.579518798828125,-0.14335709810256958,0.1500271111726761,-0.06931217759847641
1761387548165588700,2.589588623046875,-0.12393705546855927,0.26290467381477356,-0.04061795026063919
1761387548175658800,2.59965869140625,-0.07752016186714172,0.35002219676971436,-0.018414800986647606
1761387548185728800,2.609728759765625,-0.024541359394788742,0.4114986062049866,-0.020221224054694176
1761387548195798000,2.619798095703125,0.01573832519352436,0.4132417142391205,-0.03995352238416672
1761387548205867800,2.62986767578125,0.035501375794410706,0.34425491094589233,-0.07632005214691162
1761387548215937800,2.639937744140625,0.023889705538749695,0.22449013590812683,-0.11176816374063492
1761387548226008000,2.650008056640625,-0.0022223214618861675,0.08513091504573822,-0.1388874053955078
1761387548236077800,2.660077880859375,-0.046281591057777405,-0.07373807579278946,-0.15067820250988007
1761387548246147800,2.67014794921875,-0.09698551893234253,-0.21940338611602783,-0.1363067328929901
1761387548256216800,2.680216796875,-0.1457393765449524,-0.33171871304512024,-0.09156090021133423
1761387548266286800,2.690286865234375,-0.18856753408908844,-0.3959043622016907,-0.034019842743873596
1761387548276356900,2.70035693359375,-0.22303740680217743,-0.38474342226982117,0.033202074468135834
1761387548286427000,2.710427001953125,-0.2356853038072586,-0.3241320252418518,0.08799155056476593
1761387548296497000,2.720496826171875,-0.21876145899295807,-0.2175057977437973,0.1240585669875145
1761387548306566000,2.73056591796875,-0.17336681485176086,-0.08876246213912964,0.12866583466529846
1761387548316636000,2.740635986328125,-0.11097363382577896,0.022982295602560043,0.11126163601875305
1761387548326706000,2.750705810546875,-0.04503989219665527,0.09349294751882553,0.07551322877407074
1761387548336775700,2.760775634765625,-0.0034757647663354874,0.11284831911325455,0.0368671640753746
1761387548346846000,2.770845947265625,0.01721353456377983,0.08768464624881744,-0.010256939567625523
1761387548356914700,2.780914794921875,0.01201983168721199,0.024624012410640717,-0.05450904369354248
1761387548366985000,2.79098486328125,-0.007331761531531811,-0.06898423284292221,-0.0894923284649849
1761387548377055000,2.801054931640625,-0.03794710710644722,-0.16511018574237823,-0.11063791066408157
1761387548387124700,2.811124755859375,-0.0705316811800003,-0.2479027956724167,-0.09556441754102707
1761387548397194800,2.82119482421875,-0.10040242224931717,-0.29851624369621277,-0.06684325635433197
1761387548407263700,2.831263671875,-0.12371600419282913,-0.2996768653392792,-0.029104134067893028
1761387548417333800,2.841333740234375,-0.12734262645244598,-0.2782684862613678,0.0021526673808693886
1761387548427404000,2.851404052734375,-0.11355277895927429,-0.22174343466758728,0.019531125202775
1761387548437473800,2.861473876953125,-0.08790261298418045,-0.14168748259544373,0.026456596329808235
1761387548447543800,2.871543701171875,-0.05840544030070305,-0.039339013397693634,0.019578717648983
1761387548457612800,2.88161279296875,-0.03649372234940529,0.046510569751262665,-0.002377651631832123
1761387548467682800,2.891682861328125,-0.03636296093463898,0.07308625429868698,-0.039448585361242294
1761387548477752800,2.9017529296875,-0.04471671208739281,0.047792837023735046,-0.08672112226486206
1761387548487822800,2.91182275390625,-0.06334365904331207,-0.004288472235202789,-0.12608610093593597
1761387548497892900,2.921892822265625,-0.08421087265014648,-0.05912378430366516,-0.1506434977054596
1761387548507961900,2.9319619140625,-0.10602349787950516,-0.10964234918355942,-0.1530592441558838
1761387548518032000,2.942031982421875,-0.11735091358423233,-0.14538684487342834,-0.14079029858112335
1761387548528102000,2.952101806640625,-0.12475850433111191,-0.15232251584529877,-0.10222585499286652
1761387548538171600,2.962171630859375,-0.12054437398910522,-0.12765952944755554,-0.05056220665574074
1761387548548242000,2.972241943359375,-0.10774708539247513,-0.08531686663627625,-0.002064714441075921
1761387548558310700,2.982310546875,-0.07960622757673264,-0.027127331122756004,0.03197471797466278
1761387548568381000,2.992380859375,-0.03865266591310501,0.02989254519343376,0.047749683260917664
1761387548578451000,3.002450927734375,0.004649396985769272,0.061732012778520584,0.0428091436624527
1761387548588520700,3.012520751953125,0.03340994194149971,0.06316612660884857,0.023189369589090347
1761387548598591000,3.022591064453125,0.037759073078632355,0.043806351721286774,-0.0030238910112529993
1761387548608659700,3.03265966796875,0.028683556243777275,0.011399142444133759,-0.03615361452102661
1761387548618729700,3.042729736328125,-0.00035415636375546455,-0.01284412108361721,-0.0741238221526146
1761387548628800000,3.052800048828125,-0.030622048303484917,-0.03767570108175278,-0.09790265560150146
1761387548638869800,3.062869873046875,-0.04896228387951851,-0.04876875877380371,-0.09711036086082458
1761387548648939800,3.072939697265625,-0.05800078809261322,-0.056369684636592865,-0.08139079809188843
1761387548659010000,3.083010009765625,-0.04865323752164841,-0.0638328343629837,-0.06128423288464546
1761387548669078800,3.093078857421875,-0.02808777615427971,-0.05268031731247902,-0.03377271443605423
1761387548679148800,3.103148681640625,-0.004157942719757557,-0.03975972533226013,-0.006519789807498455
1761387548689218800,3.11321875,0.013753680512309074,-0.02500874176621437,0.018538424745202065
1761387548699288800,3.123288818359375,0.020688746124505997,-0.03660300374031067,0.03238257020711899
1761387548709358800,3.13335888671875,0.01981363072991371,-0.08439609408378601,0.0240777675062418
1761387548719427800,3.143427734375,0.0018250005086883903,-0.12951749563217163,0.011327648535370827
1761387548729497900,3.153497802734375,-0.013023187406361103,-0.18928709626197815,-0.02500692382454872
1761387548739567900,3.16356787109375,-0.031731318682432175,-0.24951499700546265,-0.0602690689265728
1761387548749638000,3.173637939453125,-0.05077798292040825,-0.2542748749256134,-0.07384853065013885
1761387548759708000,3.1837080078125,-0.06786303222179413,-0.18614359200000763,-0.05861789733171463
1761387548769777000,3.19377685546875,-0.07558167725801468,-0.08284197002649307,-0.036207664757966995
1761387548779847000,3.203846923828125,-0.06635808199644089,0.01116788387298584,-0.014515150338411331
1761387548789916700,3.213916748046875,-0.045278631150722504,0.06786205619573593,0.007492146920412779
1761387548799987000,3.223987060546875,-0.028538454324007034,0.08816076070070267,0.025127319619059563
1761387548810057000,3.234056884765625,-0.022035015746951103,0.09324739873409271,0.042653582990169525
1761387548820125700,3.244125732421875,-0.02472601644694805,0.07307223975658417,0.04950716346502304
1761387548830196000,3.254196044921875,-0.03604871407151222,0.019005542621016502,0.03496337682008743
1761387548840265700,3.264265625,-0.06188109144568443,-0.05738476663827896,-0.004516748711466789
1761387548850335700,3.274335693359375,-0.09012338519096375,-0.11207224428653717,-0.0606660395860672
1761387548860406000,3.284406005859375,-0.12018784135580063,-0.1591097116470337,-0.11641485244035721
1761387548870474800,3.294474853515625,-0.1505875587463379,-0.17556831240653992,-0.14630217850208282
1761387548880545000,3.304544921875,-0.16946907341480255,-0.14910846948623657,-0.1469137966632843
1761387548890614800,3.31461474609375,-0.1629437953233719,-0.08449777960777283,-0.12864238023757935
1761387548900684800,3.324684814453125,-0.1390000283718109,0.009952149353921413,-0.09101208299398422
1761387548910754800,3.3347548828125,-0.07775796949863434,0.1318490207195282,-0.05610843002796173
1761387548920823800,3.34482373046875,0.00022825435735285282,0.24064432084560394,-0.032464899122714996
1761387548930894000,3.35489404296875,0.08028607070446014,0.29353708028793335,-0.013388143852353096
1761387548940964000,3.364964111328125,0.13369052112102509,0.29979753494262695,-0.0011227242648601532
1761387548951034000,3.3750341796875,0.14137479662895203,0.2546856999397278,-0.0032452638261020184
1761387548961104000,3.385103759765625,0.11375535279512405,0.172837033867836,-0.018320051953196526
1761387548971173000,3.395173095703125,0.07140682637691498,0.0647348016500473,-0.04909181222319603
1761387548981243100,3.4052431640625,0.02148040384054184,-0.045185163617134094,-0.07965511083602905
1761387548991313000,3.41531298828125,-0.02954416535794735,-0.14134791493415833,-0.09746633470058441
1761387549001383200,3.425383056640625,-0.07290090620517731,-0.1951764076948166,-0.09145651757717133
1761387549011453000,3.435452880859375,-0.10702930390834808,-0.21904818713665009,-0.06919142603874207
1761387549021522000,3.44552197265625,-0.1308523416519165,-0.20852543413639069,-0.03435870632529259
1761387549031592200,3.45559228515625,-0.1328505128622055,-0.16501204669475555,0.0023138211108744144
1761387549041662000,3.465661865234375,-0.11719635128974915,-0.0932927206158638,0.04128075763583183
1761387549051732000,3.47573193359375,-0.07694985717535019,-0.013302815146744251,0.0780147984623909
1761387549061802200,3.48580224609375,-0.02188904583454132,0.061682481318712234,0.10792878270149231
1761387549071871000,3.49587109375,0.027733100578188896,0.0993473008275032,0.11084654182195663
1761387549081941200,3.505941162109375,0.06759212911128998,0.09625396877527237,0.10477939248085022
1761387549092011000,3.516010986328125,0.08470533788204193,0.06057745963335037,0.09228384494781494
1761387549102081000,3.5260810546875,0.08092411607503891,0.009998150169849396,0.06691422313451767
1761387549112151000,3.536151123046875,0.06078342720866203,-0.0410623699426651,0.03677044063806534
1761387549122220000,3.546219970703125,0.03472675755620003,-0.09564314782619476,0.005697725340723991
1761387549132290000,3.5562900390625,0.007346798665821552,-0.13223952054977417,-0.012624556198716164
1761387549142360000,3.566360107421875,-0.012827510945498943,-0.15885943174362183,-0.01663908362388611
1761387549152430000,3.57643017578125,-0.02450254186987877,-0.16745266318321228,-0.023618163540959358
1761387549162500000,3.5865,-0.02507358230650425,-0.14951930940151215,-0.016763310879468918
1761387549172569000,3.596569091796875,-0.027389200404286385,-0.10947789251804352,-0.009477168321609497
1761387549182639000,3.60663916015625,-0.028470516204833984,-0.05766148865222931,0.004282020963728428
1761387549192708900,3.616708984375,-0.025277385488152504,-0.004911992698907852,0.006108416244387627
1761387549202779100,3.626779052734375,-0.016630958765745163,0.0361623540520668,0.0029196906834840775
1761387549212849200,3.63684912109375,-0.003419548738747835,0.03696316480636597,-0.00837663933634758
1761387549222918100,3.646918212890625,0.006061082240194082,0.01084985677152872,-0.026043301448225975
1761387549232988200,3.65698828125,0.00840998999774456,-0.033995114266872406,-0.04483563452959061
1761387549243058000,3.667057861328125,-0.001196982222609222,-0.07305071502923965,-0.06204657256603241
1761387549253128000,3.6771279296875,-0.019093956798315048,-0.11022018641233444,-0.07431948184967041
1761387549263198200,3.6871982421875,-0.04014166072010994,-0.15976737439632416,-0.07483015209436417
1761387549273267000,3.697266845703125,-0.05584818497300148,-0.18296058475971222,-0.05885518714785576
1761387549283337200,3.707337158203125,-0.06961814314126968,-0.17849770188331604,-0.027943793684244156
1761387549293407000,3.717406982421875,-0.07145839184522629,-0.16446763277053833,0.007296750787645578
1761387549303477000,3.72747705078125,-0.07283271104097366,-0.14058999717235565,0.04176853224635124
1761387549313547000,3.737547119140625,-0.08117347210645676,-0.12482620775699615,0.054656367748975754
1761387549323616000,3.747615966796875,-0.08994179219007492,-0.1277056187391281,0.05300378426909447
1761387549333686000,3.75768603515625,-0.09574082493782043,-0.14892515540122986,0.04460391029715538
1761387549343756000,3.767756103515625,-0.10239112377166748,-0.18024243414402008,0.025108814239501953
1761387549353826000,3.777825927734375,-0.11176492273807526,-0.2156720608472824,-0.0027558382134884596
1761387549363896000,3.78789599609375,-0.12533268332481384,-0.2598949372768402,-0.026353418827056885
1761387549373965000,3.797965087890625,-0.14327573776245117,-0.257030189037323,-0.03434130549430847
1761387549384035000,3.80803515625,-0.16023629903793335,-0.17086642980575562,-0.023193296045064926
1761387549394104800,3.818104736328125,-0.14995995163917542,-0.01524462178349495,-0.010614919476211071
1761387549404175000,3.828175048828125,-0.12045484781265259,0.1268552541732788,-0.007426552474498749
1761387549414245000,3.8382451171875,-0.06768644601106644,0.21663707494735718,-0.024593021720647812
1761387549424314000,3.848314208984375,-0.008898641914129257,0.2585136294364929,-0.0399504080414772
1761387549434384100,3.858384033203125,0.03103918582201004,0.260416179895401,-0.05828706920146942
1761387549444454000,3.868453857421875,0.045787837356328964,0.22256602346897125,-0.05993655323982239
1761387549454524200,3.878524169921875,0.036944009363651276,0.15166309475898743,-0.06618300080299377
1761387549464594200,3.88859423828125,0.00735385250300169,0.05290668457746506,-0.06280021369457245
1761387549474663000,3.898662841796875,-0.019012240692973137,-0.053480736911296844,-0.06004012003540993
1761387549484733200,3.908733154296875,-0.03512803837656975,-0.12976126372814178,-0.04332173615694046
1761387549494803000,3.918802978515625,-0.039601881057024,-0.15858465433120728,-0.015735913068056107
1761387549504873000,3.928873046875,-0.031338538974523544,-0.15761740505695343,0.012907920405268669
1761387549514943200,3.938943115234375,-0.01332039013504982,-0.14540521800518036,0.03571203723549843
1761387549525012000,3.949011962890625,0.012219785712659359,-0.10721301287412643,0.06037501245737076
1761387549535082000,3.95908203125,0.03369365260004997,-0.0351065993309021,0.07914123684167862
1761387549545152000,3.969152099609375,0.04198871925473213,0.029854441061615944,0.08338624984025955
1761387549555222000,3.979221923828125,0.04046299681067467,0.04824836179614067,0.06880863755941391
1761387549565292000,3.9892919921875,0.0276216808706522,0.027014393359422684,0.036090187728405
1761387549575361000,3.999361083984375,0.009037078358232975,0.002119696233421564,0.00463133305311203
1761387549585431000,4.00943115234375,-0.015443267300724983,-0.022786550223827362,-0.02603072114288807
1761387549595501000,4.0195009765625,-0.03773632273077965,-0.06033605337142944,-0.05276113748550415
1761387549605571000,4.029571044921875,-0.0632716491818428,-0.102848581969738,-0.06828561425209045
1761387549615641000,4.03964111328125,-0.08189380168914795,-0.13021336495876312,-0.07678988575935364
1761387549625710000,4.0497099609375,-0.08992423117160797,-0.1346040815114975,-0.06878327578306198
1761387549635780000,4.059780029296875,-0.08620752394199371,-0.11290863901376724,-0.0563628263771534
1761387549645849900,4.069849853515625,-0.07504724711179733,-0.08015236258506775,-0.043675463646650314
1761387549655920000,4.079920166015625,-0.061775654554367065,-0.05887264385819435,-0.03166753798723221
1761387549665990100,4.089990234375,-0.05116862803697586,-0.04070065915584564,-0.027567319571971893
1761387549676059000,4.100058837890625,-0.046745385974645615,-0.03492479771375656,-0.031482964754104614
1761387549686129200,4.110129150390625,-0.04669612646102905,-0.027367766946554184,-0.03857596218585968
1761387549696199000,4.120198974609375,-0.05018327012658119,-0.030880741775035858,-0.051782578229904175
1761387549706269000,4.13026904296875,-0.05143006518483162,-0.03720792755484581,-0.07107677310705185
1761387549716339200,4.140339111328125,-0.046115193516016006,-0.05003344640135765,-0.09208325296640396
1761387549726408000,4.150407958984375,-0.03830748423933983,-0.07193460315465927,-0.1056089848279953
1761387549736478200,4.160478271484375,-0.04995162412524223,-0.08481897413730621,-0.1097230389714241
1761387549746548000,4.1705478515625,-0.059934698045253754,-0.08517034351825714,-0.10693664848804474
1761387549756618000,4.180617919921875,-0.06978759169578552,-0.06073051691055298,-0.08897176384925842
1761387549766688000,4.19068798828125,-0.06698845326900482,0.0005831504240632057,-0.07872502505779266
1761387549776757000,4.200757080078125,-0.05110456049442291,0.10073398798704147,-0.07025936990976334
1761387549786827000,4.210826904296875,-0.013492739759385586,0.17195303738117218,-0.06975523382425308
1761387549796897000,4.22089697265625,0.037029292434453964,0.20502443611621857,-0.06638553738594055
1761387549806967000,4.230967041015625,0.08339235186576843,0.2243988811969757,-0.06014454364776611
1761387549817036000,4.2410361328125,0.09815718233585358,0.2181319296360016,-0.04519915580749512
1761387549827106000,4.25110595703125,0.08686356246471405,0.1809091866016388,-0.029312629252672195
1761387549837176000,4.261176025390625,0.06063329055905342,0.13082046806812286,-0.017205897718667984
1761387549847245800,4.271245849609375,0.02884885109961033,0.06704109907150269,-0.012200018391013145
1761387549857316000,4.281316162109375,0.004378928802907467,-0.002630387432873249,-0.023140551522374153
1761387549867385000,4.291385009765625,-0.014989832416176796,-0.08027525991201401,-0.038583625108003616
1761387549877455000,4.301455078125,-0.03145642206072807,-0.16098423302173615,-0.04354509338736534
1761387549887525000,4.311525146484375,-0.04954293370246887,-0.22028414905071259,-0.043219685554504395
1761387549897595000,4.321594970703125,-0.06217963248491287,-0.25407087802886963,-0.03592502325773239
1761387549907665000,4.331664794921875,-0.060745470225811005,-0.2520371079444885,-0.028315918520092964
1761387549917734100,4.341734130859375,-0.041074566543102264,-0.17609281837940216,-0.021631650626659393
1761387549927804000,4.351803955078125,-0.01330590806901455,-0.05650584399700165,-0.016740957275032997
1761387549937874200,4.361874267578125,0.018313271924853325,0.04713452607393265,-0.015779288485646248
1761387549947944200,4.371944091796875,0.04336407035589218,0.10522931069135666,-0.011111616156995296
1761387549958014000,4.382013916015625,0.05766444653272629,0.13037914037704468,-0.006355742923915386
1761387549968083200,4.392083251953125,0.06262518465518951,0.13118796050548553,0.002617057878524065
1761387549978153000,4.402153076171875,0.06488540768623352,0.0937228798866272,0.012220151722431183
1761387549988223000,4.412222900390625,0.05877768620848656,0.02711489424109459,0.021772313863039017
1761387549998293200,4.422293212890625,0.043422166258096695,-0.03583717346191406,0.045743428170681
1761387550008363000,4.432363037109375,0.02590186335146427,-0.0903940349817276,0.060758959501981735
1761387550018432300,4.442432373046875,0.00517234904691577,-0.11271798610687256,0.08318144083023071
1761387550028502000,4.452501953125,-0.0168779119849205,-0.09132619202136993,0.10217651724815369
1761387550038572000,4.462572021484375,-0.03270294889807701,-0.0562952384352684,0.10921791195869446
1761387550048642000,4.47264208984375,-0.02972618117928505,-0.008912468329071999,0.09189671277999878
1761387550058712000,4.482712158203125,-0.01141002494841814,0.03722945973277092,0.06187596172094345
1761387550068781000,4.492781005859375,0.023556020110845566,0.07797122746706009,0.032259248197078705
1761387550078851000,4.50285107421875,0.055804505944252014,0.10988415032625198,0.01197528000921011
1761387550088921000,4.512921142578125,0.0804944708943367,0.12331528961658478,0.008561186492443085
1761387550098991000,4.5229912109375,0.08518456667661667,0.10698319226503372,0.003836205694824457
1761387550109060000,4.53306005859375,0.0772116407752037,0.056170571595430374,-0.0012409389019012451
1761387550119130000,4.543130126953125,0.060653433203697205,-0.004309816285967827,-0.02063966915011406
1761387550129199900,4.553199951171875,0.03656088188290596,-0.0654623880982399,-0.0467010959982872
1761387550139270100,4.563270263671875,0.011193208396434784,-0.12443117052316666,-0.06281721591949463
1761387550149340200,4.573340087890625,-0.019336288794875145,-0.1551169604063034,-0.06630561500787735
1761387550159410000,4.583409912109375,-0.04807792603969574,-0.14817117154598236,-0.060251712799072266
1761387550169479200,4.593479248046875,-0.0651082843542099,-0.1274413764476776,-0.056849151849746704
1761387550179549000,4.603548828125,-0.07121944427490234,-0.09220321476459503,-0.04888976365327835
1761387550189619000,4.613618896484375,-0.06906643509864807,-0.031507886946201324,-0.034837543964385986
1761387550199689200,4.623689208984375,-0.0699245035648346,0.01153784990310669,-0.025668548420071602
1761387550209758000,4.633758056640625,-0.08261044323444366,0.011109542101621628,-0.033351171761751175
1761387550219828200,4.643828125,-0.10712563991546631,-0.025245534256100655,-0.04713063687086105
1761387550229898000,4.65389794921875,-0.1357152760028839,-0.07699413597583771,-0.07275480777025223
1761387550239968000,4.663968017578125,-0.15987947583198547,-0.13580019772052765,-0.10741371661424637
1761387550250038300,4.674038330078125,-0.17391632497310638,-0.2007836103439331,-0.14407633244991302
1761387550260107000,4.68410693359375,-0.17734646797180176,-0.24910667538642883,-0.17105655372142792
1761387550270177000,4.694177001953125,-0.17921973764896393,-0.25283604860305786,-0.17592447996139526
1761387550280247000,4.7042470703125,-0.17392964661121368,-0.1875859498977661,-0.15407484769821167
1761387550290317000,4.714317138671875,-0.16719909012317657,-0.09129965305328369,-0.12041071057319641
1761387550300387000,4.724386962890625,-0.14715507626533508,-0.003018793649971485,-0.08576324582099915
1761387550310456000,4.7344560546875,-0.11147552728652954,0.08809848874807358,-0.04724308103322983
1761387550320526000,4.744526123046875,-0.07706215977668762,0.15955641865730286,-0.0119993407279253
1761387550330596000,4.75459619140625,-0.044571440666913986,0.18578778207302094,0.0076188500970602036
1761387550340666000,4.764666015625,-0.02727181278169155,0.1751745492219925,0.009678538888692856
1761387550350736100,4.774736083984375,-0.021910300478339195,0.14122119545936584,0.0017412691377103329
1761387550360805000,4.78480517578125,-0.0351928174495697,0.08968290686607361,-0.015222800895571709
1761387550370875100,4.794875244140625,-0.05347253754734993,0.03152330592274666,-0.0401962473988533
1761387550380945000,4.80494482421875,-0.07002062350511551,-0.013879596255719662,-0.06192657724022865
1761387550391015200,4.81501513671875,-0.07884276658296585,-0.05151137337088585,-0.07597470283508301
1761387550401084200,4.825084228515625,-0.07236089557409286,-0.0693092793226242,-0.08673973381519318
1761387550411154000,4.83515380859375,-0.048031002283096313,-0.027045851573348045,-0.07960207015275955
1761387550421224200,4.84522412109375,-0.017224621027708054,0.09807904064655304,-0.05829758197069168
1761387550431294000,4.8552939453125,0.01592748984694481,0.2055584341287613,-0.03208897262811661
1761387550441364000,4.865364013671875,0.04790166765451431,0.2553587555885315,-0.004554552957415581
1761387550451433200,4.87543310546875,0.06364881247282028,0.258925199508667,0.016858438029885292
1761387550461503000,4.8855029296875,0.06347330659627914,0.21040374040603638,0.030754011124372482
1761387550471573000,4.895572998046875,0.038669321686029434,0.13654856383800507,0.03372041508555412
1761387550481643000,4.90564306640625,-0.009965857490897179,0.06625203043222427,0.03002661094069481
1761387550491713000,4.915713134765625,-0.06752432882785797,-0.0031058574095368385,0.02100958488881588
1761387550501782300,4.9257822265625,-0.12196280062198639,-0.06930511444807053,0.0061315689235925674
1761387550511852000,4.93585205078125,-0.1555316150188446,-0.1115657314658165,-0.001336921937763691
1761387550521922000,4.945922119140625,-0.1608733832836151,-0.12977269291877747,-0.00936076045036316
1761387550531992000,4.955991943359375,-0.15220719575881958,-0.11559382826089859,-0.012749805115163326
1761387550542061000,4.96606103515625,-0.12419155240058899,-0.05702878534793854,-0.011988673359155655
1761387550552131000,4.976131103515625,-0.0853005051612854,0.04044000059366226,-0.016249950975179672
1761387550562201000,4.986201171875,-0.03213661536574364,0.11935292929410934,-0.017094971612095833
1761387550572271000,4.99627099609375,0.010631346143782139,0.16387708485126495,-0.019139965996146202
1761387550582340900,5.0063408203125,0.03219256550073624,0.17568208277225494,-0.017176415771245956
1761387550592410000,5.01641015625,0.025629889219999313,0.14353907108306885,-0.013813894242048264
1761387550602480000,5.026480224609375,0.008475136943161488,0.06268789619207382,-0.017454968765378
1761387550612550100,5.036550048828125,-0.01932210475206375,-0.03664924204349518,-0.025212740525603294
1761387550622620200,5.0466201171875,-0.03517856448888779,-0.1224999651312828,-0.031896211206912994
1761387550632690000,5.05668994140625,-0.04249774292111397,-0.177408829331398,-0.03673587739467621
1761387550642759200,5.06675927734375,-0.04017573222517967,-0.17873241007328033,-0.030836710706353188
1761387550652829200,5.0768291015625,-0.03122006356716156,-0.13365937769412994,-0.020231422036886215
1761387550662899000,5.08689892578125,-0.013702855445444584,-0.06561162322759628,-0.0020652026869356632
1761387550672969200,5.09696923828125,0.014260019175708294,0.007727349642664194,0.020940609276294708
1761387550683039200,5.107039306640625,0.04190096631646156,0.06457172334194183,0.041503407061100006
1761387550693108000,5.11710791015625,0.05666675791144371,0.10934370011091232,0.05712280049920082
1761387550703178200,5.12717822265625,0.06100451573729515,0.1249985620379448,0.059248536825180054
1761387550713248000,5.137248046875,0.04900456592440605,0.10754510015249252,0.04393993690609932
1761387550723318000,5.147318115234375,0.035428572446107864,0.0765933096408844,0.013053391128778458
1761387550733387000,5.157386962890625,0.014212111011147499,0.027931082993745804,-0.024670489132404327
1761387550743457000,5.16745703125,-0.006012733094394207,-0.012509816326200962,-0.06433454155921936
1761387550753527000,5.177527099609375,-0.02215809002518654,-0.05443103611469269,-0.08207613974809647
1761387550763597000,5.18759716796875,-0.030486593022942543,-0.08541665226221085,-0.07738018780946732
1761387550773667000,5.1976669921875,-0.02094242163002491,-0.07640853524208069,-0.05234760791063309
1761387550783736000,5.207736083984375,0.0004430279368534684,-0.03489172086119652,-0.019737469032406807
1761387550793806000,5.21780615234375,0.009279691614210606,0.014317833818495274,0.011389886029064655
1761387550803876000,5.2278759765625,0.01414395496249199,0.05655929446220398,0.03664703667163849
1761387550813946000,5.237946044921875,0.007434006314724684,0.07510609924793243,0.04824565351009369
1761387550824016100,5.24801611328125,0.0015699919313192368,0.06208537146449089,0.03665317967534065
1761387550834084900,5.2580849609375,-0.014417193830013275,0.02465953305363655,0.009037281386554241
1761387550844155100,5.268155029296875,-0.04175960272550583,-0.02649446576833725,-0.02849171683192253
1761387550854225200,5.27822509765625,-0.073587566614151,-0.07094266265630722,-0.06415630131959915
1761387550864295000,5.288294921875,-0.08984217047691345,-0.0760229080915451,-0.07514583319425583
1761387550874362000,5.298362060546875,-0.09242517501115799,-0.05855576694011688,-0.07580656558275223
1761387550884432100,5.30843212890625,-0.07534059882164001,-0.04082275927066803,-0.07162811607122421
1761387550894502100,5.318502197265625,-0.0499410517513752,-0.003446446731686592,-0.052929773926734924
1761387550904572000,5.328572021484375,-0.019848927855491638,0.028060346841812134,-0.023465894162654877
1761387550914641200,5.33864111328125,0.004181940574198961,0.042631156742572784,0.013234954327344894
1761387550924711000,5.3487109375,0.008653388358652592,0.03441983088850975,0.04674151912331581
1761387550934781400,5.358781494140625,0.005681429523974657,-0.006150182336568832,0.07415146380662918
1761387550944851500,5.3688515625,-0.018723778426647186,-0.06550884246826172,0.07894808053970337
1761387550954921200,5.378921142578125,-0.04347280040383339,-0.12846624851226807,0.06364396214485168
1761387550964990500,5.388990478515625,-0.07776312530040741,-0.2081991583108902,0.033197902143001556
1761387550975060200,5.399060302734375,-0.10058226436376572,-0.28252729773521423,-0.0068345628678798676
1761387550985130200,5.409130126953125,-0.11753834038972855,-0.3092031180858612,-0.029818708077073097
1761387550995200500,5.419200439453125,-0.12071984261274338,-0.27563393115997314,-0.04852382838726044
1761387551005269200,5.429269287109375,-0.126473069190979,-0.2095973789691925,-0.062171462923288345
1761387551015339300,5.43933935546875,-0.12622778117656708,-0.13801388442516327,-0.07164470106363297
1761387551025409300,5.4494091796875,-0.11542679369449615,-0.048872821033000946,-0.0753832459449768
1761387551035479300,5.459479248046875,-0.09816630929708481,0.04617529734969139,-0.06950782984495163
1761387551045549300,5.46954931640625,-0.0772213488817215,0.1280832141637802,-0.06406086683273315
1761387551055618300,5.479618408203125,-0.05738233029842377,0.1664532721042633,-0.05234314501285553
1761387551065688300,5.489688232421875,-0.040343694388866425,0.1668711155653,-0.04077277332544327
1761387551075758300,5.49975830078125,-0.02776355668902397,0.12458691745996475,-0.03873981162905693
1761387551085828400,5.509828369140625,-0.025373635813593864,0.06261462718248367,-0.030472293496131897
1761387551095898400,5.5198984375,-0.030580539256334305,-0.010233194567263126,-0.021919773891568184
1761387551105967400,5.52996728515625,-0.04867858439683914,-0.09943444281816483,-0.009816238656640053
1761387551116037400,5.540037353515625,-0.07562302052974701,-0.18021348118782043,-0.0049837916158139706
1761387551126107100,5.550107177734375,-0.09498313814401627,-0.2392411231994629,0.010574129410088062
1761387551136177400,5.560177490234375,-0.09544132649898529,-0.24692092835903168,0.040008027106523514
1761387551146246100,5.57024609375,-0.0713365226984024,-0.23553165793418884,0.05219465121626854
1761387551156316200,5.580316162109375,-0.04614085704088211,-0.1864287406206131,0.056540947407484055
1761387551166386400,5.590386474609375,-0.0253777876496315,-0.12086543440818787,0.05276751518249512
1761387551176456200,5.600456298828125,-0.021487362682819366,-0.048113107681274414,0.03932465985417366
1761387551186526200,5.610526123046875,-0.012579620815813541,0.0024557923898100853,0.02072620764374733
1761387551196595200,5.62059521484375,-0.010391294956207275,0.02980748936533928,-0.0013349473010748625
1761387551206665200,5.630665283203125,-0.01484596449881792,0.026107028126716614,-0.0201677568256855
1761387551216735500,5.640735595703125,-0.020554104819893837,0.008535578846931458,-0.03962456434965134
1761387551226805200,5.65080517578125,-0.023614875972270966,-0.009642094373703003,-0.054953716695308685
1761387551236874200,5.660874267578125,-0.03130839765071869,-0.026947256177663803,-0.06432945281267166
1761387551246944300,5.6709443359375,-0.037061624228954315,-0.04877319186925888,-0.05534634366631508
1761387551257014300,5.68101416015625,-0.048265241086483,-0.058308545500040054,-0.041267260909080505
1761387551267084300,5.691084228515625,-0.06111925095319748,-0.05878471955657005,-0.015888400375843048
1761387551277154300,5.701154296875,-0.07251060754060745,-0.051594823598861694,0.007111376617103815
1761387551287223300,5.711223388671875,-0.08450015634298325,-0.06059711053967476,0.024069588631391525
1761387551297293300,5.721293212890625,-0.08478408306837082,-0.07427573204040527,0.02412283420562744
1761387551307363300,5.73136328125,-0.07705452293157578,-0.07187888771295547,0.014911760576069355
1761387551317433300,5.741433349609375,-0.06307324022054672,-0.05270332098007202,0.0033203833736479282
1761387551327503000,5.751503173828125,-0.04958406463265419,-0.016154896467924118,0.0003083478659391403
1761387551337572400,5.761572265625,-0.04021915793418884,0.01685246452689171,-0.0054399119690060616
1761387551347642000,5.77164208984375,-0.021748274564743042,0.051313236355781555,0.0019556861370801926
1761387551357712400,5.78171240234375,-0.00817034114152193,0.08876413106918335,0.013127144426107407
1761387551367782400,5.791782470703125,0.0006742834812030196,0.09873980283737183,0.030627574771642685
1761387551377851100,5.80185107421875,0.004690560512244701,0.07777023315429688,0.056271135807037354
1761387551387921400,5.81192138671875,0.00717795267701149,0.045167289674282074,0.08437281847000122
1761387551397991200,5.8219912109375,0.009849953465163708,0.03049209900200367,0.10534459352493286
1761387551408061200,5.832061279296875,0.012240407057106495,0.020249847322702408,0.11645343899726868
1761387551418131500,5.84213134765625,0.010879343375563622,0.016169779002666473,0.11109752207994461
1761387551428200200,5.8522001953125,0.015012037009000778,0.010365152731537819,0.09590978175401688
1761387551438270200,5.862270263671875,0.018453272059559822,0.0025912639684975147,0.062083546072244644
1761387551448340200,5.87234033203125,0.02765662409365177,0.00826486200094223,0.024359606206417084
1761387551458410200,5.88241015625,0.036175165325403214,0.04542742297053337,-0.014842642471194267
1761387551468479500,5.8924794921875,0.04945794865489006,0.08864094316959381,-0.0505838580429554
1761387551478549200,5.90254931640625,0.05447094142436981,0.10570953041315079,-0.0815482884645462
1761387551488619300,5.912619384765625,0.06456645578145981,0.10294197499752045,-0.10417796671390533
1761387551498689300,5.922689208984375,0.07439525425434113,0.08936318755149841,-0.11037475615739822
1761387551508759300,5.93275927734375,0.08090455085039139,0.04957103729248047,-0.10936861485242844
1761387551518829300,5.942829345703125,0.08227261900901794,-0.0009147739037871361,-0.09465837478637695
1761387551528899000,5.952899169921875,0.07435420900583267,-0.03886936604976654,-0.06276492029428482
1761387551538969300,5.96296923828125,0.049328744411468506,-0.06397472321987152,-0.017585191875696182
1761387551549038000,5.9730380859375,0.023368043825030327,-0.07335911691188812,0.024238023906946182
1761387551559108400,5.9831083984375,0.003668640973046422,-0.09090907871723175,0.05429579317569733
1761387551569178400,5.993178466796875,0.003083751304075122,-0.12378905713558197,0.07928622514009476
1761387551579248000,6.003248046875,0.00810434203594923,-0.14723126590251923,0.0903996005654335
1761387551589318400,6.013318359375,0.011761604808270931,-0.1679055094718933,0.09931493550539017
1761387551599387100,6.02338720703125,0.010453726164996624,-0.19216689467430115,0.1112552210688591
1761387551609457200,6.03345703125,0.01603325828909874,-0.2224850058555603,0.11859742552042007
1761387551619527400,6.04352734375,0.01652354560792446,-0.2559982240200043,0.1268782615661621
1761387551629597200,6.05359716796875,0.012411396019160748,-0.23923005163669586,0.13520917296409607
1761387551639666400,6.06366650390625,-0.004104464314877987,-0.17234475910663605,0.13341394066810608
1761387551649736200,6.073736083984375,-0.02478131093084812,-0.08098079264163971,0.10821689665317535
1761387551659806200,6.08380615234375,-0.04558992013335228,-0.009058663621544838,0.06530484557151794
1761387551669876200,6.093876220703125,-0.05554301664233208,0.032538287341594696,0.011335542425513268
1761387551679945200,6.1039453125,-0.06657090038061142,0.06655830889940262,-0.05076218023896217
1761387551690015200,6.11401513671875,-0.07064393162727356,0.1049647182226181,-0.10514850169420242
1761387551700085200,6.124085205078125,-0.06324034184217453,0.11561496555805206,-0.15896913409233093
1761387551710155300,6.1341552734375,-0.05147556588053703,0.10084488242864609,-0.19377106428146362
1761387551720225300,6.144225341796875,-0.03821621835231781,0.08488615602254868,-0.19898366928100586
1761387551730294300,6.154294189453125,-0.015014608390629292,0.06038348376750946,-0.19420967996120453
1761387551740364300,6.1643642578125,0.00972322840243578,0.027431923896074295,-0.1838555783033371
1761387551750434300,6.174434326171875,0.022759072482585907,-0.023909587413072586,-0.1621154546737671
1761387551760504300,6.18450439453125,0.05230710655450821,-0.041943714022636414,-0.13356956839561462
1761387551770574300,6.19457421875,0.08319756388664246,-0.01986776478588581,-0.09881390631198883
1761387551780643300,6.204643310546875,0.10065831243991852,0.009967362508177757,-0.05999940633773804
1761387551790713300,6.21471337890625,0.09592639654874802,0.039448127150535583,-0.03324124589562416
1761387551800783400,6.224783447265625,0.07524429261684418,0.05404091998934746,-0.03216612711548805
1761387551810853000,6.23485302734375,0.043098535388708115,0.04961748421192169,-0.05292576923966408
1761387551820922400,6.24492236328125,0.004638225771486759,0.03161797672510147,-0.10488617420196533
1761387551830992100,6.2549921875,-0.04151945188641548,-0.013407916761934757,-0.1626749187707901
1761387551841062400,6.2650625,-0.08439154922962189,-0.06100526079535484,-0.20058554410934448
1761387551851132400,6.27513232421875,-0.0953160971403122,-0.024729914963245392,-0.20746266841888428
1761387551861202200,6.2852021484375,-0.07089651376008987,0.04088770970702171,-0.20565198361873627
1761387551871271400,6.295271484375,-0.03554890304803848,0.09705564379692078,-0.1947988122701645
1761387551881341200,6.305341064453125,-0.006236288230866194,0.15890543162822723,-0.180995374917984
1761387551891411200,6.3154111328125,0.020119108259677887,0.21716314554214478,-0.15880589187145233
1761387551901481500,6.3254814453125,0.026049967855215073,0.26708462834358215,-0.11748454719781876
1761387551911550200,6.33555029296875,0.012671498581767082,0.28898853063583374,-0.08203466236591339
1761387551921620500,6.345620361328125,-0.016588119789958,0.26232630014419556,-0.05566856637597084
1761387551931690200,6.355690185546875,-0.05011792853474617,0.2113518863916397,-0.04613175988197327
1761387551941760300,6.36576025390625,-0.08005319535732269,0.17642532289028168,-0.049502525478601456
1761387551951830300,6.375830322265625,-0.11494125425815582,0.1658843457698822,-0.07127466052770615
1761387551961899300,6.385899169921875,-0.14350365102291107,0.1394447535276413,-0.11125855892896652
1761387551971969300,6.39596923828125,-0.15983101725578308,0.09368645399808884,-0.16453176736831665
1761387551982039300,6.406039306640625,-0.16942451894283295,0.0635722354054451,-0.2142532467842102
1761387551992109300,6.416109375,-0.16532358527183533,0.03936007618904114,-0.2560969293117523
1761387552002178300,6.42617822265625,-0.15465256571769714,0.023622926324605942,-0.28527504205703735
1761387552012248300,6.436248291015625,-0.12552745640277863,0.05673866719007492,-0.27595388889312744
1761387552022318300,6.446318359375,-0.10090839117765427,0.09155896306037903,-0.25115877389907837
1761387552032388000,6.45638818359375,-0.0795041024684906,0.11796372383832932,-0.19754676520824432
1761387552042457300,6.466457275390625,-0.07066613435745239,0.12214888632297516,-0.14618371427059174
1761387552052527000,6.476527099609375,-0.06724634766578674,0.11495920270681381,-0.09422793239355087
1761387552062597400,6.486597412109375,-0.05496678128838539,0.11015406250953674,-0.04209602251648903
1761387552072667400,6.49666748046875,-0.04100283607840538,0.10545073449611664,0.005834987852722406
1761387552082737200,6.506737060546875,-0.035556670278310776,0.07457137852907181,0.048602424561977386
1761387552092806400,6.516806396484375,-0.03166364133358002,0.03744561970233917,0.07467754930257797
1761387552102876200,6.526876220703125,-0.03584347292780876,-0.0030075320973992348,0.0931023582816124
1761387552112946200,6.5369462890625,-0.04251859337091446,-0.030179273337125778,0.09852389991283417
1761387552123016400,6.547016357421875,-0.05135948583483696,-0.06093931570649147,0.08835382014513016
1761387552133085200,6.557085205078125,-0.06216896325349808,-0.09944611042737961,0.06908219307661057
1761387552143155500,6.567155517578125,-0.060894109308719635,-0.10890725255012512,0.04692309722304344
1761387552153225200,6.57722509765625,-0.05384354665875435,-0.11182891577482224,0.029584355652332306
1761387552163295200,6.587295166015625,-0.04657125473022461,-0.12178727984428406,0.014318850822746754
1761387552173365200,6.597365234375,-0.03910762816667557,-0.11780726909637451,0.003804953768849373
1761387552183434200,6.607434326171875,-0.012204108759760857,-0.0956987664103508,0.005778621882200241
1761387552193504300,6.617504150390625,0.015445979312062263,-0.06231438368558884,0.01923736371099949
1761387552203574300,6.62757421875,0.02696841210126877,-0.019111253321170807,0.039189502596855164
1761387552213644300,6.637644287109375,0.03474755585193634,0.008727720007300377,0.05964462831616402
1761387552223713300,6.64771337890625,0.041705597192049026,0.03623364493250847,0.08026894927024841
1761387552233783300,6.657783203125,0.050943952053785324,0.04686897248029709,0.10284854471683502
1761387552243853300,6.667853271484375,0.05229630321264267,0.04271843656897545,0.12288883328437805
1761387552253923000,6.677923095703125,0.05484649911522865,0.028777621686458588,0.1401113122701645
1761387552263993300,6.687993408203125,0.05729420855641365,0.018888771533966064,0.1562844216823578
1761387552274062300,6.698062255859375,0.06071936711668968,0.00998531561344862,0.162634015083313
1761387552284132400,6.70813232421875,0.06230980530381203,-0.00601895060390234,0.15546000003814697
1761387552294202400,6.718202392578125,0.059097930788993835,-0.019662976264953613,0.13836586475372314
1761387552304272100,6.728272216796875,0.06127586588263512,-0.014630935154855251,0.12913694977760315
1761387552314341400,6.73834130859375,0.05089479684829712,-0.004439841955900192,0.12822847068309784
1761387552324411400,6.748411376953125,0.03346973657608032,-0.02007685787975788,0.11784373968839645
1761387552334481200,6.758481201171875,0.01711655966937542,-0.04455406963825226,0.10454282909631729
1761387552344551400,6.768551513671875,0.004236447624862194,-0.0659477710723877,0.08019008487462997
1761387552354620200,6.7786201171875,-0.002907517831772566,-0.06306153535842896,0.05394807830452919
1761387552364690200,6.788690185546875,-0.005087049212306738,-0.03120053932070732,0.02085910178720951
1761387552374760400,6.798760498046875,-0.014251850545406342,0.0018266276456415653,-0.01995258778333664
1761387552384830200,6.808830322265625,-0.027195878326892853,0.018179502338171005,-0.0657523050904274
1761387552394900200,6.818900146484375,-0.04535320773720741,0.016787320375442505,-0.10873376578092575
1761387552404969200,6.82896923828125,-0.054691050201654434,-0.018368268385529518,-0.15595267713069916
1761387552415039200,6.839039306640625,-0.04988197982311249,-0.07617966085672379,-0.1937515288591385
1761387552425109500,6.849109619140625,-0.031935203820466995,-0.1204690933227539,-0.20674748718738556
1761387552435179300,6.85917919921875,-0.011757093481719494,-0.12209714204072952,-0.18325217068195343
1761387552445248300,6.869248291015625,0.010497611947357655,-0.0866701677441597,-0.14675886929035187
1761387552455318300,6.879318359375,0.026164455339312553,-0.055978309363126755,-0.10357704758644104
1761387552465388300,6.88938818359375,0.038743630051612854,-0.036398746073246,-0.070068359375
1761387552475458300,6.899458251953125,0.04292641952633858,-0.025575459003448486,-0.051288485527038574
1761387552485528300,6.9095283203125,0.03363331779837608,-0.02404387667775154,-0.042627621442079544
1761387552495597300,6.919597412109375,0.025604192167520523,-0.024954847991466522,-0.04534243047237396
1761387552505667300,6.929667236328125,0.013299588114023209,-0.028643060475587845,-0.04512405022978783
1761387552515737300,6.9397373046875,-0.0016352253733202815,-0.029820367693901062,-0.037484005093574524
1761387552525807400,6.949807373046875,-0.014348622411489487,-0.017757046967744827,-0.01188836432993412
1761387552535876400,6.95987646484375,-0.030298281461000443,-0.017040330916643143,0.012578001245856285
1761387552545946400,6.9699462890625,-0.0519963838160038,-0.043165408074855804,0.02428658865392208
1761387552556016000,6.98001611328125,-0.07576965540647507,-0.08072541654109955,0.03651069104671478
1761387552566086400,6.99008642578125,-0.09739053249359131,-0.1018940806388855,0.04164659604430199
1761387552576155100,7.000155029296875,-0.10599517822265625,-0.12025716155767441,0.05525174364447594
1761387552586225200,7.01022509765625,-0.09731194376945496,-0.11163704097270966,0.07628192752599716
1761387552596295400,7.02029541015625,-0.07205202430486679,-0.0720767229795456,0.09455742686986923
1761387552606365200,7.030365234375,-0.034758713096380234,-0.020216725766658783,0.10935075581073761
1761387552616435200,7.040435302734375,-0.00035350548569113016,0.017818743363022804,0.11334558576345444
1761387552626504200,7.050504150390625,0.024876216426491737,0.03161871060729027,0.1073036715388298
1761387552636574200,7.06057421875,0.04165402799844742,0.027685388922691345,0.0926666334271431
1761387552646644500,7.07064453125,0.044100940227508545,0.008087186142802238,0.07526659965515137
1761387552656714200,7.08071435546875,0.037623368203639984,-0.012440631166100502,0.06279956549406052
1761387552666783200,7.090783203125,0.02327691949903965,-0.019397074356675148,0.06747767329216003
1761387552676853200,7.100853271484375,0.008417142555117607,-0.017518695443868637,0.07282998412847519
1761387552686923300,7.11092333984375,-0.0014341565547510982,-0.013611571863293648,0.07906444370746613
1761387552696993300,7.1209931640625,0.0018236315809190273,-0.012080117128789425,0.06946548819541931
1761387552707063300,7.131063232421875,0.022352874279022217,-0.011700349859893322,0.05899979919195175
1761387552717132300,7.14113232421875,0.05966001749038696,0.00934948306530714,0.03883310407400131
1761387552727202300,7.151202392578125,0.09437086433172226,0.02460992895066738,0.021402183920145035
1761387552737272300,7.161272216796875,0.10550083220005035,0.03269364684820175,0.014800882898271084
1761387552747342300,7.17134228515625,0.09414831548929214,0.03718293458223343,0.027485251426696777
1761387552757411300,7.181411376953125,0.06565717607736588,0.05020567402243614,0.0469621866941452
1761387552767481300,7.1914814453125,0.04796447232365608,0.06665149331092834,0.06134645268321037
1761387552777551000,7.201551025390625,0.04191404581069946,0.07080139219760895,0.06754251569509506
1761387552787621400,7.211621337890625,0.042597413063049316,0.05987710505723953,0.05306903272867203
1761387552797690400,7.2216904296875,0.045067306607961655,0.040840912610292435,0.036579255014657974
1761387552807760100,7.231760009765625,0.04377114400267601,0.017321206629276276,0.019993619993329048
1761387552817830400,7.241830322265625,0.03599599376320839,0.01804756559431553,0.006329022813588381
1761387552827900200,7.251900146484375,0.026053881272673607,0.0340622179210186,-0.015404501929879189
1761387552837969400,7.261969482421875,0.027592161670327187,0.03743626922369003,-0.03974418342113495
1761387552848039400,7.272039306640625,0.0411314032971859,0.03074321523308754,-0.06444286555051804
1761387552858109200,7.282109130859375,0.059939220547676086,0.021489091217517853,-0.08049372583627701
1761387552868179200,7.29217919921875,0.07558262348175049,0.024692606180906296,-0.08557796478271484
1761387552878249200,7.302249267578125,0.07955619692802429,0.02638579159975052,-0.07161889970302582
1761387552888318200,7.312318115234375,0.0853552296757698,0.026167944073677063,-0.0524316243827343
1761387552898388500,7.322388427734375,0.10000075399875641,0.03702965006232262,-0.019268609583377838
1761387552908458200,7.332458251953125,0.12464936822652817,0.05365922674536705,-0.0023500805255025625
1761387552918528300,7.3425283203125,0.13550415635108948,0.06409871578216553,0.0003417949192225933
1761387552928597200,7.35259716796875,0.13129928708076477,0.0674028992652893,-0.01777595654129982
1761387552938667300,7.362667236328125,0.12145506590604782,0.06398990005254745,-0.04288364201784134
1761387552948737000,7.372737060546875,0.11055181920528412,0.06366313248872757,-0.06467735767364502
1761387552958807300,7.382807373046875,0.09441827982664108,0.05561237782239914,-0.08090537041425705
1761387552968877300,7.392877197265625,0.07355108112096786,0.02806197851896286,-0.10419738292694092
1761387552978946300,7.4029462890625,0.05028825253248215,-0.002091044560074806,-0.1196378543972969
1761387552989016300,7.413016357421875,0.03429197520017624,-0.01128614041954279,-0.12450903654098511
1761387552999086000,7.423086181640625,0.019399715587496758,-0.005744154565036297,-0.11604780703783035
1761387553009156400,7.43315625,0.00795611273497343,0.0082294512540102,-0.10379672795534134
1761387553019225000,7.44322509765625,-0.01818883791565895,0.01005756575614214,-0.09588784724473953
1761387553029295000,7.453295166015625,-0.04422682896256447,0.036242030560970306,-0.09046431630849838
1761387553039365400,7.463365478515625,-0.05704376846551895,0.12667885422706604,-0.09598305821418762
1761387553049435100,7.47343505859375,-0.06664445996284485,0.21281559765338898,-0.12254835665225983
1761387553059504400,7.48350439453125,-0.06727135926485062,0.270913302898407,-0.14122679829597473
1761387553069574100,7.49357421875,-0.06564256548881531,0.3181588649749756,-0.13020476698875427
1761387553079644200,7.50364404296875,-0.058742035180330276,0.32941165566444397,-0.0952005609869957
1761387553089714200,7.513714111328125,-0.054217059165239334,0.3364061713218689,-0.03780438005924225
1761387553099783200,7.523783203125,-0.03272461146116257,0.30163902044296265,0.011532415635883808
1761387553109853200,7.533853271484375,0.004019291140139103,0.20709599554538727,0.0480363629758358
1761387553119923200,7.543923095703125,0.05547923594713211,0.12892727553844452,0.0764012485742569
1761387553129993200,7.5539931640625,0.09376031160354614,0.08230970799922943,0.10316894203424454
1761387553140063200,7.564063232421875,0.11780395358800888,0.04568232595920563,0.12295237928628922
1761387553150132200,7.57413232421875,0.11501535773277283,0.014010949991643429,0.1370338499546051
1761387553160202200,7.5842021484375,0.0948452427983284,0.0033841710537672043,0.1422548145055771
1761387553170272000,7.59427197265625,0.07532507181167603,0.005661706440150738,0.1425751894712448
1761387553180342300,7.60434228515625,0.08084997534751892,0.030741799622774124,0.13138630986213684
1761387553190411000,7.614410888671875,0.10245779901742935,0.059459198266267776,0.11775172501802444
1761387553200481300,7.624481201171875,0.12162505835294724,0.048138827085494995,0.09465549886226654
1761387553210551300,7.63455126953125,0.12185009568929672,-0.030683018267154694,0.06684757024049759
1761387553220621000,7.64462109375,0.10054991394281387,-0.12523218989372253,0.042708318680524826
1761387553230690300,7.654690185546875,0.05439760535955429,-0.18705187737941742,0.022074414417147636
1761387553240760000,7.664760009765625,0.0005115332314744592,-0.17618082463741302,0.010411446914076805
1761387553250830000,7.674830078125,-0.05585933104157448,-0.13153453171253204,-0.01610697992146015
1761387553260900400,7.684900390625,-0.08284026384353638,-0.08302976936101913,-0.05857722833752632
1761387553270969000,7.694968994140625,-0.07633069902658463,-0.04540329426527023,-0.1025843620300293
1761387553281039400,7.705039306640625,-0.05427933484315872,-0.013929741457104683,-0.15302500128746033
1761387553291109000,7.715109130859375,-0.03885830193758011,-0.013886330649256706,-0.19305045902729034
1761387553301179100,7.72517919921875,-0.03492634743452072,-0.06277688592672348,-0.23078258335590363
1761387553311249200,7.735249267578125,-0.052266985177993774,-0.13193678855895996,-0.2499922215938568
1761387553321318100,7.745318115234375,-0.08760374784469604,-0.15615947544574738,-0.2604483664035797
1761387553331388200,7.75538818359375,-0.1455450803041458,-0.1462828814983368,-0.26179298758506775
1761387553341458200,7.765458251953125,-0.20740456879138947,-0.15934370458126068,-0.2793463468551636
1761387553351528200,7.775528076171875,-0.2620939314365387,-0.1811416745185852,-0.32110124826431274
1761387553361597200,7.78559716796875,-0.3089298903942108,-0.22982501983642578,-0.3855626583099365
1761387553371667200,7.795667236328125,-0.35549286007881165,-0.28309863805770874,-0.4548639953136444
1761387553381737200,7.8057373046875,-0.4092307686805725,-0.29016637802124023,-0.47450798749923706
1761387553391807000,7.815806884765625,-0.45379555225372314,-0.1649448275566101,-0.41063153743743896
1761387553401876200,7.825876220703125,-0.4734538197517395,-0.013620457611978054,-0.29044410586357117
1761387553411946200,7.8359462890625,-0.4473705589771271,0.1352505087852478,-0.1366572082042694
1761387553422016300,7.846016357421875,-0.3931787312030792,0.2877538204193115,0.04544449970126152
1761387553432086300,7.856086181640625,-0.3201729655265808,0.4015941023826599,0.2086198329925537
1761387553442155000,7.866155029296875,-0.2322075366973877,0.4242832362651825,0.3310711979866028
1761387553452225300,7.876225341796875,-0.13049103319644928,0.3652374744415283,0.3978249132633209
1761387553462295300,7.88629541015625,-0.041437264531850815,0.24463798105716705,0.4025452435016632
1761387553472365000,7.896364990234375,0.027032073587179184,0.10233435779809952,0.34813952445983887
1761387553482435300,7.906435302734375,0.059031952172517776,-0.02963835373520851,0.2579208314418793
1761387553492504000,7.916504150390625,0.054390858858823776,-0.13038760423660278,0.14803828299045563
1761387553502574000,7.926573974609375,0.004755740519613028,-0.20524676144123077,0.03135345131158829
1761387553512644400,7.936644287109375,-0.07393880933523178,-0.26287463307380676,-0.0925075113773346
1761387553522714000,7.946714111328125,-0.16060501337051392,-0.3110533654689789,-0.21173468232154846
1761387553532783400,7.956783447265625,-0.2247597575187683,-0.30200183391571045,-0.32191070914268494
1761387553542853000,7.96685302734375,-0.24169288575649261,-0.2045871466398239,-0.37442535161972046
1761387553552923100,7.976923095703125,-0.20204082131385803,-0.019324610009789467,-0.37534284591674805
1761387553562993400,7.986993408203125,-0.12622976303100586,0.16923627257347107,-0.3369942903518677
1761387553573062100,7.997062255859375,-0.04283794015645981,0.29543572664260864,-0.27804258465766907
1761387553583132200,8.007132080078126,0.011304857209324837,0.29854974150657654,-0.21181941032409668
1761387553593202200,8.0172021484375,0.013544576242566109,0.23559370636940002,-0.14194099605083466
1761387553603272200,8.027272216796876,-0.002492851112037897,0.19748017191886902,-0.056216079741716385
1761387553613341200,8.037341064453125,-0.02157120406627655,0.23266026377677917,0.026415683329105377
1761387553623411200,8.0474111328125,-0.02998306415975094,0.33254000544548035,0.08538606017827988
1761387553633481200,8.057481201171875,-0.024969397112727165,0.4216877222061157,0.10002332180738449
1761387553643551200,8.06755126953125,0.0016007455997169018,0.4757194221019745,0.08533111214637756
1761387553653620200,8.0776201171875,0.04636076092720032,0.5083479285240173,0.05355880409479141
1761387553663690000,8.08768994140625,0.08971531689167023,0.4914959669113159,0.02178431861102581
1761387553673760300,8.09776025390625,0.12493482232093811,0.43886125087738037,-0.00004508066922426224
1761387553683830300,8.107830322265626,0.15381121635437012,0.3652845025062561,-0.0020901223178952932
1761387553693900000,8.117900146484375,0.1713172346353531,0.27067887783050537,0.023391002789139748
1761387553703969300,8.12796923828125,0.18569085001945496,0.18880720436573029,0.07064639776945114
1761387553714039000,8.1380390625,0.19888761639595032,0.11976075917482376,0.12153728306293488
1761387553724109000,8.148109130859375,0.19629395008087158,0.03493651747703552,0.16192789375782013
1761387553734179300,8.158179443359375,0.170781672000885,-0.07946702092885971,0.1768501251935959
1761387553744248000,8.168248046875,0.10660412907600403,-0.17575877904891968,0.17970150709152222
1761387553754318300,8.178318359375,0.0303218774497509,-0.2392067313194275,0.1786213219165802
1761387553764388000,8.18838818359375,-0.054048582911491394,-0.27504003047943115,0.15729577839374542
1761387553774458000,8.1984580078125,-0.12173628807067871,-0.28605273365974426,0.12740205228328705
1761387553784527400,8.20852734375,-0.15639036893844604,-0.2689836323261261,0.09545852243900299
1761387553794597000,8.21859716796875,-0.14219598472118378,-0.2404230833053589,0.056426968425512314
1761387553804667100,8.228667236328125,-0.09992436319589615,-0.1631918102502823,0.020760444924235344
1761387553814737200,8.238737060546875,-0.06096631661057472,-0.0717625617980957,-0.012166611850261688
1761387553824806100,8.24880615234375,-0.04594229534268379,-0.05460059270262718,-0.03936859220266342
1761387553834876400,8.25887646484375,-0.04257579520344734,-0.07700949907302856,-0.054733965545892715
1761387553844946200,8.2689462890625,-0.041883427649736404,-0.09580036252737045,-0.045488931238651276
1761387553855016200,8.27901611328125,-0.044843532145023346,-0.1080908551812172,-0.03181493282318115
1761387553865085200,8.289085205078125,-0.05856401100754738,-0.11314494162797928,-0.01781400293111801
1761387553875155200,8.2991552734375,-0.06367461383342743,-0.09278534352779388,-0.009825319051742554
1761387553885225200,8.30922509765625,-0.06782865524291992,-0.057267285883426666,-0.010070561431348324
1761387553895295200,8.319295166015625,-0.07307321578264236,-0.025596439838409424,-0.020053952932357788
1761387553905365200,8.329365234375,-0.0854620411992073,0.007062941789627075,-0.037492141127586365
1761387553915434200,8.339434326171874,-0.08875104784965515,0.04101984202861786,-0.04696234315633774
1761387553925504300,8.349504150390626,-0.07639007270336151,0.08028436452150345,-0.0543123297393322
1761387553935574000,8.359573974609376,-0.05567280948162079,0.11106331646442413,-0.05790439993143082
1761387553945644000,8.36964404296875,-0.03353685140609741,0.10010752826929092,-0.052377745509147644
1761387553955713000,8.379713134765625,-0.020153667777776718,0.06399373710155487,-0.041377823799848557
1761387553965783000,8.389782958984375,-0.014174936339259148,0.019146878272294998,-0.01799827814102173
1761387553975853000,8.39985302734375,-0.011895271018147469,-0.0035507120192050934,0.013876829296350479
1761387553985923000,8.409923095703125,-0.010558819398283958,-0.010963981971144676,0.049955446273088455
1761387553995992000,8.419991943359374,-0.002091298345476389,-0.020642442628741264,0.07799746841192245
1761387554006062000,8.43006201171875,0.013429051265120506,-0.015302310697734356,0.0991487056016922
1761387554016132000,8.440132080078126,0.02837684191763401,0.0031794942915439606,0.10601860284805298
1761387554026201900,8.450201904296875,0.03411833569407463,0.019932232797145844,0.09053828567266464
1761387554036271000,8.46027099609375,0.04571640118956566,0.03669470176100731,0.06548992544412613
1761387554046340900,8.4703408203125,0.050772860646247864,0.06611759215593338,0.026711169630289078
1761387554056411100,8.4804111328125,0.053305260837078094,0.0886058583855629,-0.02603726089000702
1761387554066481200,8.490481201171875,0.0498020276427269,0.096408911049366,-0.07314862310886383
1761387554076550000,8.5005498046875,0.04801904037594795,0.0774352177977562,-0.10887599736452103
1761387554086620200,8.5106201171875,0.03883618488907814,0.034281741827726364,-0.11111187934875488
1761387554096690000,8.52068994140625,0.02306520938873291,0.00528178084641695,-0.07992146909236908
1761387554106760000,8.530760009765626,0.004069076851010323,-0.005100472830235958,-0.01959238201379776
1761387554116829000,8.540828857421875,-0.012664629146456718,-0.004833091050386429,0.03782270848751068
1761387554126899000,8.55089892578125,-0.012765821069478989,-0.024046309292316437,0.07405097037553787
1761387554136969200,8.56096923828125,0.0018719767685979605,-0.05305079370737076,0.08899609744548798
1761387554147039000,8.5710390625,0.014065071009099483,-0.08072592318058014,0.07804089784622192
1761387554157108000,8.58110791015625,0.023175479844212532,-0.10023943334817886,0.05429987981915474
1761387554167178000,8.591177978515624,0.02938704378902912,-0.11279582232236862,0.018987376242876053
1761387554177248000,8.601248046875,0.031876832246780396,-0.1107662245631218,-0.003028709441423416
1761387554187318000,8.611318115234376,0.03452686965465546,-0.08787866681814194,-0.006347303278744221
1761387554197387000,8.621386962890625,0.038309358060359955,-0.043594829738140106,0.016176382079720497
1761387554207457000,8.63145703125,0.03786638751626015,-0.02157348208129406,0.042880501598119736
1761387554217527000,8.641527099609375,0.037493545562028885,-0.031413331627845764,0.06260892748832703
1761387554227597000,8.65159716796875,0.033367980271577835,-0.02452375926077366,0.0749339684844017
1761387554237666000,8.661666015625,0.019424468278884888,-0.0013886122032999992,0.07128357142210007
1761387554247736000,8.671736083984374,-0.00278180418536067,0.025085777044296265,0.04248306527733803
1761387554257806000,8.68180615234375,-0.019562914967536926,0.05098209157586098,-0.0018817356321960688
1761387554267876000,8.6918759765625,-0.02370399422943592,0.08787613362073898,-0.043072741478681564
1761387554277945000,8.701945068359375,-0.04301164299249649,0.12462243437767029,-0.07935245335102081
1761387554288015000,8.71201513671875,-0.06844642013311386,0.14116908609867096,-0.12093882262706757
1761387554298084900,8.7220849609375,-0.07868494093418121,0.1494603008031845,-0.16996416449546814
1761387554308155100,8.732155029296875,-0.07507578283548355,0.1464357227087021,-0.22224529087543488
1761387554318225200,8.74222509765625,-0.06816674023866653,0.12744711339473724,-0.2642340362071991
1761387554328294100,8.752294189453124,-0.05077124014496803,0.0921248123049736,-0.29611125588417053
1761387554338364200,8.7623642578125,-0.021890057250857353,0.03682853281497955,-0.29656773805618286
1761387554348434000,8.772433837890626,0.0038394322618842125,-0.0034717638045549393,-0.26734650135040283
1761387554358504000,8.78250390625,0.02280273661017418,0.008988368324935436,-0.22494764626026154
1761387554368573000,8.792572998046875,0.03181035444140434,0.03627128154039383,-0.18507671356201172
1761387554378643000,8.802642822265625,0.06042814999818802,0.036721885204315186,-0.1665906459093094
1761387554388713200,8.812713134765625,0.09812027215957642,-0.0019453996792435646,-0.17254430055618286
1761387554398783000,8.822782958984375,0.12945689260959625,-0.057933833450078964,-0.19176140427589417
1761387554408852200,8.832852294921874,0.15232454240322113,-0.10152968764305115,-0.22909891605377197
1761387554418922000,8.842921875,0.16317719221115112,-0.14133328199386597,-0.2679925262928009
1761387554428992000,8.852991943359376,0.16735029220581055,-0.16242608428001404,-0.2894582152366638
1761387554439062000,8.86306201171875,0.1470351666212082,-0.1435362845659256,-0.27798426151275635
1761387554449131000,8.873131103515625,0.10315829515457153,-0.09412256628274918,-0.23229636251926422
1761387554459201000,8.883200927734375,0.0494157038629055,-0.042031142860651016,-0.1700870543718338
1761387554469271000,8.89327099609375,0.002676191972568631,0.013915415853261948,-0.12040146440267563
1761387554479341000,8.903341064453125,-0.029243391007184982,0.06918559223413467,-0.0966963991522789
1761387554489410000,8.91341015625,-0.043187789618968964,0.08834217488765717,-0.10591166466474533
1761387554499480000,8.92347998046875,-0.05080389603972435,0.09151080250740051,-0.1449570655822754
1761387554509550000,8.933550048828126,-0.04761728271842003,0.09251555800437927,-0.19876430928707123
1761387554519619800,8.943619873046876,-0.02198115922510624,0.10226885229349136,-0.23954929411411285
1761387554529689000,8.953689208984375,0.006135552655905485,0.12630420923233032,-0.24192464351654053
1761387554539758800,8.9637587890625,0.013874964788556099,0.1489967405796051,-0.21250629425048828
1761387554549829000,8.9738291015625,-0.004317677579820156,0.16218458116054535,-0.14913436770439148
1761387554559899100,8.983899169921875,-0.029538612812757492,0.15479004383087158,-0.07574297487735748
1761387554569967900,8.9939677734375,-0.051867276430130005,0.12951628863811493,0.004535862244665623
1761387554580038100,9.0040380859375,-0.0680217444896698,0.0941028967499733,0.07802659273147583
1761387554590108000,9.01410791015625,-0.08589708060026169,0.05218743532896042,0.12487620860338211
1761387554600178000,9.024177978515626,-0.09891940653324127,0.017981264740228653,0.15458908677101135
1761387554610247200,9.0342470703125,-0.10627595335245132,-0.0072028785943984985,0.1618007868528366
1761387554620317000,9.04431689453125,-0.10418510437011719,-0.006261185742914677,0.15729737281799316
1761387554630387000,9.054386962890625,-0.08461340516805649,0.0070349653251469135,0.14381074905395508
1761387554640457000,9.06445703125,-0.050414420664310455,0.000308353453874588,0.12446475028991699
1761387554650526000,9.07452587890625,-0.019333062693476677,-0.03171274811029434,0.13150599598884583
1761387554660596200,9.08459619140625,-0.0008472632616758347,-0.06718019396066666,0.15759219229221344
1761387554670666000,9.094666015625,0.0012149956310167909,-0.07961791753768921,0.20816227793693542
1761387554680736000,9.104736083984376,-0.005089239217340946,-0.08090236037969589,0.2630108892917633
1761387554690805000,9.114804931640625,-0.008345775306224823,-0.09056797623634338,0.30400773882865906
1761387554700875000,9.124875,-0.009764707647264004,-0.11751330643892288,0.3221483826637268
1761387554710945000,9.134945068359375,-0.008407617919147015,-0.12943081557750702,0.31924301385879517
1761387554721015000,9.14501513671875,0.005905807483941317,-0.13331317901611328,0.28477343916893005
1761387554731084000,9.155083984375,0.04188164696097374,-0.23225431144237518,0.2200288623571396
1761387554741154000,9.165154052734374,0.05988568067550659,-0.27748116850852966,0.16100895404815674
1761387554751224000,9.17522412109375,0.054258979856967926,-0.19590967893600464,0.10702541470527649
1761387554761294000,9.185294189453124,0.056900568306446075,-0.07606343924999237,0.04281074181199074
1761387554771363000,9.195363037109376,0.061782319098711014,0.059232112020254135,-0.04280976206064224
1761387554781433000,9.20543310546875,0.06629504263401031,0.14763787388801575,-0.14095470309257507
1761387554791502800,9.2155029296875,0.05247094854712486,0.2442810833454132,-0.24107754230499268
1761387554801573000,9.225572998046875,0.041774362325668335,0.30934956669807434,-0.3240205943584442
1761387554811641900,9.235641845703125,0.03319127857685089,0.3347353935241699,-0.378495454788208
1761387554821712100,9.245712158203125,0.01053736824542284,0.3385106921195984,-0.40302130579948425
1761387554831782100,9.2557822265625,-0.012157341465353966,0.29823198914527893,-0.3955998122692108
1761387554841852000,9.265851806640624,-0.030991749837994576,0.24789051711559296,-0.3634546399116516
1761387554851921200,9.275921142578126,-0.038386501371860504,0.18434986472129822,-0.32149049639701843
1761387554861991000,9.285990966796875,-0.05357876792550087,0.10867615044116974,-0.26953035593032837
1761387554872061000,9.29606103515625,-0.063656285405159,0.04949548840522766,-0.20709381997585297
1761387554882130200,9.306130126953125,-0.06412530690431595,0.010187936946749687,-0.13502150774002075
1761387554892200000,9.316199951171875,-0.050990331918001175,-0.028589287772774696,-0.060082025825977325
1761387554902269200,9.326269287109374,-0.034694816917181015,-0.06583904474973679,0.015023283660411835
1761387554912339000,9.3363388671875,-0.023856284096837044,-0.10342449694871902,0.08067312836647034
1761387554922409000,9.346408935546876,-0.011007028631865978,-0.1251712441444397,0.12059659510850906
1761387554932479200,9.356479248046876,0.012836785055696964,-0.15412166714668274,0.13092300295829773
1761387554942551600,9.366551513671874,0.029589947313070297,-0.17176346480846405,0.11211539059877396
1761387554952621800,9.376621826171874,0.0219554640352726,-0.17905360460281372,0.06069667637348175
1761387554962691600,9.386691650390626,-0.0022122925147414207,-0.15878111124038696,0.0018260767683386803
1761387554972761600,9.39676171875,-0.033318281173706055,-0.11593776941299438,-0.06060401350259781
1761387554982830800,9.406830810546875,-0.04936899244785309,-0.06937676668167114,-0.11130665242671967
1761387554992900600,9.416900634765625,-0.05754196643829346,-0.019680321216583252,-0.13840165734291077
1761387555002970600,9.426970703125,-0.05572263523936272,0.022376637905836105,-0.14832310378551483
1761387555013040600,9.43704052734375,-0.04955022409558296,0.04564893618226051,-0.14966081082820892
1761387555023109600,9.447109619140624,-0.05745796859264374,0.04963165521621704,-0.13694405555725098
1761387555033179600,9.4571796875,-0.0821681097149849,0.05702272430062294,-0.123017318546772
1761387555043249700,9.467249755859376,-0.09158971160650253,0.07170744985342026,-0.10763607919216156
1761387555053319700,9.477319580078126,-0.08707857877016068,0.08904169499874115,-0.0941823199391365
1761387555063388700,9.487388671875,-0.0720803365111351,0.09463875740766525,-0.08168868720531464
1761387555073458700,9.497458740234375,-0.06239974871277809,0.06982395797967911,-0.06221193075180054
1761387555083528700,9.50752880859375,-0.05205186456441879,0.020845800638198853,-0.0430290587246418
1761387555093598700,9.5175986328125,-0.04482004791498184,-0.01774766482412815,-0.0223927553743124
1761387555103667700,9.527667724609374,-0.04228222742676735,-0.03498448431491852,-0.002617308869957924
1761387555113737500,9.537737548828124,-0.03794180974364281,-0.05875106900930405,0.005171904806047678
1761387555123807700,9.547807861328126,-0.03087867982685566,-0.08008645474910736,-0.004784366115927696
1761387555133877800,9.557877685546876,-0.020938964560627937,-0.09218093752861023,-0.02971581555902958
1761387555143946800,9.56794677734375,-0.010119432583451271,-0.093375064432621,-0.0687512457370758
1761387555154016800,9.578016845703125,-0.0029856234323233366,-0.09691360592842102,-0.11975983530282974
1761387555164086500,9.58808642578125,0.01847866363823414,-0.07635516673326492,-0.17800533771514893
1761387555174156500,9.598156494140625,0.04074561595916748,-0.032939787954092026,-0.22941181063652039
1761387555184225500,9.6082255859375,0.04065679386258125,0.0074402871541678905,-0.2834245264530182
1761387555194295600,9.618295654296874,0.044698406010866165,0.029386598616838455,-0.32078200578689575
1761387555204365800,9.62836572265625,0.038989074528217316,0.04780290275812149,-0.3454497456550598
1761387555214435600,9.638435546875,0.014977216720581055,0.026461664587259293,-0.3747096359729767
1761387555224504800,9.6485048828125,-0.012813595123589039,-0.028732430189847946,-0.3812130391597748
1761387555234574600,9.65857470703125,-0.021014267578721046,-0.0010893503203988075,-0.3538559675216675
1761387555244644600,9.66864453125,-0.024551233276724815,0.06571599841117859,-0.31484559178352356
1761387555254714600,9.678714599609375,-0.02733769826591015,0.11759890615940094,-0.26408228278160095
1761387555264783600,9.68878369140625,-0.032957371324300766,0.15730643272399902,-0.20360732078552246
1761387555274853600,9.698853515625,-0.02966996282339096,0.1880907118320465,-0.14249736070632935
1761387555284923600,9.708923583984374,-0.03628665953874588,0.1838582158088684,-0.09669236093759537
1761387555294993700,9.71899365234375,-0.0445999838411808,0.14460241794586182,-0.08970741927623749
1761387555305062700,9.729062744140625,-0.05853433534502983,0.09703145921230316,-0.0903065875172615
1761387555315132700,9.739132568359375,-0.06826233118772507,0.1112937480211258,-0.07208364456892014
1761387555325202700,9.74920263671875,-0.07359295338392258,0.14295971393585205,-0.03351282700896263
1761387555335272400,9.7592724609375,-0.07391945272684097,0.13047614693641663,0.015012897551059723
1761387555345341700,9.769341796875,-0.08915946632623672,0.05280033499002457,0.09364669024944305
1761387555355411700,9.77941162109375,-0.09340693801641464,-0.07306624203920364,0.18643894791603088
1761387555365481700,9.789481689453124,-0.07513998448848724,-0.14214542508125305,0.2976720929145813
1761387555375551700,9.7995517578125,-0.06470492482185364,-0.1902322620153427,0.3966101109981537
1761387555385620500,9.809620361328125,-0.05897282063961029,-0.2442132532596588,0.45289796590805054
1761387555395690800,9.819690673828125,-0.0589858703315258,-0.27541565895080566,0.4517032504081726
1761387555405760800,9.8297607421875,-0.06149723380804062,-0.25622278451919556,0.38938289880752563
1761387555415830500,9.83983056640625,-0.06811438500881195,-0.18212273716926575,0.2845443785190582
1761387555425899800,9.849899658203125,-0.06611213088035583,-0.09503021836280823,0.15350526571273804
1761387555435969500,9.859969482421874,-0.0420595221221447,-0.010715068317949772,0.017355680465698242
1761387555446039600,9.87003955078125,-0.010729491710662842,0.04432493448257446,-0.08127579092979431
