time,seconds_elapsed,z,y,x
1761383455931307000,0.08430712890625,-0.23471242671608925,-0.19730828647315501,-0.07629939582645892
1761383455941377000,0.094376953125,-0.25758944443464277,-0.20521979025006293,0.05706590397572144
1761383455951446000,0.104446044921875,-0.14325813185572622,-0.10760346562862395,0.026018055690638718
1761383455961515800,0.114515869140625,-0.05437924044132232,0.032900983604788776,-0.058850723299570376
1761383455971585000,0.1245849609375,-0.02410100655555725,0.05462707772254943,-0.13967274764962492
1761383455981654800,0.13465478515625,-0.10092997921407222,0.013487842604517936,-0.20643422580743206
1761383455991724000,0.14472412109375,-0.19598960509002208,0.0008323591709136962,-0.2712176818905398
1761383456001793000,0.15479296875,-0.20365911680459975,0.041275428718328476,-0.3397600703820586
1761383456011863000,0.164863037109375,-0.2003057147234678,0.07747019317150115,-0.3805100139215588
1761383456021931800,0.174931884765625,-0.20081366424560546,0.10314707074165344,-0.4332595708018169
1761383456032002000,0.185001953125,-0.20297931784689424,0.10695639989674091,-0.3814767765944823
1761383456042071000,0.195071044921875,-0.168342888751626,0.29040684140920636,-0.28077739126589146
1761383456052141000,0.20514111328125,0.21586685647070405,0.39975510487854476,-0.11535424415217711
1761383456062210000,0.2152099609375,0.3073299191594124,-0.03572656241953373,0.10171192337200045
1761383456072279800,0.22527978515625,0.17009353181123732,-0.2024982563316822,0.1013169875039719
1761383456082349000,0.23534912109375,0.325143223747611,-0.1811351503074169,0.04379459019871428
1761383456092418800,0.245418701171875,0.5096025500416755,0.012106032857298851,0.035127226553205396
1761383456102488000,0.255488037109375,0.6269540872246027,0.20704116045832632,0.04916647422909736
1761383456112557800,0.265557861328125,0.6506582034170627,0.22058044098913668,0.0329122539174743
1761383456122627000,0.275626953125,0.5535276164859533,0.11730535995364189,-0.08632564500132575
1761383456132697000,0.285697021484375,0.43631578003466126,0.02091302416920662,-0.11827608641562982
1761383456142766000,0.29576611328125,0.4754103575825691,0.09730886610746384,-0.06235043851621449
1761383456152836000,0.305836181640625,0.5386655629187822,0.2229284654200077,-0.11569697490893303
1761383456162905000,0.315905029296875,0.48123336464762684,0.34545652845799923,-0.13334551738947628
1761383456172975000,0.32597509765625,0.3049105830579996,0.22695932837128638,-0.06172821496464312
1761383456183043800,0.3360439453125,-0.03799275378584861,-0.029046061742305753,0.03119220692552626
1761383456193114000,0.346114013671875,-0.5049444951027632,-0.1666232253521681,0.10940302586387843
1761383456203182800,0.356182861328125,-0.6217424900561571,-0.20511574535369873,-0.0157390190647915
1761383456213253000,0.366253173828125,-0.39157355198860166,-0.0415267731308937,-0.17334000291917473
1761383456223321900,0.37632177734375,-0.2254804879903793,0.06713233903050422,-0.2008687554337084
1761383456233392000,0.38639208984375,-0.05151508318185806,0.12315583954751491,-0.1842465968588367
1761383456243460900,0.3964609375,0.02184007588624954,0.10192425094842911,-0.25420718158520755
1761383456253531000,0.40653076171875,-0.05828910736143589,0.08745967226624489,-0.23614275178015232
1761383456263599900,0.416599853515625,-0.28319267224669453,0.1465232711315155,-0.24585085665024817
1761383456273670000,0.426669921875,-0.34691841770410536,0.23110300404727457,-0.34004648610800503
1761383456283739100,0.4367392578125,-0.15763152512311934,0.16946517077982426,-0.31347331728525457
1761383456293809000,0.446808837890625,0.06652092913389206,0.04703296933174133,-0.2905509260550141
1761383456303878100,0.456878173828125,0.10165537087917327,-0.07892097650170325,-0.30341625284701584
1761383456313948000,0.466947998046875,0.021657705056667326,-0.063203182888031,-0.2552555946595967
1761383456324017200,0.47701708984375,-0.05937514903247356,-0.044777883881330485,-0.11217574198022484
1761383456334086000,0.4870859375,-0.02237082176208496,-0.027169746476411818,-0.028293051417917013
1761383456344156000,0.497156005859375,0.0349088162958622,0.026273674419522285,0.17221768435835838
1761383456354225000,0.507224853515625,0.07954407683610916,0.04699731349647045,0.3640536038350314
1761383456364295000,0.517294921875,0.1105553011715412,0.027465514552593228,0.4167486905816942
1761383456374364000,0.527364013671875,0.06750292590856552,-0.08706336642503738,0.4766830809321254
1761383456384434000,0.537433837890625,0.19172551790475845,-0.16797522448301314,0.43216618607454
1761383456394503000,0.5475029296875,0.3801537478297949,-0.17365677725076675,0.3028965398218483
1761383456404573000,0.557572998046875,0.45463820318877696,-0.10491934111118316,0.17395320291407404
1761383456414642200,0.56764208984375,0.42191549876034257,-0.019226093995571136,0.1038631100565195
1761383456424712000,0.5777119140625,0.24673078128993509,0.07827741790115833,0.13572072208821773
1761383456434781200,0.58778125,0.06002338380813598,0.13510054436326027,0.16737068271860478
1761383456444851000,0.597850830078125,-0.006879822641611099,0.1642220094293356,0.2543250358112156
1761383456454920000,0.607919921875,0.00018880057036876677,0.13327508250176906,0.26109094974957403
1761383456464990000,0.617989990234375,0.02514671621620655,0.09789981773793696,0.24947737658433614
1761383456475059000,0.628058837890625,0.04698094688355922,0.0674555796355009,0.21960567767284808
1761383456485129000,0.63812890625,0.0559270544052124,0.07164543254077434,0.18126096864417193
1761383456495198000,0.648197998046875,-0.07734452096521854,0.04320084382295608,0.1578183529321104
1761383456505268200,0.658268310546875,-0.14288754497766493,0.021768179693818092,0.1535517084635794
1761383456515337000,0.6683369140625,-0.1600438469618559,0.005393967998027801,0.1708170237801969
1761383456525407000,0.678406982421875,-0.1535778658181429,0.048935003560781475,0.15406426109559834
1761383456535476000,0.68847607421875,-0.14660276610851286,0.09805354699492454,0.13793664457201957
1761383456545546000,0.6985458984375,-0.07870762601196765,0.1527408304721117,0.10598799325600265
1761383456555615000,0.708614990234375,-0.0700876817047596,0.18414309995174408,-0.011989932196959853
1761383456565685000,0.71868505859375,0.030163083073496817,0.08844692973792552,-0.003959697411209344
1761383456575754000,0.72875390625,0.14865969863831996,0.0317757789671421,-0.010235782006010413
1761383456585824000,0.738823974609375,0.19227438395917415,-0.05796878936588764,0.09490772324986756
1761383456595893000,0.74889306640625,0.11245908896625041,-0.11108078635036944,0.2013114576999098
1761383456605963000,0.758962890625,0.047344519498944276,-0.10426233850717544,0.17609817905351519
1761383456616032000,0.769031982421875,-0.06742576901912689,-0.053774844807386396,0.1426354699127376
1761383456626102000,0.77910205078125,-0.05200315895974636,0.008847323322296142,0.10725611349567771
1761383456636171000,0.7891708984375,-0.04190028261840343,0.011897358542680739,0.10590038803778588
1761383456646241000,0.799240966796875,-0.040541269224882125,0.058469724625349044,0.10961465932056307
1761383456656310000,0.80931005859375,-0.03509352521300316,0.06504267327487469,0.04663052601069212
1761383456666379000,0.81937890625,-0.05097498495578766,0.049205637195706364,0.05272168249264359
1761383456676449000,0.829448974609375,-0.13459610197246075,0.04155015400648117,0.11087539997138082
1761383456686518000,0.83951806640625,-0.2270060901224613,0.03624444881379604,0.1490986015122384
1761383456696588000,0.849588134765625,-0.22889058869481085,0.07732640078663826,0.15126725078821182
1761383456706656500,0.859656494140625,-0.13208090428113936,0.12659691991209984,0.09407821362316608
1761383456716726300,0.869726318359375,-0.07228957566320895,0.14563187524974344,-0.0061232321206480264
1761383456726795500,0.87979541015625,-0.017705168038606642,0.12256021174192427,-0.09445610702484845
1761383456736865300,0.889865234375,0.08247662315666675,0.1005997243463993,-0.11164543449580669
1761383456746934500,0.8999345703125,0.15753274092376232,0.02831424033641815,-0.14202530212514103
1761383456757004300,0.91000439453125,0.1507926190137863,0.008668459624052048,-0.11934614506624638
1761383456767073300,0.9200732421875,0.042269115930795666,0.04536299029290676,-0.08478665366470814
1761383456777143600,0.9301435546875,-0.06220598854422569,-0.011369535276293754,0.03961180635504424
1761383456787212300,0.94021240234375,-0.0776385354757309,-0.12544190465807914,0.1313898532770574
1761383456797282600,0.950282470703125,-0.12472118916809558,-0.12781915518343448,0.13420059984885155
1761383456807351300,0.960351318359375,-0.12733283297121525,-0.051048634713888166,0.13577084484025836
1761383456817421300,0.97042138671875,-0.0773766696691513,-0.018301964887976644,0.06366378613710404
1761383456827490300,0.980490234375,-0.05676233618557453,0.021495207971334456,-0.030248204073682426
1761383456837560300,0.990560302734375,-0.04459785113930702,0.06281330678761005,-0.09437098602466285
1761383456847629300,1.00062939453125,0.0094721772223711,0.10963701728284359,-0.1312966220356524
1761383456857699300,1.01069921875,0.055928807970881456,0.1346679981648922,-0.11055763925909995
1761383456867768300,1.020768310546875,0.07716916439831256,0.14597089794576168,-0.10179857874214648
1761383456877838300,1.03083837890625,0.020704934376478194,0.15338906524777413,-0.10554463340267538
1761383456887907300,1.0409072265625,0.07497311565876007,0.22103169188797472,-0.09781192025877535
1761383456897977300,1.050977294921875,0.15597440556585787,0.17327976063191888,-0.11778145303279161
1761383456908046300,1.06104638671875,0.2741056949496269,0.06621171705424785,-0.01866904463469982
1761383456918116400,1.071116455078125,0.02266366722881794,-0.06896247706711292,0.22065525979101658
1761383456928185300,1.081185302734375,-0.11951719078421592,-0.22998189106285571,0.21290581470802425
1761383456938255400,1.09125537109375,-0.003036591216921806,-0.1357435184419155,0.1733344134286046
1761383456948324400,1.101324462890625,0.23035890768170356,0.03350771732628345,0.04880129417851567
1761383456958394400,1.111394287109375,0.3569219253242016,0.022788754913210866,-0.02439049102142453
1761383456968463400,1.12146337890625,0.49268297942280764,-0.024010990184545517,0.16119535508453844
1761383456978533400,1.131533447265625,-0.06225625742673874,-0.12983458665907383,0.6304990663550794
1761383456988602400,1.141602294921875,0.027440380111336708,-0.15834464182853697,0.9399787839595228
1761383456998672100,1.151672119140625,0.8987029899150133,-0.01899403880536556,0.5316819876417518
1761383457008741400,1.161741455078125,0.44761049650907514,-0.13422668413817881,0.4437028946112841
1761383457018811400,1.171811279296875,0.792077429407835,-0.20289690026044843,0.1342636551477015
1761383457028880400,1.18188037109375,1.0369903476208449,-0.43406069458425045,-0.27266777110099794
1761383457038950400,1.191950439453125,0.9921604412913322,-0.6469061574071645,-0.24197248084694145
1761383457049019400,1.202019287109375,0.5203747039467096,-0.5844681136727333,-0.12304784912839531
1761383457059089400,1.21208935546875,0.2989011135101318,-0.5976391454130411,0.13303177526518703
1761383457069158400,1.222158447265625,0.20073592283427713,-0.6585971797227859,0.45552799163535235
1761383457079227400,1.232227294921875,-0.01637947239279747,-0.7130360413968563,0.17323080692365764
1761383457089297400,1.24229736328125,-0.2029734726279974,-0.5855290209025145,-0.2165665291726589
1761383457099366400,1.252366455078125,-0.07374211255908011,-0.4970896899491548,-0.33315592287667095
1761383457109436200,1.262436279296875,0.22716975625157354,-0.6489812101155519,-0.21211101106852293
1761383457119505400,1.27250537109375,0.3095972795695066,-0.8422843526005744,-0.059365942812710994
1761383457129575200,1.2825751953125,-0.09245148920416832,-0.7320283266365528,-0.10239325669966637
1761383457139644400,1.29264453125,-0.21443828497231004,-0.5920195519655943,-0.09444478191323578
1761383457149714400,1.30271435546875,-0.2387918049842119,-0.4770844282746315,0.06378324779830873
1761383457159783400,1.312783447265625,-0.38302082769870754,-0.26670506330430505,0.2747246305655688
1761383457169853400,1.322853515625,-0.34460195745527744,-0.12179507258832455,0.3430146151985973
1761383457179922400,1.33292236328125,-0.17538696204423904,-0.09222352566719054,0.1597882647655904
1761383457189992400,1.342992431640625,-0.02926584197282791,-0.02719020474255085,-0.056734206069633364
1761383457200061400,1.3530615234375,0.056044543305039406,0.25741584143340585,-0.21015257047712801
1761383457210131500,1.36313134765625,0.11128010831475257,0.48195232657194137,-0.27801165287960317
1761383457220200200,1.3732001953125,0.006868132203817367,0.6500479625642299,-0.36208347280584274
1761383457230270500,1.3832705078125,-0.19086510168313978,0.8292530215919017,-0.3283328501017764
1761383457240339200,1.393339111328125,-0.4037222549438476,0.9250129046916961,-0.12056260818392038
1761383457250409500,1.403409423828125,-0.5047849206268787,0.962906289756298,0.240616536193341
1761383457260478200,1.413478271484375,-0.12942892846763132,0.6327987215995788,0.3436502096883952
1761383457270548200,1.42354833984375,-0.07741875524520873,0.6685609398543835,0.18961258087139576
1761383457280617500,1.433617431640625,-0.17757015130221843,0.5258066658675671,-0.13518632295057176
1761383457290687200,1.443687255859375,0.3748024499297142,0.43728374828398225,-0.34961952988896516
1761383457300756500,1.453756591796875,0.8413537937521934,0.4325491209775209,-0.42905766213256863
1761383457310826200,1.463826171875,1.250027533623576,0.48597383717298503,-0.6505358191464096
1761383457320895500,1.4738955078125,1.2479378678679465,0.6073492230445147,-0.8344272093594074
1761383457330965200,1.48396533203125,-0.9101847533941269,0.3218500274211168,-1.5727483525298536
1761383457341034500,1.494034423828125,-3.1973674698114394,0.22197569473981857,-1.483785728354752
1761383457351104300,1.504104248046875,-2.7454449553221463,1.0978776547819376,-0.2987186696153134
1761383457361173500,1.514173583984375,-1.561138724887371,1.7738608535915612,0.7780160977642983
1761383457371243500,1.524243408203125,-1.63782975037992,1.4276082063198088,0.7647940664891153
1761383457381312300,1.534312255859375,-0.6667115125954151,0.9212491682440042,0.4606295525580644
1761383457391382500,1.544382568359375,-0.7823620910793543,0.17732991280555724,-0.3954501742262393
1761383457401451300,1.554451171875,-2.741420522111654,-0.6883429141670465,-0.7761156709704548
1761383457411521500,1.564521484375,-2.624242003408074,-0.9225351164013147,-0.11817549385167658
1761383457421590300,1.57459033203125,-1.2578899375617503,-0.16497312005758286,0.48399793399013574
1761383457431660300,1.584660400390625,-0.7398024677693843,0.008687748846411705,0.4700179239545017
1761383457441729300,1.594729248046875,-0.5344172578245401,0.036676410490274425,0.3310757556017488
1761383457451799300,1.60479931640625,-0.3135720284193754,0.14406009588837623,0.2631479918772355
1761383457461868300,1.614868408203125,-0.45716158418655395,0.35493104376792906,0.32429278093073516
1761383457471938300,1.624938232421875,-0.44423838972747326,0.26968320233225823,0.36164931917227805
1761383457482007300,1.63500732421875,-0.439634110802412,0.14381108956336974,0.30612620592545714
1761383457492077300,1.645077392578125,-0.40019641890525814,0.19628829577565193,0.40849169783536343
1761383457502146300,1.655146240234375,-0.6492547663599252,0.24472528668642043,0.4228614743735641
1761383457512216300,1.66521630859375,-0.7972346660405397,-0.0015279402196407318,0.3233250684097409
1761383457522285600,1.67528564453125,-0.763492555436492,-0.5167746336281299,0.0664861500814557
1761383457532355300,1.685355224609375,-0.8060007408201694,-0.4817191023379564,0.3959908204415813
1761383457542424300,1.69542431640625,-1.0223483665451407,-0.21023674162924288,0.5552508600819855
1761383457552494300,1.705494384765625,-0.5351046555668115,-0.6026403147011995,0.1275169208338484
1761383457562563300,1.715563232421875,-0.6380135336384177,-0.5720820948302745,0.052478850180096924
1761383457572633300,1.72563330078125,-1.1207184321433306,-0.25671616873145103,0.2625713245004415
1761383457582702300,1.735702392578125,-0.8151444167405366,0.1729617807239294,0.035560412072390316
1761383457592772400,1.7457724609375,-0.9923550870805978,0.15988076535463333,-0.3310118235200643
1761383457602841300,1.75584130859375,-0.6724936031281947,0.21734043615460394,-0.9736740597471594
1761383457612911400,1.765911376953125,-0.630220980066061,0.16107845070660112,-1.0263298373967409
1761383457622980400,1.77598046875,-2.017828015387058,-0.2618465173572302,-0.8239163367390632
1761383457633050400,1.78605029296875,-1.90481450740844,-1.0528343979626893,0.19793314037322998
1761383457643119400,1.796119384765625,-2.1439874206647276,-1.0811813715249299,0.8210583169594406
1761383457653189400,1.806189453125,-2.4534774404674766,-0.9200058901846409,0.6641483841091395
1761383457663258400,1.81625830078125,-2.058762667843699,-0.5570733262687921,0.7240563248440622
1761383457673328400,1.826328369140625,-1.2003268063873052,-0.27418168279528615,1.217930852138996
1761383457683397400,1.8363974609375,-0.6231035492762923,0.015591536885499952,1.5211264479726552
1761383457693467400,1.84646728515625,-0.5921522384345531,0.8069599412411451,1.057960070413351
1761383457703536400,1.856536376953125,-0.645650019866228,1.0421458306878804,0.5182452907025814
1761383457713606400,1.8666064453125,-0.5157327233597636,1.1485627168804406,-0.19067630111277103
1761383457723675100,1.876675048828125,-0.7147872689783573,1.5320324573904276,-0.867214795717597
1761383457733745400,1.886745361328125,-0.6735445734858513,1.6949907304942606,-1.4797767849743366
1761383457743814400,1.896814453125,-0.40630131165161726,1.8208190041214227,-2.037497761496901
1761383457753884400,1.906884521484375,-0.37468627620413897,2.422061142462492,-2.737804085180163
1761383457763953400,1.916953369140625,-0.3877495367210358,2.9442145465195178,-3.425346788880229
1761383457774023200,1.927023193359375,-0.21631923988070337,3.1281232531934973,-3.8042753788292405
1761383457784092400,1.937092529296875,0.2759229735046625,3.1470138316243883,-3.895428644916415
1761383457794162200,1.947162109375,0.892481923443079,3.5839182252019643,-3.834755857288837
1761383457804231400,1.9572314453125,1.40451725358963,4.242613604602218,-3.8265807341396805
1761383457814301200,1.96730126953125,1.5404700308680535,4.91449638235569,-3.941329395347833
1761383457824370400,1.977370361328125,1.5088462275922299,5.572835203403234,-4.225289544835687
1761383457834440400,1.9874404296875,1.4611737913131713,6.155419403025507,-4.603229123747348
1761383457844509400,1.997509521484375,1.2666554278194904,6.808178378114104,-4.93049766908586
1761383457854579500,2.007579345703125,1.50939114812389,7.658053331974148,-5.335436898604035
1761383457864648400,2.0176484375,2.0656696707531808,8.685530001318455,-5.516636930841207
1761383457874718500,2.027718505859375,2.925287727731466,9.299903423911333,-5.316798249107599
1761383457884787200,2.037787109375,3.94057068593502,9.250175224146247,-4.893885556003451
1761383457894857500,2.047857421875,4.503572817730904,9.069072222542761,-4.0986084537714715
1761383457904926200,2.05792626953125,5.058298119568825,9.32314576781094,-2.7215596373438835
1761383457914996500,2.06799658203125,4.98812743575573,8.950370439794659,-0.7765924216367304
1761383457925065200,2.078065185546875,4.538886707696318,8.660203836882113,1.397187641353905
1761383457935135500,2.088135498046875,3.755782858338952,9.813196645164489,3.406870051947236
1761383457945204200,2.098204345703125,0.955588075697422,10.567712697941063,5.819612161922454
1761383457955274200,2.108274169921875,-3.803644095188379,9.00663476333022,9.413702821570634
1761383457965343500,2.118343505859375,-7.845480860424042,5.435436903491616,14.357497779124975
1761383457975413200,2.128413330078125,-9.817423907470703,1.2960814287900924,19.70440124363899
1761383457985482500,2.138482421875,-10.539811130058764,-1.8939888697504996,24.742631557691094
1761383457995551200,2.14855126953125,-9.923507616186141,-3.6481577654004096,28.093545913660524
1761383458005621500,2.15862158203125,-8.649565538489819,-4.096067537117004,29.26492310441732
1761383458015690200,2.168690185546875,-7.332225048571825,-2.7760756559073925,28.56633293700218
1761383458025760500,2.178760498046875,-5.624470113572478,0.3011813334017992,26.949947541189193
1761383458035829200,2.188829345703125,-3.3440719427287577,2.7823773864001033,24.806692818713188
1761383458045899300,2.198899169921875,-0.7544656377635895,4.492262319165468,21.941156087589263
1761383458055968300,2.20896826171875,1.524457930482924,5.617904763707518,18.37552813683748
1761383458066038300,2.219038330078125,2.843528312933445,6.056577920523286,14.609842893165348
1761383458076107300,2.229107177734375,2.7587065879553556,6.498527907052636,10.675229654330014
1761383458086177300,2.23917724609375,1.4956933160305022,8.11118989842832,6.021686055362224
1761383458096246300,2.249246337890625,-0.3682388536304235,9.573674187818169,1.1377338643521069
1761383458106316300,2.25931640625,-0.9227391145408153,9.993009606957434,-3.1240164023965593
1761383458116385500,2.269385498046875,0.3814379058888182,9.789253459519147,-5.991376841816305
1761383458126455300,2.279455322265625,2.1188754835009576,10.058569582104683,-8.372602700543403
1761383458136524500,2.289524658203125,3.890340381866693,10.781550678932666,-10.521831236732005
1761383458146594300,2.29959423828125,5.6470577929556365,11.14404309786558,-12.77646426720023
1761383458156663300,2.309663330078125,6.831475667071342,11.548562640666962,-14.630232185721397
1761383458166733300,2.3197333984375,7.73007636565566,11.644937440794706,-15.60314315214157
1761383458176803300,2.32980322265625,8.402609716272353,11.414973669910431,-15.470737253689766
1761383458186872300,2.339872314453125,8.627158476370573,10.937636728179454,-14.343845685869454
1761383458196942300,2.3499423828125,8.34082692157626,10.275625940620898,-12.635669310587645
1761383458207011600,2.360011474609375,7.336322547018527,9.357801486128569,-10.860381639063357
1761383458217081300,2.370081298828125,6.034751288640499,8.610347042301298,-9.178211811697482
1761383458227150300,2.380150390625,4.723529573863744,7.865240622904897,-7.742206363910436
1761383458237220400,2.390220458984375,3.774540750300884,7.749894580325484,-6.228793851315975
1761383458247289300,2.400289306640625,3.3031425509691235,8.083688728040457,-4.457526813609898
1761383458257359400,2.410359375,3.1617420296788215,8.595769066372513,-2.375079318796098
1761383458267428400,2.420428466796875,3.2666298066079613,9.214363321530818,-0.1627233318367973
1761383458277497300,2.430497314453125,3.1396973711311817,10.12377182985544,2.039266816996038
1761383458287567400,2.4405673828125,1.9163404022902248,10.701772793340682,4.4033767057493325
1761383458297637400,2.450637451171875,-0.8555050687015056,9.852768777096271,7.533913157564402
1761383458307706400,2.460706298828125,-3.6830145592480896,6.977236721658707,11.939437104475498
1761383458317775400,2.470775390625,-4.570549673938751,3.22405440120697,17.281977697604894
1761383458327845400,2.480845458984375,-4.5835605466812845,-0.5245090272724628,22.872297119772433
1761383458337915400,2.490915283203125,-4.037905271005631,-3.6567186729967593,27.742292681622505
1761383458347984400,2.500984375,-4.059881540492177,-5.1622430626899005,30.21509383124113
1761383458358053400,2.511053466796875,-5.155190806090832,-4.630223513656854,30.066959617781638
1761383458368123400,2.521123291015625,-5.701078136956691,-1.7558832983523607,28.37550056854486
1761383458378192400,2.5311923828125,-4.8215293448448175,2.3967022448003292,25.927953102648257
1761383458388262100,2.54126220703125,-2.592067580512166,5.785829719308018,22.954183960342405
1761383458398331400,2.551331298828125,-0.24657186440117657,8.736597925254703,19.312206929403544
1761383458408401200,2.561401123046875,1.2035054364234208,11.436778674483298,15.040027623099087
1761383458418470400,2.571470458984375,1.729323208206892,13.65872407183647,10.13509284981489
1761383458428540400,2.58154052734375,1.6514005950927733,15.729890878701209,3.96844331998378
1761383458438609400,2.591609375,3.5162685842990875,16.85545324374437,-3.218489752817154
1761383458448679400,2.601679443359375,7.428535551291704,16.990069803982973,-10.734819322896003
1761383458458748400,2.61174853515625,12.211767021924256,16.3243987403512,-16.454624372154473
1761383458468818400,2.621818359375,13.071930730086564,16.457924582743644,-19.74687260414362
1761383458478888200,2.63188818359375,12.178532276320457,15.938226170623302,-21.22938612060547
1761383458488957400,2.64195751953125,10.250267042958736,14.354681552660464,-20.44894886010885
1761383458499026200,2.652026123046875,8.28756177985668,12.771078482508658,-18.105537475991248
1761383458509096400,2.662096435546875,6.643876873707771,11.90237607858181,-15.383813003474472
1761383458519166500,2.67216650390625,5.504992085754871,11.096852307623625,-12.951409330695867
1761383458529235500,2.6822353515625,4.628741166144609,10.178777677762508,-10.769804127037524
1761383458539305500,2.692305419921875,3.830381295466423,8.963713905492424,-8.753396499842404
1761383458549374500,2.70237451171875,2.780532050794363,8.061890153208374,-6.726800656110048
1761383458559444500,2.712444580078125,1.429115103751421,8.236521912971138,-4.33378849799931
1761383458569513200,2.72251318359375,0.054663318079710005,8.935795386475323,-1.298522538331896
1761383458579583500,2.73258349609375,-2.4217238733321427,9.032032239437102,2.6759318586349488
1761383458589652200,2.74265234375,-5.611420662385225,7.4437676072150465,7.9453978632032864
1761383458599722500,2.752722412109375,-6.364438585558533,4.359631964308023,14.250651853865385
1761383458609791200,2.762791259765625,-5.567663938245177,1.7970909225314855,20.640047770547866
1761383458619860500,2.772860595703125,-4.791867781552672,-1.0645464630663395,25.5242822856307
1761383458629930200,2.78293017578125,-5.098893749329448,-3.8219595040798184,28.133952742850777
1761383458640000300,2.793000244140625,-4.645940722748637,-5.449765873095393,28.326615833866594
1761383458650069500,2.803069580078125,-4.042243592470884,-5.010388951924443,26.992164050149917
1761383458660138500,2.813138427734375,-3.0998031676381825,-2.2079297314822672,24.725348414456843
1761383458670208500,2.82320849609375,-1.6956594235360622,1.4010048615545034,21.91276001418829
1761383458680278300,2.8332783203125,-0.09452708990182727,4.487873144295811,18.74386694371104
1761383458690347500,2.843347412109375,0.9844804081827402,7.003093631970882,15.232435862571
1761383458700417300,2.853417236328125,1.2714812405407427,9.027548372021316,11.285903053361176
1761383458710486800,2.86348681640625,0.7590005047142505,10.684274546051025,6.804836666470766
1761383458720557000,2.87355712890625,0.03137596599459648,12.76143387132883,1.592329397442937
1761383458730625800,2.883625732421875,0.9676793493770063,14.329222117233275,-4.095084371298551
1761383458740696000,2.893696044921875,4.203133534868061,14.903585016477107,-9.956254870533943
1761383458750764800,2.903764892578125,8.357622573554515,14.99557940956354,-15.143528914105891
1761383458760834800,2.913834716796875,11.586465378081797,14.86592660921216,-18.850572583717106
1761383458770903800,2.92390380859375,12.277279066276549,15.303275239425897,-20.753197179865836
1761383458780973800,2.933973876953125,11.37219017471671,15.130910255551337,-20.46963392074108
1761383458791042800,2.944042724609375,9.963845471793412,13.716720333731173,-18.220966520678996
1761383458801112800,2.95411279296875,7.606637032991647,12.389542340409754,-14.994738867086172
1761383458811181800,2.964181884765625,5.98860913066864,11.53821426513195,-11.785277639377117
1761383458821251800,2.974251953125,4.729609770560264,10.258908614575862,-8.73477363243699
1761383458831320800,2.98432080078125,3.896367971593141,8.81618116505742,-6.038271279460191
1761383458841390800,2.994390869140625,3.412688967359066,7.963325149559974,-3.6318501892000437
1761383458851460000,3.004460205078125,3.0520553280353546,7.886641722851992,-1.3837442224130034
1761383458861529900,3.01452978515625,2.154538333034515,8.217921257397531,1.132179006703943
1761383458871598800,3.024598876953125,0.21642043523285537,7.950438779979944,4.567936568830907
1761383458881668900,3.0346689453125,-2.2717232814788817,6.376393227246403,9.062886811906099
1761383458891737900,3.04473779296875,-4.321061702895165,3.5291111147373915,14.309895485472678
1761383458901807900,3.054807861328125,-5.471329470127821,0.6299065072894096,19.794705199420452
1761383458911876900,3.064876953125,-6.071831019234657,-1.0071849919438363,24.58265726883411
1761383458921947000,3.07494677734375,-7.192027473330497,-2.3505700237005946,27.569176002597807
1761383458932015900,3.085015869140625,-7.578596933421492,-3.583669218876958,28.163686202335356
1761383458942085600,3.095085693359375,-6.505572564867139,-2.8491216028958557,26.46581845510006
1761383458952155000,3.10515478515625,-5.127085824590921,-0.6727794343322515,23.77185058903694
1761383458962225000,3.115224853515625,-3.348791372466087,1.6217051295310259,20.674770708882807
1761383458972294000,3.1252939453125,-1.6507546984046697,3.7834845197349782,17.25165620909929
1761383458982364000,3.135364013671875,-0.38223639932274817,5.326650365558266,13.60269881775379
1761383458992433000,3.145432861328125,0.4824257893025875,6.79354428808391,9.483398873609303
1761383459002503000,3.1555029296875,0.9015688276749104,9.141413236132264,4.3901884306132795
1761383459012572000,3.165572021484375,1.6096107871115206,11.436610332179068,-1.8307167132794855
1761383459022642000,3.175641845703125,3.3211738822221752,13.092839078080653,-8.391941022741793
1761383459032711000,3.1857109375,6.298236220854521,14.031338071811199,-14.457173958885669
1761383459042781000,3.195781005859375,9.157019386065006,14.130338544267415,-18.999166231381892
1761383459052849700,3.205849609375,10.445630625104904,13.880524410009384,-21.641039168548584
1761383459062920000,3.215919921875,10.309916332757473,13.13253279056549,-21.831717223227024
1761383459072988700,3.22598876953125,9.075075262349843,12.574948007643222,-19.730933861255643
1761383459083059000,3.236058837890625,7.404144621878862,11.950421439826489,-16.543661084479094
1761383459093128000,3.2461279296875,5.892331361174583,10.853623396974802,-13.026325163209437
1761383459103197700,3.25619775390625,4.669494032293557,9.613860067734121,-9.664377372050284
1761383459113267000,3.266266845703125,3.63978273576498,8.717389951437712,-6.686724666309356
1761383459123336700,3.276336669921875,2.7888427830219267,8.1686150824368,-3.8490225753113627
1761383459133406000,3.286406005859375,1.82813488009274,7.779279664763807,-0.9567867839626968
1761383459143475700,3.296475830078125,0.04053889460470527,6.9068953574538225,2.7238217370569706
1761383459153545000,3.306544921875,-2.341610472175479,4.728321484315395,7.351544666069746
1761383459163614700,3.31661474609375,-4.661716968551278,2.001632667389512,12.269694310235977
1761383459173684000,3.32668408203125,-5.802880807352066,-0.524767970469594,17.400011371833084
1761383459183754000,3.33675390625,-5.915771857994795,-2.5384686767935754,22.683290797698497
1761383459193823000,3.346822998046875,-6.442525449323654,-4.68338402595818,26.164544182717798
1761383459203893000,3.35689306640625,-6.734642017260193,-5.459738985577225,26.819283517968653
1761383459213961700,3.366961669921875,-6.489841911771893,-3.9307477955788372,25.318577342212198
1761383459224032000,3.377031982421875,-5.902205689457059,-0.96739717143476,22.612180202686787
1761383459234100700,3.387100830078125,-4.110946541818977,2.092911021161079,19.745740969765187
1761383459244171000,3.3971708984375,-1.4969623130530119,4.1941345281153914,16.477286285817623
1761383459254239700,3.40723974609375,0.4988718971908092,5.55663576375246,12.620187663817404
1761383459264309800,3.417309814453125,1.502045899927616,7.161113279628753,7.945621150565147
1761383459274378800,3.427378662109375,2.02302792211771,9.019870092478394,2.1025287443339824
1761383459284448800,3.43744873046875,2.356524548190832,10.444607711797952,-4.067461035835743
1761383459294517800,3.447517822265625,3.567510111236572,11.624597248077391,-9.677751817408204
1761383459304587800,3.457587890625,5.427658670705557,12.477236990475653,-13.888932172870636
1761383459314657000,3.467656982421875,7.587019309329986,12.233166368305682,-16.487001039624214
1761383459324726800,3.477726806640625,8.946073619383572,11.815582761269807,-17.327929301440715
1761383459334796000,3.487796142578125,9.043099576896429,11.783574342590569,-16.694999646937845
1761383459344865800,3.49786572265625,7.765305499947071,11.587879921054839,-14.977905805706976
1761383459354935000,3.50793505859375,6.30174335219264,10.83367132679224,-12.825947552293538
1761383459365004800,3.5180048828125,5.296567946505546,9.69305284691453,-10.564336499506235
1761383459375073800,3.52807373046875,4.691977082258463,8.499313017702102,-8.488636725386977
1761383459385143800,3.538143798828125,4.260876991045475,7.576372243109345,-6.601054215547442
1761383459395212800,3.548212890625,3.718658119559288,6.843723154225945,-4.7512885184049605
1761383459405283000,3.558282958984375,3.275274885356426,6.361488503581285,-2.8861291450366378
1761383459415351800,3.568351806640625,2.621746679461002,6.313892055147886,-0.7589402258943766
1761383459425422000,3.578422119140625,1.3655489327698944,6.46485593907535,1.9184560792699454
1761383459435490800,3.58849072265625,0.002021276694536209,5.792853334334493,5.546022599801421
1761383459445560800,3.598560791015625,-0.9890963775455951,3.8254455926299094,10.037398199260235
1761383459455629800,3.6086298828125,-2.4277334890104827,0.8685966054648161,14.846948352497815
1761383459465699800,3.618699951171875,-4.468056098669767,-1.8028221596598624,19.39313632311821
1761383459475768800,3.628768798828125,-6.741397336739301,-3.2677135101914403,22.444286811268327
1761383459485838800,3.6388388671875,-8.343883971059322,-4.8252235231876375,23.739584980726242
1761383459495907800,3.648907958984375,-8.389073358350991,-5.026440507537126,23.525939891958235
1761383459505977900,3.658977783203125,-7.60939188465774,-3.7371354410141704,21.78707611746788
1761383459516046800,3.669046875,-5.899906764864921,-1.9405869547963142,19.359845463413
1761383459526116900,3.679116943359375,-3.6364532990813254,0.43737434917688367,16.491940249592066
1761383459536185900,3.689185791015625,-1.7987969957970082,2.560706812086701,13.205483460485935
1761383459546256000,3.699255859375,-0.5894529163479805,4.332916975861788,9.675435357159376
1761383459556324900,3.709324951171875,0.24018355160355567,6.152929339775443,5.538180069607496
1761383459566395000,3.719394775390625,1.3160966273367405,8.049079771474004,0.8577461256265639
1761383459576464000,3.7294638671875,3.345437970384955,9.488860061624646,-4.207589052972197
1761383459586534000,3.739533935546875,5.836394954419136,10.317388860595226,-8.812464774882793
1761383459596603000,3.749602783203125,8.22180189822316,9.871920052289962,-12.286855872917174
1761383459606672600,3.759672607421875,9.54987537907958,8.766250136196613,-14.494803140056133
1761383459616743000,3.769742919921875,8.999590105515718,8.73333687763214,-15.875539705085753
1761383459626811600,3.779811767578125,7.535868967807293,8.917941749876737,-16.39892294319868
1761383459636882000,3.7898818359375,6.182565768626332,8.787820747491716,-16.108331392872334
1761383459646951000,3.799950927734375,5.147423679220676,8.401803660586475,-14.736124171257018
1761383459657021000,3.81002099609375,4.868731825524568,7.70879684626162,-12.765080118876694
1761383459667090000,3.82008984375,4.267445263519883,7.5356234686136245,-10.354394941431284
1761383459677159700,3.83015966796875,3.702825175133347,7.119384261924028,-8.089233502686023
1761383459687229000,3.84022900390625,3.128447078320384,6.759265001863241,-6.083285310184955
1761383459697298700,3.850298583984375,2.4690567023932934,6.652750500515103,-4.254172232709824
1761383459707368400,3.860368408203125,1.2848944104738533,6.339896849498152,-2.2807561905011533
1761383459717438500,3.8704384765625,-0.49342400704845785,5.64143878403008,0.1729024517521262
1761383459727507500,3.880507568359375,-2.3601297330759463,4.424868698850274,3.4154294982388613
1761383459737577500,3.890577392578125,-4.391224203401804,2.590973355534673,7.743718522039055
1761383459747646200,3.900646240234375,-5.592953277802467,0.5901771389693021,12.483539305490254
1761383459757716500,3.910716552734375,-5.291950223577023,-0.4452367531150579,16.600595854622124
1761383459767785200,3.92078515625,-5.3236459230452775,-1.0425357067883014,20.089238765370844
1761383459777855500,3.93085546875,-4.7543917451173066,-2.3795593868196008,22.21151382818222
1761383459787924200,3.94092431640625,-3.770933665719628,-2.4133102652519938,22.65987952697277
1761383459797994500,3.950994384765625,-3.545605737942457,-1.0031780943900346,21.827090147948265
1761383459808063200,3.961063232421875,-3.249869225943088,1.0505027401447296,20.352369477319716
1761383459818133200,3.97113330078125,-2.0667226869374513,3.05469327532351,18.58177902370095
1761383459828202200,3.9812021484375,-0.5403555618323386,4.499132204934955,16.28487453921437
1761383459838272300,3.991272216796875,0.6577022036444395,5.481629914867877,13.593147730076312
1761383459848341500,4.001341552734375,1.3374416131824254,6.026289165243506,10.535284592545032
1761383459858411300,4.011411376953125,1.3648796552062035,6.758582864817977,7.074478367748856
1761383459868480500,4.02148046875,0.6463911936223506,7.907374714279174,2.7919395799934863
1761383459878550300,4.03155029296875,0.08340893557071685,9.206391027477384,-2.291878180757165
1761383459888619500,4.04161962890625,0.7081120289981365,10.513546223467587,-7.439338684856891
1761383459898689300,4.051689208984375,2.884192331755161,11.743821008872985,-11.919750407230854
1761383459908758500,4.061758544921875,5.655735604929924,12.312810982906818,-15.501665475916862
1761383459918828300,4.071828369140625,7.8768837144255635,11.999478023940323,-17.970143501639367
1761383459928897300,4.081897216796875,8.62190596266985,12.374045496070384,-18.8627809079051
1761383459938967600,4.091967529296875,9.321190542089939,11.733748527669906,-18.792687380981445
1761383459949036300,4.102036376953125,8.394834406095743,10.73478658967018,-17.057357625836133
1761383459959106600,4.1121064453125,7.176792494797706,10.307136346650124,-14.870368975573777
1761383459969175300,4.12217529296875,6.247523101705313,10.030533574187755,-12.31782267358899
1761383459979245300,4.132245361328125,5.458579878669977,9.28735549250543,-9.578508768367767
1761383459989314300,4.142314208984375,4.723241989094019,8.533834880506992,-6.987087084543704
1761383459999384300,4.15238427734375,4.027324255758524,8.352882101029158,-4.435456728360057
1761383460009453300,4.162453369140625,3.1927234433978793,8.648854175350069,-1.7832012211278079
1761383460019523300,4.1725234375,1.8774293646156788,9.325847427985071,1.0555175726320594
1761383460029592300,4.18259228515625,-0.30495087853576985,9.577818448016046,4.52131481064856
1761383460039662300,4.192662353515625,-2.323478603157401,8.435565644934773,8.691606690883637
1761383460049731300,4.2027314453125,-3.436118358263373,6.523105883470177,13.359585642439127
1761383460059801300,4.21280126953125,-3.84424381660223,4.627157696345448,17.990709319806097
1761383460069870600,4.22287060546875,-4.025613944709301,2.1075041946589947,22.07019513995647
1761383460079940400,4.2329404296875,-3.457819902461767,-0.7547329103976488,24.90421211270094
1761383460090009300,4.24300927734375,-2.7299446038514374,-2.5236639063715933,26.250679328382013
1761383460100079400,4.253079345703125,-2.310585803836584,-2.741197234749794,25.96321613920927
1761383460110148400,4.2631484375,-2.3477450294077395,-1.0156687426507471,24.365084192967412
1761383460120218400,4.27321826171875,-2.4507589752890167,1.6589263144224882,21.92758115122318
1761383460130287400,4.283287353515625,-1.6864900286525486,4.001051750382781,19.080101470315455
1761383460140357400,4.293357421875,-0.5435889907956123,5.570757812607288,16.001741488200427
1761383460150426400,4.30342626953125,0.2789063732296228,7.033374203944206,12.65635904739499
1761383460160496400,4.313496337890625,0.5286778373897075,8.647777486029266,8.969019610685109
1761383460170565400,4.3235654296875,0.13902085961215196,10.208455023145675,4.377072343930601
1761383460180635400,4.333635498046875,-0.056760034630633886,12.125371179497241,-1.0515490343272684
1761383460190704400,4.343704345703125,1.674025683876872,13.729866231030226,-6.780999279287457
1761383460200774400,4.3537744140625,5.853987894254923,14.223162958437204,-12.220412100672721
1761383460210843400,4.363843505859375,10.467317556256056,14.095057972049712,-16.890265029406546
1761383460220913400,4.373913330078125,13.351201260453461,13.326015381270647,-20.110592519044875
1761383460230982400,4.383982421875,13.05867844980359,12.892573695367574,-21.550550503849983
1761383460241052400,4.394052490234375,12.86143621430397,12.320615519177913,-21.330863796830176
1761383460251122400,4.404122314453125,10.327215842604636,10.814019700860976,-19.221333649301528
1761383460261191400,4.41419140625,7.829028907316923,10.65619645255804,-16.2857571672678
1761383460271261400,4.424261474609375,5.411726357558369,10.60244849575758,-13.039756307190656
1761383460281330400,4.434330322265625,3.6936201244145628,9.604161680540441,-9.900455241900682
1761383460291400400,4.444400390625,2.6074545347362754,8.843990963003039,-6.88623601578474
1761383460301469400,4.454469482421875,1.6728624853163956,8.434182666143775,-3.917088688060641
1761383460311539500,4.46453955078125,0.5028127437710762,8.069632145637273,-0.9181192727204411
1761383460321608200,4.474608154296875,-1.535744755911827,7.625734532171488,2.3911712064191697
1761383460331678500,4.484678466796875,-4.061297837030887,6.343736573791504,6.3353720655500885
1761383460341747200,4.494747314453125,-6.0114241890668865,4.631372099170089,10.759534077435731
1761383460351817500,4.5048173828125,-6.429380721068382,3.7722687137156723,15.117428842687605
1761383460361886200,4.51488623046875,-6.459642588341236,2.484139120712876,19.88735659511089
1761383460371956200,4.524956298828125,-6.3028258867323395,-0.27556173897683617,23.33708554557562
1761383460382025500,4.535025390625,-5.578170134690404,-2.0375269875913857,25.43580905240774
1761383460392095200,4.54509521484375,-5.366677255520225,-3.133200410327315,26.428238373768327
1761383460402164500,4.55516455078125,-4.918220955836772,-2.468637600198388,26.15706464061737
1761383460412234200,4.565234130859375,-3.993666024045646,0.029770868885517117,24.788439369142054
1761383460422303500,4.575303466796875,-2.702082198935747,2.738419586730003,22.699743919849393
1761383460432373200,4.585373291015625,-0.9572329202950001,5.076959565418958,20.04467247841358
1761383460442442500,4.5954423828125,0.8284995728760958,6.963341467297076,17.087412572360037
1761383460452512300,4.60551220703125,2.2569686338089405,8.454867142254114,13.982681300669908
1761383460462581500,4.61558154296875,2.8086750262171027,9.933216524773835,10.575170028209685
1761383460472651300,4.6256513671875,2.2739245909154415,11.524527100563049,6.089364922359586
1761383460482720300,4.63572021484375,1.038791844084859,13.155753507155179,0.4594271910309791
1761383460492790500,4.64579052734375,0.6877332578361034,14.62380945919752,-5.735515828609466
1761383460502859300,4.655859375,2.369585105293989,15.553560498327016,-11.188149950617552
1761383460512929500,4.665929443359375,5.553833565813303,14.931540360373258,-14.928043750429152
1761383460522998300,4.675998291015625,8.910360500967503,13.975864606392383,-17.45728867180347
1761383460533068500,4.686068603515625,10.98667694568038,14.004735311567783,-18.93579704427719
1761383460543137300,4.69613720703125,11.623645646440982,14.07728850660324,-19.049742572408913
1761383460553207300,4.706207275390625,11.585483381307125,13.314848675090074,-17.992361178666354
1761383460563276300,4.7162763671875,10.557549031323195,12.558504237842559,-16.054548364758492
1761383460573346300,4.72634619140625,9.075089290875196,11.792427511131763,-13.88001003074646
1761383460583415300,4.736415283203125,7.6270695801675314,10.629343516945838,-11.433714610737562
1761383460593485300,4.7464853515625,6.215650292104482,9.090188660329579,-8.815918130207061
1761383460603554300,4.75655419921875,4.882257662051916,7.7326301417917005,-6.214639653757215
1761383460613624300,4.766624267578125,3.655408174920082,7.510443434649705,-3.6939886654660103
1761383460623693600,4.776693603515625,2.2600557861693202,8.076773834085463,-1.1494485598042607
1761383460633763300,4.786763427734375,0.9853129134841263,8.530302614727615,1.6376615542061626
1761383460643832300,4.796832275390625,-0.9278396525502204,8.420553953763843,5.225191978555918
1761383460653902300,4.80690234375,-3.5412203624650833,7.492117504364252,9.72576269186139
1761383460663971300,4.816971435546875,-5.746147112739086,5.881487311077118,14.582245276665686
1761383460674041300,4.827041259765625,-7.393594001770019,3.5876457212924957,19.83985834635496
1761383460684110300,4.8371103515625,-7.9900974211513995,-0.29402386286258697,24.149339501571653
1761383460694180400,4.847180419921875,-7.165207270944118,-2.9272938068568704,26.899339635980127
1761383460704249300,4.857249267578125,-6.16255875338614,-4.073065431714058,27.841904563975334
1761383460714319600,4.867319580078125,-4.960746092355251,-3.9440281329125164,26.907085720062256
1761383460724388600,4.877388671875,-3.5543969471633434,-1.2517290768444538,24.793487300181386
1761383460734458600,4.887458740234375,-2.3343992256224153,1.9802473495334385,22.164674920117854
1761383460744527600,4.897527587890625,-1.1065455298840998,4.283935795071721,19.429414089679717
1761383460754597600,4.90759765625,0.03280921366810798,6.154622699689865,16.357805335390566
1761383460764666600,4.91766650390625,0.558683099552989,8.00928727478981,12.758247057986258
1761383460774736600,4.927736572265625,0.332254517057538,10.04904304434657,8.02799314430356
1761383460784805600,4.9378056640625,-0.20336393325030802,12.422722140955925,2.0276146653860807
1761383460794875600,4.947875732421875,0.37808980103731155,14.564733000850676,-4.4394151105970145
1761383460804945700,4.957945556640625,3.099893768531084,16.090383063727618,-10.363304224073886
1761383460815014700,4.9680146484375,6.7248390006482595,16.577838079369066,-15.32622590690255
1761383460825084700,4.978084716796875,8.988605770164728,16.997510767638683,-18.16743366793394
1761383460835153700,4.988153564453125,10.995535959440469,16.86284160043001,-19.85864020371437
1761383460845223700,4.9982236328125,12.92967563779354,15.012431175643204,-19.7529492937088
1761383460855292700,5.008292724609375,13.283891226768493,12.590385230749845,-18.266236571991442
1761383460865362700,5.01836279296875,13.37095342414975,11.276874528253078,-15.999530826413631
1761383460875431400,5.028431396484375,11.523133600378037,11.714819370794295,-13.151775251173973
1761383460885501700,5.038501708984375,8.869232371765374,11.675041487157344,-10.273056382393836
1761383460895570400,5.0485703125,6.389153924620151,10.45854388269186,-7.300829793354868
1761383460905640700,5.058640625,4.570567209595442,9.025324850752948,-4.378294871462881
1761383460915709400,5.06870947265625,2.8137562750041485,8.39672358084321,-1.5309763724662362
1761383460925779500,5.078779541015625,0.8975240092635154,8.648398248276115,1.3104514610566198
1761383460935848700,5.0888486328125,-1.4780407549619674,9.044429364195466,4.470689369782805
1761383460945918500,5.09891845703125,-4.220803923854231,8.308253854751586,8.353860006150603
1761383460955987700,5.10898779296875,-6.334646673884987,6.149883396208286,12.779510795289278
1761383460966057500,5.119057373046875,-6.717516110414266,4.050098982146382,16.670945402133462
1761383460976126700,5.129126708984375,-6.7714119512528175,1.981431006360054,20.554183843040466
1761383460986196500,5.139196533203125,-5.9008016678780315,-0.21018179657161234,23.934062427687643
1761383460996265700,5.149265625,-5.05918308570981,-1.674946890375018,25.91461197503805
1761383461006335500,5.15933544921875,-4.265204791116714,-2.397452186384797,26.20251238658428
1761383461016404700,5.16940478515625,-3.9706092658460137,-2.4612802231729027,25.481717401623726
1761383461026474800,5.179474853515625,-3.3844758493095632,-0.5718301658958196,23.89784778949022
1761383461036543500,5.18954345703125,-2.688682619136572,2.0939345189899203,21.57878992538452
1761383461046613800,5.19961376953125,-1.6934195356547832,4.340161540162563,18.71205609343052
1761383461056682500,5.2096826171875,-0.7967600342661142,6.2756941341787575,15.342746833592653
1761383461066752800,5.219752685546875,-0.7259054598420858,8.166587376001477,11.30963931825757
1761383461076821500,5.229821533203125,-1.2842594735711812,9.946351900678872,6.485068121498823
1761383461086891800,5.239891845703125,-1.6600152787029743,11.47763675457239,0.8918073851823807
1761383461096960500,5.24996044921875,-0.3728711896061897,13.11487321523428,-4.969310507082938
1761383461107030500,5.260030517578125,2.483281627100706,14.535247378647327,-10.829998191237449
1761383461117099500,5.270099609375,5.504302349925041,16.013344247710705,-16.664506308996675
1761383461127169500,5.28016943359375,8.543881642746925,16.16096408190727,-21.564125440216063
1761383461137238500,5.290238525390625,10.748353342729807,14.565729026150702,-24.289636445534228
1761383461147308500,5.30030859375,11.164176369833946,13.355132754683494,-24.582315908050536
1761383461157377800,5.310377685546875,10.190955606812238,12.09432254576087,-22.788065177381036
1761383461167447600,5.320447509765625,8.455597794616223,11.139769073808193,-19.82493667155504
1761383461177516800,5.330516845703125,6.9242381219208236,10.490538272845745,-16.42234356627464
1761383461187586600,5.340586669921875,5.51521420456171,9.474380869895219,-12.988471525633335
1761383461197655600,5.350655517578125,4.132361670291424,8.557779819718002,-9.771113991716504
1761383461207725600,5.3607255859375,2.627168119987845,8.210603627860545,-6.7902955154210325
1761383461217794600,5.370794677734375,1.1933744299661369,8.737095937904716,-3.893126505453884
1761383461227864600,5.380864501953125,-0.15401223864741623,9.520348840343951,-0.6861126708969474
1761383461237934600,5.3909345703125,-1.9882517922908067,9.444888817951083,3.36497444550395
1761383461248003800,5.40100390625,-3.8510365454822777,7.99485133768022,8.59486188839972
1761383461258072600,5.411072509765625,-5.180545612099767,5.79787496188879,14.485416887551546
1761383461268142600,5.421142578125,-5.230003178229928,3.6050749949991703,19.618509259080884
1761383461278212600,5.431212646484375,-4.052153576588631,0.8872545441836118,23.503365656578538
1761383461288281600,5.441281494140625,-3.4107781653016804,-0.20980185734331608,26.177586035120484
1761383461298351600,5.4513515625,-0.9570008651047944,-0.7255272741794586,26.94271349828243
1761383461308420600,5.461420654296875,0.9166174167901276,0.034977789878845214,26.742624641180036
1761383461318490600,5.47149072265625,2.1552958734035492,2.719176541599631,25.2467349257946
1761383461328559600,5.4815595703125,2.609454184120893,6.0016696877717965,22.90661790704727
1761383461338629600,5.491629638671875,2.8929794493228194,8.847862251478434,20.12100869911909
1761383461348698600,5.50169873046875,3.446314758107066,10.558104327118397,17.13239036272764
1761383461358768600,5.5117685546875,3.9342514197856184,11.562406457102298,13.937123664587736
1761383461368837600,5.521837646484375,3.4237755940407513,11.935602640879154,10.070181693965196
1761383461378907600,5.53190771484375,2.0158038160830736,11.677134075522423,5.677424289646744
1761383461388976600,5.5419765625,0.13709485998563467,10.898733289289474,0.907144362784922
1761383461399046700,5.552046630859375,-1.4746020126849413,10.231078358364105,-3.9057472098350523
1761383461409115600,5.56211572265625,-2.5727163988322017,9.474255197688937,-8.51695914902985
1761383461419185700,5.572185546875,-3.0664544402658938,9.324200245299934,-12.688628162837027
1761383461429254700,5.582254638671875,-2.365599835050106,10.022849449425935,-16.109577593541143
1761383461439324700,5.59232470703125,-0.10333240071330219,10.61703114786148,-18.760996942210195
1761383461449393400,5.602393310546875,2.534526076647639,11.450643533706664,-20.87083805538416
1761383461459463700,5.612463623046875,4.7639971933305265,12.227003169500827,-22.3346375190258
1761383461469532700,5.62253271484375,6.723224551188945,11.885219192075729,-22.839947340309617
1761383461479602700,5.632602783203125,7.892877402371168,11.169745694398879,-22.314113786435126
1761383461489671700,5.642671630859375,8.084615779757499,10.245158321642876,-20.584232944345473
1761383461499741400,5.652741455078125,7.329456752902269,9.927011240392924,-17.76231323662996
1761383461509810700,5.662810791015625,5.851956096166372,10.083121839559078,-14.240136305069923
1761383461519880400,5.67288037109375,4.205220570275187,10.270505528867243,-10.414363380181788
1761383461529949700,5.68294970703125,2.547203187391162,10.651593927198649,-6.380064609235525
1761383461540019500,5.69301953125,1.1352280190110207,11.375607289683819,-2.422361586713791
1761383461550088700,5.703088623046875,-0.37784780897498127,12.409509608161448,1.6403662831202148
1761383461560158700,5.71315869140625,-2.478864979702234,12.33529637095928,6.716058312821388
1761383461570227700,5.723227783203125,-3.941132411471009,10.24042837051153,13.022675408530235
1761383461580297700,5.733297607421875,-3.985935429793596,7.166817628750205,19.38283938550949
1761383461590366700,5.74336669921875,-3.1302853996634483,3.2959868339955807,25.348822842872142
1761383461600436700,5.753436767578125,-1.1022586463451385,-0.5771463924825191,29.441329472637175
1761383461610505500,5.76350537109375,0.5728314518928528,-2.2067828995347023,31.14983551826477
1761383461620575700,5.77357568359375,1.3897042998611926,-1.4568243639320135,30.68464260331392
1761383461630644500,5.78364453125,1.7048931158274412,1.6767232523977755,28.5365316729784
1761383461640714800,5.79371484375,1.8519155686527489,5.548107004860043,25.507041227972508
1761383461650783500,5.803783447265625,2.324099365404248,8.645894156500697,22.07027931110859
1761383461660853500,5.813853515625,2.717360432088375,10.854794778841732,18.37610798255205
1761383461670922500,5.823922607421875,2.7773826468527316,11.997442718720436,14.417126026135682
1761383461680992500,5.833992431640625,2.2547651324152946,12.210407424008846,10.096848751616477
1761383461691061500,5.8440615234375,1.0996721369832754,12.054667411720752,5.191476755958795
1761383461701131500,5.854131591796875,-0.06538867370095104,11.876073762589693,-0.08800620023310184
1761383461711200300,5.8642001953125,-0.32421379741039125,11.621632553052901,-5.338937015679479
1761383461721270300,5.874270263671875,0.43053310497999187,11.937034719508885,-10.70500169225931
1761383461731340300,5.88434033203125,2.0821382827341557,12.718268098819255,-15.737223121285437
1761383461741409300,5.8944091796875,4.099187714964152,13.107993392592668,-19.735647445774077
1761383461751479000,5.90447900390625,6.143895553970337,13.197296646898984,-22.53982808318138
1761383461761548300,5.91454833984375,7.140374442982673,12.942909213376044,-23.702928443980216
1761383461771618000,5.9246181640625,7.493182503247261,11.928628125691413,-23.0809059679389
1761383461781687300,5.934687255859375,7.24433633723855,10.976391698509454,-20.868829638171196
1761383461791757300,5.94475732421875,6.6453709116578095,10.321433752071856,-17.86491319488287
1761383461801826300,5.954826416015625,5.672848652294277,9.73171254017651,-14.638546425080298
1761383461811896300,5.964896240234375,4.501334683415293,9.039540423110127,-11.488127753448486
1761383461821965300,5.97496533203125,3.274448371404409,8.534543321037292,-8.488841892570257
1761383461832035300,5.985035400390625,2.1136627172887326,8.679801102277636,-5.5306794847190375
1761383461842104300,5.995104248046875,1.0016337875574826,9.515901213285327,-2.3001279765777287
1761383461852174300,6.00517431640625,-0.24016543142497537,10.123735589498281,1.3611055434949695
1761383461862243000,6.0152431640625,-1.8205390181362628,9.81050784447193,5.77081393648386
1761383461872313300,6.025313232421875,-3.358554641589522,8.206395654776692,11.627515181350708
1761383461882382000,6.035382080078125,-3.9282805286824702,5.399180764240026,17.533318603038786
1761383461892452400,6.045452392578125,-4.128135577028989,2.834999554041028,22.215479224681854
1761383461902521000,6.05552099609375,-3.8179163661688564,0.05855623386502266,25.592103191447258
1761383461912591000,6.065591064453125,-2.6664877384632826,-1.9765666151940822,27.17011355615854
1761383461922660400,6.075660400390625,-1.616449839351326,-1.9654431636333465,27.294787399053572
1761383461932730000,6.085730224609375,-0.37081717968583106,-0.08975625877082348,26.22968564019203
1761383461942799400,6.09579931640625,0.3996499640036374,2.5161674131363627,24.295455945467946
1761383461952869000,6.105869140625,0.856026462227106,4.813175942519307,21.684939100551603
1761383461962938400,6.1159384765625,1.0254390260368584,6.644263242676853,18.667614894157648
1761383461973008100,6.126008056640625,1.1383289076358079,7.742121023714542,15.49627618409395
1761383461983077400,6.136077392578125,0.6625555619597434,8.500083417552709,12.065105803626775
1761383461993147100,6.146147216796875,-0.48058118434920905,9.300288623836636,8.145179261791705
1761383462003216400,6.15621630859375,-1.8713548670075832,9.874522343742846,3.8288665069893
1761383462013286400,6.166286376953125,-2.6813684967309235,10.35104329291582,-0.7229483636021614
1761383462023355100,6.176355224609375,-2.1486492749959227,11.314924565184116,-4.981334706875682
1761383462033425400,6.18642529296875,0.20940261062635107,12.300320919167994,-9.335497884383797
1761383462043494100,6.196494140625,3.381071009302139,14.26985222889781,-14.24284381046295
1761383462053564400,6.206564453125,6.419909128367901,16.04701270855665,-19.028595739483833
1761383462063633200,6.216633056640625,9.561161327725648,15.575995617496966,-22.42456971888542
1761383462073703200,6.226703125,11.657056917655467,14.037204333496092,-23.47481059322357
1761383462083772200,6.236772216796875,11.874944466298818,12.65194006190896,-22.133753712153432
1761383462093842200,6.24684228515625,10.564016181510686,11.59580369979143,-19.045119004261494
1761383462103911200,6.2569111328125,8.334974688416718,11.407221740609407,-15.394050319850443
1761383462113981200,6.266981201171875,6.091698918265104,10.801524960947036,-11.797180843138694
1761383462124050200,6.27705029296875,4.207016806042194,9.72201415298283,-8.500964876562357
1761383462134120200,6.2871201171875,2.634085936552286,9.121416742286085,-5.567200412386655
1761383462144189200,6.297189208984375,1.2881179025650025,9.109819243472813,-2.9151246456354856
1761383462154259200,6.30725927734375,0.022155644641444084,9.18390447038114,-0.3689828769307583
1761383462164328400,6.317328369140625,-1.9261790747374294,8.72639801827967,2.4414723837666212
1761383462174398200,6.327398193359375,-4.6265766815871,7.087623096004128,6.043348436594009
1761383462184468200,6.33746826171875,-6.886157105329632,4.872797759789228,9.928324076557159
1761383462194537200,6.347537109375,-8.452587506884337,3.6788469181746244,13.176053952383993
1761383462204607200,6.357607177734375,-6.886590820571779,3.556163956835866,15.471978778183459
1761383462214676200,6.36767626953125,-4.399762314644455,3.1180916885226964,18.926390918028353
1761383462224745200,6.3777451171875,-4.0979245631605385,1.8449428070306777,22.020174094724656
1761383462234815200,6.387815185546875,-1.6916344058036803,0.1995312232196331,23.083096755981444
1761383462244885200,6.39788525390625,-0.5733037455797195,-0.2904074259310961,23.39545590147972
1761383462254954200,6.407954345703125,-0.06629298386322334,-0.19684534513652324,22.708689442849156
1761383462265024300,6.418024169921875,0.57218033104036,1.2609656917452812,21.224073985671996
1761383462275093200,6.42809326171875,1.599571039134264,3.3247453109681606,19.155302549511195
1761383462285163300,6.438163330078125,2.131172655016184,4.988870363077521,16.701989359694718
1761383462295232300,6.448232177734375,2.148848596960306,6.429184321713447,13.936486535727976
1761383462305302000,6.458302001953125,1.4051613967120646,7.804578941193222,10.90866197810769
1761383462315371300,6.468371337890625,0.4315688777685165,8.781148430120945,7.697027498012781
1761383462325441000,6.47844091796875,-0.5228724025139585,9.822815537381171,3.8996497697427865
1761383462335510300,6.48851025390625,-1.1883340977113692,11.108270358216762,-0.9029396045714616
1761383462345580300,6.498580322265625,-1.145664072829485,12.403077529287337,-6.028610886189341
1761383462355649300,6.508649169921875,0.35063590385727583,13.805506870687006,-10.961714353859424
1761383462365719300,6.51871923828125,3.042064679896831,15.246640913534163,-15.580494097959994
1761383462375788300,6.528788330078125,6.13303396821618,15.365471875619887,-19.44020787089467
1761383462385858300,6.5388583984375,8.64872265792489,14.73679286429882,-21.810456993055343
1761383462395927300,6.54892724609375,9.692613286453485,13.912504771637916,-22.239425917458533
1761383462405997300,6.558997314453125,9.484206682860851,12.98435999866128,-20.723073259758948
1761383462416066000,6.569066162109375,8.396587971764802,12.260500949954986,-17.775286115449667
1761383462426136300,6.57913623046875,6.979378409862518,11.339492020207643,-14.258403783166408
1761383462436205000,6.589205078125,5.545791713654995,10.182898557084798,-10.817120004963874
1761383462446275300,6.599275390625,4.230899201411009,9.059449238672851,-7.718684034025669
1761383462456344000,6.609343994140625,3.1941935159504413,8.521647599107027,-5.0858910598933695
1761383462466414300,6.619414306640625,2.28299169446826,8.834750840970873,-2.678935716626048
1761383462476483300,6.6294833984375,1.3169991291344165,9.38025297191143,-0.20698380424790083
1761383462486553000,6.639552978515625,0.010241408029198646,9.54216962700784,2.6477836225152016
1761383462496622300,6.649622314453125,-2.1904753233343364,8.956553512343763,6.302006387042999
1761383462506692000,6.659692138671875,-4.563269453802705,7.110979421672225,10.911494571185111
1761383462516761300,6.66976123046875,-6.5691995261251925,4.95149837153852,16.320470753252504
1761383462526831000,6.6798310546875,-7.807171880295872,3.1403672332167623,21.530618307411668
1761383462536900400,6.689900390625,-7.4546490667134515,1.440925953054428,25.043971296525
1761383462546970000,6.69997021484375,-6.625297260922193,-0.13269991296231745,26.803262942016122
1761383462557039400,6.710039306640625,-5.605010795342922,-0.6066828680902719,26.73322085301876
1761383462567109400,6.720109375,-4.121003240931034,0.6176379773467778,25.552580159354207
1761383462577178000,6.73017822265625,-2.4501035801202056,2.8453794937580823,23.63907994892597
1761383462587248400,6.740248291015625,-0.8053641964823007,4.887660397878289,21.15578546234369
1761383462597317000,6.750317138671875,0.48834001831505447,6.344237509050965,18.319594068169593
1761383462607387400,6.760387451171875,1.143746841031313,7.616538833802938,15.293247181886434
1761383462617456000,6.7704560546875,1.0023878207951784,8.752459511253237,12.211292390149831
1761383462627526400,6.7805263671875,-0.31113807927072046,9.783128254637122,8.890248271787167
1761383462637595100,6.79059521484375,-2.6380092474758623,10.750704289770125,4.575974329335987
1761383462647665200,6.8006650390625,-4.488241393086314,11.28134728975296,-0.4665995668783784
1761383462657734100,6.810734130859375,-3.8995617991983886,11.482000795000792,-5.229632006829977
1761383462667804200,6.82080419921875,-0.7632522438745946,12.362857747101783,-9.752231012070178
1761383462677873200,6.830873046875,3.538571601521969,14.137089772093296,-14.47145733578205
1761383462687943200,6.840943115234375,7.869996877521276,16.186594197726247,-19.210335285425185
1761383462698013200,6.85101318359375,11.178978802168368,16.189561230838297,-22.82220827000141
1761383462708082200,6.861082275390625,12.88463705714941,14.433110361731051,-24.100480485856533
1761383462718155800,6.87115576171875,13.04196696897745,13.280755851352215,-22.890293379712105
1761383462728224800,6.881224853515625,11.354052460479735,12.814742267668246,-19.915507169318197
1761383462738294800,6.891294677734375,8.721402109688519,12.441103016299008,-16.426341696000097
1761383462748364000,6.901364013671875,6.490394284957647,11.444282766503095,-12.91757369658947
1761383462758433800,6.911433837890625,4.975077400046587,9.903549700784682,-9.653774729493259
1761383462768503000,6.9215029296875,3.9293800143569704,8.59327549599111,-6.832432529404759
1761383462778572800,6.93157275390625,3.0169600492566824,8.159162194436789,-4.321332336530089
1761383462788642000,6.94164208984375,2.218251219010353,8.209325278487801,-1.946883424592018
1761383462798711800,6.9517119140625,0.8832067300975323,8.176002854600549,0.6585775251742452
1761383462808780800,6.96178076171875,-1.5213224089361725,7.750392008453607,4.064318646156788
1761383462818850800,6.971850830078125,-4.138209811797738,6.56411243211925,8.514708155232668
1761383462828919800,6.981919921875,-6.217254804691672,4.816261049053073,13.69332075344324
1761383462838990000,6.991989990234375,-7.960372729495167,3.1618127568274734,19.124371989196536
1761383462849058800,7.002058837890625,-9.288291312050818,0.6731897686988115,23.701717314624783
1761383462859128800,7.01212890625,-8.713744872933626,-2.248391505730152,26.353569209492203
1761383462869197800,7.02219775390625,-7.3540814910709855,-3.28425664871335,27.040747171533106
1761383462879267800,7.032267822265625,-6.051106795635819,-2.3635943404465913,25.859713679158688
1761383462889336800,7.0423369140625,-4.590474856114387,-0.3292044818371534,23.59071894586086
1761383462899406800,7.05240673828125,-3.0674189013838764,1.549303325664997,20.889058771729466
1761383462909475800,7.062475830078125,-2.0438053372085094,3.4335178203761574,17.906755609834192
1761383462919545900,7.0725458984375,-1.7562579768836497,5.373841740322113,14.825859971761703
1761383462929614800,7.08261474609375,-2.155581704607606,7.040386128532886,11.848384960675238
1761383462939684900,7.092684814453125,-3.292522957277298,8.552088914600015,8.82053000791669
1761383462949753900,7.10275390625,-5.063721313661337,10.068845476925372,5.041003285896778
1761383462959824000,7.112823974609375,-6.289394742751121,11.52560729701519,0.5796864323541522
1761383462969892900,7.122892822265625,-5.053978502804041,12.669621849071978,-4.1890649697661395
1761383462979963000,7.132962890625,-1.0159738630771635,14.115931248730421,-9.13660846619904
1761383462990032000,7.143031982421875,3.788257433225214,15.345532664918899,-14.09030580908656
1761383463000102000,7.153101806640625,8.362285304668545,15.308643488460778,-18.32814211628437
1761383463010171000,7.1631708984375,12.443289128166436,14.190596905875205,-20.8759818480134
1761383463020241000,7.173240966796875,14.6404110499084,12.809004600799083,-21.228104848623275
1761383463030310000,7.183309814453125,13.957895234459638,12.020119829952716,-19.318743053174018
1761383463040379600,7.193379638671875,11.184688411986826,12.313135977077483,-16.2182051415205
1761383463050449000,7.203448974609375,8.15941938406825,12.241921337169408,-12.746218766540288
1761383463060519000,7.213518798828125,5.737625952631235,11.134255863344668,-9.568813303783536
1761383463070588000,7.223587890625,3.940498205220699,9.933611661571264,-6.997201651322841
1761383463080658000,7.233657958984375,2.687714650887251,8.932543106681107,-4.960865919342637
1761383463090727000,7.243726806640625,2.1588439212739465,8.720807066404818,-3.0695749103739858
1761383463100797000,7.253796875,1.7764859413981438,9.123602269631624,-0.9308711292006074
1761383463110866000,7.263865966796875,0.5524374831616878,8.683615692129731,1.4706180576153098
1761383463120936000,7.27393603515625,-1.846010728523135,6.938638987717032,4.910293085446954
1761383463131005000,7.2840048828125,-5.22932805544734,3.9340070896357298,9.747819040846824
1761383463141075000,7.294074951171875,-8.388242168223858,0.5315905099660158,15.769563548398017
1761383463151143700,7.304143798828125,-10.891190618824957,-2.1209172184616327,22.100141365408895
1761383463161214000,7.3142138671875,-12.361751831686496,-5.522955027946829,26.605287716066837
1761383463171282700,7.32428271484375,-12.714766812700033,-6.130938457241654,28.359444921278953
1761383463181353000,7.33435302734375,-10.726538985806704,-4.861201430019736,27.71644979983568
1761383463191421700,7.344421630859375,-9.0254750728786,-2.774170114547014,25.637237633681295
1761383463201491700,7.35449169921875,-6.283660583013296,0.47126434381902216,22.78942126816511
1761383463211561000,7.36456103515625,-3.6866537925332783,3.683071257871389,19.586952091300486
1761383463221630700,7.374630615234375,-1.6519073755711315,6.479978104883432,16.0988457716465
1761383463231701000,7.384700927734375,-0.11417111704852431,8.611257142883538,12.51197161924839
1761383463241769700,7.394769775390625,0.6502524721603841,10.142598110878467,8.539844934576749
1761383463251840000,7.404840087890625,0.7786473083399236,11.434571519827841,3.835940390898287
1761383463261908700,7.41490869140625,1.1297251838110387,12.414828757357597,-1.5084265408754347
1761383463271978800,7.424978759765625,3.005451397770643,12.919216203099488,-7.302776251247525
1761383463282047700,7.4350478515625,6.219453191518784,13.428494928014278,-12.762965318679809
1761383463292117800,7.44511767578125,9.396118065041303,14.013814105558394,-16.916633980894087
1761383463302187000,7.45518701171875,12.047946579033136,14.23982300133705,-19.1769579164803
1761383463312256800,7.4652568359375,13.65361651956439,13.606677073734998,-19.012026881998775
1761383463322326000,7.475325927734375,12.810681009578705,12.81342943150401,-17.049860548079014
1761383463332395800,7.485395751953125,9.611798459029197,12.372621600747108,-14.315960484600065
1761383463342465000,7.495465087890625,6.477156033200025,11.426567077070475,-11.698698257076739
1761383463352534800,7.50553466796875,4.229421530073881,10.235560472214221,-9.297791546323895
1761383463362603800,7.515603759765625,3.032420068717003,9.061414401265978,-7.303477092993259
1761383463372673800,7.525673828125,2.4034470428854227,8.070208484220505,-5.464308193188906
1761383463382742800,7.53574267578125,2.1869109088510275,7.229121232450008,-3.6778283887818453
1761383463392813000,7.54581298828125,1.8611235419809817,6.829024766787886,-1.6402676450513303
1761383463402881800,7.5558818359375,0.6318424437880515,6.140514094838499,0.820421115034446
1761383463412952000,7.5659521484375,-1.269454557018727,5.010456171941757,3.989944957695901
1761383463423020800,7.576020751953125,-3.668519585427642,3.301662541544437,8.16997701843977
1761383463433090800,7.5860908203125,-5.897434237271547,1.2797592395424842,13.029891915780306
1761383463443159800,7.596159912109375,-8.280330659559368,-0.622003771340847,18.116729901134967
1761383463453229800,7.606229736328125,-9.147475312650203,-2.7574925359904765,21.55930430366993
1761383463463298800,7.616298828125,-9.068719171321392,-4.986333538076281,22.933905726945397
1761383463473368800,7.626368896484375,-9.048591744571924,-4.33865581177473,22.741322130906582
1761383463483437800,7.636437744140625,-8.774128906747698,-3.183026225247979,21.23736367535591
1761383463493507800,7.6465078125,-8.750171108055115,-1.2091519178777932,18.941870226711032
1761383463503576800,7.656576904296875,-7.867084789466857,0.7442366508245468,16.183415567690133
1761383463513646800,7.666646728515625,-6.1136699270546435,2.864735351613164,13.318017952775955
1761383463523716000,7.676716064453125,-4.15131596160829,5.139776379337906,10.088796378064155
1761383463533785900,7.686785888671875,-1.9400877731025217,6.94751904426515,6.2763487986952065
1761383463543854800,7.696854736328125,0.3420358332943171,8.595208509880305,1.7351441694453358
1761383463553924900,7.7069248046875,2.4484686723947524,10.351104083192348,-3.1512492772370577
1761383463563993900,7.716993896484375,4.4957273649275304,11.678677213311195,-7.73552235610187
1761383463574063900,7.72706396484375,7.286673257708549,12.795067260861396,-11.834351759147644
1761383463584132900,7.7371328125,10.305001672708988,13.38603993412256,-14.743145448195934
1761383463594203000,7.747202880859375,12.22429215697646,12.337302450084685,-15.596867725133896
1761383463604271900,7.75727197265625,14.115388812416791,10.898326462054252,-15.577103870999812
1761383463614342000,7.767341796875,13.950354902082681,9.650169982999563,-13.93717159538269
1761383463624411000,7.777410888671875,12.515132713627814,9.085126700764894,-11.686284181183575
1761383463634481000,7.78748095703125,9.88266707175374,9.423348601794242,-9.354591876432298
1761383463644550000,7.7975498046875,7.48331811183691,8.764531057319045,-7.134339838993549
1761383463654620000,7.807619873046875,5.553101744407415,7.671401473847031,-4.96080337550044
1761383463664689000,7.81768896484375,3.770372524705529,6.86579470078051,-2.7087159378618
1761383463674759000,7.827759033203125,1.801183744803071,5.979845978498458,-0.21374843954462558
1761383463684828700,7.83782861328125,-0.3038245413869619,5.045465526002645,2.6307003857672213
1761383463694898000,7.84789794921875,-3.102550420519709,3.7556846586614845,6.165161629360914
1761383463704966700,7.857966552734375,-5.345855416765809,1.481963481363654,10.231379971659184
1761383463715032800,7.86803271484375,-7.062693821930885,-0.09218786983191966,14.954360094946622
1761383463725101800,7.878101806640625,-8.421333121442794,-1.6945879949122666,19.71192287131548
1761383463735171800,7.888171875,-8.69070302004218,-2.522260469314456,22.09274833254814
1761383463745240600,7.898240478515625,-9.282052125400304,-2.501670101228356,22.472341523885724
1761383463755310800,7.908310791015625,-8.92416515443623,-1.9698235706746576,20.870933916974067
1761383463765380600,7.918380615234375,-6.881191591876745,-0.8974994593441485,18.50026277000904
1761383463775449900,7.928449951171875,-4.07706210013479,1.280164313212037,15.938139661383628
1761383463785519900,7.938519775390625,-1.4578238963633774,3.265472453266382,12.989545876866579
1761383463795588600,7.948588623046875,0.7595002709299326,4.674321598580479,9.685131406265496
1761383463805659000,7.958658935546875,2.697839446799457,5.678295227262377,5.903540152931213
1761383463815727600,7.9687275390625,4.2992187043994665,6.186025553691387,1.6672427457384764
1761383463825798000,7.9787978515625,4.999096573537588,6.317921164533495,-2.9272914687693117
1761383463835866600,7.98886669921875,5.3598915409028525,6.461801812201738,-7.256822893846034
1761383463845937000,7.99893701171875,6.060028937759995,6.396764984145761,-10.70172135541439
1761383463856005600,8.009005615234376,6.870557385137677,6.253292332756519,-13.078614153373241
1761383463866075600,8.01907568359375,7.314617495688796,6.338676367792487,-14.363672668367624
1761383463876144600,8.02914453125,7.206994156315922,6.2942620565265415,-14.698082317632435
1761383463886214700,8.039214599609375,6.368319810906052,5.943562951239943,-14.314524898838997
1761383463896283600,8.04928369140625,4.826997254861891,5.534789258125424,-13.184421967756748
1761383463906353700,8.059353759765624,3.401028632442653,4.827928690493106,-11.464633480614424
1761383463916423000,8.0694228515625,2.16274531262666,3.9370056869298216,-9.293200126880407
1761383463926492700,8.07949267578125,0.5739560720086098,2.7887510130852458,-6.664992726972699
1761383463936562000,8.08956201171875,-0.9337778104275465,1.2987258058190345,-3.682064126655459
1761383463946631700,8.099631591796875,-2.242646532337367,0.30661154175698757,-0.5789865769891068
1761383463956701000,8.109700927734375,-3.476984913919866,0.1553203255712986,2.279888613886386
1761383463966770700,8.119770751953125,-4.139953440594673,0.16103753417432307,4.881883568042516
1761383463976839700,8.129839599609374,-3.775400582000613,-0.4289104722142219,7.346506671902537
1761383463986909700,8.13990966796875,-3.1497721904218197,-1.258390288299322,9.146301592695712
1761383463996978700,8.149978759765625,-2.9928461832195516,-1.6420108354568481,10.156611438661812
1761383464007049000,8.160049072265625,-2.8995202492684125,-2.0339953063338996,10.33871338817477
1761383464017117700,8.17011767578125,-2.799966819104552,-1.964324973258376,9.829574948513507
1761383464027187700,8.180187744140625,-2.3964830490916964,-1.477797009333968,8.788334542232752
1761383464037256700,8.190256591796874,-1.479264743798971,-0.7655956651955843,7.271318452188372
1761383464047326700,8.20032666015625,-0.7242980246454477,0.183270408770442,5.357736993217468
1761383464057395700,8.210395751953126,-0.33956922398507594,0.8425263446629047,3.5778006191045044
1761383464067465700,8.2204658203125,0.18288287075757978,1.2324731722325086,2.0405802376821636
1761383464077534700,8.23053466796875,0.8423638475775718,1.7197838109672068,0.6569347264032811
1761383464087604700,8.240604736328125,1.4943489156842231,2.0506752229779956,-0.5864785401796921
1761383464097673700,8.250673828125,1.9792530777990818,2.116985139709711,-1.6522338310465217
1761383464107743700,8.26074365234375,2.103191592156887,1.9695307252079248,-2.5126526830136773
1761383464117812700,8.270812744140626,1.9162652912274,1.6293068367063999,-3.1028134553700686
1761383464127882800,8.2808828125,1.6080056900024413,1.286682316803932,-3.3205642258912325
1761383464137951700,8.29095166015625,1.2304887204170227,1.1043664322793483,-3.348415232630074
1761383464148021800,8.301021728515625,0.882593566635251,0.9291676862835884,-3.206934047318995
1761383464158090800,8.3110908203125,0.5063502702474594,0.5916349365621805,-2.904474656805396
1761383464168160800,8.321160888671875,0.268102070620656,0.11830372334122657,-2.4613439360588787
1761383464178229800,8.331229736328124,0.04563654653728008,-0.2271329313725233,-1.9578635221593081
1761383464188299800,8.3412998046875,-0.19344225869476794,-0.4120610442221164,-1.474255391204357
1761383464198368800,8.35136865234375,-0.37334406781494617,-0.5069862300634383,-1.051239018530026
1761383464208438500,8.3614384765625,-0.4373135589003563,-0.6033516778409481,-0.6634278147496283
1761383464218507800,8.3715078125,-0.3622445816516876,-0.6257751065731049,-0.33260369582138954
1761383464228577800,8.381577880859375,-0.23099545201957225,-0.5040279647797345,-0.12511051727924496
1761383464238646800,8.391646728515624,-0.008382628419995307,-0.4822375732541084,-0.06991804249258711
1761383464248716800,8.401716796875,0.11262158605158329,-0.4206424100846052,-0.07210884880144149
1761383464258785800,8.411785888671876,0.3244511498302221,-0.26735037547051904,-0.08389760500364936
1761383464268855800,8.421855712890626,0.7618076710894703,-0.03299742971658706,-0.0679029169776244
1761383464278924800,8.4319248046875,1.2058160514533518,0.24827625716626642,-0.1603864681207575
1761383464288994800,8.441994873046875,1.4630699803233145,0.3430634958416223,-0.3732704911220818
1761383464299063800,8.452063720703125,0.8018179021775722,0.8454998075157404,-1.067891097319126
1761383464309133800,8.4621337890625,-0.25471067412793635,1.1961334463506936,-1.8341639311239122
1761383464319202600,8.47220263671875,-0.3311687676474452,0.5923018760383129,-1.7461805272445081
1761383464329272800,8.48227294921875,-0.0192798700094223,0.11110767435729503,-0.9996545964390039
1761383464339342800,8.4923427734375,0.017945406535267827,-0.16525719769597053,-0.2652592484101653
1761383464349411800,8.502411865234375,-0.5021861363053322,-0.38812253475189207,0.10089169303029775
1761383464359481900,8.51248193359375,-1.247442777827382,-0.7374877610862255,0.24329876101464032
1761383464369550600,8.522550537109375,-1.8595728054076432,-1.064310316222906,0.3855491771325469
1761383464379620900,8.532620849609375,-2.23353179025054,-1.352828567406535,0.7023138641133904
1761383464389689600,8.542689697265626,-2.3113202555909753,-1.4854261890381575,1.0955383981794118
1761383464399760000,8.552759765625,-2.23750361649096,-1.4249153139740227,1.3656117688730358
1761383464409828600,8.56282861328125,-1.9715794744312762,-1.2833230695039033,1.5118477474957703
1761383464419898600,8.572898681640625,-1.6327084618434309,-0.8689344591170549,1.4630284792691468
1761383464429967600,8.582967529296875,-1.3411153332591057,-0.5163859265714883,1.3475140943855046
1761383464440037600,8.59303759765625,-0.8880033167243003,-0.22935294550955293,1.1595590349301694
1761383464450106600,8.603106689453124,-0.31741438306123015,0.09757949974238872,0.9281998641647398
1761383464460176600,8.6131767578125,0.17972060733437537,0.30505145283341406,0.6668981212086975
1761383464470246000,8.623245849609376,0.47811377132236954,0.4301806382805109,0.3956397785142064
1761383464480315600,8.633315673828125,0.6894304171428084,0.6224748959839344,0.14834814847111702
1761383464490385000,8.643385009765625,0.8941595012664795,0.6885743848353624,-0.05609437379613518
1761383464500454700,8.65345458984375,1.099027701599896,0.5857523082643747,-0.14605053905323148
1761383464510524000,8.66352392578125,1.0507552536010742,0.46285599643588066,-0.17365765403360128
1761383464520593700,8.67359375,0.7896887807056308,0.3604220423996448,-0.20038301774337886
1761383464530662700,8.68366259765625,0.4644996719896793,0.2791495343357324,-0.22498802829831838
1761383464540732700,8.693732666015626,0.13307517601549623,0.2653869664430618,-0.1595107629984617
1761383464550801700,8.7038017578125,-0.017842822943627833,0.2944961565494537,-0.031302023975551124
1761383464560872000,8.713871826171875,0.03564239126741886,0.2786930227398872,0.06339154506698251
1761383464570940700,8.723940673828125,0.15734803200662134,0.2163362275481224,0.048513417147845024
1761383464581011000,8.734010986328125,0.21501550033837555,0.2839338460028171,-0.06540726880356669
1761383464591079700,8.74407958984375,0.3499807278841734,0.5696300255030393,-0.24181422154530882
1761383464601149700,8.754149658203126,0.6325035380452871,0.7418126385480165,-0.4388924986548722
1761383464611218700,8.76421875,0.9394862512022256,0.8576280522048473,-0.5632067144572734
1761383464621288700,8.774288818359375,1.5024445438563823,0.996497009190917,-0.6589060995414853
1761383464631357700,8.784357666015625,2.0928011310458183,0.8968868804037571,-0.6971405531287193
1761383464641427700,8.794427734375,2.0911983720242975,1.0647229886770249,-0.7243379182644188
1761383464651496700,8.80449658203125,2.017606189329922,1.3519798416227102,-0.944593803474307
1761383464661566700,8.814566650390624,1.4089926454380153,1.6524685165852306,-0.8733186655506491
1761383464671635700,8.8246357421875,1.6166183277860282,1.693513059157133,-0.17309651301950216
1761383464681705700,8.834705810546875,1.0645637064620852,1.3136235152214766,-0.7587687417849898
1761383464691774700,8.844774658203125,0.13540975644290446,1.4381617490381002,-1.2789470463767647
1761383464701844700,8.8548447265625,0.358226578181982,0.8597492821425199,-0.7966425453662872
1761383464711913700,8.864913818359375,1.3063561545670033,0.01511281345784664,0.6455138262659311
1761383464721983500,8.8749833984375,1.849138797415793,-1.2792425221920012,2.2106185321748257
1761383464732052200,8.88505224609375,1.0962208274856209,-1.6738234393030405,2.6108897698819638
1761383464742122500,8.89512255859375,-0.505222727522254,-1.3740274227797984,2.2812796298533677
1761383464752191200,8.905191162109375,-2.3430618400275707,-0.5885580133348703,1.060209310644865
1761383464762261500,8.915261474609375,-2.8055180234909054,-0.6927110462486743,0.8671136734306811
1761383464772330200,8.925330322265625,-2.4339625926584003,-1.1469137806296348,1.2919541197270155
1761383464782400300,8.935400146484374,-1.75235921587944,-1.472715176025033,0.9746879129648208
1761383464792469200,8.94546923828125,-2.136912367711961,-1.6762825228929519,0.63785074429214
1761383464802539300,8.955539306640626,-3.478946569381654,-1.5366361517935991,0.08583528593480587
1761383464812608500,8.9656083984375,-3.7810035165742035,-0.5638739461943507,-0.4569733681380748
1761383464822678300,8.97567822265625,-2.206314697501063,0.35792028871178627,-0.2935346180409193
1761383464832747500,8.98574755859375,-0.6530816311717033,0.03371872972846031,-0.11687982801795005
1761383464842817300,8.9958173828125,-1.1444687255650758,-0.9957198873385786,-0.0790454796642065
1761383464852886500,9.005886474609374,-1.0538239935219287,-1.701506395998597,0.40708091772198673
1761383464862956300,9.015956298828126,-0.14300386483371258,-1.6128370556816458,0.09642448448836803
1761383464873025500,9.026025634765626,0.7434077987849712,-0.8903343900203704,-0.311672332277894
1761383464883095300,9.03609521484375,1.8927298096001146,0.23093086235076188,-0.15705635558366773
1761383464893164300,9.046164306640625,2.598832252341509,1.5610387716442347,0.8527145612001419
1761383464903234300,9.056234375,3.316466727444529,2.267600940851867,1.7813389343872665
1761383464913303300,9.06630322265625,5.421134237372875,2.3962197219803927,1.6484820772975681
1761383464923373600,9.07637353515625,5.2584389991194005,1.7411887103065848,0.9760019181728362
1761383464933442300,9.0864423828125,4.158852202332019,0.9377078433528542,0.18853490516990423
1761383464943512300,9.09651220703125,3.7038194468677044,0.5272004583135247,-0.30515169833749534
1761383464953581300,9.106581298828125,2.3029478563040495,-0.5045154560357332,-0.7485726342022418
1761383464963651300,9.1166513671875,-1.8429115934640168,-2.9414935971230265,-0.813991155052185
1761383464973720300,9.12672021484375,-3.009069588267803,-4.337936265328526,-0.3318108649432659
1761383464983790300,9.136790283203124,-2.13845345967412,-3.907614172750711,0.24364187536388635
1761383464993859300,9.146859375,-0.4114741842448711,-2.129105785614252,0.5370815085977315
1761383465003929300,9.156929443359376,-0.1923416039764881,-0.08067388458363711,1.0585282256901263
1761383465013998300,9.166998291015625,-1.6916998722553251,1.0973830031327902,1.4448156539693473
1761383465024068400,9.177068359375,-2.6242788282871246,1.5191360048078,1.7414543755054472
1761383465034137300,9.187137451171875,-1.864714844471216,1.2741085203044116,1.9858952922925353
1761383465044207400,9.197207275390625,-0.21504326512813568,0.8213212056793272,1.8245342252522705
1761383465054276400,9.2072763671875,1.2050304540336132,1.1174718514375388,0.7473579977154732
1761383465064346400,9.217346435546874,1.3260849373877048,1.8480599161379039,-0.6002201018169522
1761383465074415400,9.227415283203126,-0.22176234425008295,1.6994677297778427,-1.609153398732841
1761383465084485400,9.2374853515625,-2.8160756578624246,0.1495464183449745,-1.6642846265852451
1761383465094555400,9.247555419921875,-3.1959441590100526,-0.5958623449988663,-1.292821842472255
1761383465104624400,9.257624267578125,-1.1082634397178888,0.40884193604514,-1.201172317300737
1761383465114693400,9.267693359375,0.5930488950133324,0.7493278364837169,-0.9641285250276327
1761383465124763100,9.27776318359375,0.10929156484603882,0.22901816059723495,-0.20571195768117903
1761383465134833400,9.28783349609375,-0.774654585441947,-0.19895444624498484,0.2450371291145682
1761383465144902400,9.29790234375,-0.43698505759835243,-0.7738429767981171,0.515588346453011
1761383465154972400,9.307972412109375,-0.26823884874284265,-1.1172414036825298,0.8348720305174588
1761383465165041400,9.31804150390625,-0.25784312693476674,-0.8085454568669199,0.8318444993898272
1761383465175111200,9.328111083984375,0.09844166952967644,-0.32533348562270403,0.5715872970506548
1761383465185180400,9.338180419921875,0.6439958229184151,-0.18939532139152288,0.35297260317653417
1761383465195250200,9.348250244140624,0.6702268272399902,-0.17716887702494857,-0.014446458503603935
1761383465205319400,9.3583193359375,0.3332499578356743,-0.2571972302466631,-0.28713907178491355
1761383465215389200,9.36838916015625,0.27091888160705563,-0.24913871921449898,-0.4181313040465116
1761383465225458400,9.37845849609375,0.30165479613244534,-0.27319617888927455,-0.5223647087201476
1761383465235528400,9.388528564453125,0.13188859657943247,-0.21328180841356514,-0.5824047514021397
1761383465245597400,9.398597412109375,0.03668284023106098,-0.20416881989240646,-0.6667863313972949
1761383465255667500,9.40866748046875,0.11666355491876601,-0.299120893740654,-0.6389534448370338
1761383465265736400,9.418736328125,0.02164309200942516,-0.31098113514333964,-0.4393216838523745
1761383465275806500,9.428806396484376,0.04677110352516174,-0.28245091396868227,-0.21764409527629613
1761383465285875200,9.438875244140625,0.09485328964889049,-0.252436007194221,-0.006115852531790733
1761383465295945500,9.448945556640625,0.11162439170777796,-0.30354163279235363,0.08272475269883871
1761383465306014200,9.45901416015625,0.2793108623772859,-0.42620004421174523,0.06315612887591124
1761383465316084500,9.46908447265625,0.32577859904170037,-0.5364397035628556,-0.027129414466023443
1761383465326153200,9.4791533203125,0.4048129727900028,-0.5702209771335125,-0.17812661614120007
1761383465336223500,9.489223388671874,0.47618777169585225,-0.577403874374926,-0.36363019079118963
1761383465346292200,9.499292236328126,0.4275795158714056,-0.5018848152711988,-0.4312447603806853
1761383465356362200,9.5093623046875,0.34989421864449977,-0.40752252400964495,-0.37587913925051686
1761383465366431500,9.519431396484375,0.042893969830870626,-0.3703706049621105,-0.2936000844925642
1761383465376501200,9.529501220703125,-0.28859190094172954,-0.3273658682331443,-0.1701075603365898
1761383465386570500,9.539570556640625,-0.4378770380020141,-0.22412995016425846,-0.12897563174217938
1761383465396640300,9.54964013671875,-0.2722615283876657,-0.16247925741523503,-0.21669600077122447
1761383465406709500,9.55970947265625,-0.016313421419262886,-0.11861468898653983,-0.17862550557404755
1761383465416779300,9.569779296875,0.3876800516813993,-0.011408698242902755,0.026024083572626113
1761383465426848500,9.5798486328125,-0.2966203090965748,0.06958090122640133,0.2831038249194622
1761383465436918300,9.589918212890625,-0.49762745008766646,-0.030104923145473,0.3309104089722037
1761383465446987300,9.5999873046875,-0.13926117117404938,-0.12062865915745496,0.15570815584510564
1761383465457057500,9.6100576171875,0.0504851556122303,-0.10652502274215221,-0.07432984931915998
1761383465467126300,9.620126220703124,0.2407096213042736,-0.003425590534508228,-0.1518140710160136
