time,seconds_elapsed,z,y,x
1761383455913687000,0.06668701171875,-0.84844970703125,-0.574737548828125,0.0077362060546875
1761383455923755800,0.076755859375,-0.8489532470703125,-0.58099365234375,0.019134521484375
1761383455933826000,0.086825927734375,-0.852935791015625,-0.58489990234375,0.03369140625
1761383455943895000,0.09689501953125,-0.842864990234375,-0.5794525146484375,0.034271240234375
1761383455953965000,0.106965087890625,-0.8305511474609375,-0.5660247802734375,0.025360107421875
1761383455964034000,0.117033935546875,-0.824981689453125,-0.56195068359375,0.0165252685546875
1761383455974103800,0.127103759765625,-0.82769775390625,-0.5670623779296875,0.009033203125
1761383455984173000,0.137173095703125,-0.8387603759765625,-0.5731048583984375,0.0029296875
1761383455994242800,0.147242919921875,-0.8381805419921875,-0.57159423828125,-0.0052337646484375
1761383456004312000,0.15731201171875,-0.835784912109375,-0.5711669921875,-0.009521484375
1761383456014381800,0.1673818359375,-0.8336029052734375,-0.5713653564453125,-0.015869140625
1761383456024451000,0.177451171875,-0.8304595947265625,-0.5746917724609375,-0.0146331787109375
1761383456034521000,0.18752099609375,-0.8275604248046875,-0.5700531005859375,-0.0040283203125
1761383456044590000,0.197590087890625,-0.793487548828125,-0.546661376953125,0.0072784423828125
1761383456054660000,0.20766015625,-0.7677001953125,-0.5906524658203125,0.031768798828125
1761383456064729000,0.21772900390625,-0.7821502685546875,-0.617828369140625,0.0355072021484375
1761383456074799000,0.227799072265625,-0.7719879150390625,-0.620941162109375,0.029388427734375
1761383456084867800,0.237867919921875,-0.7510833740234375,-0.60516357421875,0.02685546875
1761383456094938000,0.247938232421875,-0.7384490966796875,-0.5826568603515625,0.0274200439453125
1761383456105006800,0.2580068359375,-0.7336578369140625,-0.5738067626953125,0.0291595458984375
1761383456115077000,0.2680771484375,-0.74310302734375,-0.5812530517578125,0.0197906494140625
1761383456125145900,0.278145751953125,-0.758453369140625,-0.5890655517578125,0.0160064697265625
1761383456135215900,0.2882158203125,-0.76080322265625,-0.582794189453125,0.024932861328125
1761383456145284900,0.298284912109375,-0.7567138671875,-0.565155029296875,0.0276336669921875
1761383456155355000,0.30835498046875,-0.7599334716796875,-0.54833984375,0.027557373046875
1761383456165423900,0.318423828125,-0.7790374755859375,-0.5485992431640625,0.0388946533203125
1761383456175493000,0.3284931640625,-0.8088836669921875,-0.5727691650390625,0.051605224609375
1761383456185563100,0.338563232421875,-0.858673095703125,-0.5877838134765625,0.064971923828125
1761383456195631900,0.3486318359375,-0.8820037841796875,-0.5959320068359375,0.05999755859375
1761383456205702100,0.3587021484375,-0.8630828857421875,-0.5829925537109375,0.0438385009765625
1761383456215771000,0.36877099609375,-0.8411865234375,-0.5713653564453125,0.039520263671875
1761383456225841200,0.378841064453125,-0.823486328125,-0.565948486328125,0.0435791015625
1761383456235910000,0.388909912109375,-0.8099365234375,-0.569549560546875,0.0395660400390625
1761383456245980000,0.39897998046875,-0.8110504150390625,-0.57470703125,0.04022216796875
1761383456256049000,0.409048828125,-0.8300628662109375,-0.5752410888671875,0.04510498046875
1761383456266119000,0.419118896484375,-0.8396148681640625,-0.5689544677734375,0.0369415283203125
1761383456276188000,0.42918798828125,-0.822113037109375,-0.576019287109375,0.038665771484375
1761383456286258000,0.4392578125,-0.79302978515625,-0.5933837890625,0.045318603515625
1761383456296327000,0.449326904296875,-0.78009033203125,-0.6114959716796875,0.0456695556640625
1761383456306397000,0.45939697265625,-0.7833251953125,-0.6191558837890625,0.0515594482421875
1761383456316466200,0.469466064453125,-0.7885284423828125,-0.6203765869140625,0.0664215087890625
1761383456326536000,0.479535888671875,-0.783782958984375,-0.624053955078125,0.0787353515625
1761383456336605200,0.489605224609375,-0.7743682861328125,-0.6226806640625,0.096343994140625
1761383456346675000,0.499675048828125,-0.767120361328125,-0.62286376953125,0.1201629638671875
1761383456356744000,0.509743896484375,-0.760345458984375,-0.625885009765625,0.127716064453125
1761383456366814000,0.51981396484375,-0.7624359130859375,-0.6378021240234375,0.1337432861328125
1761383456376883000,0.529883056640625,-0.7543792724609375,-0.6490936279296875,0.1329498291015625
1761383456386953000,0.539952880859375,-0.7328948974609375,-0.6529083251953125,0.1216583251953125
1761383456397022000,0.55002197265625,-0.7230682373046875,-0.64703369140625,0.10919189453125
1761383456407092000,0.560092041015625,-0.72271728515625,-0.6380615234375,0.1009979248046875
1761383456417161000,0.570160888671875,-0.738372802734375,-0.62738037109375,0.1043853759765625
1761383456427231000,0.58023095703125,-0.7592315673828125,-0.619384765625,0.1095428466796875
1761383456437300000,0.590300048828125,-0.769195556640625,-0.61517333984375,0.1194915771484375
1761383456447370000,0.600369873046875,-0.7699432373046875,-0.616943359375,0.1242218017578125
1761383456457439000,0.61043896484375,-0.7667083740234375,-0.6207427978515625,0.124664306640625
1761383456467509000,0.620509033203125,-0.764495849609375,-0.6245574951171875,0.1237945556640625
1761383456477578000,0.630577880859375,-0.760955810546875,-0.6252593994140625,0.1216583251953125
1761383456487647000,0.64064697265625,-0.7713470458984375,-0.6274871826171875,0.1199798583984375
1761383456497717000,0.650717041015625,-0.7805328369140625,-0.631195068359375,0.1198272705078125
1761383456507786000,0.660785888671875,-0.7816314697265625,-0.63311767578125,0.1220550537109375
1761383456517856000,0.67085595703125,-0.7808837890625,-0.6325836181640625,0.1226654052734375
1761383456527925000,0.680925048828125,-0.7795867919921875,-0.626800537109375,0.1204071044921875
1761383456537995000,0.6909951171875,-0.77294921875,-0.6237335205078125,0.120941162109375
1761383456548064000,0.70106396484375,-0.77001953125,-0.6177520751953125,0.1088714599609375
1761383456558134000,0.711134033203125,-0.7626953125,-0.626617431640625,0.1086273193359375
1761383456568203000,0.721203125,-0.7497406005859375,-0.6328125,0.108856201171875
1761383456578273000,0.73127294921875,-0.7426605224609375,-0.6408233642578125,0.1168670654296875
1761383456588342000,0.741342041015625,-0.749298095703125,-0.647613525390625,0.130218505859375
1761383456598412000,0.751412109375,-0.7562408447265625,-0.64752197265625,0.1312103271484375
1761383456608481000,0.76148095703125,-0.76824951171875,-0.6432647705078125,0.1260528564453125
1761383456618551000,0.771551025390625,-0.7704925537109375,-0.6359710693359375,0.1233978271484375
1761383456628620000,0.7816201171875,-0.7680816650390625,-0.63421630859375,0.1214599609375
1761383456638690000,0.79168994140625,-0.7681732177734375,-0.6309967041015625,0.1231231689453125
1761383456648758800,0.8017587890625,-0.767669677734375,-0.6284942626953125,0.11712646484375
1761383456658829000,0.8118291015625,-0.7677764892578125,-0.631103515625,0.115875244140625
1761383456668898000,0.82189794921875,-0.7735443115234375,-0.6324005126953125,0.1215057373046875
1761383456678968000,0.831968017578125,-0.783447265625,-0.6343536376953125,0.1262054443359375
1761383456689037000,0.842037109375,-0.78515625,-0.63262939453125,0.127410888671875
1761383456699106800,0.85210693359375,-0.7759246826171875,-0.6288909912109375,0.123504638671875
1761383456709175300,0.86217529296875,-0.7668609619140625,-0.62744140625,0.114288330078125
1761383456719245300,0.872245361328125,-0.7609100341796875,-0.6301727294921875,0.10418701171875
1761383456729314300,0.882314208984375,-0.750457763671875,-0.633392333984375,0.10223388671875
1761383456739384300,0.89238427734375,-0.7397918701171875,-0.641143798828125,0.0999755859375
1761383456749453300,0.902453369140625,-0.7377777099609375,-0.6461334228515625,0.1024627685546875
1761383456759523300,0.9125234375,-0.7447052001953125,-0.6439361572265625,0.1065521240234375
1761383456769592300,0.92259228515625,-0.7567596435546875,-0.6474761962890625,0.117401123046875
1761383456779662300,0.932662353515625,-0.7580718994140625,-0.6602020263671875,0.1302642822265625
1761383456789731300,0.9427314453125,-0.7612762451171875,-0.6653594970703125,0.1318511962890625
1761383456799801300,0.95280126953125,-0.762603759765625,-0.6587677001953125,0.132781982421875
1761383456809870300,0.962870361328125,-0.7572479248046875,-0.65545654296875,0.127227783203125
1761383456819940400,0.9729404296875,-0.7536163330078125,-0.6525726318359375,0.1175689697265625
1761383456830009300,0.98300927734375,-0.7516632080078125,-0.6494140625,0.1111297607421875
1761383456840078300,0.993078369140625,-0.7464447021484375,-0.644866943359375,0.1063232421875
1761383456850148400,1.0031484375,-0.7407073974609375,-0.64208984375,0.1090545654296875
1761383456860217300,1.01321728515625,-0.7374114990234375,-0.6414031982421875,0.1109619140625
1761383456870287400,1.023287353515625,-0.74072265625,-0.6409149169921875,0.1121063232421875
1761383456880356400,1.0333564453125,-0.7399444580078125,-0.6353302001953125,0.114288330078125
1761383456890426400,1.04342626953125,-0.7300567626953125,-0.635650634765625,0.114166259765625
1761383456900495400,1.053495361328125,-0.7171783447265625,-0.646636962890625,0.119720458984375
1761383456910565400,1.0635654296875,-0.732666015625,-0.6589202880859375,0.1455078125
1761383456920634400,1.07363427734375,-0.7567596435546875,-0.6762542724609375,0.15045166015625
1761383456930704400,1.083704345703125,-0.74810791015625,-0.6741180419921875,0.1447601318359375
1761383456940773400,1.0937734375,-0.731414794921875,-0.653717041015625,0.135589599609375
1761383456950843400,1.103843505859375,-0.7097015380859375,-0.6492156982421875,0.12274169921875
1761383456960912400,1.113912353515625,-0.7036285400390625,-0.65191650390625,0.135986328125
1761383456970982400,1.123982421875,-0.727020263671875,-0.6580657958984375,0.1724090576171875
1761383456981051400,1.134051513671875,-0.786407470703125,-0.6650543212890625,0.2247161865234375
1761383456991121400,1.144121337890625,-0.66070556640625,-0.6461181640625,0.186370849609375
1761383457001190400,1.1541904296875,-0.70892333984375,-0.649261474609375,0.1721038818359375
1761383457011260200,1.16426025390625,-0.6934356689453125,-0.6544189453125,0.150054931640625
1761383457021329400,1.174329345703125,-0.6646881103515625,-0.663787841796875,0.1065826416015625
1761383457031399200,1.184399169921875,-0.6668548583984375,-0.685699462890625,0.10040283203125
1761383457041468400,1.194468505859375,-0.7132415771484375,-0.6744232177734375,0.114593505859375
1761383457051538400,1.204538330078125,-0.7529144287109375,-0.6652984619140625,0.1350860595703125
1761383457061607400,1.214607421875,-0.7653961181640625,-0.6628570556640625,0.175750732421875
1761383457071677400,1.224677490234375,-0.7914276123046875,-0.6645355224609375,0.158782958984375
1761383457081746400,1.234746337890625,-0.81817626953125,-0.6498565673828125,0.114837646484375
1761383457091816400,1.24481640625,-0.8171844482421875,-0.63116455078125,0.090545654296875
1761383457101885400,1.254885498046875,-0.7952117919921875,-0.638214111328125,0.094085693359375
1761383457111955500,1.26495556640625,-0.772674560546875,-0.6564483642578125,0.10809326171875
1761383457122024200,1.275024169921875,-0.814666748046875,-0.6510009765625,0.10174560546875
1761383457132094500,1.285094482421875,-0.837677001953125,-0.6305999755859375,0.0928497314453125
1761383457142163200,1.2951630859375,-0.842681884765625,-0.617462158203125,0.099273681640625
1761383457152233500,1.3052333984375,-0.8547821044921875,-0.59686279296875,0.1141357421875
1761383457162302200,1.31530224609375,-0.864593505859375,-0.5736846923828125,0.1190643310546875
1761383457172372200,1.325372314453125,-0.8472137451171875,-0.568695068359375,0.0977935791015625
1761383457182441500,1.33544140625,-0.834075927734375,-0.5635986328125,0.067413330078125
1761383457192511200,1.34551123046875,-0.8275299072265625,-0.536163330078125,0.0425567626953125
1761383457202580500,1.35558056640625,-0.8188323974609375,-0.5077972412109375,0.0290374755859375
1761383457212650200,1.365650146484375,-0.825653076171875,-0.4929962158203125,0.016326904296875
1761383457222719500,1.375719482421875,-0.84814453125,-0.46923828125,0.0131378173828125
1761383457232789200,1.385789306640625,-0.8644866943359375,-0.465850830078125,0.0293426513671875
1761383457242858500,1.3958583984375,-0.880218505859375,-0.4581451416015625,0.0655517578125
1761383457252928300,1.40592822265625,-0.843414306640625,-0.5004425048828125,0.0872802734375
1761383457262997500,1.41599755859375,-0.813201904296875,-0.515289306640625,0.075714111328125
1761383457273067500,1.426067626953125,-0.8232269287109375,-0.5414581298828125,0.0473785400390625
1761383457283136300,1.43613623046875,-0.7592620849609375,-0.5727691650390625,0.0210113525390625
1761383457293206500,1.44620654296875,-0.6904144287109375,-0.5947265625,0.016754150390625
1761383457303275300,1.456275146484375,-0.634002685546875,-0.6155242919921875,0.001129150390625
1761383457313345500,1.466345458984375,-0.5762939453125,-0.6243438720703125,-0.006500244140625
1761383457323414300,1.476414306640625,-0.728790283203125,-0.6642608642578125,-0.0698394775390625
1761383457333484300,1.486484375,-0.9671630859375,-0.7101593017578125,-0.092376708984375
1761383457343553300,1.49655322265625,-0.98858642578125,-0.655517578125,0.0097198486328125
1761383457353622500,1.50662255859375,-0.8248443603515625,-0.5784454345703125,0.14398193359375
1761383457363692300,1.5166923828125,-0.8108673095703125,-0.601806640625,0.1689910888671875
1761383457373761500,1.526761474609375,-0.7311859130859375,-0.6671600341796875,0.1485748291015625
1761383457383831300,1.536831298828125,-0.655242919921875,-0.744476318359375,0.07781982421875
1761383457393900300,1.546900390625,-0.844757080078125,-0.8416748046875,0.00469970703125
1761383457403970600,1.556970458984375,-0.8767242431640625,-0.909576416015625,0.051116943359375
1761383457414039300,1.567039306640625,-0.7364501953125,-0.8472900390625,0.1165771484375
1761383457424109600,1.577109619140625,-0.6431121826171875,-0.8222503662109375,0.123992919921875
1761383457434178300,1.58717822265625,-0.6163787841796875,-0.827056884765625,0.1027069091796875
1761383457444248300,1.597248291015625,-0.5810394287109375,-0.825286865234375,0.09100341796875
1761383457454317300,1.6073173828125,-0.5803680419921875,-0.8081207275390625,0.089141845703125
1761383457464387300,1.61738720703125,-0.5807952880859375,-0.8118438720703125,0.093902587890625
1761383457474456300,1.627456298828125,-0.570648193359375,-0.8322601318359375,0.0829925537109375
1761383457484526300,1.6375263671875,-0.5633697509765625,-0.8344573974609375,0.086151123046875
1761383457494595300,1.64759521484375,-0.5742645263671875,-0.8289794921875,0.0852203369140625
1761383457504665300,1.657665283203125,-0.5903167724609375,-0.85009765625,0.069793701171875
1761383457514734300,1.667734375,-0.584625244140625,-0.9037017822265625,0.031402587890625
1761383457524804400,1.677804443359375,-0.5655670166015625,-0.9303741455078125,0.0344390869140625
1761383457534873300,1.687873291015625,-0.5889434814453125,-0.8957366943359375,0.0509185791015625
1761383457544943400,1.697943359375,-0.540802001953125,-0.9329986572265625,0.0005340576171875
1761383457555012400,1.708012451171875,-0.519287109375,-0.94677734375,-0.045135498046875
1761383457565082400,1.718082275390625,-0.5684814453125,-0.9217681884765625,-0.0386199951171875
1761383457575151400,1.7281513671875,-0.5456695556640625,-0.879180908203125,-0.0763702392578125
1761383457585221400,1.738221435546875,-0.541290283203125,-0.86724853515625,-0.1313934326171875
1761383457595290400,1.748290283203125,-0.5225830078125,-0.8697662353515625,-0.2199249267578125
1761383457605360400,1.7583603515625,-0.4854888916015625,-0.8630523681640625,-0.2697296142578125
1761383457615429400,1.768429443359375,-0.6129150390625,-0.8914947509765625,-0.2873382568359375
1761383457625499100,1.7784990234375,-0.625244140625,-0.9680023193359375,-0.2361297607421875
1761383457635568400,1.788568359375,-0.621124267578125,-0.9851226806640625,-0.18963623046875
1761383457645638400,1.798638427734375,-0.64813232421875,-0.9600830078125,-0.2368927001953125
1761383457655707400,1.808707275390625,-0.6110382080078125,-0.919097900390625,-0.290679931640625
1761383457665777400,1.81877734375,-0.5043792724609375,-0.8706512451171875,-0.2992706298828125
1761383457675846400,1.828846435546875,-0.412750244140625,-0.8352203369140625,-0.30072021484375
1761383457685916400,1.83891650390625,-0.3632965087890625,-0.7431640625,-0.3815765380859375
1761383457695985400,1.8489853515625,-0.3481597900390625,-0.6829376220703125,-0.4790802001953125
1761383457706055400,1.859055419921875,-0.3003692626953125,-0.6635284423828125,-0.58404541015625
1761383457716124400,1.86912451171875,-0.282318115234375,-0.610198974609375,-0.68707275390625
1761383457726194400,1.8791943359375,-0.25726318359375,-0.5752716064453125,-0.776763916015625
1761383457736263200,1.88926318359375,-0.2006988525390625,-0.5558624267578125,-0.8526153564453125
1761383457746333400,1.89933349609375,-0.1594390869140625,-0.4993438720703125,-0.9350433349609375
1761383457756402200,1.909402099609375,-0.1329498291015625,-0.433502197265625,-1.0172882080078125
1761383457766472400,1.919472412109375,-0.090911865234375,-0.405548095703125,-1.0701446533203125
1761383457776541400,1.92954150390625,-0.0204010009765625,-0.4079132080078125,-1.0837860107421875
1761383457786611200,1.939611083984375,0.0678863525390625,-0.381927490234375,-1.0739898681640625
1761383457796680400,1.949680419921875,0.1496124267578125,-0.327178955078125,-1.0588226318359375
1761383457806750200,1.959750244140625,0.1966552734375,-0.2730865478515625,-1.049591064453125
1761383457816819500,1.9698193359375,0.21343994140625,-0.2231597900390625,-1.0514068603515625
1761383457826889200,1.97988916015625,0.2308502197265625,-0.1833953857421875,-1.0598297119140625
1761383457836958500,1.98995849609375,0.224609375,-0.14385986328125,-1.058074951171875
1761383457847028200,2.0000283203125,0.2466278076171875,-0.0911407470703125,-1.0554351806640625
1761383457857097500,2.010097412109375,0.3025054931640625,-0.015594482421875,-1.0308837890625
1761383457867167500,2.02016748046875,0.3768463134765625,0.031036376953125,-0.9565887451171875
1761383457877236500,2.030236572265625,0.47039794921875,0.0120086669921875,-0.846099853515625
1761383457887306500,2.040306396484375,0.51275634765625,-0.04168701171875,-0.6941986083984375
1761383457897375200,2.050375244140625,0.533721923828125,-0.04150390625,-0.4752960205078125
1761383457907445500,2.060445556640625,0.500732421875,-0.068817138671875,-0.1865386962890625
1761383457917514200,2.07051416015625,0.4011383056640625,-0.1176300048828125,0.1489105224609375
1761383457927584500,2.08058447265625,0.2954864501953125,-0.0131988525390625,0.47802734375
1761383457937653200,2.0906533203125,0.033172607421875,0.1397705078125,0.8335418701171875
1761383457947723300,2.10072314453125,-0.4411468505859375,0.0946807861328125,1.275238037109375
1761383457957792300,2.110792236328125,-0.922210693359375,-0.1727142333984375,1.851776123046875
1761383457967862300,2.1208623046875,-1.172027587890625,-0.5550537109375,2.45135498046875
1761383457977931300,2.13093115234375,-1.290557861328125,-0.88665771484375,3.0130767822265625
1761383457988001300,2.141001220703125,-1.2701263427734375,-1.110595703125,3.3966217041015625
1761383457998070500,2.151070556640625,-1.1610565185546875,-1.2146759033203125,3.5273590087890625
1761383458008140300,2.161140380859375,-1.0396270751953125,-1.178741455078125,3.42218017578125
1761383458018209500,2.17120947265625,-0.885711669921875,-0.9374847412109375,3.175994873046875
1761383458028279300,2.181279296875,-0.6579437255859375,-0.6976165771484375,2.8555755615234375
1761383458038348500,2.1913486328125,-0.3758087158203125,-0.5444488525390625,2.46112060546875
1761383458048418300,2.201418212890625,-0.095672607421875,-0.427215576171875,1.984100341796875
1761383458058487300,2.2114873046875,0.110321044921875,-0.371307373046875,1.4805908203125
1761383458068557300,2.221557373046875,0.1744537353515625,-0.3239288330078125,0.9737091064453125
1761383458078626300,2.231626220703125,0.11322021484375,-0.1646881103515625,0.410308837890625
1761383458088696600,2.241696533203125,-0.0380706787109375,0.045562744140625,-0.1813812255859375
1761383458098765300,2.251765380859375,-0.1061248779296875,0.1500396728515625,-0.7261810302734375
1761383458108835600,2.261835693359375,0.0331268310546875,0.182281494140625,-1.11224365234375
1761383458118904300,2.271904296875,0.2481536865234375,0.2239532470703125,-1.41192626953125
1761383458128974300,2.281974365234375,0.4599609375,0.3303680419921875,-1.6634674072265625
1761383458139043300,2.292043212890625,0.6767578125,0.39239501953125,-1.910858154296875
1761383458149113300,2.30211328125,0.836456298828125,0.442352294921875,-2.117828369140625
1761383458159182300,2.312182373046875,0.948699951171875,0.455352783203125,-2.232879638671875
1761383458169252400,2.32225244140625,1.03363037109375,0.425048828125,-2.2240447998046875
1761383458179321300,2.3323212890625,1.06768798828125,0.34735107421875,-2.0993499755859375
1761383458189391400,2.342391357421875,1.04656982421875,0.257904052734375,-1.8867950439453125
1761383458199460400,2.35246044921875,0.944671630859375,0.1235198974609375,-1.650848388671875
1761383458209530400,2.3625302734375,0.7981719970703125,0.0097503662109375,-1.4089813232421875
1761383458219599400,2.372599365234375,0.6398468017578125,-0.1081390380859375,-1.184326171875
1761383458229669400,2.38266943359375,0.506683349609375,-0.168609619140625,-0.95147705078125
1761383458239738400,2.39273828125,0.421630859375,-0.166717529296875,-0.686187744140625
1761383458249808400,2.402808349609375,0.370269775390625,-0.132568359375,-0.379608154296875
1761383458259877400,2.41287744140625,0.34796142578125,-0.0779266357421875,-0.0441436767578125
1761383458269947400,2.422947509765625,0.32763671875,0.018463134765625,0.2975311279296875
1761383458280016400,2.433016357421875,0.2203216552734375,0.1227264404296875,0.6537017822265625
1761383458290086100,2.443086181640625,-0.022674560546875,0.1236419677734375,1.059783935546875
1761383458300155400,2.4531552734375,-0.346527099609375,-0.075225830078125,1.5810546875
1761383458310225200,2.46322509765625,-0.471527099609375,-0.3995208740234375,2.180206298828125
1761383458320294400,2.47329443359375,-0.5029754638671875,-0.75885009765625,2.797576904296875
1761383458330364400,2.483364501953125,-0.4488983154296875,-1.097076416015625,3.3296051025390625
1761383458340433400,2.493433349609375,-0.446044921875,-1.317535400390625,3.628875732421875
1761383458350503400,2.50350341796875,-0.5572662353515625,-1.3623504638671875,3.605621337890625
1761383458360572400,2.513572509765625,-0.66693115234375,-1.1767730712890625,3.3630828857421875
1761383458370642400,2.523642333984375,-0.6294708251953125,-0.81280517578125,2.998382568359375
1761383458380711400,2.53371142578125,-0.4285430908203125,-0.472442626953125,2.5587310791015625
1761383458390781400,2.543781494140625,-0.155609130859375,-0.1818389892578125,2.045257568359375
1761383458400850200,2.55385009765625,0.050262451171875,0.122406005859375,1.4663543701171875
1761383458410920400,2.56392041015625,0.177276611328125,0.391510009765625,0.839813232421875
1761383458420989200,2.5739892578125,0.2179107666015625,0.6692962646484375,0.1175384521484375
1761383458431059500,2.5840595703125,0.3842315673828125,0.875762939453125,-0.69720458984375
1761383458441128200,2.594128173828125,0.796966552734375,0.983367919921875,-1.537933349609375
1761383458451198500,2.604198486328125,1.3116607666015625,0.955963134765625,-2.2314910888671875
1761383458461267500,2.614267333984375,1.5321502685546875,0.9708709716796875,-2.6359405517578125
1761383458471337200,2.624337158203125,1.4453125,0.943511962890625,-2.8331451416015625
1761383458481406500,2.634406494140625,1.2626953125,0.7794036865234375,-2.7869720458984375
1761383458491476200,2.644476318359375,1.025604248046875,0.5634002685546875,-2.536865234375
1761383458501545500,2.65454541015625,0.829010009765625,0.419525146484375,-2.206634521484375
1761383458511615200,2.664615234375,0.67230224609375,0.2921905517578125,-1.8813629150390625
1761383458521684500,2.6746845703125,0.5562896728515625,0.15972900390625,-1.5753631591796875
1761383458531754200,2.684754150390625,0.4473724365234375,0.0035552978515625,-1.2732696533203125
1761383458541823500,2.694823486328125,0.32232666015625,-0.1380615234375,-0.9671478271484375
1761383458551893500,2.7048935546875,0.1600189208984375,-0.1680755615234375,-0.6200103759765625
1761383458561962200,2.714962158203125,-0.004547119140625,-0.1024932861328125,-0.2017669677734375
1761383458572032500,2.725032470703125,-0.2315521240234375,-0.058746337890625,0.3038330078125
1761383458582101200,2.735101318359375,-0.5877685546875,-0.13800048828125,0.9331817626953125
1761383458592171500,2.745171630859375,-0.73455810546875,-0.401031494140625,1.6602935791015625
1761383458602240300,2.755240234375,-0.667083740234375,-0.64483642578125,2.399322509765625
1761383458612310500,2.765310546875,-0.551910400390625,-0.8969268798828125,2.99383544921875
1761383458622379300,2.775379150390625,-0.5543212890625,-1.1902313232421875,3.3308258056640625
1761383458632449300,2.78544921875,-0.51910400390625,-1.4081268310546875,3.3802337646484375
1761383458642518300,2.795518310546875,-0.4585418701171875,-1.4522857666015625,3.2175445556640625
1761383458652588300,2.80558837890625,-0.37921142578125,-1.2566375732421875,2.9182586669921875
1761383458662657300,2.8156572265625,-0.2492523193359375,-0.91986083984375,2.531219482421875
1761383458672727300,2.825727294921875,-0.076690673828125,-0.610504150390625,2.08709716796875
1761383458682796500,2.835796630859375,0.0706024169921875,-0.3445587158203125,1.60479736328125
1761383458692866300,2.8458662109375,0.1495208740234375,-0.108489990234375,1.076385498046875
1761383458702935600,2.855935546875,0.152313232421875,0.0950164794921875,0.50604248046875
1761383458713005800,2.866005859375,0.1134796142578125,0.3489227294921875,-0.124542236328125
1761383458723074800,2.87607470703125,0.1971893310546875,0.590576171875,-0.79412841796875
1761383458733144800,2.886144775390625,0.5200653076171875,0.73028564453125,-1.4584503173828125
1761383458743213800,2.8962138671875,0.9737396240234375,0.79083251953125,-2.0608367919921875
1761383458753284000,2.9062841796875,1.364501953125,0.800445556640625,-2.494720458984375
1761383458763352800,2.916352783203125,1.5052490234375,0.822845458984375,-2.7370452880859375
1761383458773422800,2.9264228515625,1.4170074462890625,0.817901611328125,-2.73516845703125
1761383458783491800,2.936491943359375,1.29888916015625,0.655731201171875,-2.5103607177734375
1761383458793561900,2.946561767578125,1.031036376953125,0.45751953125,-2.1277618408203125
1761383458803630800,2.956630859375,0.8354949951171875,0.323638916015625,-1.7262725830078125
1761383458813700900,2.966700927734375,0.677276611328125,0.1644744873046875,-1.322998046875
1761383458823769900,2.976769775390625,0.562225341796875,-0.020751953125,-0.9454498291015625
1761383458833839900,2.98683984375,0.4833526611328125,-0.1514892578125,-0.5948486328125
1761383458843908900,2.996908935546875,0.4235687255859375,-0.1944122314453125,-0.258392333984375
1761383458853979000,3.006978759765625,0.3280029296875,-0.1641082763671875,0.0930023193359375
1761383458864047900,3.0170478515625,0.1281280517578125,-0.1585693359375,0.523406982421875
1761383458874118000,3.027117919921875,-0.14666748046875,-0.261810302734375,1.0580291748046875
1761383458884186600,3.0371865234375,-0.402130126953125,-0.4985809326171875,1.6612701416015625
1761383458894257000,3.0472568359375,-0.5666046142578125,-0.7895050048828125,2.284027099609375
1761383458904326000,3.057325927734375,-0.6357574462890625,-0.9709320068359375,2.8262786865234375
1761383458914396000,3.06739599609375,-0.749481201171875,-1.1045684814453125,3.1858978271484375
1761383458924465000,3.07746484375,-0.8271484375,-1.26483154296875,3.2709503173828125
1761383458934535000,3.087534912109375,-0.73809814453125,-1.2763824462890625,3.0829925537109375
1761383458944604000,3.09760400390625,-0.600494384765625,-1.097412109375,2.73468017578125
1761383458954673700,3.107673583984375,-0.4144287109375,-0.884368896484375,2.3222503662109375
1761383458964743000,3.117742919921875,-0.2162017822265625,-0.6645965576171875,1.8625946044921875
1761383458974812700,3.127812744140625,-0.050537109375,-0.4844512939453125,1.3720703125
1761383458984882000,3.1378818359375,0.07708740234375,-0.323211669921875,0.8459625244140625
1761383458994952000,3.147951904296875,0.158172607421875,-0.066436767578125,0.2404632568359375
1761383459005021000,3.15802099609375,0.2476806640625,0.226226806640625,-0.4700469970703125
1761383459015091000,3.168091064453125,0.41693115234375,0.459136962890625,-1.2154083251953125
1761383459025160000,3.178159912109375,0.7182464599609375,0.615203857421875,-1.908111572265625
1761383459035230000,3.18822998046875,1.0399169921875,0.6605377197265625,-2.4400634765625
1761383459045298700,3.198298583984375,1.2096710205078125,0.6452484130859375,-2.761444091796875
1761383459055369000,3.208368896484375,1.213165283203125,0.5544281005859375,-2.8241729736328125
1761383459065437700,3.218437744140625,1.08367919921875,0.456787109375,-2.6117095947265625
1761383459075508000,3.228508056640625,0.893768310546875,0.358856201171875,-2.240447998046875
1761383459085576700,3.23857666015625,0.7042236328125,0.2187042236328125,-1.8043365478515625
1761383459095647000,3.24864697265625,0.55120849609375,0.0550384521484375,-1.3599395751953125
1761383459105715700,3.2587158203125,0.4200439453125,-0.0741424560546875,-0.9459686279296875
1761383459115785700,3.26878564453125,0.3125152587890625,-0.1512603759765625,-0.54736328125
1761383459125855000,3.27885498046875,0.20355224609375,-0.196502685546875,-0.1480255126953125
1761383459135924700,3.2889248046875,0.0290069580078125,-0.2515869140625,0.306365966796875
1761383459145995000,3.2989951171875,-0.2310028076171875,-0.4249114990234375,0.857391357421875
1761383459156063700,3.309063720703125,-0.495574951171875,-0.6735992431640625,1.43359375
1761383459166133800,3.3191337890625,-0.67877197265625,-0.9227752685546875,1.9994354248046875
1761383459176202800,3.32920263671875,-0.7060089111328125,-1.1274871826171875,2.5623626708984375
1761383459186272000,3.33927197265625,-0.7607574462890625,-1.3488922119140625,2.970977783203125
1761383459196341800,3.349341796875,-0.8055267333984375,-1.50360107421875,3.0581207275390625
1761383459206411000,3.359410888671875,-0.7839202880859375,-1.41943359375,2.8776702880859375
1761383459216481000,3.36948095703125,-0.7281036376953125,-1.166778564453125,2.5235137939453125
1761383459226549800,3.3795498046875,-0.5583343505859375,-0.85333251953125,2.11993408203125
1761383459236620000,3.3896201171875,-0.2710723876953125,-0.610443115234375,1.6831817626953125
1761383459246688800,3.399688720703125,-0.0020599365234375,-0.4458465576171875,1.183441162109375
1761383459256759000,3.409759033203125,0.1572723388671875,-0.26275634765625,0.62255859375
1761383459266828800,3.419828857421875,0.2638397216796875,-0.030975341796875,-0.0491180419921875
1761383459276897800,3.429897705078125,0.330108642578125,0.1755828857421875,-0.761871337890625
1761383459286967800,3.4399677734375,0.467437744140625,0.3399505615234375,-1.41650390625
1761383459297036800,3.450036865234375,0.6689300537109375,0.4776611328125,-1.9229888916015625
1761383459307107000,3.460107177734375,0.906982421875,0.493927001953125,-2.24761962890625
1761383459317175800,3.47017578125,1.071807861328125,0.4429168701171875,-2.370758056640625
1761383459327245800,3.480245849609375,1.113983154296875,0.414306640625,-2.3232269287109375
1761383459337314800,3.490314697265625,0.99273681640625,0.3751220703125,-2.1300506591796875
1761383459347384800,3.500384765625,0.8224639892578125,0.2765655517578125,-1.8687286376953125
1761383459357453800,3.510453857421875,0.687713623046875,0.131744384765625,-1.5753936767578125
1761383459367523800,3.52052392578125,0.60052490234375,-0.0272064208984375,-1.28729248046875
1761383459377592800,3.5305927734375,0.53485107421875,-0.1580810546875,-1.0129241943359375
1761383459387662800,3.540662841796875,0.46124267578125,-0.2607879638671875,-0.739715576171875
1761383459397731800,3.55073193359375,0.386322021484375,-0.3350830078125,-0.4611358642578125
1761383459407801900,3.5608017578125,0.300567626953125,-0.358795166015625,-0.15850830078125
1761383459417870800,3.570870849609375,0.154083251953125,-0.3382568359375,0.193939208984375
1761383459427940900,3.58094091796875,-0.03271484375,-0.3632049560546875,0.6352691650390625
1761383459438009900,3.591009765625,-0.17315673828125,-0.5081024169921875,1.164154052734375
1761383459448080000,3.601079833984375,-0.3357086181640625,-0.7650299072265625,1.7226104736328125
1761383459458148900,3.61114892578125,-0.5567626953125,-1.039947509765625,2.25286865234375
1761383459468219000,3.621218994140625,-0.8043365478515625,-1.1992645263671875,2.6285247802734375
1761383459478288000,3.631287841796875,-1.011383056640625,-1.3575897216796875,2.785980224609375
1761383459488358000,3.64135791015625,-1.0621795654296875,-1.4517974853515625,2.755645751953125
1761383459498427000,3.651427001953125,-1.0063323974609375,-1.360107421875,2.5378875732421875
1761383459508496600,3.66149658203125,-0.8570556640625,-1.217926025390625,2.2025604248046875
1761383459518566000,3.67156591796875,-0.6194000244140625,-0.995758056640625,1.814239501953125
1761383459528636000,3.681635986328125,-0.3959808349609375,-0.771820068359375,1.3698577880859375
1761383459538705000,3.691704833984375,-0.2278289794921875,-0.5760650634765625,0.9032135009765625
1761383459548775000,3.70177490234375,-0.102447509765625,-0.372772216796875,0.3878021240234375
1761383459558844000,3.711843994140625,0.0335693359375,-0.1447601318359375,-0.1755523681640625
1761383459568914000,3.721913818359375,0.2497406005859375,0.0542144775390625,-0.7681427001953125
1761383459578983000,3.73198291015625,0.538238525390625,0.1888885498046875,-1.3201446533203125
1761383459589053000,3.742052978515625,0.799041748046875,0.209808349609375,-1.7421112060546875
1761383459599122000,3.752121826171875,0.986785888671875,0.1015625,-2.0147552490234375
1761383459609192000,3.76219189453125,0.964111328125,0.0702056884765625,-2.17169189453125
1761383459619260700,3.7722607421875,0.814544677734375,0.081146240234375,-2.2289581298828125
1761383459629331000,3.7823310546875,0.6527557373046875,0.04864501953125,-2.187469482421875
1761383459639399700,3.792399658203125,0.509033203125,-0.0037384033203125,-2.021209716796875
1761383459649470000,3.802469970703125,0.45184326171875,-0.111907958984375,-1.7708282470703125
1761383459659538700,3.81253857421875,0.3783721923828125,-0.1656951904296875,-1.4542999267578125
1761383459669608700,3.822608642578125,0.2982940673828125,-0.2253265380859375,-1.1291046142578125
1761383459679678000,3.832677978515625,0.2259368896484375,-0.2871856689453125,-0.8214569091796875
1761383459689747700,3.842747802734375,0.1511688232421875,-0.3105316162109375,-0.52978515625
1761383459699817000,3.85281689453125,0.040374755859375,-0.3319854736328125,-0.229461669921875
1761383459709887200,3.86288720703125,-0.140228271484375,-0.3801116943359375,0.1108551025390625
1761383459719956500,3.87295654296875,-0.3372650146484375,-0.4667510986328125,0.5140838623046875
1761383459730026200,3.883026123046875,-0.55303955078125,-0.6110992431640625,1.0119476318359375
1761383459740095500,3.893095458984375,-0.7245941162109375,-0.793487548828125,1.5574188232421875
1761383459750165500,3.90316552734375,-0.72021484375,-0.91485595703125,2.0331268310546875
1761383459760234200,3.913234130859375,-0.7049713134765625,-0.9605560302734375,2.41357421875
1761383459770304500,3.923304443359375,-0.673919677734375,-1.0997772216796875,2.6594390869140625
1761383459780373200,3.933373291015625,-0.5551605224609375,-1.1727447509765625,2.7019805908203125
1761383459790443500,3.943443603515625,-0.5085906982421875,-1.0782012939453125,2.5860137939453125
1761383459800512300,3.95351220703125,-0.4818572998046875,-0.9088134765625,2.362518310546875
1761383459810582300,3.963582275390625,-0.3702239990234375,-0.7140350341796875,2.09649658203125
1761383459820651300,3.9736513671875,-0.1959075927734375,-0.5681304931640625,1.7684173583984375
1761383459830721300,3.98372119140625,-0.0385589599609375,-0.454345703125,1.390960693359375
1761383459840790300,3.993790283203125,0.07086181640625,-0.38134765625,0.9746551513671875
1761383459850860300,4.0038603515625,0.12188720703125,-0.2896881103515625,0.52447509765625
1761383459860929300,4.01392919921875,0.094757080078125,-0.1440277099609375,0.006744384765625
1761383459870999300,4.023999267578125,0.053802490234375,0.0338287353515625,-0.589202880859375
1761383459881068500,4.034068603515625,0.115966796875,0.21783447265625,-1.1968994140625
1761383459891138300,4.04413818359375,0.3382568359375,0.3900299072265625,-1.7312469482421875
1761383459901207600,4.05420751953125,0.6338043212890625,0.50927734375,-2.1467742919921875
1761383459911277300,4.06427734375,0.922393798828125,0.4950103759765625,-2.4535675048828125
1761383459921347300,4.074347412109375,1.008880615234375,0.5180206298828125,-2.5574188232421875
1761383459931416300,4.084416259765625,1.10400390625,0.45867919921875,-2.5705413818359375
1761383459941486300,4.094486328125,1.0251617431640625,0.32177734375,-2.3770751953125
1761383459951555300,4.104555419921875,0.8863067626953125,0.216888427734375,-2.1075592041015625
1761383459961625300,4.114625244140625,0.759613037109375,0.1531982421875,-1.7850189208984375
1761383459971694600,4.124694580078125,0.65704345703125,0.0471649169921875,-1.4251708984375
1761383459981764400,4.134764404296875,0.5516357421875,-0.0723876953125,-1.0614471435546875
1761383459991833300,4.144833251953125,0.4520721435546875,-0.1328277587890625,-0.6968231201171875
1761383460001903400,4.1549033203125,0.3435821533203125,-0.1271820068359375,-0.3135528564453125
1761383460011972400,4.164972412109375,0.19891357421875,-0.066070556640625,0.093109130859375
1761383460022042400,4.17504248046875,-0.0241546630859375,0.00244140625,0.553619384765625
1761383460032111400,4.185111328125,-0.2653656005859375,-0.0477294921875,1.0813751220703125
1761383460042181400,4.195181396484375,-0.4118194580078125,-0.193389892578125,1.6532745361328125
1761383460052250400,4.20525048828125,-0.464508056640625,-0.347747802734375,2.20404052734375
1761383460062320400,4.2153203125,-0.4987030029296875,-0.5543670654296875,2.69244384765625
1761383460072389400,4.225389404296875,-0.4535369873046875,-0.841339111328125,3.0282745361328125
1761383460082459400,4.23545947265625,-0.3867645263671875,-1.0658416748046875,3.1940765380859375
1761383460092528400,4.2455283203125,-0.3479766845703125,-1.155975341796875,3.1608428955078125
1761383460102598400,4.255598388671875,-0.356719970703125,-1.061676025390625,2.957061767578125
1761383460112667400,4.26566748046875,-0.3930206298828125,-0.8337249755859375,2.632781982421875
1761383460122737400,4.2757373046875,-0.3472900390625,-0.609527587890625,2.235137939453125
1761383460132806400,4.285806396484375,-0.2312774658203125,-0.4524688720703125,1.8012847900390625
1761383460142876400,4.29587646484375,-0.1248016357421875,-0.3121337890625,1.3320159912109375
1761383460152945400,4.3059453125,-0.06158447265625,-0.134796142578125,0.8322601318359375
1761383460163015400,4.316015380859375,-0.0647735595703125,0.0546875,0.2570648193359375
1761383460173084200,4.326084228515625,-0.0671844482421875,0.2877197265625,-0.4018402099609375
1761383460183154400,4.336154541015625,0.0858306884765625,0.5300140380859375,-1.08953857421875
1761383460193223400,4.346223388671875,0.502044677734375,0.6588592529296875,-1.7306976318359375
1761383460203293400,4.35629345703125,1.0080718994140625,0.708465576171875,-2.279754638671875
1761383460213362400,4.366362548828125,1.3965301513671875,0.6496124267578125,-2.680511474609375
1761383460223432200,4.37643212890625,1.391876220703125,0.6019287109375,-2.8631591796875
1761383460233501400,4.38650146484375,1.3821868896484375,0.53875732421875,-2.866455078125
1761383460243571200,4.3965712890625,1.130706787109375,0.35595703125,-2.6533203125
1761383460253640400,4.406640380859375,0.83367919921875,0.2556915283203125,-2.306793212890625
1761383460263710200,4.416710205078125,0.54595947265625,0.22686767578125,-1.9074249267578125
1761383460273779500,4.426779541015625,0.314361572265625,0.098724365234375,-1.4948272705078125
1761383460283849500,4.436849365234375,0.1602783203125,-0.0262298583984375,-1.0871124267578125
1761383460293918500,4.44691845703125,0.0332794189453125,-0.0970916748046875,-0.672821044921875
1761383460303988500,4.456988525390625,-0.09979248046875,-0.1477203369140625,-0.2498016357421875
1761383460314057500,4.467057373046875,-0.3040313720703125,-0.1836090087890625,0.2004547119140625
1761383460324127500,4.47712744140625,-0.5712738037109375,-0.2707977294921875,0.707366943359375
1761383460334196200,4.4871962890625,-0.80584716796875,-0.421142578125,1.26373291015625
1761383460344266500,4.4972666015625,-0.890899658203125,-0.502105712890625,1.7943572998046875
1761383460354335200,4.507335205078125,-0.87677001953125,-0.5681915283203125,2.3372039794921875
1761383460364405500,4.517405517578125,-0.8773956298828125,-0.8245086669921875,2.76678466796875
1761383460374474200,4.52747412109375,-0.7900238037109375,-1.037689208984375,3.003143310546875
1761383460384544300,4.537544189453125,-0.753875732421875,-1.183441162109375,3.1062469482421875
1761383460394613200,4.54761328125,-0.721038818359375,-1.2010650634765625,3.0500030517578125
1761383460404683300,4.557683349609375,-0.6340179443359375,-1.0067901611328125,2.851226806640625
1761383460414752300,4.567752197265625,-0.508392333984375,-0.7517852783203125,2.549560546875
1761383460424822300,4.577822265625,-0.32550048828125,-0.519775390625,2.1735992431640625
1761383460434891500,4.5878916015625,-0.1179656982421875,-0.3182220458984375,1.7525787353515625
1761383460444961300,4.597961181640625,0.070068359375,-0.1473541259765625,1.31280517578125
1761383460455030500,4.608030517578125,0.18292236328125,0.03094482421875,0.8568267822265625
1761383460465100300,4.618100341796875,0.189453125,0.2337799072265625,0.316802978515625
1761383460475169500,4.62816943359375,0.10382080078125,0.4558563232421875,-0.3361968994140625
1761383460485239300,4.6382392578125,0.0682830810546875,0.6744232177734375,-1.048828125
1761383460495308300,4.648308349609375,0.2295989990234375,0.8473663330078125,-1.7048492431640625
1761383460505378300,4.65837841796875,0.558349609375,0.87396240234375,-2.1705322265625
1761383460515447300,4.668447265625,0.943634033203125,0.7899932861328125,-2.4771728515625
1761383460525517600,4.678517578125,1.20257568359375,0.7783966064453125,-2.66162109375
1761383460535587300,4.68858740234375,1.3006134033203125,0.785003662109375,-2.69573974609375
1761383460545656300,4.69865625,1.30035400390625,0.6922607421875,-2.5906982421875
1761383460555726300,4.708726318359375,1.204803466796875,0.5681610107421875,-2.366241455078125
1761383460565795300,4.71879541015625,1.0311737060546875,0.4449310302734375,-2.0955047607421875
1761383460575865300,4.728865234375,0.8527069091796875,0.2877349853515625,-1.7870635986328125
1761383460585934300,4.738934326171875,0.67510986328125,0.091461181640625,-1.4458770751953125
1761383460596004400,4.74900439453125,0.49578857421875,-0.105010986328125,-1.091644287109375
1761383460606073300,4.7590732421875,0.32904052734375,-0.1923675537109375,-0.73370361328125
1761383460616143400,4.769143310546875,0.1468658447265625,-0.168701171875,-0.3668365478515625
1761383460626212400,4.77921240234375,-0.029022216796875,-0.1221771240234375,0.0291595458984375
1761383460636282400,4.789282470703125,-0.23236083984375,-0.1095733642578125,0.4955902099609375
1761383460646351400,4.799351318359375,-0.521209716796875,-0.1585540771484375,1.0641021728515625
1761383460656421400,4.80942138671875,-0.77740478515625,-0.27923583984375,1.6607666015625
1761383460666490400,4.819490478515625,-0.958984375,-0.44879150390625,2.27020263671875
1761383460676560400,4.829560302734375,-1.0644989013671875,-0.8025970458984375,2.799560546875
1761383460686629400,4.83962939453125,-0.990478515625,-1.121124267578125,3.1162567138671875
1761383460696699400,4.849699462890625,-0.8955230712890625,-1.2777252197265625,3.2361907958984375
1761383460706768600,4.8597685546875,-0.7818450927734375,-1.3411102294921875,3.11383056640625
1761383460716838700,4.869838623046875,-0.6444854736328125,-1.15203857421875,2.8300323486328125
1761383460726907600,4.87990771484375,-0.5124359130859375,-0.833953857421875,2.4512939453125
1761383460736977700,4.889977783203125,-0.3787078857421875,-0.5873870849609375,2.0467681884765625
1761383460747046700,4.900046630859375,-0.232177734375,-0.38543701171875,1.604827880859375
1761383460757116700,4.91011669921875,-0.1212005615234375,-0.17529296875,1.117523193359375
1761383460767185700,4.920185546875,-0.085174560546875,0.0698699951171875,0.53680419921875
1761383460777255400,4.93025537109375,-0.0822906494140625,0.3625335693359375,-0.1661224365234375
1761383460787324700,4.94032470703125,-0.00567626953125,0.6613311767578125,-0.92138671875
1761383460797394400,4.95039453125,0.2816162109375,0.8987884521484375,-1.6160430908203125
1761383460807463700,4.960463623046875,0.7259674072265625,1.0345001220703125,-2.1951141357421875
1761383460817533400,4.970533447265625,1.0102081298828125,1.0887908935546875,-2.5593109130859375
1761383460827602700,4.980602783203125,1.29217529296875,1.1282958984375,-2.759979248046875
1761383460837672700,4.990672607421875,1.4876861572265625,0.9570465087890625,-2.7756500244140625
1761383460847741700,5.00074169921875,1.5889892578125,0.6855926513671875,-2.62542724609375
1761383460857811700,5.010811767578125,1.583038330078125,0.4456024169921875,-2.361572265625
1761383460867880700,5.020880615234375,1.4329986572265625,0.4114532470703125,-2.024627685546875
1761383460877950700,5.03095068359375,1.132080078125,0.37353515625,-1.6565399169921875
1761383460888019500,5.04101953125,0.8275604248046875,0.22174072265625,-1.2724609375
1761383460898089700,5.05108984375,0.578399658203125,0.0190582275390625,-0.8765106201171875
1761383460908158500,5.061158447265625,0.3524627685546875,-0.104736328125,-0.4779510498046875
1761383460918228700,5.071228759765625,0.10870361328125,-0.1216583251953125,-0.0724639892578125
1761383460928297500,5.08129736328125,-0.1627349853515625,-0.07806396484375,0.3630523681640625
1761383460938367500,5.091367431640625,-0.471954345703125,-0.10546875,0.862762451171875
1761383460948436500,5.1014365234375,-0.741363525390625,-0.274169921875,1.4278106689453125
1761383460958506500,5.111506591796875,-0.827850341796875,-0.470703125,1.9330902099609375
1761383460968575700,5.12157568359375,-0.8345794677734375,-0.650177001953125,2.39385986328125
1761383460978645500,5.1316455078125,-0.7719268798828125,-0.855499267578125,2.7990875244140625
1761383460988714800,5.14171484375,-0.6730499267578125,-1.0352935791015625,3.0499420166015625
1761383460998784500,5.151784423828125,-0.582672119140625,-1.12469482421875,3.09112548828125
1761383461008853800,5.161853759765625,-0.5493927001953125,-1.1902008056640625,2.987701416015625
1761383461018923500,5.171923583984375,-0.50347900390625,-1.069915771484375,2.765899658203125
1761383461028992800,5.18199267578125,-0.4326629638671875,-0.8268890380859375,2.44354248046875
1761383461039062500,5.1920625,-0.3377227783203125,-0.599395751953125,2.042510986328125
1761383461049132500,5.202132568359375,-0.2211456298828125,-0.3978271484375,1.582489013671875
1761383461059201800,5.212201904296875,-0.173095703125,-0.187744140625,1.0545654296875
1761383461069271600,5.222271484375,-0.191925048828125,0.0342864990234375,0.4532928466796875
1761383461079340800,5.2323408203125,-0.2147979736328125,0.24456787109375,-0.221923828125
1761383461089410600,5.24241064453125,-0.094757080078125,0.4702606201171875,-0.919708251953125
1761383461099479600,5.2524794921875,0.210174560546875,0.6768951416015625,-1.5931396484375
1761383461109549600,5.262549560546875,0.55548095703125,0.8760528564453125,-2.2391510009765625
1761383461119618600,5.27261865234375,0.8960113525390625,0.9629058837890625,-2.7985382080078125
1761383461129688600,5.2826884765625,1.1539764404296875,0.8251495361328125,-3.1309661865234375
1761383461139757600,5.292757568359375,1.2462158203125,0.65576171875,-3.1970367431640625
1761383461149827800,5.302827880859375,1.16009521484375,0.4936065673828125,-3.010986328125
1761383461159896600,5.312896484375,0.97064208984375,0.326263427734375,-2.6637725830078125
1761383461169966600,5.322966552734375,0.7861785888671875,0.2144927978515625,-2.2427978515625
1761383461180035600,5.33303564453125,0.6135101318359375,0.069488525390625,-1.7949371337890625
1761383461190105600,5.343105712890625,0.4486236572265625,-0.0672607421875,-1.3548126220703125
1761383461200174600,5.353174560546875,0.27130126953125,-0.148590087890625,-0.9289093017578125
1761383461210244600,5.36324462890625,0.09954833984375,-0.1265411376953125,-0.508514404296875
1761383461220313600,5.373313720703125,-0.0504913330078125,-0.0381011962890625,-0.0623016357421875
1761383461230383600,5.383383544921875,-0.2273406982421875,0.0072479248046875,0.456451416015625
1761383461240452600,5.39345263671875,-0.4223785400390625,-0.0712127685546875,1.08056640625
1761383461250522600,5.403522705078125,-0.564453125,-0.2433319091796875,1.77764892578125
1761383461260591600,5.413591552734375,-0.592498779296875,-0.42852783203125,2.400299072265625
1761383461270661600,5.42366162109375,-0.4596710205078125,-0.6740570068359375,2.8593292236328125
1761383461280730600,5.433730712890625,-0.4076995849609375,-0.839263916015625,3.1847686767578125
1761383461290800600,5.443800537109375,-0.1711273193359375,-0.9065093994140625,3.2709503173828125
1761383461300869600,5.45386962890625,0.03057861328125,-0.91448974609375,3.2270355224609375
1761383461310939600,5.463939697265625,0.1705780029296875,-0.7156829833984375,3.0278472900390625
1761383461321008600,5.474008544921875,0.21826171875,-0.4217987060546875,2.7109375
1761383461331078700,5.48407861328125,0.2380218505859375,-0.138641357421875,2.3246307373046875
1761383461341147600,5.494147705078125,0.275146484375,0.04638671875,1.907562255859375
1761383461351217400,5.504217529296875,0.333587646484375,0.1622161865234375,1.470458984375
1761383461361286700,5.51428662109375,0.300811767578125,0.227203369140625,0.9836883544921875
1761383461371356700,5.524356689453125,0.1735687255859375,0.2400360107421875,0.4362640380859375
1761383461381425700,5.53442578125,-0.02593994140625,0.201263427734375,-0.1368255615234375
1761383461391495700,5.54449560546875,-0.20037841796875,0.167236328125,-0.721435546875
1761383461401564700,5.554564697265625,-0.330810546875,0.13519287109375,-1.2724761962890625
1761383461411634700,5.564634765625,-0.384368896484375,0.134552001953125,-1.7773284912109375
1761383461421703700,5.57470361328125,-0.3358612060546875,0.2297515869140625,-2.1949310302734375
1761383461431773700,5.584773681640625,-0.112396240234375,0.323333740234375,-2.517059326171875
1761383461441842400,5.594842529296875,0.1864471435546875,0.408050537109375,-2.759307861328125
1761383461451912700,5.60491259765625,0.447021484375,0.5016632080078125,-2.927032470703125
1761383461461981400,5.6149814453125,0.6721954345703125,0.47564697265625,-2.9822235107421875
1761383461472051700,5.6250517578125,0.8300628662109375,0.3740234375,-2.918975830078125
1761383461482121700,5.635121826171875,0.8692169189453125,0.2402496337890625,-2.7152252197265625
1761383461492190700,5.645190673828125,0.8073577880859375,0.1393585205078125,-2.3794097900390625
1761383461502260700,5.6552607421875,0.6489715576171875,0.105194091796875,-1.939605712890625
1761383461512329500,5.66532958984375,0.461090087890625,0.0822906494140625,-1.4467315673828125
1761383461522399700,5.675399658203125,0.266815185546875,0.0876312255859375,-0.911285400390625
1761383461532468500,5.685468505859375,0.1023101806640625,0.1371002197265625,-0.3626861572265625
1761383461542538800,5.695538818359375,-0.045928955078125,0.2533111572265625,0.1928558349609375
1761383461552607500,5.705607421875,-0.235137939453125,0.3203582763671875,0.8225250244140625
1761383461562677500,5.715677490234375,-0.3980712890625,0.201995849609375,1.575592041015625
1761383461572746500,5.72574658203125,-0.4061737060546875,-0.045562744140625,2.3260040283203125
1761383461582816500,5.73581640625,-0.33209228515625,-0.3785858154296875,3.0143585205078125
1761383461592885500,5.745885498046875,-0.1312255859375,-0.7817230224609375,3.510162353515625
1761383461602955500,5.75595556640625,0.0561370849609375,-1.028778076171875,3.727783203125
1761383461613024800,5.766024658203125,0.144012451171875,-1.03924560546875,3.6834869384765625
1761383461623094500,5.776094482421875,0.1663055419921875,-0.8247833251953125,3.42022705078125
1761383461633163800,5.786163818359375,0.1557159423828125,-0.4661407470703125,3.022796630859375
1761383461643233500,5.796233642578125,0.17999267578125,-0.1653289794921875,2.5563201904296875
1761383461653302800,5.806302734375,0.2164154052734375,0.06451416015625,2.05181884765625
1761383461663372500,5.81637255859375,0.2251434326171875,0.20831298828125,1.517608642578125
1761383461673441500,5.826441650390625,0.191802978515625,0.265716552734375,0.9549407958984375
1761383461683511600,5.836511474609375,0.0879058837890625,0.2866058349609375,0.3436279296875
1761383461693580500,5.84658056640625,-0.0311431884765625,0.3154296875,-0.3037872314453125
1761383461703650800,5.85665087890625,-0.073272705078125,0.3410186767578125,-0.9380035400390625
1761383461713719000,5.866718994140625,-0.0027923583984375,0.4044952392578125,-1.5595855712890625
1761383461723789300,5.876789306640625,0.165740966796875,0.5269775390625,-2.143585205078125
1761383461733858300,5.8868583984375,0.3808441162109375,0.60699462890625,-2.6100616455078125
1761383461743928300,5.89692822265625,0.612335205078125,0.626861572265625,-2.9366607666015625
1761383461753997300,5.906997314453125,0.7452850341796875,0.603057861328125,-3.0863494873046875
1761383461764067000,5.917067138671875,0.7910308837890625,0.4849090576171875,-3.0341644287109375
1761383461774136300,5.92713623046875,0.7707366943359375,0.337738037109375,-2.792633056640625
1761383461784206000,5.9372060546875,0.703155517578125,0.219512939453125,-2.4322357177734375
1761383461794275300,5.947275390625,0.5929412841796875,0.115020751953125,-2.0238800048828125
1761383461804345000,5.957344970703125,0.4538421630859375,0.005157470703125,-1.604766845703125
1761383461814414300,5.967414306640625,0.30426025390625,-0.088165283203125,-1.1890716552734375
1761383461824484400,5.977484375,0.1568756103515625,-0.1143798828125,-0.7705841064453125
1761383461834553300,5.98755322265625,0.0230865478515625,-0.047760009765625,-0.3231048583984375
1761383461844623400,5.997623291015625,-0.1120452880859375,0.04058837890625,0.171600341796875
1761383461854692000,6.007692138671875,-0.2710418701171875,0.0621795654296875,0.728302001953125
1761383461864762400,6.017762451171875,-0.430999755859375,-0.0225067138671875,1.4075164794921875
1761383461874831000,6.0278310546875,-0.509033203125,-0.2480621337890625,2.126434326171875
1761383461884901400,6.0379013671875,-0.5134429931640625,-0.4823150634765625,2.6959381103515625
1761383461894970000,6.04797021484375,-0.4995574951171875,-0.7389984130859375,3.1114044189453125
1761383461905040400,6.058040283203125,-0.3875274658203125,-0.9855499267578125,3.312713623046875
1761383461915109000,6.068109130859375,-0.285919189453125,-1.061767578125,3.3266448974609375
1761383461925179100,6.07817919921875,-0.171234130859375,-0.9439544677734375,3.1850738525390625
1761383461935248100,6.088248046875,-0.09197998046875,-0.72210693359375,2.9239044189453125
1761383461945318100,6.098318115234375,-0.0485076904296875,-0.5137939453125,2.5699920654296875
1761383461955387400,6.108387451171875,-0.0330657958984375,-0.338409423828125,2.1512908935546875
1761383461965457200,6.11845703125,-0.0187225341796875,-0.2234039306640625,1.7043609619140625
1761383461975526400,6.1285263671875,-0.0447998046875,-0.1390533447265625,1.232147216796875
1761383461985596200,6.13859619140625,-0.13641357421875,-0.0394134521484375,0.7116851806640625
1761383461995665400,6.14866552734375,-0.260589599609375,0.0663909912109375,0.151092529296875
1761383462005735200,6.158735107421875,-0.33892822265625,0.16107177734375,-0.431976318359375
1761383462015805200,6.16880517578125,-0.2873077392578125,0.312164306640625,-0.979522705078125
1761383462025874200,6.178874267578125,-0.0470733642578125,0.47216796875,-1.4932861328125
1761383462035944200,6.188944091796875,0.3193817138671875,0.696563720703125,-2.037811279296875
1761383462046013400,6.199013427734375,0.6728057861328125,0.9436798095703125,-2.566986083984375
1761383462056083200,6.209083251953125,1.019012451171875,0.9629364013671875,-2.9632568359375
1761383462066152400,6.21915234375,1.2849273681640625,0.793426513671875,-3.115997314453125
1761383462076222200,6.22922216796875,1.3509979248046875,0.6097869873046875,-3.000030517578125
1761383462086291200,6.239291259765625,1.2334136962890625,0.43243408203125,-2.6600341796875
1761383462096361200,6.249361328125,0.996734619140625,0.3393402099609375,-2.2212371826171875
1761383462106430200,6.25943017578125,0.734893798828125,0.245269775390625,-1.7620849609375
1761383462116500200,6.269500244140625,0.5012969970703125,0.0875701904296875,-1.3168487548828125
1761383462126569200,6.2795693359375,0.30517578125,-0.02728271484375,-0.8970794677734375
1761383462136639200,6.28963916015625,0.1341400146484375,-0.0639190673828125,-0.50115966796875
1761383462146708200,6.299708251953125,-0.01361083984375,-0.0617218017578125,-0.113861083984375
1761383462156778200,6.3097783203125,-0.2037200927734375,-0.07989501953125,0.28875732421875
1761383462166847200,6.31984716796875,-0.4829864501953125,-0.191009521484375,0.7586822509765625
1761383462176917200,6.329917236328125,-0.7367706298828125,-0.3838043212890625,1.268218994140625
1761383462186986200,6.339986328125,-0.9287109375,-0.5009918212890625,1.7110595703125
1761383462197056300,6.35005615234375,-0.87091064453125,-0.493560791015625,2.029876708984375
1761383462207125200,6.360125244140625,-0.5385284423828125,-0.499267578125,2.371246337890625
1761383462217195300,6.3701953125,-0.49383544921875,-0.591461181640625,2.759368896484375
1761383462227264300,6.38026416015625,-0.2465972900390625,-0.7737579345703125,2.8965911865234375
1761383462237334300,6.390334228515625,-0.067535400390625,-0.8659820556640625,2.926116943359375
1761383462247403300,6.4004033203125,0.0067596435546875,-0.903167724609375,2.832763671875
1761383462257473300,6.410473388671875,0.072967529296875,-0.825836181640625,2.6327972412109375
1761383462267542000,6.4205419921875,0.175994873046875,-0.6526947021484375,2.34613037109375
1761383462277612300,6.4306123046875,0.247100830078125,-0.5006256103515625,2.0019683837890625
1761383462287681300,6.440681396484375,0.258514404296875,-0.375213623046875,1.608367919921875
1761383462297751300,6.450751220703125,0.198333740234375,-0.234619140625,1.1789093017578125
1761383462307820300,6.4608203125,0.09747314453125,-0.116546630859375,0.7226715087890625
1761383462317890000,6.47089013671875,0.003753662109375,0.01190185546875,0.227294921875
1761383462327959300,6.480959228515625,-0.061767578125,0.1838531494140625,-0.36260986328125
1761383462338029000,6.491029052734375,-0.0533905029296875,0.372467041015625,-0.9917755126953125
1761383462348098300,6.501098388671875,0.0891571044921875,0.5659027099609375,-1.5791778564453125
1761383462358168000,6.51116796875,0.385040283203125,0.7709197998046875,-2.116119384765625
1761383462368237300,6.5212373046875,0.7218170166015625,0.8516082763671875,-2.558013916015625
1761383462378307300,6.531307373046875,1.0308380126953125,0.799041748046875,-2.848541259765625
1761383462388376300,6.541376220703125,1.1734619140625,0.70770263671875,-2.9214935302734375
1761383462398446300,6.5514462890625,1.1780242919921875,0.5742340087890625,-2.7764129638671875
1761383462408516000,6.56151611328125,1.0673828125,0.4539642333984375,-2.4476318359375
1761383462418585300,6.57158544921875,0.9066314697265625,0.3195648193359375,-2.0237884521484375
1761383462428655000,6.581655029296875,0.73577880859375,0.159881591796875,-1.58294677734375
1761383462438724400,6.591724365234375,0.570587158203125,0.0016021728515625,-1.1605682373046875
1761383462448794000,6.601794189453125,0.4310760498046875,-0.1031494140625,-0.7784576416015625
1761383462458863400,6.61186328125,0.3077239990234375,-0.1081390380859375,-0.4192047119140625
1761383462468933400,6.621933349609375,0.1817779541015625,-0.0538787841796875,-0.0547943115234375
1761383462479002000,6.632002197265625,0.033050537109375,-0.0153045654296875,0.3417816162109375
1761383462489072400,6.642072265625,-0.1995849609375,-0.0226593017578125,0.8073883056640625
1761383462499141000,6.65214111328125,-0.4744720458984375,-0.14532470703125,1.3594512939453125
1761383462509211400,6.66221142578125,-0.7106170654296875,-0.327239990234375,1.9775543212890625
1761383462519280000,6.672280029296875,-0.8755645751953125,-0.490936279296875,2.591705322265625
1761383462529350400,6.682350341796875,-0.8775177001953125,-0.639007568359375,3.021636962890625
1761383462539419100,6.692419189453125,-0.78717041015625,-0.8210906982421875,3.2466278076171875
1761383462549489200,6.7024892578125,-0.683837890625,-0.9173126220703125,3.2535247802734375
1761383462559558100,6.71255810546875,-0.5357513427734375,-0.869384765625,3.1035919189453125
1761383462569628200,6.722628173828125,-0.3628387451171875,-0.686309814453125,2.8545379638671875
1761383462579697200,6.732697265625,-0.186431884765625,-0.500274658203125,2.5237884521484375
1761383462589767200,6.74276708984375,-0.038482666015625,-0.364959716796875,2.139739990234375
1761383462599836400,6.75283642578125,0.051971435546875,-0.2498016357421875,1.7203826904296875
1761383462609906200,6.76290625,0.0633392333984375,-0.133514404296875,1.2885589599609375
1761383462619975400,6.772975341796875,-0.0334930419921875,-0.0135955810546875,0.8372650146484375
1761383462630045200,6.783045166015625,-0.2489776611328125,0.116058349609375,0.302154541015625
1761383462640114400,6.793114501953125,-0.4534454345703125,0.2303619384765625,-0.3271026611328125
1761383462650184200,6.80318408203125,-0.4393768310546875,0.307830810546875,-0.934661865234375
1761383462660253200,6.813253173828125,-0.1296539306640625,0.4367523193359375,-1.48797607421875
1761383462670323200,6.8233232421875,0.33209228515625,0.654815673828125,-2.025726318359375
1761383462680392200,6.83339208984375,0.82720947265625,0.912567138671875,-2.5510711669921875
1761383462690462500,6.84346240234375,1.218292236328125,0.9979400634765625,-2.971099853515625
1761383462700531200,6.85353125,1.44036865234375,0.8244781494140625,-3.1550445556640625
1761383462710604800,6.863604736328125,1.4857635498046875,0.6480560302734375,-3.0588531494140625
1761383462720673800,6.873673828125,1.33795166015625,0.5417633056640625,-2.7373504638671875
1761383462730743800,6.883743896484375,1.050018310546875,0.4542694091796875,-2.3192138671875
1761383462740812800,6.893812744140625,0.7758026123046875,0.32177734375,-1.8787689208984375
1761383462750882800,6.9038828125,0.5751953125,0.1269073486328125,-1.44622802734375
1761383462760951800,6.913951904296875,0.429931640625,-0.0570526123046875,-1.047027587890625
1761383462771021800,6.924021728515625,0.304656982421875,-0.1483306884765625,-0.678924560546875
1761383462781091000,6.934091064453125,0.1930999755859375,-0.16162109375,-0.3231658935546875
1761383462791160800,6.944160888671875,0.0461883544921875,-0.15777587890625,0.0502777099609375
1761383462801230000,6.95422998046875,-0.204254150390625,-0.1711578369140625,0.487701416015625
1761383462811299800,6.9642998046875,-0.510650634765625,-0.2409210205078125,1.0252532958984375
1761383462821368800,6.974368896484375,-0.7568359375,-0.3766937255859375,1.6300048828125
1761383462831438800,6.98443896484375,-0.95458984375,-0.5146942138671875,2.2504119873046875
1761383462841507800,6.9945078125,-1.1092681884765625,-0.715911865234375,2.7901458740234375
1761383462851577900,7.004577880859375,-1.0959625244140625,-1.0267791748046875,3.1183013916015625
1761383462861646800,7.014646728515625,-0.9483795166015625,-1.201873779296875,3.2177886962890625
1761383462871716900,7.024716796875,-0.8035125732421875,-1.1798248291015625,3.092864990234375
1761383462881785900,7.034785888671875,-0.645599365234375,-1.0164947509765625,2.8097991943359375
1761383462891856000,7.04485595703125,-0.4732208251953125,-0.84722900390625,2.4549407958984375
1761383462901924900,7.0549248046875,-0.3337860107421875,-0.6831512451171875,2.054046630859375
1761383462911995000,7.064994873046875,-0.2652740478515625,-0.4945831298828125,1.6278228759765625
1761383462922064000,7.07506396484375,-0.26580810546875,-0.31805419921875,1.201507568359375
1761383462932134000,7.0851337890625,-0.3386077880859375,-0.1437835693359375,0.7801513671875
1761383462942203000,7.095202880859375,-0.4795684814453125,0.0400390625,0.2952423095703125
1761383462952273000,7.10527294921875,-0.6014862060546875,0.24462890625,-0.261962890625
1761383462962343000,7.115343017578125,-0.505859375,0.4221954345703125,-0.8423614501953125
1761383462972412000,7.125411865234375,-0.0917205810546875,0.62127685546875,-1.41827392578125
1761383462982482000,7.13548193359375,0.449188232421875,0.8170013427734375,-1.9745330810546875
1761383462992551000,7.145551025390625,0.9719390869140625,0.8806915283203125,-2.456787109375
1761383463002621000,7.155620849609375,1.431243896484375,0.7966461181640625,-2.76348876953125
1761383463012690000,7.16568994140625,1.7227935791015625,0.632965087890625,-2.84149169921875
1761383463022760000,7.175760009765625,1.7122039794921875,0.49237060546875,-2.6569976806640625
1761383463032829000,7.185828857421875,1.4354095458984375,0.4494781494140625,-2.307159423828125
1761383463042899000,7.19589892578125,1.091461181640625,0.4163665771484375,-1.8881072998046875
1761383463052967700,7.2059677734375,0.79144287109375,0.2723388671875,-1.4697113037109375
1761383463063038000,7.216037841796875,0.5642852783203125,0.105712890625,-1.102569580078125
1761383463073106700,7.226106689453125,0.38812255859375,-0.037017822265625,-0.7864990234375
1761383463083177000,7.236177001953125,0.2863311767578125,-0.1048736572265625,-0.4927215576171875
1761383463093245700,7.24624560546875,0.2206573486328125,-0.07757568359375,-0.1745147705078125
1761383463103315700,7.256315673828125,0.08428955078125,-0.08551025390625,0.1726837158203125
1761383463113385000,7.266385009765625,-0.16436767578125,-0.2160186767578125,0.594268798828125
1761383463123454700,7.276454833984375,-0.5340576171875,-0.463104248046875,1.15203857421875
1761383463133524000,7.28652392578125,-0.899322509765625,-0.7917022705078125,1.8077392578125
1761383463143593700,7.29659375,-1.2103271484375,-1.0430450439453125,2.510894775390625
1761383463153663000,7.3066630859375,-1.362396240234375,-1.3946990966796875,3.0248565673828125
1761383463163732700,7.316732666015625,-1.471343994140625,-1.5488128662109375,3.2549896240234375
1761383463173802000,7.326802001953125,-1.2800140380859375,-1.4779205322265625,3.1723785400390625
1761383463183871700,7.336871826171875,-1.0901947021484375,-1.31146240234375,2.90704345703125
1761383463193941000,7.34694091796875,-0.807342529296875,-1.029205322265625,2.5255279541015625
1761383463204011000,7.357010986328125,-0.492889404296875,-0.6995086669921875,2.0941009521484375
1761383463214079700,7.367079833984375,-0.2342529296875,-0.399932861328125,1.6262359619140625
1761383463224150000,7.37714990234375,-0.022064208984375,-0.1436767578125,1.1466064453125
1761383463234218800,7.38721875,0.1170806884765625,0.057586669921875,0.643798828125
1761383463244289000,7.3972890625,0.1725006103515625,0.24127197265625,0.081024169921875
1761383463254357800,7.407357666015625,0.2307586669921875,0.4053192138671875,-0.5373992919921875
1761383463264427800,7.417427734375,0.40582275390625,0.51727294921875,-1.1889801025390625
1761383463274496800,7.427496826171875,0.7438812255859375,0.6131134033203125,-1.8099517822265625
1761383463284566800,7.43756689453125,1.1016998291015625,0.6959686279296875,-2.296234130859375
1761383463294635800,7.4476357421875,1.392425537109375,0.7397003173828125,-2.582794189453125
1761383463304705800,7.457705810546875,1.5817718505859375,0.6779327392578125,-2.6098175048828125
1761383463314774800,7.46777490234375,1.5436859130859375,0.5526885986328125,-2.4138946533203125
1761383463324844800,7.4778447265625,1.2201385498046875,0.4647369384765625,-2.0933837890625
1761383463334914000,7.4879140625,0.844940185546875,0.3367919921875,-1.76300048828125
1761383463344983800,7.49798388671875,0.553619384765625,0.178253173828125,-1.4402618408203125
1761383463355053000,7.508052978515625,0.369781494140625,0.0190582275390625,-1.152618408203125
1761383463365122800,7.518122802734375,0.2600250244140625,-0.11248779296875,-0.88232421875
1761383463375191800,7.52819189453125,0.1910400390625,-0.2259063720703125,-0.6143341064453125
1761383463385261800,7.53826171875,0.1401824951171875,-0.2876129150390625,-0.327056884765625
1761383463395330800,7.548330810546875,-0.0069427490234375,-0.3440093994140625,0.0081787109375
1761383463405400800,7.55840087890625,-0.21502685546875,-0.443023681640625,0.398529052734375
1761383463415469800,7.5684697265625,-0.5040740966796875,-0.581573486328125,0.8879852294921875
1761383463425540000,7.5785400390625,-0.7640533447265625,-0.7635345458984375,1.4357757568359375
1761383463435608800,7.58860888671875,-1.0423126220703125,-0.9426116943359375,2.007110595703125
1761383463445678800,7.598678955078125,-1.2075042724609375,-1.1294708251953125,2.4355010986328125
1761383463455748900,7.608748779296875,-1.2054901123046875,-1.391326904296875,2.607330322265625
1761383463465817900,7.61881787109375,-1.220916748046875,-1.39288330078125,2.592315673828125
1761383463475887900,7.628887939453125,-1.191314697265625,-1.2972412109375,2.404998779296875
1761383463485956900,7.638956787109375,-1.1777496337890625,-1.130035400390625,2.1058197021484375
1761383463496027000,7.64902685546875,-1.094940185546875,-0.939453125,1.731689453125
1761383463506095900,7.659095947265625,-0.8968353271484375,-0.7342376708984375,1.3353729248046875
1761383463516166000,7.669165771484375,-0.6541595458984375,-0.4934844970703125,0.9075775146484375
1761383463526235000,7.67923486328125,-0.3818817138671875,-0.273468017578125,0.4300994873046875
1761383463536305000,7.689304931640625,-0.0885162353515625,-0.0792388916015625,-0.108367919921875
1761383463546374000,7.699373779296875,0.1919097900390625,0.1389312744140625,-0.6828155517578125
1761383463556444000,7.70944384765625,0.45684814453125,0.321014404296875,-1.2170867919921875
1761383463566513000,7.719512939453125,0.7611541748046875,0.4651947021484375,-1.6809844970703125
1761383463576583000,7.7295830078125,1.1377105712890625,0.5634307861328125,-2.0368804931640625
1761383463586652000,7.73965185546875,1.3603057861328125,0.497222900390625,-2.153350830078125
1761383463596722000,7.749721923828125,1.5799102783203125,0.32763671875,-2.154205322265625
1761383463606790700,7.759790771484375,1.58953857421875,0.1668701171875,-1.9807586669921875
1761383463616861000,7.76986083984375,1.45068359375,0.0427703857421875,-1.7043914794921875
1761383463626929700,7.7799296875,1.1552276611328125,0.0363006591796875,-1.394256591796875
1761383463637000000,7.79,0.8504638671875,-0.0325469970703125,-1.0849456787109375
1761383463647069000,7.80006884765625,0.592742919921875,-0.1698150634765625,-0.7715606689453125
1761383463657139000,7.810138916015625,0.3609771728515625,-0.2719879150390625,-0.447357177734375
1761383463667208000,7.8202080078125,0.1085052490234375,-0.357696533203125,-0.0945587158203125
1761383463677277700,7.830277587890625,-0.1470947265625,-0.4415130615234375,0.2895965576171875
1761383463687347000,7.840346923828125,-0.468231201171875,-0.5278167724609375,0.73291015625
1761383463697416700,7.850416748046875,-0.7573089599609375,-0.711181640625,1.2216949462890625
1761383463707486000,7.86048583984375,-0.9670867919921875,-0.867095947265625,1.7473297119140625
1761383463717551600,7.870551513671875,-1.152496337890625,-0.996612548828125,2.2986907958984375
1761383463727620900,7.880620849609375,-1.196563720703125,-1.107177734375,2.6122894287109375
1761383463737690600,7.890690673828125,-1.2489776611328125,-1.130401611328125,2.6824493408203125
1761383463747759900,7.900759765625,-1.257171630859375,-1.1024169921875,2.5173187255859375
1761383463757829600,7.91082958984375,-1.0774688720703125,-1.0428009033203125,2.2162933349609375
1761383463767899000,7.92089892578125,-0.7937469482421875,-0.8615264892578125,1.8808135986328125
1761383463777968600,7.93096875,-0.5047149658203125,-0.6632843017578125,1.50140380859375
1761383463788038000,7.941037841796875,-0.2530975341796875,-0.5148773193359375,1.082427978515625
1761383463798107600,7.951107666015625,-0.0338134765625,-0.4052886962890625,0.6215057373046875
1761383463808176600,7.9611767578125,0.1581878662109375,-0.3314056396484375,0.1189117431640625
1761383463818247000,7.971246826171875,0.2646636962890625,-0.3025665283203125,-0.4147491455078125
1761383463828315600,7.981315673828125,0.3064117431640625,-0.2723388671875,-0.9296875
1761383463838386000,7.991385986328125,0.3669586181640625,-0.257080078125,-1.3500518798828125
1761383463848454700,8.00145458984375,0.450408935546875,-0.263031005859375,-1.6457366943359375
1761383463858524700,8.011524658203125,0.4946441650390625,-0.253204345703125,-1.811492919921875
1761383463868593700,8.02159375,0.4835968017578125,-0.2497711181640625,-1.856842041015625
1761383463878663700,8.03166357421875,0.398223876953125,-0.2843780517578125,-1.808258056640625
1761383463888732700,8.041732666015625,0.234283447265625,-0.332244873046875,-1.6719512939453125
1761383463898802700,8.051802734375,0.0573272705078125,-0.4019775390625,-1.458343505859375
1761383463908871700,8.06187158203125,-0.08294677734375,-0.49810791015625,-1.192840576171875
1761383463918941700,8.071941650390626,-0.2577056884765625,-0.6070556640625,-0.8752593994140625
1761383463929010700,8.0820107421875,-0.432220458984375,-0.755645751953125,-0.5202789306640625
1761383463939080700,8.092080810546875,-0.58575439453125,-0.873565673828125,-0.146942138671875
1761383463949150000,8.10214990234375,-0.725494384765625,-0.900665283203125,0.2015228271484375
1761383463959219700,8.1122197265625,-0.82513427734375,-0.8892059326171875,0.5139007568359375
1761383463969288700,8.122288818359374,-0.814056396484375,-0.9250030517578125,0.806610107421875
1761383463979358700,8.132358642578126,-0.74993896484375,-1.00970458984375,1.0391845703125
1761383463989427700,8.142427734375,-0.720489501953125,-1.0540313720703125,1.1798248291015625
1761383463999497700,8.152497802734375,-0.7147674560546875,-1.092254638671875,1.2272491455078125
1761383464009566700,8.162566650390625,-0.7039947509765625,-1.1023712158203125,1.1873779296875
1761383464019636700,8.17263671875,-0.677734375,-1.0605621337890625,1.0797271728515625
1761383464029706800,8.182706787109375,-0.5949554443359375,-0.998199462890625,0.9149017333984375
1761383464039775700,8.192775634765624,-0.5081634521484375,-0.9066314697265625,0.6993408203125
1761383464049844700,8.2028447265625,-0.4659271240234375,-0.8300628662109375,0.4784393310546875
1761383464059914800,8.212914794921875,-0.42022705078125,-0.7900390625,0.2841796875
1761383464069984800,8.22298486328125,-0.355499267578125,-0.7425689697265625,0.108062744140625
1761383464080053800,8.2330537109375,-0.2882080078125,-0.701873779296875,-0.0514984130859375
1761383464090123800,8.243123779296875,-0.23419189453125,-0.6867218017578125,-0.187286376953125
1761383464100192800,8.25319287109375,-0.212493896484375,-0.6953125,-0.2985382080078125
1761383464110262500,8.263262451171874,-0.2313995361328125,-0.7222747802734375,-0.3777618408203125
1761383464120331800,8.273331787109376,-0.2628936767578125,-0.7578887939453125,-0.415863037109375
1761383464130401800,8.28340185546875,-0.307342529296875,-0.777069091796875,-0.4232940673828125
1761383464140470800,8.293470703125,-0.34539794921875,-0.79150390625,-0.4124755859375
1761383464150540800,8.303540771484375,-0.3885955810546875,-0.8196868896484375,-0.38092041015625
1761383464160609800,8.31360986328125,-0.4187164306640625,-0.8656158447265625,-0.3325653076171875
1761383464170679800,8.3236796875,-0.4434356689453125,-0.905120849609375,-0.2751617431640625
1761383464180748800,8.333748779296876,-0.4700469970703125,-0.92626953125,-0.217254638671875
1761383464190818800,8.34381884765625,-0.490753173828125,-0.9381103515625,-0.1666107177734375
1761383464200887800,8.3538876953125,-0.5027618408203125,-0.9468994140625,-0.120819091796875
1761383464210957800,8.363957763671875,-0.4965667724609375,-0.9535369873046875,-0.080535888671875
1761383464221026600,8.374026611328125,-0.485748291015625,-0.9427032470703125,-0.0512542724609375
1761383464231096800,8.384096923828125,-0.463592529296875,-0.9379425048828125,-0.0378265380859375
1761383464241165600,8.39416552734375,-0.4492340087890625,-0.93408203125,-0.031158447265625
1761383464251235800,8.40423583984375,-0.433349609375,-0.9203643798828125,-0.0240936279296875
1761383464261304800,8.414304931640626,-0.39312744140625,-0.899383544921875,-0.00933837890625
1761383464271374600,8.42437451171875,-0.346099853515625,-0.868896484375,0.0032196044921875
1761383464281443800,8.43444384765625,-0.309844970703125,-0.8560638427734375,0.0107421875
1761383464291513600,8.444513671875,-0.3484039306640625,-0.8189849853515625,-0.015716552734375
1761383464301582800,8.454582763671874,-0.464111328125,-0.758941650390625,-0.0741424560546875
1761383464311652600,8.464652587890624,-0.50048828125,-0.7999725341796875,-0.0577392578125
1761383464321721900,8.474721923828126,-0.472259521484375,-0.8506011962890625,0.0395965576171875
1761383464331791600,8.48479150390625,-0.4590911865234375,-0.8744354248046875,0.15179443359375
1761383464341860900,8.49486083984375,-0.5000152587890625,-0.888702392578125,0.229644775390625
1761383464351930600,8.5049306640625,-0.5753021240234375,-0.9133758544921875,0.27288818359375
1761383464362000000,8.514999755859375,-0.643463134765625,-0.9427032470703125,0.30609130859375
1761383464372070000,8.52506982421875,-0.689422607421875,-0.9662628173828125,0.3466644287109375
1761383464382138600,8.535138671875,-0.7062225341796875,-0.9846649169921875,0.3938751220703125
1761383464392209000,8.545208984375,-0.70184326171875,-0.979339599609375,0.424652099609375
1761383464402277600,8.555277587890625,-0.68121337890625,-0.9719085693359375,0.4374237060546875
1761383464412348000,8.565347900390625,-0.644012451171875,-0.9385528564453125,0.4272308349609375
1761383464422416600,8.575416748046875,-0.612762451171875,-0.90435791015625,0.4033355712890625
1761383464432486700,8.585486572265625,-0.5671539306640625,-0.881561279296875,0.3714752197265625
1761383464442555600,8.5955556640625,-0.506103515625,-0.8554840087890625,0.3338165283203125
1761383464452625700,8.605625732421874,-0.4463043212890625,-0.8360137939453125,0.2935943603515625
1761383464462694700,8.615694580078125,-0.4058837890625,-0.8297271728515625,0.252960205078125
1761383464472764700,8.6257646484375,-0.3786163330078125,-0.816314697265625,0.2156829833984375
1761383464482833700,8.635833740234375,-0.354034423828125,-0.8078765869140625,0.1827392578125
1761383464492903700,8.645903564453125,-0.3282470703125,-0.819488525390625,0.16278076171875
1761383464502973000,8.655972900390625,-0.3233184814453125,-0.834075927734375,0.1527099609375
1761383464513042700,8.666042724609374,-0.3453521728515625,-0.847137451171875,0.1453704833984375
1761383464523112000,8.67611181640625,-0.376129150390625,-0.85736083984375,0.1368865966796875
1761383464533181700,8.686181640625,-0.4110260009765625,-0.8617401123046875,0.1364898681640625
1761383464543250700,8.696250732421875,-0.4306793212890625,-0.86077880859375,0.142791748046875
1761383464553320700,8.70632080078125,-0.42877197265625,-0.86181640625,0.1495361328125
1761383464563389700,8.7163896484375,-0.414276123046875,-0.8695068359375,0.1467742919921875
1761383464573459700,8.726459716796874,-0.404022216796875,-0.8701324462890625,0.1345977783203125
1761383464583528700,8.73652880859375,-0.39129638671875,-0.8455047607421875,0.118316650390625
1761383464593598700,8.7465986328125,-0.3614654541015625,-0.823883056640625,0.10125732421875
1761383464603667700,8.756667724609375,-0.3270416259765625,-0.8147125244140625,0.094696044921875
1761383464613737700,8.76673779296875,-0.2759246826171875,-0.796844482421875,0.0972442626953125
1761383464623806700,8.776806640625,-0.20159912109375,-0.8013916015625,0.110870361328125
1761383464633876700,8.786876708984375,-0.1885528564453125,-0.78985595703125,0.137969970703125
1761383464643945700,8.79694580078125,-0.190521240234375,-0.75213623046875,0.152008056640625
1761383464654015700,8.807015625,-0.2404327392578125,-0.713287353515625,0.18499755859375
1761383464664085500,8.81708544921875,-0.2342987060546875,-0.678375244140625,0.297943115234375
1761383464674154800,8.82715478515625,-0.25726318359375,-0.7039947509765625,0.32171630859375
1761383464684224800,8.837224853515625,-0.3487396240234375,-0.67266845703125,0.2973175048828125
1761383464694293800,8.847293701171875,-0.36383056640625,-0.69146728515625,0.366058349609375
1761383464704362800,8.85736279296875,-0.265167236328125,-0.73809814453125,0.541748046875
1761383464714432500,8.8674326171875,-0.1714019775390625,-0.841644287109375,0.7632904052734375
1761383464724502300,8.877502197265626,-0.211456298828125,-0.8753204345703125,0.8809661865234375
1761383464734571500,8.887571533203126,-0.337158203125,-0.8310699462890625,0.9056854248046875
1761383464744641300,8.897641357421875,-0.5349884033203125,-0.7207183837890625,0.828399658203125
1761383464754710500,8.90771044921875,-0.6148834228515625,-0.6743927001953125,0.7933197021484375
1761383464764780300,8.9177802734375,-0.5950469970703125,-0.6917266845703125,0.867828369140625
1761383464774849500,8.927849609375,-0.528564453125,-0.7005462646484375,0.869873046875
1761383464784919300,8.937919189453124,-0.52728271484375,-0.7038116455078125,0.8485260009765625
1761383464794988300,8.94798828125,-0.6732025146484375,-0.6761627197265625,0.810150146484375
1761383464805058600,8.95805859375,-0.7584991455078125,-0.5921630859375,0.7509613037109375
1761383464815127300,8.968127197265625,-0.6646881103515625,-0.455474853515625,0.743621826171875
1761383464825197600,8.978197509765625,-0.5123291015625,-0.4497833251953125,0.7687835693359375
1761383464835266300,8.988266357421875,-0.5550079345703125,-0.5280303955078125,0.7416839599609375
1761383464845336300,8.99833642578125,-0.6365203857421875,-0.6042633056640625,0.7758636474609375
1761383464855405300,9.0084052734375,-0.604095458984375,-0.5964813232421875,0.7252044677734375
1761383464865475300,9.018475341796876,-0.58465576171875,-0.52392578125,0.6351470947265625
1761383464875544300,9.02854443359375,-0.5290679931640625,-0.4034576416015625,0.570648193359375
1761383464885614300,9.0386142578125,-0.4927215576171875,-0.248077392578125,0.59991455078125
1761383464895683300,9.048683349609375,-0.5102081298828125,-0.1363067626953125,0.645599365234375
1761383464905753300,9.05875341796875,-0.32037353515625,-0.0711669921875,0.6232147216796875
1761383464915822300,9.068822265625,-0.3048858642578125,-0.0864410400390625,0.5330352783203125
1761383464925892400,9.078892333984374,-0.43487548828125,-0.139373779296875,0.436798095703125
1761383464935961300,9.08896142578125,-0.50164794921875,-0.15032958984375,0.38494873046875
1761383464946031400,9.09903125,-0.5923309326171875,-0.1945037841796875,0.344512939453125
1761383464956100400,9.109100341796875,-0.9820098876953125,-0.3965911865234375,0.3376617431640625
1761383464966170400,9.11917041015625,-1.2014923095703125,-0.5626983642578125,0.378753662109375
1761383464976239400,9.1292392578125,-1.1381683349609375,-0.55078125,0.460479736328125
1761383464986309400,9.139309326171874,-0.9678802490234375,-0.3928680419921875,0.4941558837890625
1761383464996378400,9.14937841796875,-0.8813629150390625,-0.176483154296875,0.555572509765625
1761383465006448400,9.159448486328126,-1.0066070556640625,-0.0349884033203125,0.6022796630859375
1761383465016517400,9.169517333984375,-1.14300537109375,0.024200439453125,0.624664306640625
1761383465026587100,9.179587158203125,-1.1088409423828125,0.0134124755859375,0.639434814453125
1761383465036656400,9.189656494140625,-0.963714599609375,-0.040618896484375,0.6268310546875
1761383465046726400,9.199726318359374,-0.80059814453125,-0.03717041015625,0.5235137939453125
1761383465056795400,9.20979541015625,-0.755523681640625,0.027374267578125,0.3842620849609375
1761383465066865400,9.219865478515626,-0.862884521484375,0.0400543212890625,0.262725830078125
1761383465076934400,9.229934326171875,-1.12750244140625,-0.108306884765625,0.232269287109375
1761383465087004400,9.24000439453125,-1.243804931640625,-0.2424774169921875,0.2642669677734375
1761383465097073400,9.250073486328125,-1.0674591064453125,-0.185333251953125,0.28375244140625
1761383465107143400,9.260143310546875,-0.8515472412109375,-0.1292266845703125,0.2974090576171875
1761383465117212400,9.27021240234375,-0.8413238525390625,-0.1914215087890625,0.374725341796875
1761383465127282400,9.280282470703124,-0.9449615478515625,-0.24774169921875,0.435333251953125
1761383465137351200,9.29035107421875,-0.9308929443359375,-0.316253662109375,0.4622039794921875
1761383465147421400,9.30042138671875,-0.8980255126953125,-0.3717041015625,0.4921722412109375
1761383465157490200,9.310490234375,-0.901519775390625,-0.3653106689453125,0.49664306640625
1761383465167560400,9.320560546875,-0.8774871826171875,-0.3178863525390625,0.4645538330078125
1761383465177629400,9.33062939453125,-0.8204498291015625,-0.3016510009765625,0.43585205078125
1761383465187699200,9.34069921875,-0.803192138671875,-0.30377197265625,0.395965576171875
1761383465197768400,9.3507685546875,-0.8350982666015625,-0.3147735595703125,0.35675048828125
1761383465207838200,9.360838134765626,-0.851898193359375,-0.3206024169921875,0.3389892578125
1761383465217907500,9.370907470703125,-0.8458099365234375,-0.3252105712890625,0.3240814208984375
1761383465227977200,9.380977294921875,-0.8577728271484375,-0.32476806640625,0.3172760009765625
1761383465238046500,9.39104638671875,-0.8730926513671875,-0.3226165771484375,0.308807373046875
1761383465248116200,9.4011162109375,-0.8628387451171875,-0.334869384765625,0.308135986328125
1761383465258185500,9.411185546875,-0.868194580078125,-0.341094970703125,0.327056884765625
1761383465268255500,9.42125537109375,-0.8687896728515625,-0.3424530029296875,0.35028076171875
1761383465278324500,9.431324462890625,-0.859832763671875,-0.3416290283203125,0.3737640380859375
1761383465288394500,9.44139453125,-0.8601226806640625,-0.347137451171875,0.386260986328125
1761383465298463200,9.451463134765625,-0.843902587890625,-0.360504150390625,0.385772705078125
1761383465308533500,9.461533447265625,-0.834930419921875,-0.374481201171875,0.3776092529296875
1761383465318602200,9.471602294921874,-0.830841064453125,-0.379180908203125,0.36376953125
1761383465328672500,9.481672607421874,-0.8192901611328125,-0.380035400390625,0.3451995849609375
1761383465338741200,9.4917412109375,-0.8245086669921875,-0.3731536865234375,0.3356781005859375
1761383465348811300,9.501811279296875,-0.82757568359375,-0.36065673828125,0.34161376953125
1761383465358880300,9.51188037109375,-0.8551025390625,-0.353729248046875,0.3516387939453125
1761383465368950300,9.5219501953125,-0.888916015625,-0.3493499755859375,0.364288330078125
1761383465379019300,9.532019287109375,-0.9117431640625,-0.339324951171875,0.3745269775390625
1761383465389089300,9.54208935546875,-0.8997955322265625,-0.3324127197265625,0.3673095703125
1761383465399158500,9.552158447265626,-0.8735809326171875,-0.330596923828125,0.3685760498046875
1761383465409228300,9.562228271484376,-0.8305206298828125,-0.3255615234375,0.38671875
1761383465419297500,9.572297607421875,-0.8660888671875,-0.3175506591796875,0.413787841796875
1761383465429367300,9.5823671875,-0.9189910888671875,-0.3271942138671875,0.4243316650390625
1761383465439436500,9.5924365234375,-0.8826904296875,-0.3434295654296875,0.406494140625
1761383465449506300,9.60250634765625,-0.8601531982421875,-0.3462982177734375,0.3801422119140625
1761383465459575300,9.6125751953125,-0.840728759765625,-0.3440093994140625,0.36431884765625
