time,seconds_elapsed,z,y,x
1761383455931307000,0.08430712890625,-0.13659177720546722,-0.1647949069738388,0.2018875926733017
1761383455941377000,0.094376953125,-0.1436762660741806,-0.19634689390659332,0.1856425553560257
1761383455951446000,0.104446044921875,-0.1647767573595047,-0.18530702590942383,0.18735790252685547
1761383455961515800,0.114515869140625,-0.18217770755290985,-0.1595829725265503,0.20227570831775665
1761383455971585000,0.1245849609375,-0.18157877027988434,-0.15005338191986084,0.22833074629306793
1761383455981654800,0.13465478515625,-0.184269517660141,-0.1477465182542801,0.26942411065101624
1761383455991724000,0.14472412109375,-0.18441440165042877,-0.15563319623470306,0.3139180839061737
1761383456001793000,0.15479296875,-0.18528221547603607,-0.17143982648849487,0.36017611622810364
1761383456011863000,0.164863037109375,-0.19766031205654144,-0.18310020864009857,0.42125385999679565
1761383456021931800,0.174931884765625,-0.21688388288021088,-0.21456970274448395,0.4792743921279907
1761383456032002000,0.185001953125,-0.25693491101264954,-0.28358471393585205,0.5155834555625916
1761383456042071000,0.195071044921875,-0.29887208342552185,-0.30720657110214233,0.5022081136703491
1761383456052141000,0.20514111328125,-0.31070607900619507,-0.31584426760673523,0.43802139163017273
1761383456062210000,0.2152099609375,-0.3097322881221771,-0.3266659379005432,0.3291994035243988
1761383456072279800,0.22527978515625,-0.278921902179718,-0.28218716382980347,0.19956500828266144
1761383456082349000,0.23534912109375,-0.23889733850955963,-0.2314937263727188,0.05981145799160004
1761383456092418800,0.245418701171875,-0.19633549451828003,-0.15716037154197693,-0.0688415914773941
1761383456102488000,0.255488037109375,-0.18397176265716553,-0.06216539070010185,-0.170258566737175
1761383456112557800,0.265557861328125,-0.18666474521160126,0.03178214281797409,-0.2407287359237671
1761383456122627000,0.275626953125,-0.19346854090690613,0.14845870435237885,-0.3294574022293091
1761383456132697000,0.285697021484375,-0.19520306587219238,0.3350043296813965,-0.46142876148223877
1761383456142766000,0.29576611328125,-0.159455806016922,0.43797019124031067,-0.4834466576576233
1761383456152836000,0.305836181640625,-0.16164278984069824,0.48461785912513733,-0.4679606556892395
1761383456162905000,0.315905029296875,-0.17721544206142426,0.48908981680870056,-0.4342714548110962
1761383456172975000,0.32597509765625,-0.15005412697792053,0.4419023394584656,-0.336299866437912
1761383456183043800,0.3360439453125,-0.1163305714726448,0.33842024207115173,-0.2036246657371521
1761383456193114000,0.346114013671875,-0.10457165539264679,0.23607441782951355,-0.0491781085729599
1761383456203182800,0.356182861328125,-0.12846367061138153,0.15484443306922913,0.07799525558948517
1761383456213253000,0.366253173828125,-0.15915927290916443,0.08056380599737167,0.17209672927856445
1761383456223321900,0.37632177734375,-0.1846463531255722,0.054728589951992035,0.24962608516216278
1761383456233392000,0.38639208984375,-0.20491354167461395,0.07339015603065491,0.3153345584869385
1761383456243460900,0.3964609375,-0.19546343386173248,0.1239071786403656,0.38645729422569275
1761383456253531000,0.40653076171875,-0.17642423510551453,0.1384187489748001,0.4511446952819824
1761383456263599900,0.416599853515625,-0.18437807261943817,0.11599888652563095,0.5185742378234863
1761383456273670000,0.426669921875,-0.18643030524253845,0.11926151812076569,0.5811089873313904
1761383456283739100,0.4367392578125,-0.17118628323078156,0.15494759380817413,0.6268342733383179
1761383456293809000,0.446808837890625,-0.1355167031288147,0.20074890553951263,0.6464444994926453
1761383456303878100,0.456878173828125,-0.0991261899471283,0.22705020010471344,0.6369267702102661
1761383456313948000,0.466947998046875,-0.05268385633826256,0.2573963701725006,0.6029658913612366
1761383456324017200,0.47701708984375,0.00372362625785172,0.27400749921798706,0.5628963708877563
1761383456334086000,0.4870859375,0.03711886703968048,0.23279426991939545,0.5025014877319336
1761383456344156000,0.497156005859375,0.03217117860913277,0.15559646487236023,0.43529215455055237
1761383456354225000,0.507224853515625,-0.004956216551363468,0.06079405918717384,0.3638768196105957
1761383456364295000,0.517294921875,-0.05119936168193817,-0.030866261571645737,0.2973988354206085
1761383456374364000,0.527364013671875,-0.09385095536708832,-0.06783466786146164,0.2224516123533249
1761383456384434000,0.537433837890625,-0.12092544883489609,-0.04803445190191269,0.1332700401544571
1761383456394503000,0.5475029296875,-0.1314324140548706,0.010964421555399895,0.03522363305091858
1761383456404573000,0.557572998046875,-0.13154302537441254,0.08429668843746185,-0.043429695069789886
1761383456414642200,0.56764208984375,-0.12915976345539093,0.12349841743707657,-0.08853033185005188
1761383456424712000,0.5777119140625,-0.12616299092769623,0.13795658946037292,-0.09559793025255203
1761383456434781200,0.58778125,-0.11412577331066132,0.1526564359664917,-0.06832396239042282
1761383456444851000,0.597850830078125,-0.09423894435167313,0.1658448725938797,-0.017559563741087914
1761383456454920000,0.607919921875,-0.07446097582578659,0.16744889318943024,0.024837959557771683
1761383456464990000,0.617989990234375,-0.058281756937503815,0.15933820605278015,0.0452658087015152
1761383456475059000,0.628058837890625,-0.04535583779215813,0.15869824588298798,0.056324318051338196
1761383456485129000,0.63812890625,-0.027399834245443344,0.14595714211463928,0.06903152912855148
1761383456495198000,0.648197998046875,-0.016586069017648697,0.12120012938976288,0.08752132207155228
1761383456505268200,0.658268310546875,-0.014834558591246605,0.10512270033359528,0.10869530588388443
1761383456515337000,0.6683369140625,-0.015840699896216393,0.08396735787391663,0.1236335039138794
1761383456525407000,0.678406982421875,-0.013331132009625435,0.06192633509635925,0.12378042191267014
1761383456535476000,0.68847607421875,-0.023556340485811234,0.06826013326644897,0.11271205544471741
1761383456545546000,0.6985458984375,-0.040271077305078506,0.06975103914737701,0.09384194016456604
1761383456555615000,0.708614990234375,-0.05274718627333641,0.06822051852941513,0.06583081185817719
1761383456565685000,0.71868505859375,-0.05943536385893822,0.06297902017831802,0.014069978147745132
1761383456575754000,0.72875390625,-0.04165370389819145,0.05392080545425415,-0.029499070718884468
1761383456585824000,0.738823974609375,-0.0213242769241333,0.04012671485543251,-0.05468844622373581
1761383456595893000,0.74889306640625,-0.01476411335170269,0.024973064661026,-0.05030009150505066
1761383456605963000,0.758962890625,-0.016148533672094345,-0.018623068928718567,-0.051455058157444
1761383456616032000,0.769031982421875,-0.029996437951922417,-0.03741752728819847,-0.03959600627422333
1761383456626102000,0.77910205078125,-0.03641606867313385,-0.04271453619003296,-0.010315751656889915
1761383456636171000,0.7891708984375,-0.037477605044841766,-0.03845933824777603,0.009232915937900543
1761383456646241000,0.799240966796875,-0.03630800172686577,-0.02537914738059044,0.0301741361618042
1761383456656310000,0.80931005859375,-0.03433885797858238,-0.011749356053769588,0.050780609250068665
1761383456666379000,0.81937890625,-0.025893090292811394,-0.010554268024861813,0.07806558907032013
1761383456676449000,0.829448974609375,-0.016109168529510498,-0.01567232981324196,0.11664147675037384
1761383456686518000,0.83951806640625,-0.01520009059458971,-0.016243256628513336,0.1562737077474594
1761383456696588000,0.849588134765625,-0.023563215509057045,-0.005275827832520008,0.1921243816614151
1761383456706656500,0.859656494140625,-0.04034886136651039,-0.00198285561054945,0.20835775136947632
1761383456716726300,0.869726318359375,-0.057460203766822815,-0.009769938886165619,0.19795571267604828
1761383456726795500,0.87979541015625,-0.06492244452238083,0.007928290404379368,0.17280907928943634
1761383456736865300,0.889865234375,-0.058155618607997894,0.052395354956388474,0.15793825685977936
1761383456746934500,0.8999345703125,-0.04464590549468994,0.11630503088235855,0.1601751446723938
1761383456757004300,0.91000439453125,-0.035883307456970215,0.1299542635679245,0.15659105777740479
1761383456767073300,0.9200732421875,-0.02582341432571411,0.10292979329824448,0.15405434370040894
1761383456777143600,0.9301435546875,-0.015414183028042316,0.07415886968374252,0.15171635150909424
1761383456787212300,0.94021240234375,-0.0060312277637422085,0.04475440829992294,0.15249505639076233
1761383456797282600,0.950282470703125,0.006691758055239916,0.02902418188750744,0.14301633834838867
1761383456807351300,0.960351318359375,0.019822919741272926,0.03707585483789444,0.13173961639404297
1761383456817421300,0.97042138671875,0.036004550755023956,0.0586855411529541,0.1147070974111557
1761383456827490300,0.980490234375,0.0461975634098053,0.09183050692081451,0.09734208136796951
1761383456837560300,0.990560302734375,0.05712078511714935,0.13091105222702026,0.0768842101097107
1761383456847629300,1.00062939453125,0.0629606693983078,0.16518191993236542,0.0506444126367569
1761383456857699300,1.01069921875,0.06645393371582031,0.20366327464580536,0.030718373134732246
1761383456867768300,1.020768310546875,0.06575154513120651,0.21336916089057922,0.017257966101169586
1761383456877838300,1.03083837890625,0.06057142838835716,0.22725142538547516,-0.0005601798184216022
1761383456887907300,1.0409072265625,0.0528695248067379,0.24298129975795746,0.00014603789895772934
1761383456897977300,1.050977294921875,0.0502961128950119,0.22783616185188293,0.002854738850146532
1761383456908046300,1.06104638671875,0.03346707299351692,0.11460402607917786,-0.009712222032248974
1761383456918116400,1.071116455078125,0.023091129958629608,0.0035978807136416435,-0.02850108966231346
1761383456928185300,1.081185302734375,0.027501683682203293,-0.05451361462473869,-0.05817929282784462
1761383456938255400,1.09125537109375,0.026509389281272888,-0.029352601617574692,-0.11263028532266617
1761383456948324400,1.101324462890625,0.01943652518093586,0.004759596660733223,-0.17296314239501953
1761383456958394400,1.111394287109375,-0.008098429068922997,0.035644009709358215,-0.24905312061309814
1761383456968463400,1.12146337890625,-0.02268816903233528,-0.10823598504066467,-0.30111217498779297
1761383456978533400,1.131533447265625,-0.02129533514380455,-0.12453107535839081,-0.3139081299304962
1761383456988602400,1.141602294921875,-0.02296903356909752,-0.013766049407422543,-0.3603072762489319
1761383456998672100,1.151672119140625,0.013963951729238033,0.0054947310127317905,-0.4641026556491852
1761383457008741400,1.161741455078125,0.04578837379813194,0.09837367385625839,-0.6055166125297546
1761383457018811400,1.171811279296875,0.06478975713253021,0.2268994152545929,-0.7621427178382874
1761383457028880400,1.18188037109375,0.09115013480186462,0.3087373673915863,-0.9213628768920898
1761383457038950400,1.191950439453125,0.08598227798938751,0.2738073468208313,-1.0155088901519775
1761383457049019400,1.202019287109375,0.08197110891342163,0.21242506802082062,-1.036128282546997
1761383457059089400,1.21208935546875,0.10494140535593033,0.18506881594657898,-0.9736062288284302
1761383457069158400,1.222158447265625,0.203252375125885,0.10392969101667404,-0.8758723735809326
1761383457079227400,1.232227294921875,0.31086060404777527,-0.045164451003074646,-0.7733705043792725
1761383457089297400,1.24229736328125,0.38936659693717957,-0.15099745988845825,-0.6804582476615906
1761383457099366400,1.252366455078125,0.4607696533203125,-0.15358871221542358,-0.5732330083847046
1761383457109436200,1.262436279296875,0.5613942742347717,-0.14226658642292023,-0.5005776286125183
1761383457119505400,1.27250537109375,0.650143563747406,-0.1918567717075348,-0.4817535877227783
1761383457129575200,1.2825751953125,0.7209128141403198,-0.20984438061714172,-0.45825451612472534
1761383457139644400,1.29264453125,0.8061486482620239,-0.21291287243366241,-0.43222877383232117
1761383457149714400,1.30271435546875,0.907963216304779,-0.2363758534193039,-0.41114795207977295
1761383457159783400,1.312783447265625,0.9921942353248596,-0.2262747585773468,-0.37997668981552124
1761383457169853400,1.322853515625,1.0467731952667236,-0.2106602042913437,-0.35366111993789673
1761383457179922400,1.33292236328125,1.073353886604309,-0.1803547739982605,-0.3313467502593994
1761383457189992400,1.342992431640625,1.080658197402954,-0.13056963682174683,-0.3125925064086914
1761383457200061400,1.3530615234375,1.106595754623413,-0.005815181881189346,-0.27161097526550293
1761383457210131500,1.36313134765625,1.123170018196106,0.2046121209859848,-0.21660205721855164
1761383457220200200,1.3732001953125,1.1540940999984741,0.45286959409713745,-0.0741458535194397
1761383457230270500,1.3832705078125,1.1805169582366943,0.6977332234382629,0.16334125399589539
1761383457240339200,1.393339111328125,1.2076196670532227,0.8815851211547852,0.4759193956851959
1761383457250409500,1.403409423828125,1.2613251209259033,1.0299252271652222,0.9308202862739563
1761383457260478200,1.413478271484375,1.300567388534546,0.997650682926178,1.4060944318771362
1761383457270548200,1.42354833984375,1.316169261932373,0.9807916283607483,1.8100084066390991
1761383457280617500,1.433617431640625,1.3139609098434448,1.172965407371521,2.1872408390045166
1761383457290687200,1.443687255859375,1.3542931079864502,1.4453600645065308,2.5014302730560303
1761383457300756500,1.453756591796875,1.3821452856063843,1.84345281124115,2.806318998336792
1761383457310826200,1.463826171875,1.4520636796951294,2.164976119995117,3.089226245880127
1761383457320895500,1.4738955078125,1.5347275733947754,2.1044485569000244,3.0051960945129395
1761383457330965200,1.48396533203125,1.542121410369873,1.7939306497573853,2.567882537841797
1761383457341034500,1.494034423828125,1.349506139755249,1.7597432136535645,2.115163564682007
1761383457351104300,1.504104248046875,1.0713646411895752,1.7822108268737793,1.6984505653381348
1761383457361173500,1.514173583984375,0.8412169814109802,1.6990830898284912,1.4335155487060547
1761383457371243500,1.524243408203125,0.7532103657722473,1.758925437927246,1.4666130542755127
1761383457381312300,1.534312255859375,0.9533533453941345,1.581934928894043,1.6304012537002563
1761383457391382500,1.544382568359375,1.1878918409347534,1.1197447776794434,1.6443836688995361
1761383457401451300,1.554451171875,1.3208147287368774,0.8882543444633484,1.578126311302185
1761383457411521500,1.564521484375,1.3913390636444092,0.9170063138008118,1.4453682899475098
1761383457421590300,1.57459033203125,1.3873941898345947,1.007532000541687,1.2843130826950073
1761383457431660300,1.584660400390625,1.3364429473876953,1.0793509483337402,1.1079450845718384
1761383457441729300,1.594729248046875,1.2545641660690308,1.1179907321929932,0.9469356536865234
1761383457451799300,1.60479931640625,1.1156946420669556,1.051373839378357,0.8030708432197571
1761383457461868300,1.614868408203125,0.9882171154022217,0.9241496324539185,0.6915925145149231
1761383457471938300,1.624938232421875,0.9372842907905579,0.7819950580596924,0.6117529273033142
1761383457482007300,1.63500732421875,0.9499447345733643,0.6922997832298279,0.5857173204421997
1761383457492077300,1.645077392578125,1.0067704916000366,0.5656432509422302,0.5759779810905457
1761383457502146300,1.655146240234375,1.0939775705337524,0.3541339337825775,0.5949143767356873
1761383457512216300,1.66521630859375,1.179334044456482,-0.21576134860515594,0.8835675120353699
1761383457522285600,1.67528564453125,1.0643973350524902,-0.9012696146965027,1.1824122667312622
1761383457532355300,1.685355224609375,0.9475635290145874,-1.2928266525268555,1.2070409059524536
1761383457542424300,1.69542431640625,1.129385232925415,-1.2796826362609863,0.9745386838912964
1761383457552494300,1.705494384765625,1.3554743528366089,-1.3374308347702026,0.7777411937713623
1761383457562563300,1.715563232421875,1.5005966424942017,-1.5360088348388672,0.6942156553268433
1761383457572633300,1.72563330078125,1.5880260467529297,-1.625592589378357,0.6237078309059143
1761383457582702300,1.735702392578125,1.6456177234649658,-1.807071328163147,0.5551509261131287
1761383457592772400,1.7457724609375,1.701518177986145,-1.9822171926498413,0.3623487949371338
1761383457602841300,1.75584130859375,1.777584433555603,-2.257173538208008,0.11309903115034103
1761383457612911400,1.765911376953125,1.944494605064392,-2.7227706909179688,0.06949708610773087
1761383457622980400,1.77598046875,2.340972423553467,-3.040893316268921,0.056248657405376434
1761383457633050400,1.78605029296875,2.76556658744812,-3.3789353370666504,0.0905819982290268
1761383457643119400,1.796119384765625,3.1186017990112305,-3.8190646171569824,0.21515747904777527
1761383457653189400,1.806189453125,3.4036002159118652,-4.322449684143066,0.3357584476470947
1761383457663258400,1.81625830078125,3.657003402709961,-4.637815475463867,0.3994295597076416
1761383457673328400,1.826328369140625,3.886343002319336,-4.728522300720215,0.4485330879688263
1761383457683397400,1.8363974609375,3.933577299118042,-4.646585464477539,0.6194518208503723
1761383457693467400,1.84646728515625,3.7911598682403564,-4.425681114196777,0.8511199355125427
1761383457703536400,1.856536376953125,3.520559787750244,-4.009118556976318,1.1162587404251099
1761383457713606400,1.8666064453125,3.1329729557037354,-3.55549693107605,1.3981128931045532
1761383457723675100,1.876675048828125,2.676193952560425,-3.1041386127471924,1.6282232999801636
1761383457733745400,1.886745361328125,2.181454658508301,-2.6624250411987305,1.792752742767334
1761383457743814400,1.896814453125,1.6442350149154663,-2.392258644104004,1.9335269927978516
1761383457753884400,1.906884521484375,1.0677359104156494,-2.335886001586914,2.013634204864502
1761383457763953400,1.916953369140625,0.4615211486816406,-2.3663411140441895,1.9596911668777466
1761383457774023200,1.927023193359375,-0.12294325232505798,-2.311941623687744,1.774034857749939
1761383457784092400,1.937092529296875,-0.7189571261405945,-2.2107410430908203,1.5588161945343018
1761383457794162200,1.947162109375,-1.3722224235534668,-2.086960554122925,1.3699064254760742
1761383457804231400,1.9572314453125,-2.0600342750549316,-2.0607433319091797,1.2369880676269531
1761383457814301200,1.96730126953125,-2.7180538177490234,-2.0272274017333984,1.072975993156433
1761383457824370400,1.977370361328125,-3.3375959396362305,-1.9476592540740967,0.8224490284919739
1761383457834440400,1.9874404296875,-3.9986016750335693,-1.9521262645721436,0.5034714937210083
1761383457844509400,1.997509521484375,-4.716548919677734,-1.9776166677474976,0.11953794211149216
1761383457854579500,2.007579345703125,-5.545825481414795,-1.9135737419128418,-0.39592063426971436
1761383457864648400,2.0176484375,-6.486084938049316,-1.6904211044311523,-1.0375813245773315
1761383457874718500,2.027718505859375,-7.456118583679199,-1.3266725540161133,-1.7447572946548462
1761383457884787200,2.037787109375,-8.39185905456543,-0.8872061967849731,-2.5504980087280273
1761383457894857500,2.047857421875,-9.300448417663574,-0.2382170557975769,-3.4772937297821045
1761383457904926200,2.05792626953125,-10.159929275512695,0.6124817728996277,-4.45441198348999
1761383457914996500,2.06799658203125,-10.985471725463867,1.8012900352478027,-5.238232612609863
1761383457925065200,2.078065185546875,-11.816282272338867,3.239046096801758,-5.499029636383057
1761383457935135500,2.088135498046875,-12.398672103881836,4.272846698760986,-5.209629535675049
1761383457945204200,2.098204345703125,-12.13388729095459,4.4306769371032715,-4.653982639312744
1761383457955274200,2.108274169921875,-10.724499702453613,3.7163641452789307,-3.9014627933502197
1761383457965343500,2.118343505859375,-8.114198684692383,2.2307863235473633,-2.7789700031280518
1761383457975413200,2.128413330078125,-4.482285022735596,0.11613201349973679,-1.323508858680725
1761383457985482500,2.138482421875,-0.39719143509864807,-2.1171951293945312,0.19888396561145782
1761383457995551200,2.14855126953125,3.445857048034668,-3.977041244506836,1.3394711017608643
1761383458005621500,2.15862158203125,6.565807342529297,-5.458136558532715,2.0453476905822754
1761383458015690200,2.168690185546875,8.859082221984863,-6.413858890533447,2.56168270111084
1761383458025760500,2.178760498046875,10.42715072631836,-6.7061638832092285,3.061079978942871
1761383458035829200,2.188829345703125,11.34370231628418,-6.313037872314453,3.538914918899536
1761383458045899300,2.198899169921875,11.701276779174805,-5.388359069824219,3.835632085800171
1761383458055968300,2.20896826171875,11.670109748840332,-4.181290149688721,3.8379104137420654
1761383458066038300,2.219038330078125,11.419316291809082,-3.025196075439453,3.611125946044922
1761383458076107300,2.229107177734375,10.966522216796875,-2.2549660205841064,3.3617639541625977
1761383458086177300,2.23917724609375,10.259160995483398,-2.1769654750823975,3.213289976119995
1761383458096246300,2.249246337890625,9.265317916870117,-2.4360086917877197,3.198007822036743
1761383458106316300,2.25931640625,8.011068344116211,-2.4089536666870117,3.285339117050171
1761383458116385500,2.269385498046875,6.511307716369629,-2.0370864868164062,3.4360899925231934
1761383458126455300,2.279455322265625,4.75753116607666,-1.430203914642334,3.524874210357666
1761383458136524500,2.289524658203125,2.8647005558013916,-0.8157123923301697,3.4568629264831543
1761383458146594300,2.29959423828125,0.9086725115776062,-0.3882230818271637,3.1488535404205322
1761383458156663300,2.309663330078125,-0.983112633228302,-0.04085357487201691,2.542250633239746
1761383458166733300,2.3197333984375,-2.754404306411743,0.34099099040031433,1.7222390174865723
1761383458176803300,2.32980322265625,-4.3529887199401855,0.7517676949501038,0.8264352679252625
1761383458186872300,2.339872314453125,-5.683096408843994,1.1673662662506104,0.008740698918700218
1761383458196942300,2.3499423828125,-6.719581604003906,1.4288116693496704,-0.643772304058075
1761383458207011600,2.360011474609375,-7.528372764587402,1.5208790302276611,-1.1900835037231445
1761383458217081300,2.370081298828125,-8.182323455810547,1.4599006175994873,-1.647257924079895
1761383458227150300,2.380150390625,-8.789959907531738,1.3427470922470093,-2.0000782012939453
1761383458237220400,2.390220458984375,-9.418310165405273,1.3689348697662354,-2.317686080932617
1761383458247289300,2.400289306640625,-10.115484237670898,1.6938620805740356,-2.6007542610168457
1761383458257359400,2.410359375,-10.883718490600586,2.4309678077697754,-2.7679338455200195
1761383458267428400,2.420428466796875,-11.642525672912598,3.5042662620544434,-2.7222440242767334
1761383458277497300,2.430497314453125,-12.225478172302246,4.461377143859863,-2.430954694747925
1761383458287567400,2.4405673828125,-12.335299491882324,4.753139972686768,-2.1115057468414307
1761383458297637400,2.450637451171875,-11.527361869812012,4.240860939025879,-1.8884713649749756
1761383458307706400,2.460706298828125,-9.49682903289795,3.1753053665161133,-1.6674563884735107
1761383458317775400,2.470775390625,-6.203362464904785,1.8441303968429565,-1.3785544633865356
1761383458327845400,2.480845458984375,-2.019706964492798,0.3503761291503906,-0.9384896755218506
1761383458337915400,2.490915283203125,2.4464879035949707,-1.245822787284851,-0.5071936249732971
1761383458347984400,2.500984375,6.606063365936279,-3.1072022914886475,-0.21934746205806732
1761383458358053400,2.511053466796875,10.119329452514648,-4.932124137878418,0.11012005805969238
1761383458368123400,2.521123291015625,12.747591972351074,-6.293067455291748,0.685913622379303
1761383458378192400,2.5311923828125,14.481517791748047,-6.80763053894043,1.4377833604812622
1761383458388262100,2.54126220703125,15.344054222106934,-6.551184177398682,2.244114875793457
1761383458398331400,2.551331298828125,15.516963005065918,-5.843833923339844,2.9315311908721924
1761383458408401200,2.561401123046875,15.208514213562012,-5.125741004943848,3.340369701385498
1761383458418470400,2.571470458984375,14.40554141998291,-4.790693283081055,3.4313364028930664
1761383458428540400,2.58154052734375,12.862933158874512,-4.534780979156494,3.3581411838531494
1761383458438609400,2.591609375,10.30734920501709,-3.841909885406494,3.016033172607422
1761383458448679400,2.601679443359375,6.865541934967041,-2.0830984115600586,2.394725799560547
1761383458458748400,2.61174853515625,3.210297107696533,-0.22945527732372284,1.5783458948135376
1761383458468818400,2.621818359375,-0.2424357831478119,1.3321315050125122,0.8074374198913574
1761383458478888200,2.63188818359375,-3.132258653640747,2.29986310005188,0.047136567533016205
1761383458488957400,2.64195751953125,-5.313185691833496,2.810739517211914,-0.49261295795440674
1761383458499026200,2.652026123046875,-6.9140801429748535,2.9852969646453857,-0.7744404673576355
1761383458509096400,2.662096435546875,-8.0792818069458,3.015550136566162,-0.9327424764633179
1761383458519166500,2.67216650390625,-9.002050399780273,2.9562249183654785,-1.1585406064987183
1761383458529235500,2.6822353515625,-9.818222999572754,2.924511194229126,-1.5209187269210815
1761383458539305500,2.692305419921875,-10.611608505249023,2.9487128257751465,-1.9709614515304565
1761383458549374500,2.70237451171875,-11.438274383544922,3.0497641563415527,-2.3406169414520264
1761383458559444500,2.712444580078125,-12.259289741516113,3.270807981491089,-2.454824447631836
1761383458569513200,2.72251318359375,-12.835518836975098,3.3336503505706787,-2.3274102210998535
1761383458579583500,2.73258349609375,-12.676026344299316,3.0448293685913086,-2.034508228302002
1761383458589652200,2.74265234375,-11.396634101867676,2.7568817138671875,-1.434312343597412
1761383458599722500,2.752722412109375,-8.992979049682617,2.6948859691619873,-0.5316086411476135
1761383458609791200,2.762791259765625,-5.713783264160156,2.3748836517333984,0.5887117981910706
1761383458619860500,2.772860595703125,-1.9971967935562134,1.150031328201294,1.4784700870513916
1761383458629930200,2.78293017578125,1.9085800647735596,-0.4472607970237732,1.6632492542266846
1761383458640000300,2.793000244140625,5.583204746246338,-2.172466516494751,1.363987684249878
1761383458650069500,2.803069580078125,8.66994857788086,-3.7228283882141113,1.0938844680786133
1761383458660138500,2.813138427734375,10.981260299682617,-4.729410648345947,1.1324619054794312
1761383458670208500,2.82320849609375,12.503186225891113,-5.022202968597412,1.4502450227737427
1761383458680278300,2.8332783203125,13.306912422180176,-4.7941412925720215,1.9031116962432861
1761383458690347500,2.843347412109375,13.617958068847656,-4.377569675445557,2.336782932281494
1761383458700417300,2.853417236328125,13.623695373535156,-4.140389442443848,2.6418230533599854
1761383458710486800,2.86348681640625,13.188287734985352,-4.319227695465088,2.81856107711792
1761383458720557000,2.87355712890625,12.104316711425781,-4.581073760986328,2.9013683795928955
1761383458730625800,2.883625732421875,10.123712539672852,-4.358330249786377,2.838351249694824
1761383458740696000,2.893696044921875,7.182401657104492,-3.297004222869873,2.4085042476654053
1761383458750764800,2.903764892578125,3.6702845096588135,-1.5455619096755981,1.6616331338882446
1761383458760834800,2.913834716796875,-0.021291568875312805,0.07205270230770111,0.9603080749511719
1761383458770903800,2.92390380859375,-3.329525947570801,1.3749834299087524,0.3948234021663666
1761383458780973800,2.933973876953125,-5.939371109008789,2.200348377227783,-0.10964205861091614
1761383458791042800,2.944042724609375,-7.7797112464904785,2.5058321952819824,-0.4927130341529846
1761383458801112800,2.95411279296875,-8.999686241149902,2.493022918701172,-0.7621672749519348
1761383458811181800,2.964181884765625,-9.730329513549805,2.3023762702941895,-1.0231006145477295
1761383458821251800,2.974251953125,-10.125767707824707,2.0388970375061035,-1.3471599817276
1761383458831320800,2.98432080078125,-10.409645080566406,1.8177471160888672,-1.7313417196273804
1761383458841390800,2.994390869140625,-10.687976837158203,1.7931832075119019,-2.1324174404144287
1761383458851460000,3.004460205078125,-10.965423583984375,1.8927228450775146,-2.4951677322387695
1761383458861529900,3.01452978515625,-11.017205238342285,1.8836241960525513,-2.8200323581695557
1761383458871598800,3.024598876953125,-10.55219554901123,1.651483178138733,-3.1063783168792725
1761383458881668900,3.0346689453125,-9.341339111328125,1.258804440498352,-3.1816246509552
1761383458891737900,3.04473779296875,-7.194796562194824,0.873340368270874,-2.795381784439087
1761383458901807900,3.054807861328125,-4.1022233963012695,0.46597445011138916,-1.8632410764694214
1761383458911876900,3.064876953125,-0.47740358114242554,-0.4688294231891632,-0.5377972722053528
1761383458921947000,3.07494677734375,3.0953478813171387,-1.667604923248291,0.6375746726989746
1761383458932015900,3.085015869140625,6.145272254943848,-2.6430907249450684,1.2439026832580566
1761383458942085600,3.095085693359375,8.526339530944824,-3.354893922805786,1.5241090059280396
1761383458952155000,3.10515478515625,10.298089027404785,-3.7198894023895264,1.794493556022644
1761383458962225000,3.115224853515625,11.48775577545166,-3.7405667304992676,2.068469524383545
1761383458972294000,3.1252939453125,12.232318878173828,-3.4928011894226074,2.2465476989746094
1761383458982364000,3.135364013671875,12.587496757507324,-3.140097141265869,2.35768461227417
1761383458992433000,3.145432861328125,12.4008150100708,-2.852510690689087,2.3780107498168945
1761383459002503000,3.1555029296875,11.526069641113281,-2.664580821990967,2.2879748344421387
1761383459012572000,3.165572021484375,9.813549041748047,-2.412813663482666,2.126446008682251
1761383459022642000,3.175641845703125,7.20776891708374,-1.7143232822418213,1.8252034187316895
1761383459032711000,3.1857109375,3.9754178524017334,-0.47979074716567993,1.255502462387085
1761383459042781000,3.195781005859375,0.5103228092193604,0.8727877140045166,0.45054683089256287
1761383459052849700,3.205849609375,-2.738210678100586,2.031529664993286,-0.32886505126953125
1761383459062920000,3.215919921875,-5.454368591308594,2.8536181449890137,-0.831368625164032
1761383459072988700,3.22598876953125,-7.530846118927002,3.3370606899261475,-1.0661414861679077
1761383459083059000,3.236058837890625,-8.99016284942627,3.566469192504883,-1.145830750465393
1761383459093128000,3.2461279296875,-9.92315673828125,3.548365354537964,-1.1806249618530273
1761383459103197700,3.25619775390625,-10.48719310760498,3.342237949371338,-1.2347830533981323
1761383459113267000,3.266266845703125,-10.806936264038086,3.031111478805542,-1.3848505020141602
1761383459123336700,3.276336669921875,-10.938082695007324,2.7263007164001465,-1.6503745317459106
1761383459133406000,3.286406005859375,-10.776595115661621,2.2711706161499023,-2.0119669437408447
1761383459143475700,3.296475830078125,-10.06185245513916,1.5588911771774292,-2.370661973953247
1761383459153545000,3.306544921875,-8.627349853515625,0.5419527888298035,-2.513800859451294
1761383459163614700,3.31661474609375,-6.240201950073242,-0.3588053286075592,-2.2313976287841797
1761383459173684000,3.32668408203125,-3.0186941623687744,-1.0623505115509033,-1.3567752838134766
1761383459183754000,3.33675390625,0.4827900230884552,-1.994565486907959,-0.13087454438209534
1761383459193823000,3.346822998046875,3.8484177589416504,-2.9181296825408936,0.8789804577827454
1761383459203893000,3.35689306640625,6.719265460968018,-3.7603933811187744,1.5158004760742188
1761383459213961700,3.366961669921875,8.948631286621094,-4.604325294494629,2.043531656265259
1761383459224032000,3.377031982421875,10.519723892211914,-5.058019638061523,2.5067503452301025
1761383459234100700,3.387100830078125,11.455348014831543,-4.8653082847595215,2.8295230865478516
1761383459244171000,3.3971708984375,11.866209983825684,-4.2863054275512695,3.0198965072631836
1761383459254239700,3.40723974609375,11.787296295166016,-3.6069061756134033,3.127636432647705
1761383459264309800,3.417309814453125,11.180867195129395,-3.0714175701141357,3.1567258834838867
1761383459274378800,3.427378662109375,9.975030899047852,-2.8431508541107178,3.075514554977417
1761383459284448800,3.43744873046875,8.108814239501953,-2.6403870582580566,2.80979323387146
1761383459294517800,3.447517822265625,5.650751113891602,-2.1369471549987793,2.247929096221924
1761383459304587800,3.457587890625,2.918795347213745,-1.1916375160217285,1.427850365638733
1761383459314657000,3.467656982421875,0.1677016168832779,-0.05350533127784729,0.6137296557426453
1761383459324726800,3.477726806640625,-2.4153926372528076,1.0547748804092407,-0.044683024287223816
1761383459334796000,3.487796142578125,-4.558264255523682,1.7652958631515503,-0.44382721185684204
1761383459344865800,3.49786572265625,-6.115852355957031,2.0649349689483643,-0.6918180584907532
1761383459354935000,3.50793505859375,-7.160901069641113,2.07277250289917,-0.8850299119949341
1761383459365004800,3.5180048828125,-7.864412307739258,1.8999656438827515,-1.1149487495422363
1761383459375073800,3.52807373046875,-8.348584175109863,1.6629048585891724,-1.4195307493209839
1761383459385143800,3.538143798828125,-8.727437019348145,1.3657472133636475,-1.7955189943313599
1761383459395212800,3.548212890625,-9.068185806274414,1.146183729171753,-2.264843463897705
1761383459405283000,3.558282958984375,-9.4171724319458,1.0805022716522217,-2.7839834690093994
1761383459415351800,3.568351806640625,-9.723143577575684,1.1146801710128784,-3.351757764816284
1761383459425422000,3.578422119140625,-9.725650787353516,1.3121542930603027,-3.9261841773986816
1761383459435490800,3.58849072265625,-9.19272518157959,1.6346091032028198,-4.2764105796813965
1761383459445560800,3.598560791015625,-7.923847198486328,1.8205283880233765,-4.149205207824707
1761383459455629800,3.6086298828125,-5.724468231201172,1.5421415567398071,-3.4201061725616455
1761383459465699800,3.618699951171875,-2.765636444091797,0.5221105813980103,-2.242577075958252
1761383459475768800,3.628768798828125,0.5706948041915894,-1.020089030265808,-1.0604815483093262
1761383459485838800,3.6388388671875,3.8906826972961426,-2.456202268600464,-0.173013836145401
1761383459495907800,3.648907958984375,6.637573719024658,-3.8070552349090576,0.5119284987449646
1761383459505977900,3.658977783203125,8.655431747436523,-4.733824729919434,1.023413062095642
1761383459516046800,3.669046875,10.019086837768555,-4.97760534286499,1.4618247747421265
1761383459526116900,3.679116943359375,10.793593406677246,-4.754388332366943,1.936496615409851
1761383459536185900,3.689185791015625,11.083961486816406,-4.332010269165039,2.4022011756896973
1761383459546256000,3.699255859375,10.97506046295166,-3.9156877994537354,2.7650845050811768
1761383459556324900,3.709324951171875,10.425127983093262,-3.5265138149261475,2.9382436275482178
1761383459566395000,3.719394775390625,9.268898963928223,-3.0167746543884277,2.9025471210479736
1761383459576464000,3.7294638671875,7.401760101318359,-2.287686824798584,2.5935492515563965
1761383459586534000,3.739533935546875,5.073267936706543,-1.1325759887695312,1.932572841644287
1761383459596603000,3.749602783203125,2.635150909423828,0.21296170353889465,1.1046684980392456
1761383459606672600,3.759672607421875,0.2685852646827698,1.263599157333374,0.3698829412460327
1761383459616743000,3.769742919921875,-1.8632488250732422,1.8952176570892334,-0.15370170772075653
1761383459626811600,3.779811767578125,-3.7304065227508545,2.222853422164917,-0.5326737761497498
1761383459636882000,3.7898818359375,-5.343807697296143,2.4104361534118652,-0.8091839551925659
1761383459646951000,3.799950927734375,-6.668540000915527,2.745765447616577,-0.9722743034362793
1761383459657021000,3.81002099609375,-7.771692752838135,3.0954883098602295,-0.9963468909263611
1761383459667090000,3.82008984375,-8.65188980102539,3.3896877765655518,-0.9177652597427368
1761383459677159700,3.83015966796875,-9.326594352722168,3.5908188819885254,-0.8307734131813049
1761383459687229000,3.84022900390625,-9.854124069213867,3.6725292205810547,-0.7906412482261658
1761383459697298700,3.850298583984375,-10.198016166687012,3.5127110481262207,-0.8523200154304504
1761383459707368400,3.860368408203125,-10.2446870803833,3.082653045654297,-1.0545216798782349
1761383459717438500,3.8704384765625,-9.856605529785156,2.4735703468322754,-1.3518929481506348
1761383459727507500,3.880507568359375,-8.887659072875977,1.5656183958053589,-1.5704034566879272
1761383459737577500,3.890577392578125,-7.1803765296936035,0.5224310159683228,-1.357632040977478
1761383459747646200,3.900646240234375,-4.7580060958862305,-0.27442169189453125,-0.5136936902999878
1761383459757716500,3.910716552734375,-1.953944444656372,-1.0702948570251465,0.6244699954986572
1761383459767785200,3.92078515625,0.8841968774795532,-1.7092612981796265,1.5408644676208496
1761383459777855500,3.93085546875,3.4541258811950684,-2.121983528137207,1.9019649028778076
1761383459787924200,3.94092431640625,5.691227436065674,-2.639312744140625,1.9530630111694336
1761383459797994500,3.950994384765625,7.587179660797119,-3.2471556663513184,1.9911315441131592
1761383459808063200,3.961063232421875,9.096294403076172,-3.5894856452941895,2.0910325050354004
1761383459818133200,3.97113330078125,10.151899337768555,-3.5333504676818848,2.2101712226867676
1761383459828202200,3.9812021484375,10.804342269897461,-3.177488088607788,2.2963507175445557
1761383459838272300,3.991272216796875,11.17004108428955,-2.7139406204223633,2.366093397140503
1761383459848341500,4.001341552734375,11.288674354553223,-2.3432822227478027,2.3984529972076416
1761383459858411300,4.011411376953125,11.15528392791748,-2.301283597946167,2.3680529594421387
1761383459868480500,4.02148046875,10.659473419189453,-2.614501953125,2.326443672180176
1761383459878550300,4.03155029296875,9.552799224853516,-2.991443157196045,2.2861082553863525
1761383459888619500,4.04161962890625,7.693042755126953,-2.9149162769317627,2.189656972885132
1761383459898689300,4.051689208984375,5.225276947021484,-2.1760001182556152,1.956243634223938
1761383459908758500,4.061758544921875,2.3966073989868164,-1.056291937828064,1.5555744171142578
1761383459918828300,4.071828369140625,-0.47858482599258423,0.04586450383067131,1.1943573951721191
1761383459928897300,4.081897216796875,-3.111124277114868,1.1338069438934326,0.6862478256225586
1761383459938967600,4.091967529296875,-5.263534069061279,1.8010398149490356,0.07563318312168121
1761383459949036300,4.102036376953125,-6.910006046295166,2.044306993484497,-0.4834740459918976
1761383459959106600,4.1121064453125,-8.124744415283203,2.1448233127593994,-0.9724536538124084
1761383459969175300,4.12217529296875,-9.086373329162598,2.194429636001587,-1.4453266859054565
1761383459979245300,4.132245361328125,-9.925080299377441,2.313610792160034,-1.9010848999023438
1761383459989314300,4.142314208984375,-10.717867851257324,2.595254898071289,-2.306999444961548
1761383459999384300,4.15238427734375,-11.477483749389648,3.041630983352661,-2.5690033435821533
1761383460009453300,4.162453369140625,-12.164169311523438,3.520200252532959,-2.64743971824646
1761383460019523300,4.1725234375,-12.583099365234375,3.7047743797302246,-2.6291089057922363
1761383460029592300,4.18259228515625,-12.322298049926758,3.6143476963043213,-2.5664350986480713
1761383460039662300,4.192662353515625,-11.14270305633545,3.265122890472412,-2.3141815662384033
1761383460049731300,4.2027314453125,-9.062400817871094,2.6493899822235107,-1.7501952648162842
1761383460059801300,4.21280126953125,-6.16060733795166,1.6971797943115234,-0.9962245225906372
1761383460069870600,4.22287060546875,-2.7251031398773193,0.5512242913246155,-0.41791051626205444
1761383460079940400,4.2329404296875,0.8125109076499939,-0.5804609656333923,-0.2666935622692108
1761383460090009300,4.24300927734375,4.061476230621338,-1.6479955911636353,-0.43225350975990295
1761383460100079400,4.253079345703125,6.893237113952637,-2.6111724376678467,-0.5622514486312866
1761383460110148400,4.2631484375,9.194725036621094,-3.4604666233062744,-0.39395540952682495
1761383460120218400,4.27321826171875,10.918721199035645,-3.9200096130371094,0.030791079625487328
1761383460130287400,4.283287353515625,12.10557746887207,-3.9426965713500977,0.5627774000167847
1761383460140357400,4.293357421875,12.867927551269531,-3.7120354175567627,1.0805920362472534
1761383460150426400,4.30342626953125,13.2886323928833,-3.484495162963867,1.4886687994003296
1761383460160496400,4.313496337890625,13.425765037536621,-3.5655314922332764,1.7334439754486084
1761383460170565400,4.3235654296875,13.111973762512207,-4.114156723022461,1.9302043914794922
1761383460180635400,4.333635498046875,12.063314437866211,-4.652335166931152,2.1052403450012207
1761383460190704400,4.343704345703125,10.086316108703613,-4.431699275970459,2.09912371635437
1761383460200774400,4.3537744140625,7.234534740447998,-3.2097506523132324,1.5843703746795654
1761383460210843400,4.363843505859375,3.9342572689056396,-1.4898797273635864,0.7214998602867126
1761383460220913400,4.373913330078125,0.6523410677909851,0.1207958236336708,-0.0778418555855751
1761383460230982400,4.383982421875,-2.408259391784668,1.6949087381362915,-0.8606899380683899
1761383460241052400,4.394052490234375,-4.933688163757324,2.6577889919281006,-1.5843192338943481
1761383460251122400,4.404122314453125,-6.8296732902526855,3.1674013137817383,-1.9614462852478027
1761383460261191400,4.41419140625,-8.214591979980469,3.316795825958252,-2.083357095718384
1761383460271261400,4.424261474609375,-9.2012300491333,3.352052688598633,-2.122572898864746
1761383460281330400,4.434330322265625,-9.98299789428711,3.4688682556152344,-2.1563804149627686
1761383460291400400,4.444400390625,-10.702893257141113,3.7254412174224854,-2.1600852012634277
1761383460301469400,4.454469482421875,-11.350079536437988,4.062263011932373,-2.113043785095215
1761383460311539500,4.46453955078125,-11.80244255065918,4.235337734222412,-2.045875310897827
1761383460321608200,4.474608154296875,-11.814193725585938,4.0115790367126465,-1.944264531135559
1761383460331678500,4.484678466796875,-11.165191650390625,3.2768466472625732,-1.660901427268982
1761383460341747200,4.494747314453125,-9.571479797363281,2.634631633758545,-1.1994472742080688
1761383460351817500,4.5048173828125,-7.047957420349121,1.8956108093261719,-0.4226863384246826
1761383460361886200,4.51488623046875,-3.995647668838501,0.8576149940490723,0.5123319625854492
1761383460371956200,4.524956298828125,-0.710229218006134,-0.19117073714733124,1.21273672580719
1761383460382025500,4.535025390625,2.4141764640808105,-1.4328022003173828,1.5132702589035034
1761383460392095200,4.54509521484375,5.287834644317627,-2.628688097000122,1.4610642194747925
1761383460402164500,4.55516455078125,7.755334854125977,-3.562652111053467,1.380475640296936
1761383460412234200,4.565234130859375,9.658943176269531,-4.138306617736816,1.5240298509597778
1761383460422303500,4.575303466796875,10.988289833068848,-4.239717960357666,1.8233486413955688
1761383460432373200,4.585373291015625,11.81605339050293,-3.90051531791687,2.1729040145874023
1761383460442442500,4.5954423828125,12.26871395111084,-3.2224929332733154,2.4415283203125
1761383460452512300,4.60551220703125,12.42391586303711,-2.5137903690338135,2.603417158126831
1761383460462581500,4.61558154296875,12.336100578308105,-2.07660174369812,2.6182901859283447
1761383460472651300,4.6256513671875,11.902667999267578,-2.259294033050537,2.5694260597229004
1761383460482720300,4.63572021484375,10.92538070678711,-2.9017555713653564,2.6186442375183105
1761383460492790500,4.64579052734375,9.235451698303223,-3.3051695823669434,2.6607003211975098
1761383460502859300,4.655859375,6.970541477203369,-2.9305903911590576,2.4890518188476562
1761383460512929500,4.665929443359375,4.2930402755737305,-1.89016592502594,2.1445295810699463
1761383460522998300,4.675998291015625,1.4044697284698486,-0.6165716648101807,1.6521812677383423
1761383460533068500,4.686068603515625,-1.3647377490997314,0.5379716753959656,1.0772395133972168
1761383460543137300,4.69613720703125,-3.7564876079559326,1.4804847240447998,0.3629041314125061
1761383460553207300,4.706207275390625,-5.652548789978027,2.017451286315918,-0.3832843005657196
1761383460563276300,4.7162763671875,-7.068798065185547,2.2113070487976074,-1.0902055501937866
1761383460573346300,4.72634619140625,-8.089204788208008,2.2442002296447754,-1.7982614040374756
1761383460583415300,4.736415283203125,-8.833487510681152,2.2147507667541504,-2.467275857925415
1761383460593485300,4.7464853515625,-9.462309837341309,2.2732300758361816,-3.04036021232605
1761383460603554300,4.75655419921875,-10.11981201171875,2.5270068645477295,-3.4553310871124268
1761383460613624300,4.766624267578125,-10.843489646911621,2.9290521144866943,-3.6824114322662354
1761383460623693600,4.776693603515625,-11.546454429626465,3.655923366546631,-3.7901787757873535
1761383460633763300,4.786763427734375,-12.055583000183105,4.420352458953857,-3.779416561126709
1761383460643832300,4.796832275390625,-12.057699203491211,4.738900184631348,-3.5315675735473633
1761383460653902300,4.80690234375,-11.073590278625488,4.54235315322876,-2.9628405570983887
1761383460663971300,4.816971435546875,-8.823996543884277,3.6985628604888916,-1.9949909448623657
1761383460674041300,4.827041259765625,-5.571252822875977,2.0555951595306396,-0.7496511340141296
1761383460684110300,4.8371103515625,-1.5812216997146606,0.29300111532211304,0.2935982942581177
1761383460694180400,4.847180419921875,2.351696729660034,-1.4551043510437012,0.892433762550354
1761383460704249300,4.857249267578125,5.682267189025879,-3.0643320083618164,0.9754617810249329
1761383460714319600,4.867319580078125,8.375591278076172,-4.22266149520874,0.8938339352607727
1761383460724388600,4.877388671875,10.398805618286133,-4.978701114654541,1.0252563953399658
1761383460734458600,4.887458740234375,11.834449768066406,-5.277845859527588,1.4120186567306519
1761383460744527600,4.897527587890625,12.810964584350586,-5.132452964782715,1.9193960428237915
1761383460754597600,4.90759765625,13.378281593322754,-4.809558868408203,2.481114149093628
1761383460764666600,4.91766650390625,13.538907051086426,-4.558778285980225,3.0276033878326416
1761383460774736600,4.927736572265625,13.187419891357422,-4.680438041687012,3.557210922241211
1761383460784805600,4.9378056640625,12.139415740966797,-5.015003204345703,4.055992126464844
1761383460794875600,4.947875732421875,10.215689659118652,-5.044523239135742,4.353397369384766
1761383460804945700,4.957945556640625,7.5019659996032715,-4.480109691619873,4.216455459594727
1761383460815014700,4.9680146484375,4.3514204025268555,-3.62685227394104,4.006706237792969
1761383460825084700,4.978084716796875,1.1582286357879639,-2.377871036529541,3.626192331314087
1761383460835153700,4.988153564453125,-1.818957805633545,-0.7652375102043152,2.9156761169433594
1761383460845223700,4.9982236328125,-4.482175350189209,0.2807728350162506,1.5806190967559814
1761383460855292700,5.008292724609375,-6.583619594573975,1.0016651153564453,-0.060415975749492645
1761383460865362700,5.01836279296875,-8.1063871383667,1.2975564002990723,-1.6533194780349731
1761383460875431400,5.028431396484375,-9.11114501953125,1.4151285886764526,-2.847836494445801
1761383460885501700,5.038501708984375,-9.823657989501953,1.5020698308944702,-3.7095484733581543
1761383460895570400,5.0485703125,-10.44884204864502,1.8055193424224854,-4.321727275848389
1761383460905640700,5.058640625,-11.090191841125488,2.325610637664795,-4.662478446960449
1761383460915709400,5.06870947265625,-11.726161003112793,3.044856071472168,-4.686018943786621
1761383460925779500,5.078779541015625,-12.240021705627441,3.675511360168457,-4.348236560821533
1761383460935848700,5.0888486328125,-12.343358993530273,3.9178972244262695,-3.7379252910614014
1761383460945918500,5.09891845703125,-11.651412963867188,3.765960216522217,-2.982617139816284
1761383460955987700,5.10898779296875,-10.02873706817627,3.4560656547546387,-2.1377484798431396
1761383460966057500,5.119057373046875,-7.643642425537109,2.7355642318725586,-1.3712725639343262
1761383460976126700,5.129126708984375,-4.685832977294922,1.9181461334228516,-0.6802220344543457
1761383460986196500,5.139196533203125,-1.3993440866470337,1.039076566696167,-0.057719841599464417
1761383460996265700,5.149265625,1.9454529285430908,0.13270999491214752,0.32459262013435364
1761383461006335500,5.15933544921875,5.012269496917725,-0.9092573523521423,0.3349515199661255
1761383461016404700,5.16940478515625,7.698957920074463,-1.7743300199508667,0.26294824481010437
1761383461026474800,5.179474853515625,9.881653785705566,-2.407686471939087,0.3987950384616852
1761383461036543500,5.18954345703125,11.512354850769043,-2.724591016769409,0.7118539810180664
1761383461046613800,5.19961376953125,12.597158432006836,-2.7465267181396484,1.085754632949829
1761383461056682500,5.2096826171875,13.210003852844238,-2.7056949138641357,1.4864944219589233
1761383461066752800,5.219752685546875,13.411699295043945,-2.816610336303711,1.8325732946395874
1761383461076821500,5.229821533203125,13.137969017028809,-3.187591552734375,2.1518828868865967
1761383461086891800,5.239891845703125,12.161905288696289,-3.4319400787353516,2.5131678581237793
1761383461096960500,5.24996044921875,10.246415138244629,-3.1244266033172607,2.848698616027832
1761383461107030500,5.260030517578125,7.324854850769043,-2.2780375480651855,3.0097177028656006
1761383461117099500,5.270099609375,3.7585597038269043,-0.9585545659065247,2.8693203926086426
1761383461127169500,5.28016943359375,0.09385985881090164,0.5908623933792114,2.3536617755889893
1761383461137238500,5.290238525390625,-3.3255820274353027,1.8384672403335571,1.4956390857696533
1761383461147308500,5.30030859375,-6.081567287445068,2.49220609664917,0.5437765717506409
1761383461157377800,5.310377685546875,-8.07297134399414,2.6882593631744385,-0.29116055369377136
1761383461167447600,5.320447509765625,-9.418017387390137,2.7103633880615234,-0.9224000573158264
1761383461177516800,5.330516845703125,-10.340468406677246,2.6720499992370605,-1.3964953422546387
1761383461187586600,5.340586669921875,-11.034443855285645,2.6842424869537354,-1.7678757905960083
1761383461197655600,5.350655517578125,-11.643834114074707,2.7615363597869873,-1.9740345478057861
1761383461207725600,5.3607255859375,-12.256063461303711,2.965212345123291,-1.9364259243011475
1761383461217794600,5.370794677734375,-12.847445487976074,3.3106634616851807,-1.6371607780456543
1761383461227864600,5.380864501953125,-13.139444351196289,3.535801410675049,-1.1993448734283447
1761383461237934600,5.3909345703125,-12.687444686889648,3.5621488094329834,-0.799318253993988
1761383461248003800,5.40100390625,-11.225770950317383,3.0881192684173584,-0.22749148309230804
1761383461258072600,5.411072509765625,-8.681361198425293,2.2648870944976807,0.5379852652549744
1761383461268142600,5.421142578125,-5.300116539001465,1.2369780540466309,1.1832623481750488
1761383461278212600,5.431212646484375,-1.5215866565704346,-0.14491604268550873,1.591897964477539
1761383461288281600,5.441281494140625,2.2053747177124023,-1.2792575359344482,1.5585347414016724
1761383461298351600,5.4513515625,5.399659156799316,-2.139636754989624,1.0792902708053589
1761383461308420600,5.461420654296875,7.926490783691406,-2.6978368759155273,0.468588262796402
1761383461318490600,5.47149072265625,9.785853385925293,-2.95153546333313,-0.008772820234298706
1761383461328559600,5.4815595703125,10.989367485046387,-2.911299228668213,-0.29098957777023315
1761383461338629600,5.491629638671875,11.620949745178223,-2.411985158920288,-0.4580226242542267
1761383461348698600,5.50169873046875,11.759483337402344,-1.5253803730010986,-0.563016414642334
1761383461358768600,5.5117685546875,11.49656867980957,-0.6178960800170898,-0.6105349063873291
1761383461368837600,5.521837646484375,11.016242027282715,0.012977462261915207,-0.6874281167984009
1761383461378907600,5.53190771484375,10.462349891662598,0.2443186640739441,-0.7609087228775024
1761383461388976600,5.5419765625,9.788195610046387,0.019455980509519577,-0.65611732006073
1761383461399046700,5.552046630859375,8.932282447814941,-0.4559139013290405,-0.32820504903793335
1761383461409115600,5.56211572265625,7.82772159576416,-1.053471326828003,0.21534132957458496
1761383461419185700,5.572185546875,6.422063827514648,-1.5587629079818726,0.959468424320221
1761383461429254700,5.582254638671875,4.716024398803711,-1.6912463903427124,1.6797893047332764
1761383461439324700,5.59232470703125,2.6388213634490967,-1.4802625179290771,2.167114496231079
1761383461449393400,5.602393310546875,0.26870906352996826,-1.1731935739517212,2.312988519668579
1761383461459463700,5.612463623046875,-2.1552298069000244,-0.7841882109642029,2.043846845626831
1761383461469532700,5.62253271484375,-4.493124961853027,-0.31878113746643066,1.3162341117858887
1761383461479602700,5.632602783203125,-6.563097953796387,0.1662694215774536,0.32053911685943604
1761383461489671700,5.642671630859375,-8.348711013793945,0.6091086268424988,-0.6572542786598206
1761383461499741400,5.652741455078125,-9.914520263671875,1.08078134059906,-1.3651138544082642
1761383461509810700,5.662810791015625,-11.304781913757324,1.7098958492279053,-1.7421839237213135
1761383461519880400,5.67288037109375,-12.589763641357422,2.460862398147583,-1.7547502517700195
1761383461529949700,5.68294970703125,-13.744911193847656,3.3027658462524414,-1.3731600046157837
1761383461540019500,5.69301953125,-14.650595664978027,4.056056499481201,-0.6773577928543091
1761383461550088700,5.703088623046875,-14.998806953430176,4.2616777420043945,0.12556686997413635
1761383461560158700,5.71315869140625,-14.240562438964844,3.8297548294067383,0.7894970774650574
1761383461570227700,5.723227783203125,-11.90025520324707,3.0244414806365967,1.1447649002075195
1761383461580297700,5.733297607421875,-8.103887557983398,1.7921111583709717,1.3334745168685913
1761383461590366700,5.74336669921875,-3.5649874210357666,0.3347764015197754,1.307621955871582
1761383461600436700,5.753436767578125,0.990212082862854,-1.0251959562301636,0.8181407451629639
1761383461610505500,5.76350537109375,5.071771144866943,-2.2500455379486084,0.07797959446907043
1761383461620575700,5.77357568359375,8.410218238830566,-3.212555170059204,-0.5012190937995911
1761383461630644500,5.78364453125,10.862334251403809,-3.805069923400879,-0.7220409512519836
1761383461640714800,5.79371484375,12.439043045043945,-3.8953657150268555,-0.7060824632644653
1761383461650783500,5.803783447265625,13.268477439880371,-3.5651960372924805,-0.6031292080879211
1761383461660853500,5.813853515625,13.52285099029541,-3.008981466293335,-0.4794532358646393
1761383461670922500,5.823922607421875,13.406126022338867,-2.4560770988464355,-0.37927788496017456
1761383461680992500,5.833992431640625,12.998101234436035,-2.150754928588867,-0.27003946900367737
1761383461691061500,5.8440615234375,12.331335067749023,-2.1818623542785645,-0.12612757086753845
1761383461701131500,5.854131591796875,11.338713645935059,-2.3332061767578125,0.09517652541399002
1761383461711200300,5.8642001953125,9.77595043182373,-2.391435146331787,0.44494757056236267
1761383461721270300,5.874270263671875,7.566112041473389,-2.09480357170105,0.8353677988052368
1761383461731340300,5.88434033203125,4.810654163360596,-1.4394972324371338,1.1441621780395508
1761383461741409300,5.8944091796875,1.7505792379379272,-0.5230956077575684,1.2785547971725464
1761383461751479000,5.90447900390625,-1.2851686477661133,0.30716753005981445,1.1111488342285156
1761383461761548300,5.91454833984375,-3.968627452850342,0.9076023101806641,0.6595324873924255
1761383461771618000,5.9246181640625,-6.111790657043457,1.2396271228790283,0.017987340688705444
1761383461781687300,5.934687255859375,-7.748625755310059,1.4201428890228271,-0.6546000838279724
1761383461791757300,5.94475732421875,-9.000910758972168,1.4910807609558105,-1.2420196533203125
1761383461801826300,5.954826416015625,-9.981954574584961,1.5585495233535767,-1.7157021760940552
1761383461811896300,5.964896240234375,-10.820422172546387,1.697555661201477,-2.055609703063965
1761383461821965300,5.97496533203125,-11.615036964416504,1.9859449863433838,-2.1916418075561523
1761383461832035300,5.985035400390625,-12.388262748718262,2.4044394493103027,-2.0662379264831543
1761383461842104300,5.995104248046875,-13.016478538513184,2.850072145462036,-1.6974822282791138
1761383461852174300,6.00517431640625,-13.205036163330078,3.174730062484741,-1.2679396867752075
1761383461862243000,6.0152431640625,-12.573843002319336,3.185190439224243,-0.8251341581344604
1761383461872313300,6.025313232421875,-10.815145492553711,2.847179412841797,-0.2518194913864136
1761383461882382000,6.035382080078125,-8.026636123657227,2.0386502742767334,0.391710102558136
1761383461892452400,6.045452392578125,-4.481403350830078,0.8842637538909912,0.8229565620422363
1761383461902521000,6.05552099609375,-0.6285003423690796,-0.3480208218097687,0.8308408260345459
1761383461912591000,6.065591064453125,2.9683549404144287,-1.538900375366211,0.5442734956741333
1761383461922660400,6.075660400390625,6.054558277130127,-2.3726184368133545,0.20212522149085999
1761383461932730000,6.085730224609375,8.494609832763672,-2.8156778812408447,-0.01581750437617302
1761383461942799400,6.09579931640625,10.300713539123535,-2.927555799484253,-0.0817141979932785
1761383461952869000,6.105869140625,11.540617942810059,-2.7871434688568115,-0.053847942501306534
1761383461962938400,6.1159384765625,12.352893829345703,-2.465580463409424,0.06790103018283844
1761383461973008100,6.126008056640625,12.864616394042969,-2.2175610065460205,0.2843843400478363
1761383461983077400,6.136077392578125,13.17115306854248,-2.2549185752868652,0.5687695741653442
1761383461993147100,6.146147216796875,13.269450187683105,-2.675264596939087,0.8802299499511719
1761383462003216400,6.15621630859375,13.030522346496582,-3.3829221725463867,1.264804720878601
1761383462013286400,6.166286376953125,12.239396095275879,-4.039739608764648,1.7645639181137085
1761383462023355100,6.176355224609375,10.764874458312988,-4.16247034072876,2.3809006214141846
1761383462033425400,6.18642529296875,8.396764755249023,-3.7194929122924805,2.9997949600219727
1761383462043494100,6.196494140625,5.1625142097473145,-2.8361403942108154,3.2942380905151367
1761383462053564400,6.206564453125,1.5562853813171387,-1.5391732454299927,2.9638144969940186
1761383462063633200,6.216633056640625,-1.9747267961502075,-0.1694224327802658,2.017518997192383
1761383462073703200,6.226703125,-5.039999961853027,0.8893612027168274,0.7213237285614014
1761383462083772200,6.236772216796875,-7.3838396072387695,1.5157876014709473,-0.5445204377174377
1761383462093842200,6.24684228515625,-9.043905258178711,1.8175487518310547,-1.4661779403686523
1761383462103911200,6.2569111328125,-10.171876907348633,1.9528043270111084,-2.0269362926483154
1761383462113981200,6.266981201171875,-10.94955825805664,2.0571281909942627,-2.3393959999084473
1761383462124050200,6.27705029296875,-11.537979125976562,2.1747689247131348,-2.4313998222351074
1761383462134120200,6.2871201171875,-12.043387413024902,2.336268424987793,-2.3249833583831787
1761383462144189200,6.297189208984375,-12.47799015045166,2.5461268424987793,-2.0876569747924805
1761383462154259200,6.30725927734375,-12.724685668945312,2.6172773838043213,-1.8370016813278198
1761383462164328400,6.317328369140625,-12.538712501525879,2.2938618659973145,-1.6412193775177002
1761383462174398200,6.327398193359375,-11.702218055725098,1.5957754850387573,-1.36203932762146
1761383462184468200,6.33746826171875,-10.265201568603516,0.5666531920433044,-0.7822439074516296
1761383462194537200,6.347537109375,-8.084409713745117,0.38231292366981506,0.059526458382606506
1761383462204607200,6.357607177734375,-5.373246669769287,0.7886424660682678,1.1219881772994995
1761383462214676200,6.36767626953125,-2.8157083988189697,0.5475190281867981,2.366741895675659
1761383462224745200,6.3777451171875,-0.22237330675125122,0.596771776676178,3.0070672035217285
1761383462234815200,6.387815185546875,2.3282148838043213,0.6332021951675415,2.7601094245910645
1761383462244885200,6.39788525390625,4.826953887939453,0.3496904969215393,2.0916988849639893
1761383462254954200,6.407954345703125,7.096579551696777,-0.11841093748807907,1.3379335403442383
1761383462265024300,6.418024169921875,9.005233764648438,-0.4413951635360718,0.6636521816253662
1761383462275093200,6.42809326171875,10.508822441101074,-0.6577757000923157,0.1723485141992569
1761383462285163300,6.438163330078125,11.70334529876709,-0.7960982322692871,-0.12861216068267822
1761383462295232300,6.448232177734375,12.593464851379395,-1.1120437383651733,-0.2808126211166382
1761383462305302000,6.458302001953125,13.223150253295898,-1.6123735904693604,-0.29530662298202515
1761383462315371300,6.468371337890625,13.499736785888672,-2.269382953643799,-0.15840016305446625
1761383462325441000,6.47844091796875,13.286127090454102,-3.045701026916504,0.18281716108322144
1761383462335510300,6.48851025390625,12.439671516418457,-3.790999174118042,0.7158715128898621
1761383462345580300,6.498580322265625,10.733694076538086,-4.158878803253174,1.4099962711334229
1761383462355649300,6.508649169921875,8.09330940246582,-3.8201236724853516,1.9757097959518433
1761383462365719300,6.51871923828125,4.8173346519470215,-2.709817886352539,2.1511268615722656
1761383462375788300,6.528788330078125,1.2972148656845093,-1.202221155166626,1.885312795639038
1761383462385858300,6.5388583984375,-2.0775508880615234,0.2112601101398468,1.2582321166992188
1761383462395927300,6.54892724609375,-4.9310126304626465,1.1776483058929443,0.4201691448688507
1761383462405997300,6.558997314453125,-7.085660457611084,1.7115269899368286,-0.4421076774597168
1761383462416066000,6.569066162109375,-8.598955154418945,1.9008747339248657,-1.147585153579712
1761383462426136300,6.57913623046875,-9.608699798583984,1.8801413774490356,-1.6684505939483643
1761383462436205000,6.589205078125,-10.261771202087402,1.7323033809661865,-2.059459924697876
1761383462446275300,6.599275390625,-10.716371536254883,1.5491374731063843,-2.367766857147217
1761383462456344000,6.609343994140625,-11.131381034851074,1.4228421449661255,-2.632225275039673
1761383462466414300,6.619414306640625,-11.566230773925781,1.4406927824020386,-2.888598918914795
1761383462476483300,6.6294833984375,-11.90665340423584,1.5964761972427368,-3.1382641792297363
1761383462486553000,6.639552978515625,-11.91639518737793,1.6751275062561035,-3.3859190940856934
1761383462496622300,6.649622314453125,-11.299895286560059,1.6215417385101318,-3.488738536834717
1761383462506692000,6.659692138671875,-9.785640716552734,1.426009178161621,-3.143179416656494
1761383462516761300,6.66976123046875,-7.265137672424316,1.0259077548980713,-2.087320327758789
1761383462526831000,6.6798310546875,-3.996364116668701,0.6052061915397644,-0.6099008917808533
1761383462536900400,6.689900390625,-0.5605849027633667,0.1407647430896759,0.6819564700126648
1761383462546970000,6.69997021484375,2.53316068649292,-0.3761923015117645,1.2776575088500977
1761383462557039400,6.710039306640625,5.193999767303467,-0.8123384714126587,1.2970631122589111
1761383462567109400,6.720109375,7.393319606781006,-1.0938540697097778,1.1637078523635864
1761383462577178000,6.73017822265625,9.086896896362305,-1.1149353981018066,0.9791175127029419
1761383462587248400,6.740248291015625,10.317753791809082,-0.8400456309318542,0.7473195195198059
1761383462597317000,6.750317138671875,11.164729118347168,-0.3895688056945801,0.5341310501098633
1761383462607387400,6.760387451171875,11.784743309020996,0.05064886435866356,0.3931303024291992
1761383462617456000,6.7704560546875,12.302787780761719,0.08138200640678406,0.32385003566741943
1761383462627526400,6.7805263671875,12.714877128601074,-0.698371171951294,0.3330078125
1761383462637595100,6.79059521484375,12.896896362304688,-2.257343053817749,0.5099833607673645
1761383462647665200,6.8006650390625,12.610467910766602,-3.8427298069000244,0.9812962412834167
1761383462657734100,6.810734130859375,11.534258842468262,-4.606464385986328,1.6389718055725098
1761383462667804200,6.82080419921875,9.403604507446289,-4.3604021072387695,2.258038282394409
1761383462677873200,6.830873046875,6.218588829040527,-3.3088910579681396,2.552647590637207
1761383462687943200,6.840943115234375,2.548708438873291,-1.730145812034607,2.2279841899871826
1761383462698013200,6.85101318359375,-1.0542677640914917,-0.08353231847286224,1.3208775520324707
1761383462708082200,6.861082275390625,-4.228962421417236,1.275778889656067,0.14025186002254486
1761383462718155800,6.87115576171875,-6.683718681335449,2.0627784729003906,-0.9195488095283508
1761383462728224800,6.881224853515625,-8.366042137145996,2.305450916290283,-1.607310175895691
1761383462738294800,6.891294677734375,-9.433259010314941,2.2370986938476562,-2.0099315643310547
1761383462748364000,6.901364013671875,-10.06363582611084,2.043435573577881,-2.2746028900146484
1761383462758433800,6.911433837890625,-10.444809913635254,1.8201212882995605,-2.4672799110412598
1761383462768503000,6.9215029296875,-10.769440650939941,1.5928809642791748,-2.632326602935791
1761383462778572800,6.93157275390625,-11.141243934631348,1.5036370754241943,-2.8262367248535156
1761383462788642000,6.94164208984375,-11.533255577087402,1.5254513025283813,-3.074648380279541
1761383462798711800,6.9517119140625,-11.681022644042969,1.4778107404708862,-3.362509250640869
1761383462808780800,6.96178076171875,-11.235062599182129,1.411835789680481,-3.506639242172241
1761383462818850800,6.971850830078125,-9.994721412658691,1.3332501649856567,-3.1539430618286133
1761383462828919800,6.981919921875,-7.865011215209961,1.0774424076080322,-2.0592808723449707
1761383462838990000,6.991989990234375,-4.982236385345459,0.4364219307899475,-0.5243767499923706
1761383462849058800,7.002058837890625,-1.641749620437622,-0.12856413424015045,0.837291955947876
1761383462859128800,7.01212890625,1.6084781885147095,-0.5976560115814209,1.63303542137146
1761383462869197800,7.02219775390625,4.478808403015137,-1.0633116960525513,1.9441807270050049
1761383462879267800,7.032267822265625,6.863766670227051,-1.4297349452972412,2.0290424823760986
1761383462889336800,7.0423369140625,8.734559059143066,-1.5165303945541382,2.0375847816467285
1761383462899406800,7.05240673828125,10.106420516967773,-1.3191605806350708,2.0646233558654785
1761383462909475800,7.062475830078125,11.02308464050293,-0.9216794967651367,2.123739004135132
1761383462919545900,7.0725458984375,11.632458686828613,-0.4885357618331909,2.2148256301879883
1761383462929614800,7.08261474609375,12.097495079040527,-0.27383285760879517,2.3356878757476807
1761383462939684900,7.092684814453125,12.458155632019043,-0.6743936538696289,2.5071210861206055
1761383462949753900,7.10275390625,12.522929191589355,-1.808720588684082,2.8445539474487305
1761383462959824000,7.112823974609375,11.954368591308594,-3.182403564453125,3.4146549701690674
1761383462969892900,7.122892822265625,10.393890380859375,-3.955389976501465,4.011956214904785
1761383462979963000,7.132962890625,7.82282829284668,-3.8902716636657715,4.330179214477539
1761383462990032000,7.143031982421875,4.574816703796387,-3.0996992588043213,3.984534740447998
1761383463000102000,7.153101806640625,1.1040688753128052,-1.6903966665267944,2.8412420749664307
1761383463010171000,7.1631708984375,-2.249776601791382,-0.1298515796661377,1.1071327924728394
1761383463020241000,7.173240966796875,-5.089728355407715,1.103832483291626,-0.674036979675293
1761383463030310000,7.183309814453125,-7.2127366065979,1.844668984413147,-1.8681870698928833
1761383463040379600,7.193379638671875,-8.630575180053711,2.131575345993042,-2.421360969543457
1761383463050449000,7.203448974609375,-9.477789878845215,2.066239595413208,-2.638240337371826
1761383463060519000,7.213518798828125,-9.920025825500488,1.7368229627609253,-2.745208740234375
1761383463070588000,7.223587890625,-10.135194778442383,1.304213523864746,-2.863607406616211
1761383463080658000,7.233657958984375,-10.354272842407227,0.9499223232269287,-2.9900176525115967
1761383463090727000,7.243726806640625,-10.704109191894531,0.796068012714386,-3.194129705429077
1761383463100797000,7.253796875,-11.012683868408203,0.8989629745483398,-3.5696678161621094
1761383463110866000,7.263865966796875,-10.988147735595703,0.96815425157547,-3.962125301361084
1761383463120936000,7.27393603515625,-10.21565055847168,0.8611521124839783,-4.186917781829834
1761383463131005000,7.2840048828125,-8.303540229797363,0.6299451589584351,-3.815363883972168
1761383463141075000,7.294074951171875,-5.247201442718506,0.10822634398937225,-2.510115146636963
1761383463151143700,7.304143798828125,-1.5605133771896362,-0.9356566667556763,-0.8447135090827942
1761383463161214000,7.3142138671875,2.0921518802642822,-2.221264600753784,0.8149447441101074
1761383463171282700,7.32428271484375,5.5232439041137695,-2.926762342453003,2.1017661094665527
1761383463181353000,7.33435302734375,8.049445152282715,-3.4608144760131836,2.8562965393066406
1761383463191421700,7.344421630859375,9.821340560913086,-3.436466932296753,3.2803661823272705
1761383463201491700,7.35449169921875,10.967705726623535,-2.977447748184204,3.5917348861694336
1761383463211561000,7.36456103515625,11.571066856384277,-2.265822410583496,3.8234260082244873
1761383463221630700,7.374630615234375,11.781654357910156,-1.4175820350646973,3.8966352939605713
1761383463231701000,7.384700927734375,11.703574180603027,-0.7651529908180237,3.809027910232544
1761383463241769700,7.394769775390625,11.33803939819336,-0.6348389387130737,3.609774351119995
1761383463251840000,7.404840087890625,10.558457374572754,-1.0924274921417236,3.339064359664917
1761383463261908700,7.41490869140625,9.163589477539062,-1.7149057388305664,3.059786319732666
1761383463271978800,7.424978759765625,7.005626201629639,-1.997129201889038,2.655146837234497
1761383463282047700,7.4350478515625,4.217372894287109,-1.670009732246399,1.950871229171753
1761383463292117800,7.44511767578125,1.1213760375976562,-0.6986174583435059,0.8673403263092041
1761383463302187000,7.45518701171875,-1.9004262685775757,0.6499606966972351,-0.4700120687484741
1761383463312256800,7.4652568359375,-4.460915565490723,1.8082164525985718,-1.7412344217300415
1761383463322326000,7.475325927734375,-6.27871561050415,2.3260574340820312,-2.5737764835357666
1761383463332395800,7.485395751953125,-7.370236396789551,2.2977232933044434,-3.0168673992156982
1761383463342465000,7.495465087890625,-7.942319869995117,1.966003179550171,-3.2553799152374268
1761383463352534800,7.50553466796875,-8.226238250732422,1.5806642770767212,-3.3538455963134766
1761383463362603800,7.515603759765625,-8.420424461364746,1.252204179763794,-3.360630750656128
1761383463372673800,7.525673828125,-8.648691177368164,1.0809495449066162,-3.3298070430755615
1761383463382742800,7.53574267578125,-8.97287368774414,1.034167766571045,-3.36082124710083
1761383463392813000,7.54581298828125,-9.249412536621094,1.0003694295883179,-3.5825672149658203
1761383463402881800,7.5558818359375,-9.290167808532715,0.8985117673873901,-3.948505401611328
1761383463412952000,7.5659521484375,-8.804705619812012,0.7237076163291931,-4.235108852386475
1761383463423020800,7.576020751953125,-7.560204982757568,0.45276105403900146,-4.0917840003967285
1761383463433090800,7.5860908203125,-5.5385589599609375,-0.24305212497711182,-3.2506659030914307
1761383463443159800,7.596159912109375,-2.9074230194091797,-1.0187820196151733,-2.03425669670105
1761383463453229800,7.606229736328125,-0.19025194644927979,-1.7478070259094238,-1.0488691329956055
1761383463463298800,7.616298828125,2.4820687770843506,-2.3947529792785645,-0.20917479693889618
1761383463473368800,7.626368896484375,5.043664932250977,-2.9323861598968506,0.5982778072357178
1761383463483437800,7.636437744140625,7.1267476081848145,-3.688850164413452,1.5325567722320557
1761383463493507800,7.6465078125,8.671419143676758,-4.396780967712402,2.400078058242798
1761383463503576800,7.656576904296875,9.77701187133789,-4.709542751312256,3.1156959533691406
1761383463513646800,7.666646728515625,10.3439359664917,-4.67931604385376,3.77828049659729
1761383463523716000,7.676716064453125,10.385969161987305,-4.336529731750488,4.371177673339844
1761383463533785900,7.686785888671875,9.923526763916016,-3.814601182937622,4.8356828689575195
1761383463543854800,7.696854736328125,8.84751033782959,-3.3370184898376465,5.059734344482422
1761383463553924900,7.7069248046875,7.131769180297852,-3.031183958053589,5.03148889541626
1761383463563993900,7.716993896484375,4.845120906829834,-2.678760290145874,4.750705242156982
1761383463574063900,7.72706396484375,2.223372459411621,-1.996247410774231,3.9008595943450928
1761383463584132900,7.7371328125,-0.30755487084388733,-1.0733146667480469,2.656590223312378
1761383463594203000,7.747202880859375,-2.6792898178100586,0.12649987637996674,1.1336283683776855
1761383463604271900,7.75727197265625,-4.800516128540039,1.1598490476608276,-0.6970484852790833
1761383463614342000,7.767341796875,-6.477445125579834,1.9611955881118774,-2.311400890350342
1761383463624411000,7.777410888671875,-7.720156669616699,2.4353866577148438,-3.285820245742798
1761383463634481000,7.78748095703125,-8.590097427368164,2.724670648574829,-3.8811075687408447
1761383463644550000,7.7975498046875,-9.23056697845459,2.8968148231506348,-4.314177989959717
1761383463654620000,7.807619873046875,-9.742937088012695,2.9974377155303955,-4.6824517250061035
1761383463664689000,7.81768896484375,-10.10346508026123,3.0929293632507324,-5.058122634887695
1761383463674759000,7.827759033203125,-10.253263473510742,3.2197694778442383,-5.348840236663818
1761383463684828700,7.83782861328125,-9.972472190856934,3.1427855491638184,-5.401924133300781
1761383463694898000,7.84789794921875,-8.904012680053711,2.931169271469116,-5.100598335266113
1761383463704966700,7.857966552734375,-6.946423053741455,2.564786434173584,-4.341100692749023
1761383463715032800,7.86803271484375,-4.5127949714660645,1.8371912240982056,-3.07470965385437
1761383463725101800,7.878101806640625,-1.6350785493850708,0.9658260345458984,-1.585665225982666
1761383463735171800,7.888171875,1.3849871158599854,-0.17925478518009186,-0.2158549278974533
1761383463745240600,7.898240478515625,4.026400566101074,-1.5067763328552246,0.8264716863632202
1761383463755310800,7.908310791015625,6.027891159057617,-2.576009511947632,1.3458588123321533
1761383463765380600,7.918380615234375,7.460306167602539,-3.0285372734069824,1.5575158596038818
1761383463775449900,7.928449951171875,8.337803840637207,-3.0083067417144775,1.6956897974014282
1761383463785519900,7.938519775390625,8.720619201660156,-2.671450138092041,1.7642697095870972
1761383463795588600,7.948588623046875,8.67124080657959,-2.147963762283325,1.7141797542572021
1761383463805659000,7.958658935546875,8.226249694824219,-1.5636394023895264,1.4582257270812988
1761383463815727600,7.9687275390625,7.422797203063965,-1.2180360555648804,1.0120625495910645
1761383463825798000,7.9787978515625,6.297189712524414,-1.136101484298706,0.4760451912879944
1761383463835866600,7.98886669921875,4.855877876281738,-0.9976862668991089,-0.08715411275625229
1761383463845937000,7.99893701171875,3.181642532348633,-0.5770053267478943,-0.5928229093551636
1761383463856005600,8.009005615234376,1.3688578605651855,0.124055415391922,-0.99424147605896
1761383463866075600,8.01907568359375,-0.4405762851238251,0.9744658470153809,-1.2893491983413696
1761383463876144600,8.02914453125,-2.0859463214874268,1.7151254415512085,-1.45700204372406
1761383463886214700,8.039214599609375,-3.453758716583252,2.120676279067993,-1.509551763534546
1761383463896283600,8.04928369140625,-4.500128746032715,2.2453901767730713,-1.4936176538467407
1761383463906353700,8.059353759765624,-5.247764587402344,2.168388605117798,-1.5014820098876953
1761383463916423000,8.0694228515625,-5.707230567932129,1.8925927877426147,-1.6036230325698853
1761383463926492700,8.07949267578125,-5.83770751953125,1.5067766904830933,-1.6828893423080444
1761383463936562000,8.08956201171875,-5.6570000648498535,1.0914220809936523,-1.6196637153625488
1761383463946631700,8.099631591796875,-5.24809455871582,0.6458306908607483,-1.3786420822143555
1761383463956701000,8.109700927734375,-4.6630353927612305,0.2901599705219269,-1.0196945667266846
1761383463966770700,8.119770751953125,-3.9367287158966064,0.2508290708065033,-0.6393208503723145
1761383463976839700,8.129839599609374,-3.099480152130127,0.370941698551178,-0.2808246612548828
1761383463986909700,8.13990966796875,-2.159947633743286,0.33557412028312683,-0.058716222643852234
1761383463996978700,8.149978759765625,-1.084063172340393,0.1728520393371582,-0.011058465577661991
1761383464007049000,8.160049072265625,0.007956122979521751,-0.1897469311952591,-0.019531045109033585
1761383464017117700,8.17011767578125,1.0220979452133179,-0.6231895089149475,-0.015061925165355206
1761383464027187700,8.180187744140625,1.8413581848144531,-0.9208552837371826,-0.0034987465478479862
1761383464037256700,8.190256591796874,2.412388324737549,-1.1204910278320312,-0.020024387165904045
1761383464047326700,8.20032666015625,2.780529499053955,-1.2860685586929321,-0.05743807181715965
1761383464057395700,8.210395751953126,2.9520561695098877,-1.3803207874298096,-0.06960249692201614
1761383464067465700,8.2204658203125,2.924226760864258,-1.3363205194473267,-0.06135762110352516
1761383464077534700,8.23053466796875,2.694298267364502,-1.139164686203003,-0.06886723637580872
1761383464087604700,8.240604736328125,2.3049349784851074,-0.836940348148346,-0.13304515182971954
1761383464097673700,8.250673828125,1.8126035928726196,-0.5163255929946899,-0.26062116026878357
1761383464107743700,8.26074365234375,1.3171288967132568,-0.2156650722026825,-0.4027594029903412
1761383464117812700,8.270812744140626,0.8551744222640991,0.031552039086818695,-0.4907388985157013
1761383464127882800,8.2808828125,0.4448976516723633,0.22880251705646515,-0.4904786944389343
1761383464137951700,8.29095166015625,0.0838007777929306,0.3635599613189697,-0.4232087731361389
1761383464148021800,8.301021728515625,-0.21668927371501923,0.41675928235054016,-0.34994813799858093
1761383464158090800,8.3110908203125,-0.43666765093803406,0.4358176589012146,-0.3064923882484436
1761383464168160800,8.321160888671875,-0.5728955268859863,0.4052690863609314,-0.2602570056915283
1761383464178229800,8.331229736328124,-0.6341003775596619,0.31932729482650757,-0.20046749711036682
1761383464188299800,8.3412998046875,-0.6299054026603699,0.21148309111595154,-0.1364123523235321
1761383464198368800,8.35136865234375,-0.5817115306854248,0.09202739596366882,-0.06716452538967133
1761383464208438500,8.3614384765625,-0.5240636467933655,0.003414170816540718,-0.01712559349834919
1761383464218507800,8.3715078125,-0.48424237966537476,-0.035869404673576355,0.006799391936510801
1761383464228577800,8.381577880859375,-0.47128263115882874,0.033696625381708145,-0.01755708083510399
1761383464238646800,8.391646728515624,-0.5142931342124939,0.18943485617637634,-0.03845624998211861
1761383464248716800,8.401716796875,-0.633093535900116,0.45321592688560486,-0.03221619874238968
1761383464258785800,8.411785888671876,-0.837761402130127,0.906810998916626,-0.003440713509917259
1761383464268855800,8.421855712890626,-1.1397711038589478,1.5174546241760254,0.024432461708784103
1761383464278924800,8.4319248046875,-1.4864301681518555,2.2189486026763916,0.009916875511407852
1761383464288994800,8.441994873046875,-1.8211331367492676,2.584580898284912,-0.07689738273620605
1761383464299063800,8.452063720703125,-2.0857527256011963,2.5008533000946045,-0.2674253582954407
1761383464309133800,8.4621337890625,-2.2350709438323975,2.384148597717285,-0.518001139163971
1761383464319202600,8.47220263671875,-2.320988178253174,2.423978567123413,-0.7041152119636536
1761383464329272800,8.48227294921875,-2.332050323486328,2.5246987342834473,-0.7556921243667603
1761383464339342800,8.4923427734375,-2.2367961406707764,2.466978073120117,-0.7245039343833923
1761383464349411800,8.502411865234375,-2.012465476989746,2.155085563659668,-0.6559941172599792
1761383464359481900,8.51248193359375,-1.6668269634246826,1.6496615409851074,-0.5829210877418518
1761383464369550600,8.522550537109375,-1.2269203662872314,1.0367454290390015,-0.46788421273231506
1761383464379620900,8.532620849609375,-0.7321124076843262,0.4129077196121216,-0.299140065908432
1761383464389689600,8.542689697265626,-0.21843715012073517,-0.12352510541677475,-0.10620255023241043
1761383464399760000,8.552759765625,0.24963073432445526,-0.5269317626953125,0.1267528235912323
1761383464409828600,8.56282861328125,0.6091257929801941,-0.8221005797386169,0.37856537103652954
1761383464419898600,8.572898681640625,0.8825172781944275,-1.0336169004440308,0.6046887040138245
1761383464429967600,8.582967529296875,1.059698462486267,-1.155598759651184,0.771344006061554
1761383464440037600,8.59303759765625,1.1199009418487549,-1.1674621105194092,0.8675042986869812
1761383464450106600,8.603106689453124,1.0882213115692139,-1.0940299034118652,0.8861261606216431
1761383464460176600,8.6131767578125,1.0034464597702026,-1.009377360343933,0.8525001406669617
1761383464470246000,8.623245849609376,0.8838183283805847,-0.9343788027763367,0.7773500084877014
1761383464480315600,8.633315673828125,0.74820476770401,-0.8438117504119873,0.6649520397186279
1761383464490385000,8.643385009765625,0.6039764881134033,-0.697308361530304,0.521271824836731
1761383464500454700,8.65345458984375,0.4706273078918457,-0.5532928109169006,0.37194889783859253
1761383464510524000,8.66352392578125,0.3754717707633972,-0.4711438715457916,0.2574462890625
1761383464520593700,8.67359375,0.3277551531791687,-0.4472672939300537,0.18302449584007263
1761383464530662700,8.68366259765625,0.31485745310783386,-0.4845118522644043,0.16129682958126068
1761383464540732700,8.693732666015626,0.32343751192092896,-0.5340888500213623,0.19405516982078552
1761383464550801700,8.7038017578125,0.34037843346595764,-0.5208814144134521,0.22519046068191528
1761383464560872000,8.713871826171875,0.31804323196411133,-0.414723664522171,0.2549048960208893
1761383464570940700,8.723940673828125,0.21826793253421783,-0.2625753879547119,0.2983061671257019
1761383464581011000,8.734010986328125,0.03912283852696419,-0.05261541157960892,0.34616294503211975
1761383464591079700,8.74407958984375,-0.17424404621124268,0.2534558176994324,0.351972371339798
1761383464601149700,8.754149658203126,-0.4405209720134735,0.5867575407028198,0.3363623321056366
1761383464611218700,8.76421875,-0.7835196256637573,1.0750892162322998,0.24626147747039795
1761383464621288700,8.774288818359375,-1.2061634063720703,1.731693148612976,0.08953956514596939
1761383464631357700,8.784357666015625,-1.7154839038848877,2.3658430576324463,-0.10195530205965042
1761383464641427700,8.794427734375,-2.2337000370025635,3.0074357986450195,-0.35170087218284607
1761383464651496700,8.80449658203125,-2.770796298980713,3.541447877883911,-0.7423844933509827
1761383464661566700,8.814566650390624,-3.2070817947387695,4.0132737159729,-1.0002257823944092
1761383464671635700,8.8246357421875,-3.46899676322937,4.259209156036377,-1.1863723993301392
1761383464681705700,8.834705810546875,-3.7071235179901123,4.090946674346924,-1.34003746509552
1761383464691774700,8.844774658203125,-3.925468921661377,4.03920316696167,-1.5725958347320557
1761383464701844700,8.8548447265625,-4.122565746307373,4.326234340667725,-1.8020522594451904
1761383464711913700,8.864913818359375,-4.151865005493164,4.789703369140625,-1.9985147714614868
1761383464721983500,8.8749833984375,-3.993417978286743,4.999902725219727,-2.190175771713257
1761383464732052200,8.88505224609375,-3.732269048690796,4.595222473144531,-2.362454414367676
1761383464742122500,8.89512255859375,-3.394622564315796,3.533571720123291,-2.4743995666503906
1761383464752191200,8.905191162109375,-3.1103150844573975,2.5399422645568848,-2.563796043395996
1761383464762261500,8.915261474609375,-2.91133713722229,1.9124314785003662,-2.5475375652313232
1761383464772330200,8.925330322265625,-2.6894803047180176,1.6451188325881958,-2.333540201187134
1761383464782400300,8.935400146484374,-2.364130735397339,1.1966732740402222,-1.9928278923034668
1761383464792469200,8.94546923828125,-1.9482321739196777,0.20146095752716064,-1.6642239093780518
1761383464802539300,8.955539306640626,-1.5648373365402222,-1.112506628036499,-1.443896770477295
1761383464812608500,8.9656083984375,-1.3446258306503296,-2.2134151458740234,-1.1684577465057373
1761383464822678300,8.97567822265625,-1.2621803283691406,-3.1420252323150635,-0.9020841121673584
1761383464832747500,8.98574755859375,-1.2429317235946655,-4.3329548835754395,-0.9262293577194214
1761383464842817300,8.9958173828125,-1.2293967008590698,-5.563780307769775,-1.1743981838226318
1761383464852886500,9.005886474609374,-1.1338870525360107,-6.774333477020264,-1.4380931854248047
1761383464862956300,9.015956298828126,-0.8751965165138245,-7.968719482421875,-1.542874813079834
1761383464873025500,9.026025634765626,-0.6035274863243103,-8.86618423461914,-1.5304226875305176
1761383464883095300,9.03609521484375,-0.7020236253738403,-9.015059471130371,-1.6991947889328003
1761383464893164300,9.046164306640625,-1.2178839445114136,-8.295620918273926,-2.062415838241577
1761383464903234300,9.056234375,-1.998254418373108,-6.5509233474731445,-2.4924063682556152
1761383464913303300,9.06630322265625,-2.7024857997894287,-4.616941928863525,-2.7263166904449463
1761383464923373600,9.07637353515625,-3.155507802963257,-2.8230700492858887,-2.6843252182006836
1761383464933442300,9.0864423828125,-3.3657803535461426,-1.0872297286987305,-2.417351484298706
1761383464943512300,9.09651220703125,-3.247708559036255,0.3024924695491791,-2.005676507949829
1761383464953581300,9.106581298828125,-2.7067670822143555,0.665520191192627,-1.9012820720672607
1761383464963651300,9.1166513671875,-1.916016936302185,0.7640975117683411,-1.5869587659835815
1761383464973720300,9.12672021484375,-1.2357531785964966,0.7574952244758606,-0.960250735282898
1761383464983790300,9.136790283203124,-0.8536790013313293,0.9941763281822205,-0.21241995692253113
1761383464993859300,9.146859375,-0.7408355474472046,1.0244553089141846,0.36696377396583557
1761383465003929300,9.156929443359376,-0.7259123921394348,0.38637861609458923,0.6381624937057495
1761383465013998300,9.166998291015625,-0.7262000441551208,-0.6690581440925598,0.6308436393737793
1761383465024068400,9.177068359375,-0.6609399318695068,-1.5137617588043213,0.520485520362854
1761383465034137300,9.187137451171875,-0.5017154216766357,-1.7943905591964722,0.5128398537635803
1761383465044207400,9.197207275390625,-0.3737044036388397,-1.4758615493774414,0.6678146719932556
1761383465054276400,9.2072763671875,-0.39645740389823914,-0.7752144932746887,0.9545734524726868
1761383465064346400,9.217346435546874,-0.5192065238952637,-0.2113223522901535,1.2746338844299316
1761383465074415400,9.227415283203126,-0.5227605104446411,-0.2077864706516266,1.5341242551803589
1761383465084485400,9.2374853515625,-0.4071160554885864,-0.39935654401779175,1.742901086807251
1761383465094555400,9.247555419921875,-0.2888663709163666,-0.21367640793323517,1.8627350330352783
1761383465104624400,9.257624267578125,-0.18383477628231049,0.3236277401447296,1.8400319814682007
1761383465114693400,9.267693359375,-0.0021587321534752846,0.6620702147483826,1.6692479848861694
1761383465124763100,9.27776318359375,0.27048495411872864,0.5200663805007935,1.4194380044937134
1761383465134833400,9.28783349609375,0.5443905591964722,0.2212648242712021,1.1286373138427734
1761383465144902400,9.29790234375,0.7636731863021851,-0.1161581352353096,0.8171377182006836
1761383465154972400,9.307972412109375,0.8530358076095581,-0.42115479707717896,0.5314268469810486
1761383465165041400,9.31804150390625,0.8312819600105286,-0.5962793827056885,0.36283591389656067
1761383465175111200,9.328111083984375,0.7644656300544739,-0.5659342408180237,0.29869046807289124
1761383465185180400,9.338180419921875,0.6991227865219116,-0.4817897081375122,0.26201146841049194
1761383465195250200,9.348250244140624,0.6302124261856079,-0.4114566743373871,0.2541183829307556
1761383465205319400,9.3583193359375,0.5521869659423828,-0.3142356276512146,0.21599623560905457
1761383465215389200,9.36838916015625,0.46002107858657837,-0.16533377766609192,0.17539821565151215
1761383465225458400,9.37845849609375,0.3877948820590973,-0.0024868957698345184,0.1525801122188568
1761383465235528400,9.388528564453125,0.348293274641037,0.14392410218715668,0.16045346856117249
1761383465245597400,9.398597412109375,0.3338223993778229,0.24217933416366577,0.18309099972248077
1761383465255667500,9.40866748046875,0.31751346588134766,0.2597079873085022,0.21596452593803406
1761383465265736400,9.418736328125,0.32797738909721375,0.23502151668071747,0.21806661784648895
1761383465275806500,9.428806396484376,0.37528684735298157,0.19424186646938324,0.19813524186611176
1761383465285875200,9.438875244140625,0.44343072175979614,0.1480962485074997,0.14558576047420502
1761383465295945500,9.448945556640625,0.5061763525009155,0.13382837176322937,0.04956628754734993
1761383465306014200,9.45901416015625,0.5283836126327515,0.12558935582637787,-0.06754982471466064
1761383465316084500,9.46908447265625,0.5049717426300049,0.1522286981344223,-0.1934100240468979
1761383465326153200,9.4791533203125,0.4564136564731598,0.21817485988140106,-0.2872984707355499
1761383465336223500,9.489223388671874,0.3864036798477173,0.29916319251060486,-0.33983758091926575
1761383465346292200,9.499292236328126,0.3020235300064087,0.3501598834991455,-0.3468136191368103
1761383465356362200,9.5093623046875,0.23187559843063354,0.322329044342041,-0.32158470153808594
1761383465366431500,9.519431396484375,0.1859111338853836,0.25636592507362366,-0.2562725841999054
1761383465376501200,9.529501220703125,0.17792858183383942,0.2093406468629837,-0.15488338470458984
1761383465386570500,9.539570556640625,0.22723175585269928,0.22144412994384766,-0.02279064618051052
1761383465396640300,9.54964013671875,0.3067963719367981,0.27539336681365967,0.09107840061187744
1761383465406709500,9.55970947265625,0.3668557107448578,0.35122808814048767,0.22081370651721954
1761383465416779300,9.569779296875,0.34923142194747925,0.1576985865831375,0.2703661024570465
1761383465426848500,9.5798486328125,0.32903197407722473,-0.07041981816291809,0.27311140298843384
1761383465436918300,9.589918212890625,0.34691908955574036,-0.2027810513973236,0.2664351165294647
1761383465446987300,9.5999873046875,0.3750692903995514,-0.23660922050476074,0.24291671812534332
1761383465457057500,9.6100576171875,0.3878122568130493,-0.17544811964035034,0.2157391607761383
1761383465467126300,9.620126220703124,0.36404237151145935,-0.08923687040805817,0.2217942178249359
