time,seconds_elapsed,z,y,x
1761231957254774300,0.068774169921875,-0.8691253662109375,-0.488372802734375,0.070037841796875
1761231957264843500,0.078843505859375,-0.8770751953125,-0.4869842529296875,0.0600738525390625
1761231957274912300,0.088912353515625,-0.8812103271484375,-0.4832763671875,0.0515594482421875
1761231957284982500,0.098982421875,-0.881378173828125,-0.4770355224609375,0.04693603515625
1761231957295051300,0.10905126953125,-0.8802947998046875,-0.4742279052734375,0.0474853515625
1761231957305121500,0.11912158203125,-0.8863525390625,-0.47528076171875,0.052490234375
1761231957315190300,0.129190185546875,-0.891082763671875,-0.4752044677734375,0.053436279296875
1761231957325259500,0.139259521484375,-0.8936614990234375,-0.470794677734375,0.0546417236328125
1761231957335329300,0.149329345703125,-0.89697265625,-0.4645538330078125,0.053619384765625
1761231957345398500,0.1593984375,-0.8958892822265625,-0.45684814453125,0.052093505859375
1761231957355468500,0.169468505859375,-0.894378662109375,-0.4496307373046875,0.0521697998046875
1761231957365537300,0.179537353515625,-0.886688232421875,-0.446197509765625,0.0522918701171875
1761231957375606300,0.189606201171875,-0.8800201416015625,-0.446441650390625,0.0513458251953125
1761231957385676300,0.19967626953125,-0.876556396484375,-0.4503326416015625,0.0550689697265625
1761231957395745500,0.20974560546875,-0.878631591796875,-0.4536590576171875,0.0565338134765625
1761231957405815300,0.219815185546875,-0.8810882568359375,-0.45367431640625,0.0583038330078125
1761231957415884500,0.229884521484375,-0.8834228515625,-0.453704833984375,0.059814453125
1761231957425953300,0.239953369140625,-0.8844757080078125,-0.4540863037109375,0.0613250732421875
1761231957436023600,0.2500234375,-0.8873748779296875,-0.454864501953125,0.059814453125
1761231957446092300,0.26009228515625,-0.8862152099609375,-0.4578094482421875,0.06231689453125
1761231957456162600,0.27016259765625,-0.87921142578125,-0.461181640625,0.0611419677734375
1761231957466231300,0.280231201171875,-0.877166748046875,-0.46270751953125,0.0628814697265625
1761231957476301300,0.29030126953125,-0.87872314453125,-0.46612548828125,0.0670318603515625
1761231957486370300,0.300370361328125,-0.8843231201171875,-0.4724273681640625,0.0730438232421875
1761231957496439600,0.310439453125,-0.8862762451171875,-0.4751739501953125,0.07257080078125
1761231957506509300,0.32050927734375,-0.8795623779296875,-0.4729766845703125,0.067779541015625
1761231957516578600,0.33057861328125,-0.8734283447265625,-0.4699249267578125,0.0678558349609375
1761231957526648600,0.340648681640625,-0.8716583251953125,-0.4688568115234375,0.070770263671875
1761231957536717300,0.35071728515625,-0.8740997314453125,-0.470550537109375,0.073638916015625
1761231957546786300,0.360786376953125,-0.87701416015625,-0.469940185546875,0.07476806640625
1761231957556856300,0.370856201171875,-0.8762054443359375,-0.46795654296875,0.074981689453125
1761231957566925300,0.38092529296875,-0.872955322265625,-0.4670257568359375,0.07550048828125
1761231957576995300,0.390995361328125,-0.875152587890625,-0.465240478515625,0.0791473388671875
1761231957587064600,0.401064697265625,-0.8798065185546875,-0.465667724609375,0.079498291015625
1761231957597133300,0.41113330078125,-0.8824920654296875,-0.4686126708984375,0.0781707763671875
1761231957607203600,0.42120361328125,-0.8836517333984375,-0.4699859619140625,0.076416015625
1761231957617272300,0.431272216796875,-0.8778839111328125,-0.470703125,0.0757293701171875
1761231957627342300,0.44134228515625,-0.869781494140625,-0.46612548828125,0.0753021240234375
1761231957637411300,0.451411376953125,-0.86309814453125,-0.464141845703125,0.0714874267578125
1761231957647480600,0.46148046875,-0.852508544921875,-0.470123291015625,0.0659637451171875
1761231957657550300,0.47155029296875,-0.8485870361328125,-0.4752960205078125,0.0604248046875
1761231957667619600,0.48161962890625,-0.8546142578125,-0.47442626953125,0.064788818359375
1761231957677689300,0.491689453125,-0.8682708740234375,-0.47198486328125,0.0744476318359375
1761231957687758300,0.50175830078125,-0.88470458984375,-0.4705657958984375,0.091766357421875
1761231957697827300,0.511827392578125,-0.897369384765625,-0.474517822265625,0.1086578369140625
1761231957707897300,0.5218974609375,-0.900634765625,-0.483489990234375,0.1208648681640625
1761231957717966300,0.53196630859375,-0.8968963623046875,-0.494598388671875,0.1300506591796875
1761231957728036400,0.542036376953125,-0.900238037109375,-0.505706787109375,0.13897705078125
1761231957738105300,0.552105224609375,-0.9067230224609375,-0.512298583984375,0.1466522216796875
1761231957748174300,0.56217431640625,-0.9028167724609375,-0.5113372802734375,0.1475067138671875
1761231957758244600,0.57224462890625,-0.899566650390625,-0.5080413818359375,0.1472320556640625
1761231957768313300,0.582313232421875,-0.89666748046875,-0.5005645751953125,0.1493377685546875
1761231957778383600,0.592383544921875,-0.9013519287109375,-0.4903106689453125,0.1552886962890625
1761231957788452400,0.602452392578125,-0.9085235595703125,-0.4810638427734375,0.16259765625
1761231957798521600,0.612521484375,-0.91363525390625,-0.468292236328125,0.16937255859375
1761231957808591400,0.62259130859375,-0.9179840087890625,-0.454254150390625,0.1709442138671875
1761231957818660600,0.63266064453125,-0.9101104736328125,-0.4412994384765625,0.168365478515625
1761231957828730400,0.64273046875,-0.8979034423828125,-0.431854248046875,0.1618804931640625
1761231957838799400,0.65279931640625,-0.891998291015625,-0.42596435546875,0.1612548828125
1761231957848868400,0.662868408203125,-0.8911590576171875,-0.4243621826171875,0.1658782958984375
1761231957858938400,0.6729384765625,-0.8900146484375,-0.42303466796875,0.1662139892578125
1761231957869007400,0.68300732421875,-0.8813018798828125,-0.4180908203125,0.1630401611328125
1761231957879077400,0.693077392578125,-0.8727569580078125,-0.4141082763671875,0.1580047607421875
1761231957889146400,0.703146484375,-0.8704681396484375,-0.4174041748046875,0.1591033935546875
1761231957899215400,0.71321533203125,-0.8691253662109375,-0.42303466796875,0.159515380859375
1761231957909285400,0.723285400390625,-0.8583526611328125,-0.426849365234375,0.1568756103515625
1761231957919354400,0.733354248046875,-0.8507080078125,-0.4292144775390625,0.1535491943359375
1761231957929424600,0.743424560546875,-0.844085693359375,-0.4304656982421875,0.1478729248046875
1761231957939494000,0.753493896484375,-0.8395233154296875,-0.430206298828125,0.1420745849609375
1761231957949563000,0.76356298828125,-0.83441162109375,-0.4316253662109375,0.134674072265625
1761231957959633000,0.7736328125,-0.835784912109375,-0.4331207275390625,0.133148193359375
1761231957969702000,0.783701904296875,-0.84271240234375,-0.4355926513671875,0.1358642578125
1761231957979772000,0.79377197265625,-0.849822998046875,-0.4401702880859375,0.1411590576171875
1761231957989840600,0.803840576171875,-0.8559722900390625,-0.4413299560546875,0.1451416015625
1761231957999910000,0.813909912109375,-0.8575897216796875,-0.443511962890625,0.14459228515625
1761231958009979600,0.823979736328125,-0.8610687255859375,-0.4439544677734375,0.141448974609375
1761231958020049000,0.834048828125,-0.8640899658203125,-0.443511962890625,0.13763427734375
1761231958030118700,0.84411865234375,-0.866790771484375,-0.4443817138671875,0.13507080078125
1761231958040188000,0.85418798828125,-0.8635406494140625,-0.4473419189453125,0.133636474609375
1761231958050256600,0.864256591796875,-0.8604736328125,-0.4484710693359375,0.1293487548828125
1761231958060327000,0.874326904296875,-0.862213134765625,-0.4503021240234375,0.123748779296875
1761231958070395600,0.884395751953125,-0.859954833984375,-0.4520416259765625,0.120086669921875
1761231958080466000,0.8944658203125,-0.8613739013671875,-0.452850341796875,0.120452880859375
1761231958090534700,0.90453466796875,-0.860687255859375,-0.4535675048828125,0.1221466064453125
1761231958100604000,0.91460400390625,-0.8592529296875,-0.4585723876953125,0.123931884765625
1761231958110673700,0.924673583984375,-0.85980224609375,-0.465545654296875,0.1247100830078125
1761231958120743000,0.934742919921875,-0.8615570068359375,-0.4683990478515625,0.1229400634765625
1761231958130813000,0.94481298828125,-0.861907958984375,-0.4725799560546875,0.1181488037109375
1761231958140881700,0.954881591796875,-0.86285400390625,-0.480010986328125,0.1141357421875
1761231958150950700,0.96495068359375,-0.8715972900390625,-0.4886627197265625,0.1121063232421875
1761231958161020700,0.975020751953125,-0.87469482421875,-0.497406005859375,0.1101837158203125
1761231958171090000,0.98508984375,-0.873870849609375,-0.5034942626953125,0.105987548828125
1761231958181159700,0.99515966796875,-0.88140869140625,-0.5104522705078125,0.1028594970703125
1761231958191229000,1.00522900390625,-0.88470458984375,-0.5133819580078125,0.10614013671875
1761231958201297700,1.015297607421875,-0.8854522705078125,-0.51531982421875,0.1059112548828125
1761231958211368000,1.025367919921875,-0.8821868896484375,-0.5162811279296875,0.1048431396484375
1761231958221436700,1.035436767578125,-0.8800201416015625,-0.5162353515625,0.1051483154296875
1761231958231507000,1.0455068359375,-0.872344970703125,-0.5149383544921875,0.1009521484375
1761231958241575700,1.05557568359375,-0.8682403564453125,-0.515625,0.097381591796875
1761231958251645000,1.06564501953125,-0.8661041259765625,-0.5147247314453125,0.0990447998046875
1761231958261714700,1.075714599609375,-0.8640594482421875,-0.514923095703125,0.1013641357421875
1761231958271784000,1.085783935546875,-0.864471435546875,-0.5158233642578125,0.103973388671875
1761231958281853700,1.095853759765625,-0.854034423828125,-0.510650634765625,0.1069183349609375
1761231958291922700,1.105922607421875,-0.84967041015625,-0.4987945556640625,0.1109466552734375
1761231958301991700,1.11599169921875,-0.838714599609375,-0.4854583740234375,0.118255615234375
1761231958312061700,1.126061767578125,-0.84344482421875,-0.47442626953125,0.1221160888671875
1761231958322130700,1.136130615234375,-0.8115234375,-0.4611358642578125,0.1138458251953125
1761231958332200700,1.14620068359375,-0.74664306640625,-0.4472808837890625,0.1376800537109375
1761231958342270000,1.15627001953125,-0.917449951171875,-0.459503173828125,0.1851654052734375
1761231958352338700,1.166338623046875,-0.8568115234375,-0.490447998046875,0.1791534423828125
1761231958362409000,1.176408935546875,-0.83197021484375,-0.4664306640625,0.13946533203125
1761231958372477700,1.186477783203125,-0.8285675048828125,-0.462127685546875,0.1103515625
1761231958382548000,1.1965478515625,-0.81201171875,-0.482635498046875,0.1066741943359375
1761231958392616700,1.20661669921875,-0.8158111572265625,-0.479034423828125,0.116973876953125
1761231958402686000,1.21668603515625,-0.801422119140625,-0.4575042724609375,0.1097259521484375
1761231958412755700,1.226755615234375,-0.780426025390625,-0.4673919677734375,0.1108551025390625
1761231958422825000,1.236824951171875,-0.821044921875,-0.4969940185546875,0.1362152099609375
1761231958432894700,1.246894775390625,-0.855072021484375,-0.5168304443359375,0.15985107421875
1761231958442963700,1.256963623046875,-0.8477325439453125,-0.5081329345703125,0.1611785888671875
1761231958453033700,1.26703369140625,-0.843505859375,-0.4828643798828125,0.14605712890625
1761231958463102700,1.277102783203125,-0.863128662109375,-0.466278076171875,0.12841796875
1761231958473171700,1.287171630859375,-0.8740692138671875,-0.4638519287109375,0.117431640625
1761231958483241700,1.29724169921875,-0.8778533935546875,-0.4634246826171875,0.1141357421875
1761231958493310700,1.307310791015625,-0.878082275390625,-0.4625244140625,0.1214599609375
1761231958503380700,1.317380615234375,-0.889678955078125,-0.464691162109375,0.1346588134765625
1761231958513449700,1.32744970703125,-0.8923187255859375,-0.4741973876953125,0.143280029296875
1761231958523518700,1.337518798828125,-0.8892822265625,-0.479034423828125,0.1484832763671875
1761231958533589000,1.347589111328125,-0.89886474609375,-0.477447509765625,0.15228271484375
1761231958543657700,1.35765771484375,-0.908843994140625,-0.4789276123046875,0.1580657958984375
1761231958553727700,1.367727783203125,-0.909881591796875,-0.4751434326171875,0.1581573486328125
1761231958563796700,1.377796630859375,-0.9055328369140625,-0.47052001953125,0.1550445556640625
1761231958573866000,1.387865966796875,-0.90838623046875,-0.47198486328125,0.1521453857421875
1761231958583935700,1.397935791015625,-0.9100341796875,-0.475738525390625,0.1503143310546875
1761231958594005000,1.4080048828125,-0.9067230224609375,-0.4794464111328125,0.1540374755859375
1761231958604074800,1.41807470703125,-0.910400390625,-0.48370361328125,0.1628875732421875
1761231958614143700,1.428143798828125,-0.92755126953125,-0.4858856201171875,0.1781158447265625
1761231958624212700,1.438212646484375,-0.9442901611328125,-0.488616943359375,0.1842803955078125
1761231958634282800,1.44828271484375,-0.9486083984375,-0.4913482666015625,0.1838226318359375
1761231958644351700,1.458351806640625,-0.952484130859375,-0.4927215576171875,0.1804962158203125
1761231958654421800,1.468421875,-0.9657745361328125,-0.4859771728515625,0.17449951171875
1761231958664490800,1.47849072265625,-0.978485107421875,-0.4667816162109375,0.16241455078125
1761231958674559700,1.488559814453125,-0.9814910888671875,-0.4432220458984375,0.144561767578125
1761231958684629800,1.498629638671875,-0.9805755615234375,-0.4181365966796875,0.124908447265625
1761231958694698800,1.50869873046875,-0.9695892333984375,-0.39215087890625,0.11004638671875
1761231958704769000,1.51876904296875,-0.9569549560546875,-0.3646392822265625,0.0957794189453125
1761231958714837800,1.528837646484375,-0.9486846923828125,-0.344757080078125,0.0929107666015625
1761231958724906800,1.53890673828125,-0.939361572265625,-0.3395233154296875,0.1013336181640625
1761231958734976800,1.548976806640625,-0.940093994140625,-0.34075927734375,0.1128082275390625
1761231958745045800,1.559045654296875,-0.9422149658203125,-0.3443603515625,0.12823486328125
1761231958755115800,1.56911572265625,-0.942901611328125,-0.3463592529296875,0.1397552490234375
1761231958765184800,1.579184814453125,-0.938995361328125,-0.3409881591796875,0.141326904296875
1761231958775254800,1.5892548828125,-0.92877197265625,-0.3301849365234375,0.138946533203125
1761231958785323800,1.59932373046875,-0.924957275390625,-0.3238677978515625,0.1369781494140625
1761231958795392800,1.609392822265625,-0.925567626953125,-0.3243408203125,0.1348876953125
1761231958805462800,1.619462890625,-0.922332763671875,-0.3273773193359375,0.131988525390625
1761231958815531800,1.62953173828125,-0.921417236328125,-0.3345184326171875,0.12982177734375
1761231958825601800,1.639601806640625,-0.9193267822265625,-0.3439178466796875,0.1242523193359375
1761231958835670800,1.6496708984375,-0.913055419921875,-0.350433349609375,0.1176300048828125
1761231958845739800,1.65973974609375,-0.90606689453125,-0.3544158935546875,0.1095733642578125
1761231958855809800,1.669809814453125,-0.8994140625,-0.356475830078125,0.104461669921875
1761231958865878800,1.679878662109375,-0.89422607421875,-0.3611602783203125,0.0990447998046875
1761231958875948500,1.689948486328125,-0.8906097412109375,-0.37078857421875,0.097442626953125
1761231958886017800,1.700017822265625,-0.897064208984375,-0.3798828125,0.09930419921875
1761231958896086800,1.710086669921875,-0.9071044921875,-0.3863525390625,0.10345458984375
1761231958906156800,1.72015673828125,-0.9084320068359375,-0.38702392578125,0.1013641357421875
1761231958916225800,1.730225830078125,-0.9041290283203125,-0.3841705322265625,0.1018829345703125
1761231958926295000,1.740294921875,-0.9082183837890625,-0.3772125244140625,0.105621337890625
1761231958936364300,1.7503642578125,-0.9177398681640625,-0.371856689453125,0.1104583740234375
1761231958946433000,1.76043310546875,-0.926910400390625,-0.36358642578125,0.119842529296875
1761231958956503000,1.7705029296875,-0.9399566650390625,-0.353668212890625,0.1334991455078125
1761231958966572000,1.780572021484375,-0.951995849609375,-0.3460540771484375,0.1452484130859375
1761231958976642000,1.79064208984375,-0.952606201171875,-0.3363189697265625,0.1513519287109375
1761231958986711000,1.8007109375,-0.9541473388671875,-0.32647705078125,0.1541290283203125
1761231958996780000,1.810780029296875,-0.9524993896484375,-0.3220672607421875,0.15740966796875
1761231959006850000,1.82085009765625,-0.9526214599609375,-0.3186798095703125,0.1638336181640625
1761231959016919000,1.8309189453125,-0.949981689453125,-0.3166351318359375,0.1713714599609375
1761231959026989000,1.840989013671875,-0.944549560546875,-0.3140716552734375,0.1798095703125
1761231959037058000,1.85105810546875,-0.9410552978515625,-0.312835693359375,0.1868743896484375
1761231959047127000,1.861126953125,-0.931854248046875,-0.310882568359375,0.1931304931640625
1761231959057197000,1.871197021484375,-0.9232330322265625,-0.306488037109375,0.1985015869140625
1761231959067266000,1.88126611328125,-0.9155731201171875,-0.3048553466796875,0.2049407958984375
1761231959077336000,1.891336181640625,-0.90582275390625,-0.305419921875,0.2114105224609375
1761231959087405000,1.901405029296875,-0.8974456787109375,-0.3067779541015625,0.2171783447265625
1761231959097474000,1.91147412109375,-0.89569091796875,-0.3070831298828125,0.2251434326171875
1761231959107544000,1.9215439453125,-0.8972320556640625,-0.3084564208984375,0.23101806640625
1761231959117613000,1.931613037109375,-0.900390625,-0.3097991943359375,0.23675537109375
1761231959127683000,1.94168310546875,-0.902984619140625,-0.314849853515625,0.2383880615234375
1761231959137752000,1.951751953125,-0.900726318359375,-0.3217010498046875,0.237091064453125
1761231959147822000,1.961822021484375,-0.9044952392578125,-0.328033447265625,0.2301483154296875
1761231959157891000,1.97189111328125,-0.9141387939453125,-0.330535888671875,0.2216033935546875
1761231959167960000,1.9819599609375,-0.9223175048828125,-0.3300323486328125,0.210845947265625
1761231959178030000,1.992030029296875,-0.9248504638671875,-0.325042724609375,0.1964111328125
1761231959188099000,2.00209912109375,-0.9246978759765625,-0.3184356689453125,0.1832275390625
1761231959198169000,2.012169189453125,-0.924713134765625,-0.3156890869140625,0.171112060546875
1761231959208238000,2.022238037109375,-0.9220123291015625,-0.3153228759765625,0.1618804931640625
1761231959218307000,2.03230712890625,-0.916046142578125,-0.31951904296875,0.15545654296875
1761231959228377000,2.042377197265625,-0.9115753173828125,-0.3254852294921875,0.1538238525390625
1761231959238446000,2.052446044921875,-0.910552978515625,-0.3308868408203125,0.1507415771484375
1761231959248516000,2.06251611328125,-0.91082763671875,-0.3372039794921875,0.150970458984375
1761231959258585000,2.072585205078125,-0.9091949462890625,-0.3455963134765625,0.1522216796875
1761231959268654000,2.082654052734375,-0.9059906005859375,-0.352752685546875,0.1512451171875
1761231959278723800,2.092723876953125,-0.9043426513671875,-0.3574371337890625,0.1477813720703125
1761231959288793000,2.10279296875,-0.9009246826171875,-0.363250732421875,0.1449432373046875
1761231959298863000,2.112863037109375,-0.904815673828125,-0.3694915771484375,0.1457061767578125
1761231959308932000,2.12293212890625,-0.90771484375,-0.3762054443359375,0.1471099853515625
1761231959319000800,2.133000732421875,-0.9102020263671875,-0.3806915283203125,0.1457977294921875
1761231959329071000,2.143071044921875,-0.912322998046875,-0.3858642578125,0.144012451171875
1761231959339140000,2.15314013671875,-0.911376953125,-0.38665771484375,0.1386260986328125
1761231959349210000,2.163210205078125,-0.9118499755859375,-0.3908843994140625,0.128082275390625
1761231959359279000,2.173279052734375,-0.909088134765625,-0.3937835693359375,0.1230926513671875
1761231959369349000,2.18334912109375,-0.907440185546875,-0.392608642578125,0.121002197265625
1761231959379418000,2.193418212890625,-0.905029296875,-0.3941802978515625,0.11810302734375
1761231959389487000,2.203487060546875,-0.906768798828125,-0.3969879150390625,0.1176605224609375
1761231959399557000,2.21355712890625,-0.9079437255859375,-0.397674560546875,0.120391845703125
1761231959409626000,2.223626220703125,-0.908233642578125,-0.400604248046875,0.125579833984375
1761231959419696000,2.233696044921875,-0.9085845947265625,-0.4073486328125,0.129425048828125
1761231959429764900,2.243764892578125,-0.913604736328125,-0.411895751953125,0.1304779052734375
1761231959439834000,2.253834228515625,-0.9170989990234375,-0.414825439453125,0.133636474609375
1761231959449903900,2.26390380859375,-0.9183807373046875,-0.419036865234375,0.1358795166015625
1761231959459973000,2.27397314453125,-0.9187469482421875,-0.42327880859375,0.138031005859375
1761231959470043100,2.284043212890625,-0.9246673583984375,-0.428009033203125,0.1387939453125
1761231959480112000,2.294112060546875,-0.929443359375,-0.43328857421875,0.137969970703125
1761231959490180900,2.304180908203125,-0.9327850341796875,-0.4343109130859375,0.1334686279296875
1761231959500251100,2.314251220703125,-0.9396209716796875,-0.4327392578125,0.1300201416015625
1761231959510320000,2.324320068359375,-0.951934814453125,-0.430755615234375,0.127105712890625
1761231959520390100,2.33439013671875,-0.95513916015625,-0.4286346435546875,0.124481201171875
1761231959530459100,2.344459228515625,-0.95465087890625,-0.4183349609375,0.116424560546875
1761231959540528000,2.354528076171875,-0.953826904296875,-0.4081878662109375,0.1101837158203125
1761231959550598100,2.36459814453125,-0.955780029296875,-0.40362548828125,0.1053924560546875
1761231959560667100,2.374667236328125,-0.9595947265625,-0.403350830078125,0.1024169921875
1761231959570737200,2.384737060546875,-0.9623260498046875,-0.4051513671875,0.1014556884765625
1761231959580806100,2.39480615234375,-0.9633636474609375,-0.4074859619140625,0.09967041015625
1761231959590876200,2.404876220703125,-0.9603118896484375,-0.4085845947265625,0.09869384765625
1761231959600945000,2.41494482421875,-0.94293212890625,-0.4199066162109375,0.1057281494140625
1761231959611014100,2.42501416015625,-0.935943603515625,-0.440155029296875,0.1160888671875
1761231959621084000,2.435083984375,-0.95892333984375,-0.4510650634765625,0.1188507080078125
1761231959631153200,2.445153076171875,-0.97064208984375,-0.4542388916015625,0.11669921875
1761231959641223000,2.455222900390625,-0.9700927734375,-0.457305908203125,0.10919189453125
1761231959651292200,2.465292236328125,-0.982025146484375,-0.454498291015625,0.0989227294921875
1761231959661361000,2.47536083984375,-1.005523681640625,-0.438446044921875,0.0815582275390625
1761231959671431200,2.48543115234375,-1.024017333984375,-0.4034576416015625,0.059326171875
1761231959681500000,2.4955,-1.0194091796875,-0.3651275634765625,0.0379791259765625
1761231959691570000,2.50556982421875,-0.9923858642578125,-0.3365936279296875,0.0319976806640625
1761231959701639200,2.51563916015625,-0.9610595703125,-0.3101806640625,0.039337158203125
1761231959711708200,2.525708251953125,-0.9419403076171875,-0.283447265625,0.0547943115234375
1761231959721778200,2.535778076171875,-0.9317626953125,-0.266448974609375,0.07464599609375
1761231959731847200,2.54584716796875,-0.94854736328125,-0.274871826171875,0.09600830078125
1761231959741917200,2.555917236328125,-0.968353271484375,-0.298797607421875,0.117340087890625
1761231959751986000,2.56598583984375,-0.9841766357421875,-0.31890869140625,0.136322021484375
1761231959762055200,2.57605517578125,-0.988677978515625,-0.329315185546875,0.140655517578125
1761231959772125000,2.586125,-0.9825286865234375,-0.3278350830078125,0.1253204345703125
1761231959782194200,2.596194091796875,-0.9703369140625,-0.321136474609375,0.09552001953125
1761231959792264000,2.606263916015625,-0.960205078125,-0.3132171630859375,0.06036376953125
1761231959802333200,2.616333251953125,-0.9547882080078125,-0.29998779296875,0.0238494873046875
1761231959812402000,2.62640185546875,-0.9493255615234375,-0.288665771484375,-0.0086212158203125
1761231959822472200,2.63647216796875,-0.9485015869140625,-0.282989501953125,-0.0309295654296875
1761231959832541000,2.646541015625,-0.9491119384765625,-0.276824951171875,-0.046905517578125
1761231959842611200,2.656611083984375,-0.9488525390625,-0.270751953125,-0.064117431640625
1761231959852680000,2.666679931640625,-0.9481964111328125,-0.269256591796875,-0.081146240234375
1761231959862750000,2.67675,-0.94580078125,-0.2689971923828125,-0.0990447998046875
1761231959872819200,2.686819091796875,-0.940673828125,-0.2665557861328125,-0.1160125732421875
1761231959882888200,2.69688818359375,-0.9302978515625,-0.263824462890625,-0.1328887939453125
1761231959892958200,2.706958251953125,-0.9149627685546875,-0.2637786865234375,-0.144927978515625
1761231959903027000,2.71702685546875,-0.9006805419921875,-0.2717742919921875,-0.152374267578125
1761231959913097200,2.72709716796875,-0.8935546875,-0.28558349609375,-0.1559906005859375
1761231959923166700,2.737166748046875,-0.889556884765625,-0.294464111328125,-0.158905029296875
1761231959933236500,2.747236572265625,-0.880645751953125,-0.302978515625,-0.1633148193359375
1761231959943305700,2.7573056640625,-0.8663177490234375,-0.3129119873046875,-0.165802001953125
1761231959953374700,2.767374755859375,-0.85540771484375,-0.3254241943359375,-0.1627044677734375
1761231959963444700,2.77744482421875,-0.8562164306640625,-0.3371124267578125,-0.1508941650390625
1761231959973513700,2.787513671875,-0.859130859375,-0.348388671875,-0.1351776123046875
1761231959983583700,2.797583740234375,-0.8573760986328125,-0.3546142578125,-0.121490478515625
1761231959993652500,2.807652587890625,-0.8565521240234375,-0.354766845703125,-0.1045989990234375
1761231960003721700,2.8177216796875,-0.858367919921875,-0.35418701171875,-0.0869903564453125
1761231960013791500,2.82779150390625,-0.8638916015625,-0.3572845458984375,-0.06695556640625
1761231960023860700,2.83786083984375,-0.869293212890625,-0.362884521484375,-0.049041748046875
1761231960033930500,2.847930419921875,-0.8674468994140625,-0.3684539794921875,-0.0310211181640625
1761231960043999700,2.857999755859375,-0.8618927001953125,-0.3736572265625,-0.0152130126953125
1761231960054068500,2.868068359375,-0.865203857421875,-0.378692626953125,-0.0006866455078125
1761231960064138800,2.878138671875,-0.8670501708984375,-0.3831024169921875,0.016754150390625
1761231960074207500,2.88820751953125,-0.8667755126953125,-0.3817138671875,0.0294342041015625
1761231960084277500,2.898277587890625,-0.8647613525390625,-0.37811279296875,0.0384368896484375
1761231960094346800,2.9083466796875,-0.8643798828125,-0.377593994140625,0.04473876953125
1761231960104415700,2.918415771484375,-0.8671875,-0.377197265625,0.0493927001953125
1761231960114485800,2.92848583984375,-0.8659820556640625,-0.3762359619140625,0.049285888671875
1761231960124554800,2.9385546875,-0.86767578125,-0.37506103515625,0.047637939453125
1761231960134624800,2.948624755859375,-0.8692779541015625,-0.374786376953125,0.04718017578125
1761231960144693500,2.958693603515625,-0.8727264404296875,-0.3752288818359375,0.0421295166015625
1761231960154763800,2.968763671875,-0.876800537109375,-0.37542724609375,0.03228759765625
1761231960164832500,2.97883251953125,-0.8858795166015625,-0.376129150390625,0.01861572265625
1761231960174901800,2.98890185546875,-0.897552490234375,-0.3758392333984375,0.005645751953125
1761231960184971500,2.998971435546875,-0.9061737060546875,-0.3737335205078125,-0.003662109375
1761231960195040800,3.009040771484375,-0.9119415283203125,-0.3751678466796875,-0.0075531005859375
1761231960205110500,3.019110595703125,-0.91436767578125,-0.376739501953125,-0.0061798095703125
1761231960215179800,3.0291796875,-0.919342041015625,-0.3834228515625,-0.00152587890625
1761231960225248500,3.03924853515625,-0.92547607421875,-0.39654541015625,0.007568359375
1761231960235318800,3.04931884765625,-0.928253173828125,-0.408050537109375,0.0167999267578125
1761231960245387500,3.059387451171875,-0.9337005615234375,-0.41485595703125,0.02081298828125
1761231960255457500,3.06945751953125,-0.938629150390625,-0.41925048828125,0.0247802734375
1761231960265526800,3.07952685546875,-0.94378662109375,-0.4206695556640625,0.02862548828125
1761231960275595800,3.089595703125,-0.9510040283203125,-0.4242095947265625,0.0299530029296875
1761231960285665800,3.099665771484375,-0.9534759521484375,-0.426422119140625,0.029449462890625
1761231960295734500,3.109734619140625,-0.9601287841796875,-0.4208221435546875,0.0282745361328125
1761231960305804800,3.1198046875,-0.96044921875,-0.4141693115234375,0.0228729248046875
1761231960315873500,3.12987353515625,-0.9555511474609375,-0.410491943359375,0.0194091796875
1761231960325943800,3.13994384765625,-0.9548187255859375,-0.4113616943359375,0.0175628662109375
1761231960336012500,3.150012451171875,-0.954010009765625,-0.416961669921875,0.016326904296875
1761231960346081800,3.160081787109375,-0.9499664306640625,-0.4228973388671875,0.014892578125
1761231960356151600,3.170151611328125,-0.9500579833984375,-0.4241485595703125,0.0108184814453125
1761231960366220800,3.180220703125,-0.9473876953125,-0.4243621826171875,0.0064697265625
1761231960376290600,3.19029052734375,-0.9432830810546875,-0.4290924072265625,0.002197265625
1761231960386359800,3.20035986328125,-0.94439697265625,-0.43048095703125,-0.0003204345703125
1761231960396428500,3.210428466796875,-0.944091796875,-0.42864990234375,-0.001220703125
1761231960406498600,3.22049853515625,-0.9456329345703125,-0.4280242919921875,-0.003387451171875
1761231960416567600,3.230567626953125,-0.945281982421875,-0.43121337890625,-0.0041351318359375
1761231960426637600,3.240637451171875,-0.9364166259765625,-0.439361572265625,0.00146484375
1761231960436706600,3.25070654296875,-0.9319915771484375,-0.455078125,0.014617919921875
1761231960446775600,3.260775634765625,-0.94390869140625,-0.4723968505859375,0.0267791748046875
1761231960456845800,3.270845703125,-0.9537200927734375,-0.4819183349609375,0.0307464599609375
1761231960466914600,3.28091455078125,-0.962799072265625,-0.4913482666015625,0.027923583984375
1761231960476984800,3.29098486328125,-0.9893951416015625,-0.4983367919921875,0.0231475830078125
1761231960487053600,3.301053466796875,-1.0250244140625,-0.4843902587890625,0.01116943359375
1761231960497122800,3.311122802734375,-1.04559326171875,-0.4566192626953125,-0.010345458984375
1761231960507192600,3.321192626953125,-1.0531768798828125,-0.42279052734375,-0.0274810791015625
1761231960517261800,3.33126171875,-1.0456085205078125,-0.3993072509765625,-0.0352783203125
1761231960527331600,3.34133154296875,-1.0504608154296875,-0.3831024169921875,-0.0235137939453125
1761231960537400800,3.35140087890625,-1.045318603515625,-0.3542022705078125,-0.0119171142578125
1761231960547470600,3.361470703125,-1.02410888671875,-0.3154144287109375,-0.0042877197265625
1761231960557539600,3.37153955078125,-1.0179901123046875,-0.289093017578125,0.0144805908203125
1761231960567608600,3.381608642578125,-1.023345947265625,-0.2880096435546875,0.044708251953125
1761231960577678600,3.3916787109375,-1.030181884765625,-0.2964019775390625,0.077056884765625
1761231960587747600,3.40174755859375,-1.024322509765625,-0.29522705078125,0.0980682373046875
1761231960597817600,3.411817626953125,-1.008209228515625,-0.2838134765625,0.1058349609375
1761231960607886600,3.421886474609375,-0.98699951171875,-0.276397705078125,0.1130523681640625
1761231960617955600,3.43195556640625,-0.9647674560546875,-0.26898193359375,0.1229705810546875
1761231960628025900,3.44202587890625,-0.9478607177734375,-0.2607269287109375,0.1337890625
1761231960638094600,3.452094482421875,-0.932952880859375,-0.2579803466796875,0.1449737548828125
1761231960648164900,3.462164794921875,-0.9219818115234375,-0.25860595703125,0.1533355712890625
1761231960658233600,3.472233642578125,-0.9086151123046875,-0.2609100341796875,0.1557769775390625
1761231960668302600,3.482302490234375,-0.8987579345703125,-0.264739990234375,0.1533050537109375
1761231960678372600,3.49237255859375,-0.8855133056640625,-0.2703857421875,0.1450347900390625
1761231960688441900,3.50244189453125,-0.8755645751953125,-0.2742767333984375,0.1309967041015625
1761231960698511600,3.51251171875,-0.8647308349609375,-0.27532958984375,0.1185150146484375
1761231960708580600,3.52258056640625,-0.8537750244140625,-0.276153564453125,0.1051483154296875
1761231960718650600,3.532650634765625,-0.838653564453125,-0.2765045166015625,0.0960693359375
1761231960728719600,3.5427197265625,-0.8302459716796875,-0.2777252197265625,0.1004180908203125
1761231960738788600,3.55278857421875,-0.8296051025390625,-0.2783203125,0.116546630859375
1761231960748858600,3.562858642578125,-0.8362884521484375,-0.2827911376953125,0.13861083984375
1761231960758927600,3.572927734375,-0.8383636474609375,-0.2880096435546875,0.1645660400390625
1761231960768997600,3.58299755859375,-0.8368072509765625,-0.287109375,0.1905517578125
1761231960779066600,3.593066650390625,-0.842742919921875,-0.286895751953125,0.2126007080078125
1761231960789135600,3.603135498046875,-0.8526153564453125,-0.2966766357421875,0.2303619384765625
1761231960799205600,3.61320556640625,-0.867767333984375,-0.30401611328125,0.2430419921875
1761231960809274600,3.623274658203125,-0.8856658935546875,-0.3033447265625,0.2505035400390625
1761231960819344600,3.6333447265625,-0.9025726318359375,-0.2992401123046875,0.2487945556640625
1761231960829413600,3.64341357421875,-0.919891357421875,-0.2899627685546875,0.2361907958984375
1761231960839482600,3.653482666015625,-0.9326934814453125,-0.2846832275390625,0.2157135009765625
1761231960849552600,3.663552734375,-0.9447021484375,-0.287750244140625,0.1909942626953125
1761231960859622000,3.673621826171875,-0.9562530517578125,-0.291259765625,0.16595458984375
1761231960869691600,3.683691650390625,-0.9644012451171875,-0.28656005859375,0.1428375244140625
1761231960879760600,3.6937607421875,-0.965667724609375,-0.27679443359375,0.119049072265625
1761231960889830700,3.70383056640625,-0.964569091796875,-0.2711334228515625,0.0966339111328125
1761231960899899600,3.713899658203125,-0.9632568359375,-0.26953125,0.0828857421875
1761231960909968600,3.72396875,-0.9610443115234375,-0.27337646484375,0.07781982421875
1761231960920038700,3.73403857421875,-0.961212158203125,-0.28741455078125,0.0789947509765625
1761231960930107100,3.744107177734375,-0.95849609375,-0.3006744384765625,0.08612060546875
1761231960940177200,3.75417724609375,-0.9557952880859375,-0.310546875,0.096710205078125
1761231960950246100,3.76424609375,-0.9517822265625,-0.3211212158203125,0.1064605712890625
1761231960960315100,3.774315185546875,-0.9443206787109375,-0.3328399658203125,0.116058349609375
1761231960970385200,3.78438525390625,-0.9323577880859375,-0.341033935546875,0.122589111328125
1761231960980454100,3.7944541015625,-0.9156036376953125,-0.3515625,0.1240081787109375
1761231960990524200,3.804524169921875,-0.9041595458984375,-0.361083984375,0.1242218017578125
1761231961000593200,3.81459326171875,-0.8965301513671875,-0.3700408935546875,0.123870849609375
1761231961010662100,3.824662109375,-0.890411376953125,-0.3773345947265625,0.1260833740234375
1761231961020732200,3.834732177734375,-0.8894805908203125,-0.378875732421875,0.1226806640625
1761231961030801200,3.84480126953125,-0.8889617919921875,-0.3793487548828125,0.1174163818359375
1761231961040871200,3.85487109375,-0.8878631591796875,-0.376953125,0.1099853515625
1761231961050940200,3.864940185546875,-0.8831939697265625,-0.376190185546875,0.101837158203125
1761231961061009200,3.875009033203125,-0.882293701171875,-0.3759918212890625,0.097747802734375
1761231961071079200,3.8850791015625,-0.8944091796875,-0.3785858154296875,0.0976715087890625
1761231961081148200,3.895148193359375,-0.9039306640625,-0.3810577392578125,0.0951690673828125
1761231961091218200,3.90521826171875,-0.906341552734375,-0.3760223388671875,0.0856170654296875
1761231961101287200,3.915287109375,-0.9086456298828125,-0.3712921142578125,0.0762176513671875
1761231961111356200,3.925356201171875,-0.9112396240234375,-0.37274169921875,0.071075439453125
1761231961121426200,3.93542626953125,-0.9149322509765625,-0.373321533203125,0.0656890869140625
1761231961131495200,3.9454951171875,-0.9202117919921875,-0.3701629638671875,0.058624267578125
1761231961141565200,3.955565185546875,-0.926910400390625,-0.3689117431640625,0.053192138671875
1761231961151634200,3.96563427734375,-0.934722900390625,-0.370330810546875,0.04962158203125
1761231961161704000,3.975703857421875,-0.9435272216796875,-0.372894287109375,0.04583740234375
1761231961171773200,3.985773193359375,-0.946319580078125,-0.37469482421875,0.041412353515625
1761231961181842200,3.99584228515625,-0.948638916015625,-0.3807373046875,0.04046630859375
1761231961191912200,4.005912109375,-0.9582977294921875,-0.3898468017578125,0.043121337890625
1761231961201981200,4.015981201171875,-0.963348388671875,-0.3994140625,0.04412841796875
1761231961212051200,4.02605126953125,-0.96185302734375,-0.4034271240234375,0.0404815673828125
1761231961222120000,4.036119873046875,-0.9662017822265625,-0.403839111328125,0.040069580078125
1761231961232189200,4.046189208984375,-0.9700775146484375,-0.4085845947265625,0.0442047119140625
1761231961242259200,4.05625927734375,-0.9710235595703125,-0.4095916748046875,0.04864501953125
1761231961252328200,4.066328125,-0.970947265625,-0.4071197509765625,0.056854248046875
1761231961262398200,4.076398193359375,-0.9661407470703125,-0.40557861328125,0.0645599365234375
1761231961272467200,4.08646728515625,-0.956573486328125,-0.410858154296875,0.075897216796875
1761231961282536200,4.0965361328125,-0.9464111328125,-0.4355926513671875,0.0986480712890625
1761231961292606200,4.106606201171875,-0.953857421875,-0.4633026123046875,0.1150665283203125
1761231961302675200,4.11667529296875,-0.9745635986328125,-0.47662353515625,0.1198577880859375
1761231961312745200,4.1267451171875,-0.985748291015625,-0.4837188720703125,0.10992431640625
1761231961322814200,4.136814208984375,-0.9894866943359375,-0.487518310546875,0.089813232421875
1761231961332883200,4.14688330078125,-1.00128173828125,-0.483001708984375,0.068206787109375
1761231961342953200,4.156953125,-1.0204315185546875,-0.4703521728515625,0.0500640869140625
1761231961353022200,4.167022216796875,-1.0370025634765625,-0.4526214599609375,0.0346221923828125
1761231961363092200,4.17709228515625,-1.0428466796875,-0.4293670654296875,0.0218963623046875
1761231961373161000,4.187160888671875,-1.0413818359375,-0.3975067138671875,0.0118255615234375
1761231961383231200,4.197231201171875,-1.0357818603515625,-0.3626708984375,0.0102996826171875
1761231961393300000,4.207300048828125,-1.0258331298828125,-0.3318939208984375,0.0136566162109375
1761231961403369200,4.217369140625,-1.0152435302734375,-0.3103790283203125,0.018341064453125
1761231961413439000,4.22743896484375,-1.003082275390625,-0.2965545654296875,0.0259857177734375
1761231961423508200,4.23750830078125,-0.985992431640625,-0.29180908203125,0.0328826904296875
1761231961433578200,4.247578125,-0.9632415771484375,-0.2873382568359375,0.038726806640625
1761231961443647200,4.257647216796875,-0.94097900390625,-0.284027099609375,0.0462188720703125
1761231961453716000,4.267716064453125,-0.9066162109375,-0.2843170166015625,0.0565643310546875
1761231961463786200,4.2777861328125,-0.8797760009765625,-0.278564453125,0.0612945556640625
1761231961473855200,4.287855224609375,-0.8527374267578125,-0.2720184326171875,0.061981201171875
1761231961483925000,4.297925048828125,-0.8305511474609375,-0.27496337890625,0.0618133544921875
1761231961493994200,4.307994140625,-0.825653076171875,-0.2821502685546875,0.0604400634765625
1761231961504063200,4.318063232421875,-0.8314208984375,-0.287109375,0.061614990234375
1761231961514133200,4.32813330078125,-0.842498779296875,-0.2900543212890625,0.056060791015625
1761231961524202000,4.338201904296875,-0.8497161865234375,-0.2892913818359375,0.0380401611328125
1761231961534272300,4.348272216796875,-0.862396240234375,-0.281158447265625,0.0137176513671875
1761231961544341000,4.358341064453125,-0.8769683837890625,-0.271484375,-0.0120391845703125
1761231961554411300,4.368411376953125,-0.889129638671875,-0.2662811279296875,-0.036834716796875
1761231961564480000,4.37847998046875,-0.9019927978515625,-0.2610626220703125,-0.0564117431640625
1761231961574549200,4.38854931640625,-0.9074554443359375,-0.2546234130859375,-0.0707244873046875
1761231961584619000,4.398618896484375,-0.909423828125,-0.25347900390625,-0.0797119140625
1761231961594688300,4.408688232421875,-0.9158935546875,-0.257904052734375,-0.0814056396484375
1761231961604758300,4.41875830078125,-0.9198150634765625,-0.2668609619140625,-0.0790863037109375
1761231961614827300,4.4288271484375,-0.921783447265625,-0.2765350341796875,-0.0778350830078125
1761231961624896000,4.43889599609375,-0.9234466552734375,-0.2800140380859375,-0.077117919921875
1761231961634966000,4.448966064453125,-0.927520751953125,-0.2852325439453125,-0.0749664306640625
1761231961645035300,4.45903515625,-0.933197021484375,-0.2915496826171875,-0.06744384765625
1761231961655105000,4.46910498046875,-0.9452056884765625,-0.2958221435546875,-0.0598297119140625
1761231961665174300,4.47917431640625,-0.9505767822265625,-0.300567626953125,-0.0516204833984375
1761231961675243300,4.4892431640625,-0.956634521484375,-0.300689697265625,-0.04766845703125
1761231961685313300,4.499313232421875,-0.9654998779296875,-0.2993927001953125,-0.0433807373046875
1761231961695382000,4.509382080078125,-0.9712066650390625,-0.2990264892578125,-0.037841796875
1761231961705452300,4.519452392578125,-0.97186279296875,-0.297210693359375,-0.032867431640625
1761231961715521000,4.52952099609375,-0.97119140625,-0.295135498046875,-0.029144287109375
1761231961725590300,4.53959033203125,-0.9669952392578125,-0.298431396484375,-0.0221710205078125
1761231961735660000,4.549659912109375,-0.960052490234375,-0.306884765625,-0.015106201171875
1761231961745729300,4.559729248046875,-0.951171875,-0.3197479248046875,-0.0095977783203125
1761231961755799000,4.569799072265625,-0.939422607421875,-0.329986572265625,-0.00665283203125
1761231961765868300,4.579868408203125,-0.9244232177734375,-0.3390350341796875,-0.00933837890625
1761231961775937000,4.58993701171875,-0.906494140625,-0.3523406982421875,-0.0149993896484375
1761231961786007000,4.600007080078125,-0.8946075439453125,-0.36529541015625,-0.018890380859375
1761231961796076000,4.610075927734375,-0.8873443603515625,-0.3781280517578125,-0.0194549560546875
1761231961806146000,4.62014599609375,-0.8874664306640625,-0.3928985595703125,-0.0186614990234375
1761231961816215000,4.630215087890625,-0.8931732177734375,-0.3990020751953125,-0.02154541015625
1761231961826285000,4.64028515625,-0.8937835693359375,-0.3993682861328125,-0.0257568359375
1761231961836354300,4.650354248046875,-0.893707275390625,-0.3983917236328125,-0.0282440185546875
1761231961846423000,4.660423095703125,-0.8971710205078125,-0.394500732421875,-0.0295867919921875
1761231961856493300,4.670493408203125,-0.8944091796875,-0.3944091796875,-0.03173828125
1761231961866562000,4.68056201171875,-0.894317626953125,-0.39276123046875,-0.03326416015625
1761231961876632300,4.69063232421875,-0.89990234375,-0.3900299072265625,-0.0336151123046875
1761231961886701000,4.700701171875,-0.907135009765625,-0.3877410888671875,-0.029876708984375
1761231961896770300,4.710770263671875,-0.9160919189453125,-0.38470458984375,-0.0265350341796875
1761231961906840000,4.720840087890625,-0.916961669921875,-0.3828887939453125,-0.0244598388671875
1761231961916909300,4.730909423828125,-0.920654296875,-0.3785400390625,-0.02337646484375
1761231961926980000,4.74097998046875,-0.9213714599609375,-0.378509521484375,-0.020416259765625
1761231961937048800,4.751048828125,-0.9171295166015625,-0.38299560546875,-0.018829345703125
1761231961947117800,4.761117919921875,-0.916595458984375,-0.3843994140625,-0.0121612548828125
1761231961957187800,4.771187744140625,-0.9188385009765625,-0.3855743408203125,-0.0066070556640625
1761231961967257000,4.781257080078125,-0.914825439453125,-0.3876495361328125,-0.0017852783203125
1761231961977326800,4.791326904296875,-0.9129638671875,-0.39044189453125,0.0032958984375
1761231961987396000,4.80139599609375,-0.9169464111328125,-0.3968353271484375,0.0098419189453125
1761231961997464800,4.81146484375,-0.92010498046875,-0.402191162109375,0.0146331787109375
1761231962007535000,4.82153515625,-0.920928955078125,-0.406280517578125,0.0170440673828125
1761231962017603800,4.831603759765625,-0.924957275390625,-0.4060821533203125,0.0168914794921875
1761231962027673900,4.841673828125,-0.931549072265625,-0.407470703125,0.0138702392578125
1761231962037742800,4.851742919921875,-0.940673828125,-0.411376953125,0.0067291259765625
1761231962047812000,4.86181201171875,-0.9507598876953125,-0.415313720703125,0.001739501953125
1761231962057881900,4.8718818359375,-0.9590301513671875,-0.4171600341796875,-0.0001373291015625
1761231962067950800,4.881950927734375,-0.961029052734375,-0.42449951171875,0.0093536376953125
1761231962078020900,4.892020751953125,-0.9696502685546875,-0.4330902099609375,0.02008056640625
1761231962088089900,4.90208984375,-0.986724853515625,-0.4349517822265625,0.0236358642578125
1761231962098159900,4.912159912109375,-0.9981689453125,-0.4442291259765625,0.0263519287109375
1761231962108228900,4.922228759765625,-1.0097808837890625,-0.4530792236328125,0.0277862548828125
1761231962118297900,4.9322978515625,-1.0255279541015625,-0.451019287109375,0.0268402099609375
1761231962128367900,4.942367919921875,-1.0463409423828125,-0.435638427734375,0.0240936279296875
1761231962138436900,4.952436767578125,-1.06854248046875,-0.4074249267578125,0.0159149169921875
1761231962148507000,4.9625068359375,-1.0750732421875,-0.3723602294921875,0.0095977783203125
1761231962158576000,4.972576171875,-1.067352294921875,-0.3474884033203125,0.00445556640625
1761231962168644900,4.982644775390625,-1.0674896240234375,-0.327362060546875,0.01055908203125
1761231962178715000,4.99271484375,-1.056365966796875,-0.3029937744140625,0.020233154296875
1761231962188783900,5.002783935546875,-1.0473175048828125,-0.2787322998046875,0.0271759033203125
1761231962198854000,5.01285400390625,-1.0406951904296875,-0.261016845703125,0.0371856689453125
1761231962208923000,5.0229228515625,-1.046478271484375,-0.2514801025390625,0.0476837158203125
1761231962218991900,5.032991943359375,-1.042510986328125,-0.2504119873046875,0.05950927734375
1761231962229062000,5.043061767578125,-1.0364990234375,-0.2501068115234375,0.0665435791015625
1761231962239131000,5.053130859375,-1.0241851806640625,-0.2431640625,0.07696533203125
1761231962249201000,5.063200927734375,-1.0054931640625,-0.2291717529296875,0.077911376953125
1761231962259270000,5.073269775390625,-0.975189208984375,-0.218841552734375,0.071990966796875
1761231962269339000,5.0833388671875,-0.949066162109375,-0.22216796875,0.077392578125
1761231962279409000,5.093408935546875,-0.9335479736328125,-0.22686767578125,0.0869140625
1761231962289478000,5.103477783203125,-0.914215087890625,-0.2307281494140625,0.092193603515625
1761231962299548000,5.1135478515625,-0.8992462158203125,-0.2373046875,0.09539794921875
1761231962309617000,5.123616943359375,-0.8920135498046875,-0.246337890625,0.0952606201171875
1761231962319686000,5.133685791015625,-0.8762664794921875,-0.2576141357421875,0.0913543701171875
1761231962329756000,5.143755859375,-0.8606109619140625,-0.2694091796875,0.0817413330078125
1761231962339825000,5.153824951171875,-0.8536376953125,-0.278900146484375,0.072479248046875
1761231962349895000,5.16389501953125,-0.847320556640625,-0.28582763671875,0.0671844482421875
1761231962359964000,5.1739638671875,-0.8397064208984375,-0.295745849609375,0.0686187744140625
1761231962370033000,5.184032958984375,-0.8310546875,-0.30126953125,0.0777130126953125
1761231962380103000,5.19410302734375,-0.8284454345703125,-0.29833984375,0.0915985107421875
1761231962390172000,5.204171875,-0.8295440673828125,-0.2963714599609375,0.11212158203125
1761231962400242000,5.214241943359375,-0.8263092041015625,-0.300628662109375,0.1375732421875
1761231962410311000,5.224310791015625,-0.829071044921875,-0.299530029296875,0.1602935791015625
1761231962420381000,5.234380859375,-0.834259033203125,-0.2957763671875,0.177734375
1761231962430447900,5.24444775390625,-0.844573974609375,-0.29974365234375,0.1940155029296875
1761231962440516900,5.254516845703125,-0.8649139404296875,-0.3057708740234375,0.2032012939453125
1761231962450587000,5.2645869140625,-0.894622802734375,-0.3152618408203125,0.206695556640625
1761231962460655900,5.27465576171875,-0.9124298095703125,-0.3267364501953125,0.1966552734375
1761231962470726000,5.284725830078125,-0.92877197265625,-0.33001708984375,0.1695556640625
1761231962480795000,5.294794921875,-0.9425811767578125,-0.3263397216796875,0.1389312744140625
1761231962490863900,5.30486376953125,-0.957000732421875,-0.320068359375,0.1122589111328125
1761231962500934000,5.314933837890625,-0.96832275390625,-0.3150787353515625,0.094512939453125
1761231962511003100,5.325003173828125,-0.98443603515625,-0.3121490478515625,0.0849151611328125
1761231962521073000,5.335072998046875,-0.987884521484375,-0.3046722412109375,0.0776824951171875
1761231962531142000,5.345141845703125,-0.9835052490234375,-0.2877197265625,0.07611083984375
1761231962541211000,5.3552109375,-0.9848785400390625,-0.277740478515625,0.0816497802734375
1761231962551281000,5.365281005859375,-0.9879302978515625,-0.282440185546875,0.095306396484375
1761231962561350000,5.375349853515625,-0.9929046630859375,-0.288482666015625,0.1072235107421875
1761231962571420000,5.385419921875,-0.9922332763671875,-0.2917327880859375,0.117889404296875
1761231962581489000,5.395489013671875,-0.9857025146484375,-0.2943572998046875,0.128021240234375
1761231962591558000,5.405557861328125,-0.975494384765625,-0.2961273193359375,0.1345062255859375
1761231962601628000,5.4156279296875,-0.9668731689453125,-0.2991943359375,0.1382904052734375
1761231962611697000,5.42569677734375,-0.9567108154296875,-0.306427001953125,0.137725830078125
1761231962621767000,5.435766845703125,-0.945404052734375,-0.31561279296875,0.13409423828125
1761231962631836000,5.4458359375,-0.934967041015625,-0.32513427734375,0.13031005859375
1761231962641905000,5.45590478515625,-0.9228515625,-0.3319854736328125,0.12530517578125
1761231962651975000,5.465974853515625,-0.9098052978515625,-0.3377227783203125,0.122161865234375
1761231962662044000,5.4760439453125,-0.89862060546875,-0.346405029296875,0.121124267578125
1761231962672114000,5.486114013671875,-0.891845703125,-0.353973388671875,0.1210784912109375
1761231962682183000,5.496182861328125,-0.8867950439453125,-0.36041259765625,0.11895751953125
1761231962692252000,5.506251953125,-0.8813018798828125,-0.363494873046875,0.11376953125
1761231962702322000,5.516322021484375,-0.8808746337890625,-0.3673095703125,0.1097564697265625
1761231962712391000,5.526390869140625,-0.8835296630859375,-0.3738861083984375,0.1041107177734375
1761231962722461000,5.5364609375,-0.886566162109375,-0.37823486328125,0.0994720458984375
1761231962732530000,5.546530029296875,-0.895843505859375,-0.38067626953125,0.0953216552734375
1761231962742599000,5.556598876953125,-0.9029388427734375,-0.3872528076171875,0.09405517578125
1761231962752669000,5.5666689453125,-0.9102325439453125,-0.390625,0.09002685546875
1761231962762738000,5.576738037109375,-0.9178619384765625,-0.3903045654296875,0.0858306884765625
1761231962772808000,5.586807861328125,-0.9301300048828125,-0.386260986328125,0.0830230712890625
1761231962782877000,5.596876953125,-0.948699951171875,-0.3832855224609375,0.07958984375
1761231962792946000,5.60694580078125,-0.960113525390625,-0.38372802734375,0.073699951171875
1761231962803016000,5.617015869140625,-0.9691314697265625,-0.383209228515625,0.0682220458984375
1761231962813085000,5.6270849609375,-0.983795166015625,-0.3854217529296875,0.0628814697265625
1761231962823155000,5.637155029296875,-0.9951171875,-0.389495849609375,0.0584869384765625
1761231962833224000,5.647223876953125,-0.99774169921875,-0.3918914794921875,0.052093505859375
1761231962843294000,5.6572939453125,-1.00067138671875,-0.391815185546875,0.0472259521484375
1761231962853362700,5.66736279296875,-1.006195068359375,-0.388519287109375,0.038543701171875
1761231962863432000,5.677431884765625,-1.0098724365234375,-0.3881378173828125,0.033447265625
1761231962873502000,5.687501953125,-1.0071258544921875,-0.392913818359375,0.03424072265625
1761231962883571000,5.697571044921875,-0.9911041259765625,-0.4167633056640625,0.050506591796875
1761231962893641000,5.707640869140625,-0.99066162109375,-0.440460205078125,0.0685577392578125
1761231962903710000,5.7177099609375,-1.0085296630859375,-0.4439697265625,0.0740966796875
1761231962913779000,5.727779052734375,-1.01251220703125,-0.4474945068359375,0.066314697265625
1761231962923849000,5.737848876953125,-1.0176544189453125,-0.4632720947265625,0.0595855712890625
1761231962933917200,5.747917236328125,-1.03961181640625,-0.483184814453125,0.0526123046875
1761231962943987500,5.757987548828125,-1.078094482421875,-0.4674835205078125,0.0296173095703125
1761231962954056200,5.76805615234375,-1.0879669189453125,-0.424530029296875,-0.0042877197265625
1761231962964125400,5.77812548828125,-1.0776214599609375,-0.3834075927734375,-0.03070068359375
1761231962974195200,5.7881953125,-1.065460205078125,-0.3537750244140625,-0.0367584228515625
1761231962984264400,5.798264404296875,-1.0301971435546875,-0.3270263671875,-0.0241241455078125
1761231962994334200,5.808334228515625,-0.995086669921875,-0.2900848388671875,-0.01409912109375
1761231963004403500,5.818403564453125,-0.9680328369140625,-0.2664031982421875,0.0027008056640625
1761231963014472200,5.82847216796875,-0.978668212890625,-0.275604248046875,0.0287322998046875
1761231963024544300,5.838544189453125,-0.9718017578125,-0.2923736572265625,0.0496063232421875
1761231963034613200,5.84861328125,-0.9524078369140625,-0.2961578369140625,0.0656280517578125
1761231963044683300,5.858683349609375,-0.93890380859375,-0.3063812255859375,0.0694122314453125
1761231963054752300,5.868752197265625,-0.9342041015625,-0.32562255859375,0.0659637451171875
1761231963064821200,5.8788212890625,-0.922119140625,-0.3397064208984375,0.0558929443359375
1761231963074891300,5.888891357421875,-0.9082489013671875,-0.3363189697265625,0.041778564453125
1761231963084960300,5.898960205078125,-0.8936004638671875,-0.32391357421875,0.028228759765625
1761231963095030300,5.9090302734375,-0.879547119140625,-0.3097076416015625,0.0198974609375
1761231963105099300,5.919099365234375,-0.8720703125,-0.2932281494140625,0.0190582275390625
1761231963115168300,5.929168212890625,-0.8712615966796875,-0.2850799560546875,0.0213775634765625
1761231963125238300,5.93923828125,-0.874786376953125,-0.2878265380859375,0.021728515625
1761231963135307300,5.949307373046875,-0.8794403076171875,-0.2871856689453125,0.0130615234375
1761231963145377300,5.959377197265625,-0.8825225830078125,-0.2792510986328125,-0.003631591796875
1761231963155446300,5.9694462890625,-0.88031005859375,-0.2724456787109375,-0.02532958984375
1761231963165516300,5.979516357421875,-0.8819122314453125,-0.2682952880859375,-0.0406036376953125
1761231963175585300,5.989585205078125,-0.89013671875,-0.27252197265625,-0.0540924072265625
1761231963185654300,5.999654296875,-0.8902130126953125,-0.28179931640625,-0.0708160400390625
1761231963195724300,6.009724365234375,-0.8762969970703125,-0.288787841796875,-0.0792694091796875
1761231963205793300,6.019793212890625,-0.8688201904296875,-0.2935028076171875,-0.0841064453125
1761231963215863300,6.02986328125,-0.860992431640625,-0.3038787841796875,-0.0840301513671875
1761231963225932300,6.039932373046875,-0.8533782958984375,-0.3158721923828125,-0.0812530517578125
1761231963236001300,6.050001220703125,-0.847625732421875,-0.3254852294921875,-0.079345703125
1761231963246071300,6.0600712890625,-0.84429931640625,-0.3361053466796875,-0.0742340087890625
1761231963256140300,6.070140380859375,-0.847747802734375,-0.348663330078125,-0.06732177734375
1761231963266210300,6.080210205078125,-0.8504791259765625,-0.355712890625,-0.0626983642578125
1761231963276279300,6.090279296875,-0.8544921875,-0.3577117919921875,-0.058990478515625
1761231963286348300,6.100348388671875,-0.863739013671875,-0.36431884765625,-0.0551605224609375
1761231963296418300,6.110418212890625,-0.8717041015625,-0.3672637939453125,-0.0521697998046875
1761231963306487300,6.1204873046875,-0.8777313232421875,-0.3640594482421875,-0.051910400390625
1761231963316557000,6.13055712890625,-0.88671875,-0.360015869140625,-0.0479888916015625
1761231963326626300,6.140626220703125,-0.8995208740234375,-0.3586883544921875,-0.0366363525390625
1761231963336695300,6.1506953125,-0.9136199951171875,-0.3583526611328125,-0.02752685546875
1761231963346765300,6.160765380859375,-0.9139862060546875,-0.357452392578125,-0.0219879150390625
1761231963356834000,6.170833984375,-0.9154052734375,-0.3585968017578125,-0.0198211669921875
1761231963366904300,6.180904296875,-0.9206695556640625,-0.3636016845703125,-0.015045166015625
1761231963376973300,6.190973388671875,-0.9214935302734375,-0.365203857421875,-0.0110015869140625
1761231963387042300,6.201042236328125,-0.9157257080078125,-0.365875244140625,-0.009368896484375
1761231963397112300,6.2111123046875,-0.9053192138671875,-0.36993408203125,-0.004119873046875
1761231963407181300,6.221181396484375,-0.901702880859375,-0.3754425048828125,0.000640869140625
1761231963417251300,6.231251220703125,-0.8964385986328125,-0.3800811767578125,0.0083160400390625
1761231963427320300,6.2413203125,-0.8871002197265625,-0.3845977783203125,0.017181396484375
1761231963437389300,6.251389404296875,-0.8855438232421875,-0.39239501953125,0.02447509765625
1761231963447459300,6.261459228515625,-0.88934326171875,-0.396697998046875,0.029998779296875
1761231963457528300,6.2715283203125,-0.8904571533203125,-0.39739990234375,0.02960205078125
1761231963467598000,6.28159814453125,-0.8858489990234375,-0.3925628662109375,0.0264129638671875
1761231963477667300,6.291667236328125,-0.8856964111328125,-0.384735107421875,0.026458740234375
1761231963487736300,6.301736328125,-0.892974853515625,-0.3839263916015625,0.035614013671875
1761231963497806300,6.311806396484375,-0.90008544921875,-0.3886566162109375,0.0444183349609375
1761231963507875300,6.321875244140625,-0.9052886962890625,-0.3909759521484375,0.04718017578125
1761231963517945300,6.3319453125,-0.9081268310546875,-0.38934326171875,0.0493621826171875
1761231963528014000,6.34201416015625,-0.9103851318359375,-0.392303466796875,0.0516815185546875
1761231963538083300,6.352083251953125,-0.9156036376953125,-0.3948516845703125,0.05230712890625
1761231963548153000,6.362153076171875,-0.918701171875,-0.397491455078125,0.0533905029296875
1761231963558222300,6.372222412109375,-0.9200286865234375,-0.3976898193359375,0.0529022216796875
1761231963568292400,6.382292236328125,-0.9253692626953125,-0.396209716796875,0.051361083984375
1761231963578361300,6.392361328125,-0.9240570068359375,-0.3960418701171875,0.052947998046875
1761231963588430000,6.40243017578125,-0.9214324951171875,-0.3963623046875,0.0567779541015625
1761231963598500400,6.412500244140625,-0.9226837158203125,-0.39739990234375,0.062957763671875
1761231963608569300,6.4225693359375,-0.9234619140625,-0.3973541259765625,0.0689697265625
1761231963618639000,6.43263916015625,-0.929046630859375,-0.3935394287109375,0.075653076171875
1761231963628708400,6.442708251953125,-0.930572509765625,-0.3905792236328125,0.0800628662109375
1761231963638778000,6.452778076171875,-0.9320220947265625,-0.38775634765625,0.0843658447265625
1761231963648847400,6.462847412109375,-0.937652587890625,-0.3857421875,0.087615966796875
1761231963658916400,6.472916259765625,-0.945648193359375,-0.38385009765625,0.08795166015625
1761231963668986400,6.482986328125,-0.948944091796875,-0.3780364990234375,0.0843505859375
1761231963679055000,6.49305517578125,-0.9530181884765625,-0.373626708984375,0.0808563232421875
1761231963689124400,6.503124267578125,-0.9571075439453125,-0.369415283203125,0.078460693359375
1761231963699194000,6.513194091796875,-0.96136474609375,-0.3642578125,0.0779876708984375
1761231963709263400,6.523263427734375,-0.9670562744140625,-0.3582611083984375,0.077484130859375
1761231963719333000,6.5333330078125,-0.9680938720703125,-0.3559112548828125,0.0816802978515625
1761231963729402400,6.54340234375,-0.9587860107421875,-0.3632965087890625,0.0991363525390625
1761231963739472400,6.553472412109375,-0.9687347412109375,-0.3747406005859375,0.119293212890625
1761231963749541400,6.563541259765625,-0.981689453125,-0.3824462890625,0.1291961669921875
1761231963759610000,6.573610107421875,-0.976165771484375,-0.3970947265625,0.1358795166015625
1761231963769680400,6.583680419921875,-1.008544921875,-0.415924072265625,0.1405181884765625
1761231963779749400,6.593749267578125,-1.0672149658203125,-0.4132843017578125,0.13861083984375
1761231963789819100,6.603819091796875,-1.10308837890625,-0.3980560302734375,0.126953125
1761231963799888400,6.613888427734375,-1.106475830078125,-0.3782501220703125,0.108612060546875
1761231963809957400,6.623957275390625,-1.09588623046875,-0.3655853271484375,0.0908355712890625
1761231963820027400,6.63402734375,-1.0825653076171875,-0.3466339111328125,0.0814361572265625
1761231963830096100,6.64409619140625,-1.06689453125,-0.3099517822265625,0.079437255859375
1761231963840166400,6.65416650390625,-1.075225830078125,-0.2617340087890625,0.0909576416015625
1761231963850235100,6.664235107421875,-1.0945281982421875,-0.2256622314453125,0.1186981201171875
1761231963860304400,6.674304443359375,-1.1085968017578125,-0.207366943359375,0.148956298828125
1761231963870374100,6.6843740234375,-1.1261444091796875,-0.1951904296875,0.1728515625
1761231963880443400,6.694443359375,-1.1324310302734375,-0.179351806640625,0.193603515625
1761231963890513200,6.70451318359375,-1.1132659912109375,-0.1579132080078125,0.20147705078125
1761231963900582400,6.71458251953125,-1.0797271728515625,-0.1357574462890625,0.206756591796875
1761231963910651100,6.724651123046875,-1.045684814453125,-0.1219482421875,0.215972900390625
1761231963920721400,6.734721435546875,-1.009918212890625,-0.11370849609375,0.2327728271484375
1761231963930794000,6.7447939453125,-0.9742431640625,-0.10284423828125,0.2501678466796875
1761231963940863700,6.75486376953125,-0.95452880859375,-0.0938568115234375,0.266357421875
1761231963950933000,6.76493310546875,-0.9345703125,-0.09197998046875,0.277496337890625
1761231963961002000,6.775001953125,-0.9115753173828125,-0.08837890625,0.2875213623046875
1761231963971072000,6.785072021484375,-0.8912200927734375,-0.0895843505859375,0.2957916259765625
1761231963981140700,6.795140625,-0.8765716552734375,-0.0987548828125,0.3050384521484375
1761231963991211000,6.8052109375,-0.87005615234375,-0.114105224609375,0.308685302734375
1761231964001279700,6.81527978515625,-0.87188720703125,-0.1320953369140625,0.3090972900390625
1761231964011349000,6.825348876953125,-0.880584716796875,-0.149627685546875,0.302215576171875
1761231964021418800,6.835418701171875,-0.8881683349609375,-0.158538818359375,0.290985107421875
1761231964031488000,6.845488037109375,-0.90374755859375,-0.158294677734375,0.28582763671875
1761231964041557800,6.855557861328125,-0.9311676025390625,-0.1567535400390625,0.288909912109375
1761231964051627000,6.865626953125,-0.95721435546875,-0.1493377685546875,0.292510986328125
1761231964061695700,6.87569580078125,-0.9873504638671875,-0.1364288330078125,0.295928955078125
1761231964071766000,6.88576611328125,-1.0105133056640625,-0.124237060546875,0.301910400390625
1761231964081834800,6.895834716796875,-1.0271453857421875,-0.1067352294921875,0.3084716796875
1761231964091904800,6.90590478515625,-1.0323638916015625,-0.084564208984375,0.3145904541015625
1761231964101974000,6.91597412109375,-1.036834716796875,-0.0640106201171875,0.3201751708984375
1761231964112043000,6.92604296875,-1.039520263671875,-0.0494842529296875,0.323455810546875
1761231964122113000,6.936113037109375,-1.0339508056640625,-0.034515380859375,0.322662353515625
1761231964132181800,6.946181640625,-1.03033447265625,-0.02197265625,0.3162994384765625
1761231964142252000,6.956251953125,-1.03155517578125,-0.014007568359375,0.309356689453125
1761231964152320800,6.96632080078125,-1.0319061279296875,-0.0134429931640625,0.3058013916015625
1761231964162390000,6.97639013671875,-1.0344390869140625,-0.0166473388671875,0.29974365234375
1761231964172459800,6.986459716796875,-1.0327606201171875,-0.0159149169921875,0.28875732421875
1761231964182529000,6.996529052734375,-1.0350189208984375,-0.0165557861328125,0.27178955078125
1761231964192598800,7.006598876953125,-1.0369720458984375,-0.0240020751953125,0.2574310302734375
1761231964202668000,7.01666796875,-1.0509796142578125,-0.0259552001953125,0.2412872314453125
1761231964212736800,7.02673681640625,-1.05645751953125,-0.0239715576171875,0.2201385498046875
1761231964222807000,7.03680712890625,-1.0608978271484375,-0.02215576171875,0.1981658935546875
1761231964232875800,7.046875732421875,-1.0693359375,-0.0229034423828125,0.17877197265625
1761231964242945800,7.05694580078125,-1.0665435791015625,-0.0272674560546875,0.163421630859375
1761231964253014800,7.067014892578125,-1.0637664794921875,-0.030792236328125,0.1532135009765625
1761231964263084800,7.077084716796875,-1.0614471435546875,-0.0336761474609375,0.143280029296875
1761231964273154000,7.087154052734375,-1.057830810546875,-0.0348663330078125,0.1313629150390625
1761231964283223000,7.09722314453125,-1.0509033203125,-0.0349578857421875,0.1163787841796875
1761231964293293000,7.10729296875,-1.04168701171875,-0.0374755859375,0.101715087890625
1761231964303361800,7.11736181640625,-1.0347900390625,-0.03900146484375,0.091156005859375
1761231964313430800,7.1274306640625,-1.0345001220703125,-0.039398193359375,0.0868682861328125
1761231964323500800,7.137500732421875,-1.02960205078125,-0.0382232666015625,0.082000732421875
1761231964333570000,7.147570068359375,-1.0147705078125,-0.0344085693359375,0.0744781494140625
1761231964343639800,7.157639892578125,-1.002197265625,-0.029510498046875,0.0667724609375
1761231964353709000,7.167708984375,-0.992279052734375,-0.0287628173828125,0.06304931640625
1761231964363778800,7.17777880859375,-0.97747802734375,-0.03155517578125,0.062286376953125
1761231964373848000,7.18784814453125,-0.9676971435546875,-0.0344390869140625,0.0652618408203125
1761231964383916800,7.197916748046875,-0.963104248046875,-0.04150390625,0.0723114013671875
1761231964393986800,7.20798681640625,-0.9581298828125,-0.0526885986328125,0.085723876953125
1761231964404055800,7.218055908203125,-0.9493408203125,-0.057830810546875,0.098358154296875
1761231964414125800,7.228125732421875,-0.9459381103515625,-0.064422607421875,0.1072540283203125
1761231964424194800,7.23819482421875,-0.9420166015625,-0.0764312744140625,0.1208648681640625
1761231964434264000,7.24826416015625,-0.9344635009765625,-0.090576171875,0.1329345703125
1761231964444333800,7.258333740234375,-0.9334716796875,-0.0979156494140625,0.143402099609375
1761231964454402800,7.26840283203125,-0.9310302734375,-0.10565185546875,0.1556243896484375
1761231964464473000,7.27847314453125,-0.929351806640625,-0.113555908203125,0.1639556884765625
1761231964474541800,7.288541748046875,-0.934295654296875,-0.117523193359375,0.16595458984375
1761231964484610800,7.29861083984375,-0.938934326171875,-0.12738037109375,0.1667633056640625
1761231964494680800,7.308680908203125,-0.9414825439453125,-0.1410980224609375,0.1628570556640625
1761231964504750000,7.31875,-0.952545166015625,-0.153839111328125,0.15692138671875
1761231964514819800,7.32881982421875,-0.960906982421875,-0.175323486328125,0.1485443115234375
1761231964524889000,7.33888916015625,-0.97320556640625,-0.1982574462890625,0.1359405517578125
1761231964534957800,7.348957763671875,-0.9793853759765625,-0.2152557373046875,0.122222900390625
1761231964545028000,7.359028076171875,-0.9788818359375,-0.228790283203125,0.110565185546875
1761231964555096800,7.369096923828125,-0.9814300537109375,-0.239898681640625,0.0956573486328125
1761231964565166800,7.379166748046875,-0.9912261962890625,-0.254241943359375,0.0850982666015625
1761231964575235800,7.38923583984375,-1.00164794921875,-0.2669830322265625,0.078216552734375
1761231964585305000,7.39930517578125,-1.00823974609375,-0.2700653076171875,0.068328857421875
1761231964595374800,7.409374755859375,-1.0121002197265625,-0.274261474609375,0.0650787353515625
1761231964605443800,7.41944384765625,-1.018890380859375,-0.282989501953125,0.0670928955078125
1761231964615513900,7.429513916015625,-1.0269012451171875,-0.29290771484375,0.07220458984375
1761231964625582800,7.439582763671875,-1.0306243896484375,-0.30242919921875,0.0743865966796875
1761231964635651800,7.44965185546875,-1.037506103515625,-0.3104400634765625,0.0643310546875
1761231964645721900,7.459721923828125,-1.040008544921875,-0.3144989013671875,0.0447845458984375
1761231964655790800,7.469790771484375,-1.0407257080078125,-0.3093109130859375,0.0234832763671875
1761231964665860900,7.47986083984375,-1.042633056640625,-0.300933837890625,0.0050201416015625
1761231964675930000,7.48993017578125,-1.0367279052734375,-0.293426513671875,-0.0091094970703125
1761231964685998800,7.499998779296875,-1.02093505859375,-0.2822265625,-0.0214080810546875
1761231964696069000,7.510069091796875,-0.999908447265625,-0.272308349609375,-0.0235748291015625
1761231964706137900,7.520137939453125,-0.983154296875,-0.2774200439453125,-0.016326904296875
1761231964716207900,7.530207763671875,-0.9705657958984375,-0.29345703125,-0.0049896240234375
1761231964726276900,7.54027685546875,-0.9599151611328125,-0.310577392578125,0.0084381103515625
1761231964736346000,7.55034619140625,-0.951629638671875,-0.3239898681640625,0.0177764892578125
1761231964746415900,7.560415771484375,-0.9403533935546875,-0.3376922607421875,0.0234527587890625
1761231964756484900,7.57048486328125,-0.935821533203125,-0.3506927490234375,0.0225067138671875
1761231964766555000,7.580554931640625,-0.936065673828125,-0.3641357421875,0.025543212890625
1761231964776623900,7.590623779296875,-0.9271697998046875,-0.3737945556640625,0.02587890625
1761231964786692900,7.60069287109375,-0.920989990234375,-0.3820037841796875,0.025787353515625
1761231964796763000,7.610762939453125,-0.9202423095703125,-0.388336181640625,0.0244293212890625
1761231964806831900,7.620831787109375,-0.9249267578125,-0.3964691162109375,0.021636962890625
1761231964816902000,7.63090185546875,-0.9334869384765625,-0.40203857421875,0.0140380859375
1761231964826971000,7.640970947265625,-0.9434051513671875,-0.4100799560546875,0.0086822509765625
1761231964837039900,7.651039794921875,-0.9542083740234375,-0.42169189453125,0.0050048828125
1761231964847110000,7.66110986328125,-0.9622955322265625,-0.43035888671875,-0.001800537109375
1761231964857179000,7.671178955078125,-0.972320556640625,-0.4349822998046875,-0.0128326416015625
1761231964867249000,7.681248779296875,-0.985626220703125,-0.4421234130859375,-0.024169921875
1761231964877318000,7.69131787109375,-0.99310302734375,-0.4459686279296875,-0.0359039306640625
1761231964887387000,7.701386962890625,-0.99462890625,-0.4459381103515625,-0.0421600341796875
1761231964897457000,7.711456787109375,-0.99627685546875,-0.4477691650390625,-0.04522705078125
1761231964907526100,7.721526123046875,-1.0001373291015625,-0.443206787109375,-0.0485382080078125
1761231964917596000,7.731595947265625,-1.0023956298828125,-0.432342529296875,-0.054046630859375
1761231964927665000,7.741664794921875,-1.000274658203125,-0.425201416015625,-0.0574798583984375
1761231964937731000,7.75173095703125,-0.9940338134765625,-0.4168701171875,-0.0560760498046875
1761231964947801000,7.761801025390625,-0.9917449951171875,-0.4042510986328125,-0.0535430908203125
1761231964957870000,7.7718701171875,-0.988677978515625,-0.3911285400390625,-0.0487213134765625
1761231964967940000,7.781940185546875,-0.9824371337890625,-0.376922607421875,-0.044189453125
1761231964978009000,7.792009033203125,-0.975189208984375,-0.3658294677734375,-0.0405120849609375
1761231964988078000,7.802078125,-0.9666290283203125,-0.3596649169921875,-0.0379486083984375
1761231964998147800,7.81214794921875,-0.9584197998046875,-0.3563690185546875,-0.03955078125
1761231965008217000,7.822217041015625,-0.9499053955078125,-0.3534698486328125,-0.0397491455078125
1761231965018286800,7.832286865234375,-0.9402618408203125,-0.34967041015625,-0.04046630859375
1761231965028356000,7.842356201171875,-0.925048828125,-0.348724365234375,-0.035797119140625
1761231965038425900,7.85242578125,-0.91259765625,-0.35009765625,-0.0296173095703125
1761231965048495000,7.8624951171875,-0.905364990234375,-0.35089111328125,-0.0207061767578125
1761231965058563800,7.872563720703125,-0.8954925537109375,-0.3491058349609375,-0.0160064697265625
1761231965068634000,7.882634033203125,-0.888671875,-0.344207763671875,-0.01324462890625
1761231965078702800,7.892702880859375,-0.8880157470703125,-0.340972900390625,-0.014068603515625
1761231965088773000,7.902773193359375,-0.890960693359375,-0.341888427734375,-0.0197296142578125
1761231965098842000,7.912842041015625,-0.8957366943359375,-0.3428802490234375,-0.030029296875
1761231965108911000,7.9229111328125,-0.896636962890625,-0.3438873291015625,-0.042999267578125
1761231965118981000,7.932981201171875,-0.8967132568359375,-0.3387603759765625,-0.0580902099609375
1761231965129050000,7.943050048828125,-0.8952484130859375,-0.3308563232421875,-0.0739288330078125
1761231965139120000,7.9531201171875,-0.892974853515625,-0.32708740234375,-0.0819244384765625
1761231965149189000,7.963189208984375,-0.89642333984375,-0.3271636962890625,-0.0834503173828125
1761231965159258000,7.973258056640625,-0.8972320556640625,-0.3279571533203125,-0.079742431640625
1761231965169327900,7.983327880859375,-0.8992156982421875,-0.3305511474609375,-0.07080078125
1761231965179397000,7.993397216796875,-0.9015960693359375,-0.328216552734375,-0.0634002685546875
1761231965189467000,8.003466796875,-0.903472900390625,-0.3231658935546875,-0.0581207275390625
1761231965199536000,8.0135361328125,-0.90362548828125,-0.318878173828125,-0.0554351806640625
1761231965209604900,8.02360498046875,-0.9073333740234375,-0.319427490234375,-0.0553131103515625
1761231965219675100,8.033675048828124,-0.9069976806640625,-0.32293701171875,-0.054962158203125
1761231965229743900,8.043743896484376,-0.90185546875,-0.324188232421875,-0.0550384521484375
1761231965239814100,8.053814208984376,-0.8997039794921875,-0.3278045654296875,-0.0546875
1761231965249883000,8.0638828125,-0.8948974609375,-0.3357086181640625,-0.05157470703125
1761231965259952000,8.0739521484375,-0.8949432373046875,-0.342498779296875,-0.0476837158203125
1761231965270022000,8.08402197265625,-0.8920745849609375,-0.34759521484375,-0.0421905517578125
1761231965280091100,8.094091064453124,-0.886444091796875,-0.3520355224609375,-0.039520263671875
1761231965290161200,8.1041611328125,-0.884918212890625,-0.3541717529296875,-0.0384521484375
1761231965300230100,8.114230224609376,-0.879730224609375,-0.3575592041015625,-0.038543701171875
1761231965310299000,8.124298828125,-0.883697509765625,-0.363250732421875,-0.035400390625
1761231965320369000,8.134368896484375,-0.887542724609375,-0.366455078125,-0.0333251953125
1761231965330438100,8.144438232421875,-0.8899688720703125,-0.3638458251953125,-0.0300750732421875
1761231965340508000,8.1545078125,-0.8955078125,-0.3621978759765625,-0.024932861328125
1761231965350577200,8.1645771484375,-0.9029388427734375,-0.3617095947265625,-0.0216064453125
1761231965360646000,8.17464599609375,-0.912353515625,-0.36083984375,-0.0221405029296875
1761231965370716200,8.184716064453125,-0.914825439453125,-0.36297607421875,-0.023956298828125
1761231965380785000,8.194784912109375,-0.91864013671875,-0.363433837890625,-0.0246429443359375
1761231965390855200,8.204855224609375,-0.92486572265625,-0.3701324462890625,-0.0231170654296875
1761231965400924000,8.214923828125,-0.9234771728515625,-0.377593994140625,-0.0225677490234375
1761231965410993200,8.2249931640625,-0.9228515625,-0.3818817138671875,-0.0204620361328125
1761231965421063000,8.23506298828125,-0.9276275634765625,-0.3876495361328125,-0.019195556640625
1761231965431132200,8.245132080078125,-0.9240570068359375,-0.393829345703125,-0.01806640625
1761231965441202000,8.255201904296875,-0.9223785400390625,-0.40057373046875,-0.0174102783203125
1761231965451271200,8.265271240234375,-0.9214019775390625,-0.4064788818359375,-0.0141448974609375
1761231965461340000,8.27533984375,-0.915740966796875,-0.412078857421875,-0.009796142578125
1761231965471410000,8.285409912109374,-0.90765380859375,-0.416046142578125,-0.00347900390625
1761231965481479000,8.29547900390625,-0.9050750732421875,-0.42022705078125,0.0013580322265625
1761231965491549000,8.305548828125,-0.90057373046875,-0.4218597412109375,0.0048828125
1761231965501618200,8.3156181640625,-0.89752197265625,-0.42138671875,0.0070648193359375
1761231965511687200,8.325687255859375,-0.894989013671875,-0.4184417724609375,0.0093994140625
1761231965521757200,8.335757080078125,-0.8983001708984375,-0.415618896484375,0.0174102783203125
1761231965531826000,8.345825927734374,-0.8954925537109375,-0.4149169921875,0.0247802734375
1761231965541896200,8.355896240234374,-0.8964385986328125,-0.417022705078125,0.027008056640625
1761231965551965000,8.36596484375,-0.89129638671875,-0.4179534912109375,0.0285186767578125
1761231965562034200,8.3760341796875,-0.8974609375,-0.413604736328125,0.0279388427734375
1761231965572104000,8.38610400390625,-0.90045166015625,-0.4129638671875,0.0285186767578125
1761231965582173200,8.396173095703125,-0.898590087890625,-0.412261962890625,0.0284576416015625
1761231965592243000,8.406242919921874,-0.9013519287109375,-0.4096527099609375,0.0240478515625
1761231965602312200,8.416312255859374,-0.9049224853515625,-0.4077301025390625,0.0239715576171875
1761231965612381000,8.426380859375,-0.90338134765625,-0.4097442626953125,0.0208892822265625
1761231965622451000,8.436450927734375,-0.9013519287109375,-0.4070281982421875,0.01727294921875
1761231965632520000,8.44652001953125,-0.9050140380859375,-0.41217041015625,0.016571044921875
1761231965642590000,8.45658984375,-0.9124298095703125,-0.42108154296875,0.020233154296875
1761231965652659000,8.466658935546874,-0.9191741943359375,-0.423492431640625,0.0219573974609375
1761231965662728200,8.476728271484374,-0.917388916015625,-0.4200439453125,0.0206146240234375
1761231965672798000,8.4867978515625,-0.9137115478515625,-0.41961669921875,0.01708984375
1761231965682867000,8.496866943359375,-0.9127655029296875,-0.4184112548828125,0.01531982421875
1761231965692937200,8.506937255859375,-0.91754150390625,-0.419464111328125,0.012176513671875
1761231965703006000,8.517005859375,-0.9188385009765625,-0.424072265625,0.011138916015625
1761231965713075000,8.527074951171874,-0.9190673828125,-0.425140380859375,0.0117950439453125
1761231965723145000,8.53714501953125,-0.9169921875,-0.419891357421875,0.00750732421875
1761231965733214200,8.547214111328126,-0.919281005859375,-0.41290283203125,0.0063323974609375
1761231965743284000,8.557283935546875,-0.9353790283203125,-0.4103240966796875,0.005126953125
1761231965753353200,8.567353271484375,-0.9451141357421875,-0.4127044677734375,0.003936767578125
1761231965763422000,8.577421875,-0.9404754638671875,-0.4093170166015625,-0.0014190673828125
1761231965773492200,8.5874921875,-0.9453582763671875,-0.4123382568359375,0.000152587890625
1761231965783561000,8.59756103515625,-0.9373016357421875,-0.424560546875,0.007720947265625
1761231965793631000,8.607630859375,-0.9295196533203125,-0.448944091796875,0.0247802734375
1761231965803700000,8.617699951171875,-0.955108642578125,-0.4710693359375,0.03912353515625
1761231965813769200,8.627769287109375,-0.9696197509765625,-0.47344970703125,0.0474090576171875
1761231965823839000,8.6378388671875,-0.971710205078125,-0.4759063720703125,0.0415191650390625
1761231965833908000,8.647907958984375,-0.9765625,-0.484588623046875,0.041107177734375
1761231965843978000,8.65797802734375,-0.99957275390625,-0.4853973388671875,0.039764404296875
1761231965854047000,8.668046875,-1.0194549560546875,-0.4647216796875,0.0335845947265625
1761231965864116000,8.678115966796875,-1.02142333984375,-0.4310760498046875,0.0276641845703125
1761231965874186000,8.68818603515625,-1.018402099609375,-0.39996337890625,0.026702880859375
1761231965884255000,8.6982548828125,-1.022216796875,-0.3670654296875,0.0336456298828125
1761231965894325000,8.708324951171875,-1.0272369384765625,-0.3335723876953125,0.0443572998046875
1761231965904394000,8.71839404296875,-1.017608642578125,-0.3023681640625,0.048919677734375
1761231965914463000,8.728462890625,-1.01324462890625,-0.2820892333984375,0.050811767578125
1761231965924533200,8.738533203125,-1.0062408447265625,-0.276580810546875,0.0514678955078125
1761231965934601200,8.748601318359375,-0.993743896484375,-0.28289794921875,0.056427001953125
1761231965944671500,8.75867138671875,-0.9858551025390625,-0.2871856689453125,0.0653533935546875
1761231965954740200,8.768740234375,-0.9687042236328125,-0.2912445068359375,0.068817138671875
1761231965964809500,8.7788095703125,-0.94891357421875,-0.2975006103515625,0.0714874267578125
1761231965974879500,8.78887939453125,-0.930145263671875,-0.299224853515625,0.0756988525390625
1761231965984948500,8.798948486328126,-0.9117584228515625,-0.3044891357421875,0.0792083740234375
1761231965995018500,8.8090185546875,-0.8958892822265625,-0.3128814697265625,0.081787109375
1761231966005087500,8.81908740234375,-0.8885650634765625,-0.311309814453125,0.085784912109375
1761231966015156500,8.829156494140625,-0.898284912109375,-0.3106842041015625,0.0875244140625
1761231966025226200,8.839226318359374,-0.908294677734375,-0.313262939453125,0.0914459228515625
1761231966035295500,8.84929541015625,-0.9125213623046875,-0.3056640625,0.094482421875
1761231966045365200,8.859365234375,-0.9157867431640625,-0.2908782958984375,0.08563232421875
1761231966055434500,8.8694345703125,-0.91180419921875,-0.2853851318359375,0.075469970703125
1761231966065503200,8.879503173828125,-0.914306640625,-0.28521728515625,0.06396484375
1761231966075573500,8.889573486328125,-0.9172210693359375,-0.28326416015625,0.05682373046875
1761231966085642200,8.899642333984374,-0.910552978515625,-0.2853240966796875,0.05621337890625
1761231966095712500,8.90971240234375,-0.9073486328125,-0.286102294921875,0.0682525634765625
1761231966105781200,8.91978125,-0.91015625,-0.2838897705078125,0.0846405029296875
1761231966115850500,8.9298505859375,-0.9131011962890625,-0.277008056640625,0.10162353515625
1761231966125920300,8.939920166015625,-0.9173583984375,-0.269195556640625,0.1196136474609375
1761231966135989500,8.949989501953125,-0.918853759765625,-0.2655181884765625,0.1322479248046875
1761231966146059500,8.9600595703125,-0.9161834716796875,-0.2587738037109375,0.1480712890625
1761231966156128500,8.97012841796875,-0.917510986328125,-0.25311279296875,0.1607818603515625
1761231966166197200,8.980197265625,-0.931793212890625,-0.25445556640625,0.1664581298828125
1761231966176267300,8.990267333984375,-0.9225616455078125,-0.2620086669921875,0.1717681884765625
1761231966186336500,9.00033642578125,-0.92449951171875,-0.2616119384765625,0.1735687255859375
1761231966196406300,9.01040625,-0.9311676025390625,-0.2687225341796875,0.1699371337890625
1761231966206475500,9.0204755859375,-0.920013427734375,-0.2794952392578125,0.155181884765625
1761231966216544500,9.03054443359375,-0.9170989990234375,-0.2901458740234375,0.137481689453125
1761231966226614500,9.040614501953126,-0.9207611083984375,-0.3029022216796875,0.1157684326171875
1761231966236683300,9.050683349609375,-0.9318695068359375,-0.314300537109375,0.094329833984375
1761231966246753500,9.06075341796875,-0.935760498046875,-0.3165283203125,0.07940673828125
1761231966256822300,9.070822265625,-0.9371795654296875,-0.3052215576171875,0.06732177734375
1761231966266891500,9.0808916015625,-0.94171142578125,-0.292938232421875,0.0582275390625
1761231966276961300,9.090961181640624,-0.93914794921875,-0.28955078125,0.0594635009765625
1761231966287030500,9.101030517578126,-0.9052734375,-0.266876220703125,0.07635498046875
1761231966297100300,9.111100341796876,-1.019561767578125,-0.2639007568359375,0.116455078125
1761231966307169500,9.12116943359375,-0.9947357177734375,-0.299713134765625,0.096099853515625
1761231966317238300,9.13123828125,-0.9729156494140625,-0.3185272216796875,0.071533203125
1761231966327308500,9.14130859375,-0.9688262939453125,-0.3308868408203125,0.065185546875
1761231966337377300,9.151377197265624,-0.957305908203125,-0.3462371826171875,0.058929443359375
1761231966347447300,9.161447265625,-0.9464263916015625,-0.3646697998046875,0.0427398681640625
1761231966357516300,9.171516357421876,-0.9362640380859375,-0.3726654052734375,0.0334014892578125
