time,seconds_elapsed,z,y,x
1761231957273652200,0.08765234375,0.015736498314142228,-0.1430357212767005,-0.08754654683209954
1761231957283721500,0.097721435546875,-0.014261165064573287,-0.12420651764422655,-0.15621332888826728
1761231957293791200,0.107791259765625,-0.006668225717544555,-0.0790150845259428,-0.1924381231535226
1761231957303860500,0.117860595703125,0.012104863813519478,-0.06611936259567737,-0.18212788767181337
1761231957313929200,0.12792919921875,-0.04030979855656624,-0.08936258327811956,-0.13100019637234508
1761231957323999500,0.13799951171875,-0.08087211056947707,-0.09962328052967787,-0.12149696642458438
1761231957334068200,0.148068115234375,-0.1016109472155571,-0.06516191574037075,-0.11062317877598106
1761231957344138500,0.158138427734375,-0.13085808448791503,-0.010395137286186218,-0.12271627908647059
1761231957354207500,0.16820751953125,-0.1182721591591835,0.06093699152171612,-0.14112221580557524
1761231957364276500,0.1782763671875,-0.10267828418612479,0.12939414941519498,-0.14615041923113167
1761231957374346500,0.188346435546875,-0.027642624685168263,0.16253274116814134,-0.15358166521042585
1761231957384415500,0.19841552734375,0.03666998074948787,0.160502404384315,-0.1743113687019795
1761231957394485500,0.208485595703125,0.06917407399117946,0.1231605157226324,-0.1509281550269574
1761231957404554200,0.21855419921875,0.047237551993131635,0.09145692520886659,-0.15027970105558633
1761231957414623500,0.22862353515625,0.021605098086595532,0.09220248287916183,-0.145974478142336
1761231957424693200,0.238693359375,-0.0028419454276561737,0.09299071064740419,-0.14292546583525836
1761231957434762500,0.248762451171875,-0.014587912800908088,0.09045768503844738,-0.1373960348892957
1761231957444832300,0.258832275390625,-0.04406827430725097,0.08371405599713325,-0.15900829336903988
1761231957454901500,0.268901611328125,-0.03323240751624107,0.05505377870202064,-0.13934746121801436
1761231957464970200,0.27897021484375,0.03567161736190319,0.02105798559784889,-0.1539269715167582
1761231957475040500,0.28904052734375,0.057255672660470006,0.0031231004565954205,-0.13716646391712128
1761231957485109200,0.299109130859375,0.045431963875889776,-0.03637684302181005,-0.0929496479846537
1761231957495179500,0.309179443359375,-0.00404722956418991,-0.10749766716659069,-0.027426278520748016
1761231957505248300,0.319248291015625,-0.01590367157459259,-0.14731032985597847,-0.025200492230057714
1761231957515317500,0.3293173828125,0.05849193645715713,-0.14147797044068575,-0.06747406514026225
1761231957525387300,0.33938720703125,0.12825579303503035,-0.1298898239776492,-0.06508841211274266
1761231957535456500,0.34945654296875,0.15580957039296625,-0.13956073864251375,-0.038331557286158204
1761231957545526500,0.359526611328125,0.1422182674139738,-0.17724632617533206,-0.015092866648361085
1761231957555595500,0.369595458984375,0.12326923679411411,-0.1916504068419337,-0.012498685436695814
1761231957565664300,0.379664306640625,0.13936229346096515,-0.19042349539548156,-0.022496567033603785
1761231957575734300,0.389734375,0.1772971795797348,-0.1959358290761709,-0.03222593388743698
1761231957585803500,0.399803466796875,0.15970833139717577,-0.18903730173408984,-0.01165690085031092
1761231957595873300,0.409873291015625,0.11577741973400116,-0.19932254890501497,-0.022927651927247644
1761231957605942500,0.419942626953125,0.08899462674856186,-0.22998218332380055,-0.050362259884923696
1761231957616011300,0.43001123046875,0.07519523397684097,-0.2414934651583433,-0.08294489825554191
1761231957626081500,0.44008154296875,0.12732289609909056,-0.2431400633215904,-0.1077645014092326
1761231957636150300,0.450150390625,0.20026129105985163,-0.18947686219513415,-0.13348404907733202
1761231957646220500,0.460220458984375,0.2570405783802271,-0.15808511410951614,-0.19806867638640105
1761231957656289300,0.470289306640625,0.34964755040705203,-0.20161182888597248,-0.28648974103070796
1761231957666358500,0.480358642578125,0.37466391824185846,-0.23479162943214177,-0.3821660375002771
1761231957676428300,0.49042822265625,0.3004921820938587,-0.20730068817734718,-0.3862471693340689
1761231957686497500,0.50049755859375,0.15074819535017012,-0.16384090115725994,-0.33958361783660945
1761231957696567300,0.5105673828125,-0.026187749701738355,-0.13055296406149863,-0.215424957922101
1761231957706636500,0.520636474609375,-0.16563421431481837,-0.15044365944564342,-0.09114749393351375
1761231957716705300,0.530705322265625,-0.2118137816876173,-0.2209694403067231,-0.008330752102285623
1761231957726775300,0.540775390625,-0.18701485599577425,-0.31588293571025133,0.04975209209732711
1761231957736844300,0.55084423828125,-0.22828210140764713,-0.4161138267442584,0.11018369138017296
1761231957746914300,0.560914306640625,-0.2965092499375343,-0.47865562311410903,0.16151625760197638
1761231957756983600,0.570983642578125,-0.25927111391127106,-0.47367315852642056,0.1470876270160079
1761231957767052300,0.58105224609375,-0.22544833928644656,-0.4515069194257259,0.1220351649545133
1761231957777122600,0.59112255859375,-0.19293664726018905,-0.3923009894803166,0.12109481536448001
1761231957787191300,0.60119140625,-0.233873637804389,-0.3073649904727936,0.15921046487763524
1761231957797261600,0.611261474609375,-0.29904198328554626,-0.2321089662194252,0.21276114554032682
1761231957807330300,0.621330322265625,-0.3446685929507017,-0.12045008772015571,0.26331585925742984
1761231957817399600,0.631399658203125,-0.3844780407696962,0.007026537635922431,0.26373116206005215
1761231957827469300,0.64146923828125,-0.3069102324426174,0.12840280029028653,0.22281083038970828
1761231957837538600,0.65153857421875,-0.18933657694160938,0.22012480617612598,0.14359043255001305
1761231957847608300,0.6616083984375,-0.13575053270459175,0.28143676849007604,0.12270108151733874
1761231957857677600,0.671677490234375,-0.13364683842360972,0.3047422407537699,0.15517331831604242
1761231957867746300,0.681746337890625,-0.13006897993683814,0.32865386221706866,0.1469236686259508
1761231957877816300,0.69181640625,-0.05351005639135837,0.39047172822654247,0.10468187909349798
1761231957887885300,0.70188525390625,0.02073825212419033,0.44436669228225945,0.045147740107029675
1761231957897955300,0.711955322265625,0.03344517348408699,0.42778292948901653,0.04765095509961247
1761231957908024300,0.7220244140625,0.03678513156175613,0.3889201148703694,0.045023090814054006
1761231957918093600,0.732093505859375,0.13251286595761774,0.3682549279823899,0.0134065940618515
1761231957928163800,0.742163818359375,0.19775486119687555,0.3614902561530471,-0.024552549715340138
1761231957938232800,0.75223291015625,0.2535188339948654,0.36430619035661216,-0.086269585698843
1761231957948302800,0.762302734375,0.2899661119043827,0.3794257258161902,-0.1515554200798273
1761231957958371800,0.772371826171875,0.3335796281814575,0.3741004391402006,-0.23443024877384303
1761231957968440800,0.78244091796875,0.31621114475131035,0.3630152737632394,-0.2601075647354126
1761231957978510800,0.7925107421875,0.24739012198150157,0.33710780230760573,-0.24316402871906756
1761231957988579800,0.802579833984375,0.18001286827921867,0.2853486812368035,-0.198577429626137
1761231957998649900,0.81264990234375,0.12517127102315426,0.26218466327041384,-0.16436434050947427
1761231958008718800,0.82271875,0.11737842518985271,0.2247296696230769,-0.17276961915269493
1761231958018787800,0.832787841796875,0.0936024128049612,0.20076105727553367,-0.2044499749213457
1761231958028857600,0.842857666015625,0.07634557305574417,0.18232348330914974,-0.24046046884879468
1761231958038926800,0.8529267578125,0.0636520956993103,0.14869389316886664,-0.2627067874483764
1761231958048996600,0.86299658203125,0.11028349849283695,0.09266279386729001,-0.27350845970883964
1761231958059065900,0.87306591796875,0.15574819559454917,0.053249651889503,-0.3120322516314685
1761231958069134600,0.883134521484375,0.15423720650970935,0.0065638885602355,-0.36297611079663034
1761231958079204900,0.893204833984375,0.1917500678241253,-0.03874474119693041,-0.3938844592794776
1761231958089273600,0.903273681640625,0.19261457569897172,-0.07331658062338829,-0.38335181321874257
1761231958099344000,0.91334375,0.21311785002350805,-0.10458733267784118,-0.35809330719113347
1761231958109412600,0.92341259765625,0.23931962825059888,-0.17418226242959498,-0.33013708651214835
1761231958119481900,0.93348193359375,0.24415946949720382,-0.2587029586344957,-0.31013094805479047
1761231958129552000,0.9435517578125,0.23531740687191485,-0.2985971621274948,-0.3134728058286011
1761231958139620900,0.953620849609375,0.23849252977669239,-0.34751579907536506,-0.344905762707442
1761231958149691000,0.96369091796875,0.23466508044302462,-0.42534225833863015,-0.36675986711904407
1761231958159760000,0.973759765625,0.1534802506625652,-0.5129676425606012,-0.36787294292747974
1761231958169830000,0.983829833984375,0.12710954560935497,-0.6004883973643184,-0.36803397870808835
1761231958179898600,0.993898681640625,0.13910101217627524,-0.661776686541736,-0.3902241832062602
1761231958189968000,1.0039677734375,0.06935176864564419,-0.7321563369303942,-0.4017679060056805
1761231958200037600,1.01403759765625,0.04152385052144527,-0.7639937829568981,-0.3511164539158344
1761231958210107000,1.02410693359375,0.039081718066334724,-0.7876911771476268,-0.3370226082421839
1761231958220176600,1.0341767578125,0.07603168480098248,-0.8030757932841778,-0.33464725741297
1761231958230246000,1.044245849609375,0.10197159722149371,-0.8099997473284601,-0.3246130623936653
1761231958240314600,1.054314697265625,0.1812918021738529,-0.8054656110301613,-0.36530718409270047
1761231958250385000,1.064385009765625,0.22452421017885207,-0.8200541083529591,-0.4056725122287869
1761231958260453600,1.07445361328125,0.24718027862310407,-0.8180304935708641,-0.3995340094737708
1761231958270524000,1.08452392578125,0.2678495571643114,-0.8257084808528423,-0.39045638452693815
1761231958280592600,1.094592529296875,0.2633843944489956,-0.8391124445661902,-0.3814033094994724
1761231958290662000,1.104661865234375,0.3645020051896572,-0.7921823510870337,-0.37152722765132784
1761231958300732000,1.11473193359375,0.4051490728765726,-0.6788000097960233,-0.35364772595912214
1761231958310801000,1.12480078125,0.5095692322939634,-0.549613657912612,-0.30475641540959475
1761231958320871000,1.134870849609375,0.45751814253926276,-0.43960196209847924,-0.29514731393456456
1761231958330939600,1.144939697265625,0.7622106989324092,-0.3037719344168901,-0.4091691221728921
1761231958341008600,1.155008544921875,1.3959580995589493,-0.165672208237648,-0.18360227107331156
1761231958351078700,1.16507861328125,-0.2777139485746622,-0.28423370573222634,0.29347981911376114
1761231958361148000,1.17514794921875,0.3203676799088716,-0.5878761685505509,0.253753665664047
1761231958371217700,1.1852177734375,0.5686597191661596,-0.35631226899325846,-0.11932312951683997
1761231958381287000,1.195286865234375,0.6075380236148834,-0.32379648531377314,-0.39991161061450836
1761231958391355600,1.205355712890625,0.7779688245564699,-0.5435536272212863,-0.44118528576716776
1761231958401426000,1.215426025390625,0.7520002705633639,-0.5367626519069075,-0.353789764778316
1761231958411494700,1.22549462890625,0.9071709585309028,-0.36248452788740393,-0.4444068781621754
1761231958421565000,1.23556494140625,1.1313374413132666,-0.5034609785467385,-0.4465926977686584
1761231958431633700,1.245633544921875,0.7555430577367543,-0.8418325171798468,-0.1957581344217062
1761231958441703000,1.255702880859375,0.44649464422166346,-1.0849190967485307,0.050950288905948396
1761231958451772700,1.265772705078125,0.5424702158987522,-1.0455737593099474,0.08406360008716583
1761231958461842000,1.275842041015625,0.605707301056385,-0.8394871230974793,-0.04417626472637057
1761231958471911700,1.28591162109375,0.43155777185261246,-0.7125532263159752,-0.20083777577355502
1761231958481981000,1.29598095703125,0.3384685692667961,-0.7179211830899119,-0.2987526449501514
1761231958492049700,1.306049560546875,0.3118418436259031,-0.7370899939402937,-0.3281397752150893
1761231958502119700,1.31611962890625,0.3176233496367931,-0.7472790872603654,-0.2567315124310553
1761231958512188700,1.326188720703125,0.2102531082421541,-0.7839771250605583,-0.12843451060280203
1761231958522258700,1.3362587890625,0.18963935928046702,-0.8896233191415667,-0.0436553095921874
1761231958532328000,1.346327880859375,0.22419746244251726,-0.947092926813662,0.010871522626280784
1761231958542396700,1.356396728515625,0.13460486980080605,-0.9392164943501353,0.055334933730959886
1761231958552467000,1.366467041015625,0.040133272945880885,-0.9584519406959414,0.12090820675119757
1761231958562535700,1.37653564453125,0.03204991973340511,-0.9232619693711399,0.12991291259229182
1761231958572606000,1.38660595703125,0.07533025853335856,-0.8774003819063305,0.10476181246191263
1761231958582674700,1.3966748046875,0.046129883012175556,-0.8886346003651618,0.07689370845779776
1761231958592744000,1.406743896484375,0.02634089443683624,-0.919002266100049,0.05304112370535731
1761231958602813700,1.416813720703125,0.052713353055715555,-0.945067558465898,0.07837620210051537
1761231958612883000,1.426883056640625,0.010044424152374267,-0.9751821262225508,0.15452435288801789
1761231958622952700,1.43695263671875,-0.1638642820328474,-0.9849427649974822,0.29891689560115337
1761231958633022000,1.44702197265625,-0.332401816573739,-1.0007730790749192,0.3609647709742188
1761231958643090700,1.457090576171875,-0.3774199389517307,-1.0181222732827067,0.36478126052245496
1761231958653160700,1.46716064453125,-0.415627796792984,-1.0250570409819484,0.3482916057534516
1761231958663229700,1.477229736328125,-0.5428875645279884,-0.9572329202950001,0.31350086287930606
1761231958673299700,1.4872998046875,-0.6612158377885818,-0.7730930352136492,0.22450375191271305
1761231958683368700,1.49736865234375,-0.6822697317332029,-0.5510691174179315,0.07976210350096226
1761231958693438700,1.507438720703125,-0.6644646104514599,-0.317008140347898,-0.0875286458492279
1761231958703507700,1.5175078125,-0.5490308895885944,-0.07505757907181977,-0.21775150117352604
1761231958713576700,1.52757666015625,-0.4190589402854442,0.18137334297746419,-0.3544904603935778
1761231958723647000,1.53764697265625,-0.3334066097021103,0.3622703006148338,-0.391871365891397
1761231958733715700,1.5477158203125,-0.23798808738589286,0.39790743118524546,-0.3266580122247338
1761231958743786000,1.557785888671875,-0.2408399696856737,0.36808980054855345,-0.23437471919432282
1761231958753854700,1.567854736328125,-0.25664134992957116,0.3139563515618443,-0.10142667668983339
1761231958763924000,1.577924072265625,-0.2581330497920513,0.2761038830295205,-0.0031553952910006043
1761231958773993700,1.58799365234375,-0.2155342635154724,0.31365736861526966,0.00006122866794466973
1761231958784063000,1.59806298828125,-0.11300386336743831,0.410014048564434,-0.03375760043412447
1761231958794132700,1.6081328125,-0.07584113066494465,0.4694084868192672,-0.06130056413710117
1761231958804201700,1.61820166015625,-0.08443067983388901,0.4693263614937663,-0.08663038183525204
1761231958814270700,1.628270751953125,-0.05690788213610649,0.45010640497803683,-0.11447437431141734
1761231958824340700,1.6383408203125,-0.052961190336942666,0.39509938802719113,-0.12868103270977735
1761231958834409700,1.64840966796875,-0.03731880004703998,0.3198240745514631,-0.16993790285810828
1761231958844479700,1.658479736328125,0.020261866784095764,0.2721843714982271,-0.21678119483664632
1761231958854548700,1.668548828125,0.08647767549157143,0.24626579412668942,-0.2752025502756238
1761231958864617700,1.67861767578125,0.15132511845529079,0.23452508745044467,-0.3044333209350705
1761231958874687700,1.688687744140625,0.20384207215607164,0.19168226328492163,-0.3376362100958824
1761231958884756700,1.6987568359375,0.2433668578147888,0.09436901326328516,-0.3336018400132656
1761231958894827000,1.708826904296875,0.18651859691143036,-0.003526420560479164,-0.29544878109917044
1761231958904895700,1.718895751953125,0.09589081600308418,-0.0798205556899309,-0.23676190659180282
1761231958914964700,1.72896484375,0.09114625182449818,-0.10201689766794443,-0.24389015103653072
1761231958925034000,1.739033935546875,0.14134440718889235,-0.09105039023458956,-0.2312361289076507
1761231958935103200,1.749103271484375,0.10871522626280784,-0.04042670293450355,-0.19233166710436342
1761231958945173000,1.759173095703125,0.022280805391073227,-0.0053434068545699116,-0.14576763045862315
1761231958955242200,1.7692421875,-0.060981999707221984,0.05909194817692041,-0.054031303786486386
1761231958965311000,1.77931103515625,-0.18260230025053023,0.14143617712557316,0.08242796170935034
1761231958975381200,1.78938134765625,-0.29512568662464617,0.20383798050284385,0.2024402425341308
1761231958985450000,1.799449951171875,-0.29695991631448265,0.29074031114727256,0.2678413007926196
1761231958995520000,1.80952001953125,-0.3093810064703226,0.38217940843850373,0.3001378156982362
1761231959005589000,1.819589111328125,-0.2918698996990919,0.4234150896683335,0.33646161335855723
1761231959015659000,1.829658935546875,-0.29256606526970863,0.45651393393278117,0.40286183872222897
1761231959025728000,1.83972802734375,-0.2666109552800655,0.4775429856970906,0.4802052637089044
1761231959035797000,1.849796875,-0.21335867304205894,0.5039654209375382,0.5666509366270155
1761231959045867000,1.859866943359375,-0.17939152151048182,0.5178624288648367,0.6389912926293909
1761231959055936000,1.86993603515625,-0.08973580050468444,0.5390531009316444,0.7020997099060565
1761231959066006300,1.88000634765625,-0.0059475102275609966,0.5841615319415927,0.755080262530595
1761231959076075000,1.890074951171875,0.06801379804015159,0.6024784021377563,0.8164001889552921
1761231959086144000,1.90014404296875,0.1619821215480566,0.5995221826806664,0.8751164356876164
1761231959096214000,1.910214111328125,0.2420025837242603,0.58932315248847,0.9249770296607166
1761231959106283300,1.920283203125,0.2570914317846298,0.5895575457662343,0.9968350820388644
1761231959116353000,1.93035302734375,0.24048107324540613,0.5787929906457662,1.0513200478769837
1761231959126422300,1.94042236328125,0.20881050821840763,0.567726529969275,1.1086443287942558
1761231959136491000,1.950490966796875,0.18366086939275264,0.5193886155188083,1.1303650160845369
1761231959146561000,1.96056103515625,0.20731354765892027,0.4520882264450192,1.1286357080738991
1761231959156630000,1.970630126953125,0.17319149782657622,0.38816695841550825,1.0766153787836432
1761231959166700000,1.980699951171875,0.08259002040326595,0.3599728373274207,1.0122463669866324
1761231959176769000,1.99076904296875,0.007157470539212226,0.35924890696704387,0.926575185572356
1761231959186838300,2.00083837890625,-0.012377835536003112,0.4002800055354833,0.8023745862122624
1761231959196908000,2.010907958984375,-0.005060205999016762,0.4545253904640674,0.6864742707509547
1761231959206977000,2.02097705078125,0.0012760112851858138,0.467571919041872,0.5759978069692849
1761231959217047000,2.031047119140625,0.0347474882543087,0.45407326278239485,0.4878524174612015
1761231959227116000,2.041115966796875,0.1006476551413536,0.39312691891044377,0.42223128671124577
1761231959237186000,2.05118603515625,0.15225801539123057,0.31268267836421726,0.40030769726000726
1761231959247255000,2.061255126953125,0.1703951451063156,0.23634002791792152,0.3630149815022945
1761231959257324000,2.071323974609375,0.17600947785675525,0.1504056655228138,0.3584911474023014
1761231959267394000,2.08139404296875,0.20040332987904547,0.04423135591447353,0.3655465458065271
1761231959277463000,2.091463134765625,0.23988427639603613,-0.04849807344824075,0.3527074494343251
1761231959287533000,2.101532958984375,0.2635363701403141,-0.11494564508497715,0.3175352329619229
1761231959297602300,2.111602294921875,0.30395488976836205,-0.18991905300468206,0.29173823614343997
1761231959307671000,2.121671142578125,0.27218378697633744,-0.26625468918830153,0.3058483753647655
1761231959317741000,2.131740966796875,0.2497901688605547,-0.34456250222772355,0.3316596929695457
1761231959327810000,2.14181005859375,0.23109891239404676,-0.39839726052880287,0.336310441384837
1761231959337880000,2.151880126953125,0.21568857729434965,-0.4568231460124254,0.34071569060645995
1761231959347949000,2.161948974609375,0.2302221295595169,-0.47109103307873007,0.313018413124606
1761231959358018000,2.17201806640625,0.2304787346690893,-0.517789071367681,0.2362148671682924
1761231959368088000,2.182088134765625,0.2621820329219103,-0.551144813002646,0.2131681189060211
1761231959378157000,2.192156982421875,0.28288813634216786,-0.544949173232913,0.21722243579812348
1761231959388227000,2.20222705078125,0.31090777764618394,-0.5662655175060034,0.21038352968879043
1761231959398296000,2.212296142578125,0.2979752308368683,-0.6001560966700316,0.22411022255048155
1761231959408365000,2.222364990234375,0.28997078807950016,-0.6128440210685133,0.2647062907025218
1761231959418435000,2.23243505859375,0.29021511822938917,-0.6469999731704592,0.32719365347139534
1761231959428504000,2.242504150390625,0.28940204828083516,-0.7174597030580043,0.3760463125109672
1761231959438574000,2.252573974609375,0.24231238032579422,-0.7647630137637257,0.39856735639870167
1761231959448643000,2.26264306640625,0.2096007818132639,-0.794115657237172,0.4435908856041729
1761231959458712000,2.272712158203125,0.1978530608743429,-0.8333391218617558,0.48231502240449187
1761231959468782000,2.282781982421875,0.19441373407542703,-0.8701561098664998,0.5237411847051233
1761231959478851000,2.29285107421875,0.13592121309638022,-0.9093535632669926,0.5552250680536032
1761231959488921000,2.302921142578125,0.08816986636221408,-0.9519991112947463,0.5744579571161419
1761231959498990000,2.312989990234375,0.05408113427758217,-0.9511989008277654,0.5612720931328833
1761231959509060000,2.32306005859375,-0.014626491245627402,-0.9235691356241702,0.5618514273907989
1761231959519129000,2.333129150390625,-0.13791151013076305,-0.8896420238420367,0.5691031520847231
1761231959529198000,2.343197998046875,-0.17303718404769897,-0.8517039228528738,0.5786145653389394
1761231959539268000,2.35326806640625,-0.17353461217582225,-0.730157272067666,0.5323295282976701
1761231959549337000,2.363337158203125,-0.17207973719239233,-0.6074407007202506,0.500851453635469
1761231959559407000,2.373406982421875,-0.19897534290254115,-0.5372922287389635,0.48132659588903187
1761231959569476000,2.38347607421875,-0.24491700986623763,-0.5077525382608175,0.4780337283561006
1761231959579545000,2.393545166015625,-0.28100656037926675,-0.4971718152746558,0.4929598236028105
1761231959589615000,2.403614990234375,-0.30134967570602894,-0.49023763209730387,0.4980424971619621
1761231959599684000,2.41368408203125,-0.2831996865093708,-0.4682061252921819,0.5052398613201454
1761231959609754000,2.423754150390625,-0.12622282590270043,-0.5432601972326636,0.5853694098940119
1761231959619823000,2.433822998046875,-0.07146715336441993,-0.7053072007104754,0.6996632034741341
1761231959629892000,2.44389208984375,-0.3090928371787071,-0.7793032880306243,0.7453983150150626
1761231959639961900,2.4539619140625,-0.4336345781266689,-0.7838236880645155,0.7484580679118633
1761231959650031000,2.464031005859375,-0.43424248089194295,-0.796156223154068,0.7032416464827954
1761231959660101000,2.47410107421875,-0.5526397277355194,-0.7620169299259781,0.636338659228757
1761231959670170000,2.484170166015625,-0.7792641250640153,-0.6108037474125624,0.5033562760632485
1761231959680240000,2.494240234375,-0.9525228429079056,-0.28517361693084237,0.3183664596216753
1761231959690309000,2.50430908203125,-0.8973843085318803,0.06722410896718502,0.1267087827887386
1761231959700378000,2.514378173828125,-0.6232061328679322,0.3237362795591354,0.062905131523218
1761231959710448000,2.5244482421875,-0.30901568028926846,0.5631286807850003,0.1072587438441813
1761231959720517000,2.53451708984375,-0.11660042655467986,0.8093094269767404,0.21663298200499265
1761231959730587000,2.5445869140625,-0.012537994533777236,0.9610761517196893,0.3684689360592514
1761231959740656000,2.55465625,-0.17238251953125,0.8630451088175177,0.5473132720157504
1761231959750725000,2.56472509765625,-0.3608031506717205,0.612286971707642,0.7459675662703812
1761231959760795100,2.574795166015625,-0.5094441446095704,0.39942952618598937,0.9432503529760986
1761231959770864000,2.584864013671875,-0.547226470515132,0.28390608121305705,1.0140745322618634
1761231959780934100,2.59493408203125,-0.48166941797733304,0.2884311574220657,0.9012797085352241
1761231959791003000,2.6050029296875,-0.3586287292420864,0.3485352052509785,0.6490411236092448
1761231959801072000,2.615072021484375,-0.2573568047225475,0.4240861207976937,0.34196123368814585
1761231959811142000,2.625141845703125,-0.20330723462700842,0.5536243548586964,0.017342855798546223
1761231959821211100,2.635211181640625,-0.1494254223138094,0.6655714026495814,-0.2709979747252539
1761231959831281200,2.64528125,-0.14149696740210055,0.7229702831730246,-0.46278990892972793
1761231959841350100,2.65535009765625,-0.1480827755331993,0.7860331808075308,-0.5947589503342285
1761231959851420200,2.665420166015625,-0.14675649536550045,0.8495844464808702,-0.740459105047211
1761231959861489200,2.6754892578125,-0.14255787463188171,0.8707005920067429,-0.8860959487330168
1761231959871558100,2.68555810546875,-0.12256547243893146,0.8828025332108139,-1.0423184107758103
1761231959881628200,2.695628173828125,-0.07719137623012065,0.9197539612501859,-1.1926084870949387
1761231959891697200,2.705697265625,0.018458032232522962,0.9624453942462802,-1.3475992884509265
1761231959901767000,2.715766845703125,0.16166589520573615,0.9813651987716555,-1.4624077170222998
1761231959911836200,2.725836181640625,0.2938181111574173,0.9230962574154138,-1.5385961998201905
1761231959921905200,2.7359052734375,0.35569618292152877,0.8078595204293727,-1.581789152597636
1761231959931975700,2.7459755859375,0.3874883285015821,0.739258570151031,-1.6221036273293197
1761231959942044700,2.756044677734375,0.46842882813215253,0.6715925626352429,-1.681760515912622
1761231959952114700,2.76611474609375,0.6041583180487156,0.5855930260494351,-1.7267989504262804
1761231959962183700,2.77618359375,0.7085486668497324,0.4686714047163725,-1.7188671345137059
1761231959972252700,2.786252685546875,0.7005383788734674,0.35343642129600045,-1.6251108463212847
1761231959982322700,2.79632275390625,0.6742763948917389,0.23619711231589316,-1.4918169129885732
1761231959992391700,2.8063916015625,0.6958171955704688,0.16338292825669049,-1.377244192869216
1761231960002461700,2.816461669921875,0.7097387534171342,0.14625497558414935,-1.23003659273535
1761231960012530700,2.82653076171875,0.6988654772251844,0.13351269064992666,-1.0736243072088807
1761231960022599700,2.836599609375,0.6523872191667557,0.08276508470922708,-0.8909152586482465
1761231960032669400,2.84666943359375,0.607341039738059,0.00680091218650341,-0.7273592388469725
1761231960042738700,2.85673876953125,0.6331821679592132,-0.0685363606095314,-0.5625093798428773
1761231960052808700,2.86680859375,0.6949228770792484,-0.13924042064696548,-0.4190804214648902
1761231960062877700,2.876877685546875,0.6688871030688286,-0.2062152310281992,-0.28743750674221663
1761231960072947700,2.88694775390625,0.6561036093413829,-0.2641919114395976,-0.12629866761788724
1761231960083016700,2.8970166015625,0.6627531303584575,-0.26174305698275563,-0.011106518692243843
1761231960093085700,2.907085693359375,0.6854413475066423,-0.23484803579449653,0.06937354208603501
1761231960103155700,2.91715576171875,0.6915227132469415,-0.2364072479352355,0.125989090212062
1761231960113224700,2.927224609375,0.6662719521343707,-0.23880612577050922,0.16889665017686784
1761231960123294500,2.93729443359375,0.6806050133913755,-0.23606617941260336,0.16760270137619226
1761231960133363700,2.94736376953125,0.6672481036901473,-0.2330252042815089,0.15330982599910348
1761231960143432700,2.9574326171875,0.6558510958850383,-0.2414960955068469,0.15268975787200031
1761231960153502700,2.967502685546875,0.627766572651267,-0.26074615489989517,0.10823626537313684
1761231960163571700,2.97757177734375,0.5951683713853358,-0.2820435022115707,0.017061207579262553
1761231960173641700,2.987641845703125,0.5149503408104181,-0.31246319039463993,-0.11244332514153793
1761231960183710500,2.99771044921875,0.4105927252352237,-0.33712650700807567,-0.2374247178820893
1761231960193779700,3.00777978515625,0.33685061267614363,-0.3464978542044759,-0.3303939838826656
1761231960203849500,3.017849365234375,0.2913391538232565,-0.3919976226195693,-0.37469621307626366
1761231960213918700,3.027918701171875,0.2787982366800308,-0.44003187794834375,-0.37018673629518595
1761231960223988700,3.03798876953125,0.24138415956497192,-0.5390156915307045,-0.33444936022069305
1761231960234057700,3.0480576171875,0.19259645552039145,-0.7015481404379009,-0.2550100224006921
1761231960244126500,3.05812646484375,0.1765565903455019,-0.847967951194942,-0.17254815842173993
1761231960254196700,3.06819677734375,0.1336433312922716,-0.9464519985616207,-0.13920304777864365
1761231960264265500,3.078265380859375,0.09479366841614245,-1.018412488400936,-0.10479264599159359
1761231960274335700,3.088335693359375,0.0522714545071125,-1.0569608302429319,-0.06977675259206444
1761231960284404700,3.09840478515625,-0.012331658306717872,-1.1106348450243473,-0.058176842625997954
1761231960294474500,3.108474609375,-0.03236906868517399,-1.1452435093298554,-0.06345642699673772
1761231960304543700,3.118543701171875,-0.09547814354896544,-1.0969093942716717,-0.07522928237691522
1761231960314612700,3.12861279296875,-0.09862287131547927,-1.031831357422471,-0.12967084746472538
1761231960324682800,3.138682861328125,-0.05262801285982131,-0.9899477336779237,-0.16742639496121556
1761231960334751500,3.14875146484375,-0.049210897892713545,-0.9877017083168029,-0.1919505588322878
1761231960344821800,3.15882177734375,-0.04654840068519115,-1.027724506625533,-0.21373970824889837
1761231960354890500,3.168890380859375,-0.013269231417775154,-1.068157931561768,-0.24030849315747618
1761231960364959700,3.178959716796875,-0.0212754277408123,-1.0610007532835006,-0.2957259906053543
1761231960375029500,3.189029541015625,-0.003039513826370239,-1.0418585381790995,-0.3574390445334837
1761231960385098800,3.1990986328125,0.028261633366346357,-1.0648241109639405,-0.4219144393144175
1761231960395168500,3.20916845703125,0.007182020458579063,-1.0523030675649643,-0.47221444761808956
1761231960405237800,3.21923779296875,-0.001211129355430603,-1.005374435390532,-0.5084426028842106
1761231960415307800,3.229307861328125,-0.029022096344828604,-0.9672259065210819,-0.5582036820055917
1761231960425376800,3.239376708984375,-0.039868484529852866,-0.9629507134199142,-0.5961062732899561
1761231960435445500,3.249445556640625,0.031084289571642873,-1.0035805377110838,-0.5733620151055976
1761231960445515500,3.259515625,0.05730126536786556,-1.1154635803550481,-0.47363005003705616
1761231960455584800,3.269584716796875,-0.07682663457095623,-1.2424524221941828,-0.37704642946422096
1761231960465654500,3.279654541015625,-0.1893400840729475,-1.2946093104109166,-0.35188575778789816
1761231960475723800,3.289723876953125,-0.2925894461452961,-1.3496093130990863,-0.3808730020150542
1761231960485792500,3.29979248046875,-0.5641285054773092,-1.387457982239127,-0.4139981497645378
1761231960495862800,3.30986279296875,-0.9200725256800651,-1.2291679932072759,-0.5063225054576993
1761231960505931500,3.319931640625,-1.12389004791677,-0.9467419214189052,-0.6902009631238878
1761231960516001800,3.330001708984375,-1.1969523615181445,-0.6153317462310195,-0.8396792846687138
1761231960526070500,3.340070556640625,-1.1191799705296754,-0.39348084691464896,-0.9114452017839998
1761231960536139800,3.350139892578125,-1.162581305360794,-0.2474728318288922,-0.8085935337923467
1761231960546209500,3.36020947265625,-1.1086498086869716,0.021469196747243402,-0.7262975278995931
1761231960556278800,3.37027880859375,-0.8982190057903527,0.38711978745013476,-0.697492581436783
1761231960566348500,3.3803486328125,-0.8366226735770702,0.6310372648850083,-0.56452802618891
1761231960576417800,3.390417724609375,-0.8882564147025346,0.6290311857596039,-0.3167613259799778
1761231960586486500,3.400486572265625,-0.9554828617572784,0.5374453734740614,-0.04296213969625532
1761231960596556500,3.410556640625,-0.8998527444720268,0.5444052756145596,0.12344181688204407
1761231960606625500,3.42062548828125,-0.7459913855373859,0.6577870323836803,0.16112331276163458
1761231960616695600,3.430695556640625,-0.5450625704795122,0.739148387774825,0.19304902159348128
1761231960626764500,3.4407646484375,-0.33677637839615343,0.827357709364593,0.252497016666457
1761231960636834600,3.45083447265625,-0.1829611966907978,0.9303685865059494,0.3249963626228273
1761231960646903800,3.46090380859375,-0.04999883340001106,0.9845879602104425,0.4096837206315249
1761231960656972500,3.47097265625,0.04395663062632084,1.009943643002212,0.4791194412335753
1761231960667042800,3.481042724609375,0.1615367158681154,1.022243152604997,0.504783970778808
1761231960677111600,3.491111572265625,0.24515724836289882,1.021629404620826,0.49503619148544964
1761231960687181800,3.501181884765625,0.362667190977931,1.0036208697214721,0.437834367904067
1761231960697250600,3.51125048828125,0.448595415893197,1.0015946245908736,0.3285379076872021
1761231960707319800,3.52131982421875,0.5441051236242056,1.0245771485105157,0.23436025227755306
1761231960717389600,3.5313896484375,0.6418482894957065,1.0454901726797223,0.12614135816432534
1761231960727458800,3.541458740234375,0.7815870150536298,1.0658198440030215,0.05097542334720492
1761231960737528600,3.551528564453125,0.8566238435983657,1.0723454463794826,0.09733677702769636
1761231960747597600,3.56159765625,0.8567278884947299,1.0801228023827076,0.25119579787477847
1761231960757666600,3.57166650390625,0.7860258742839098,1.046148928849399,0.4578171254858374
1761231960767736600,3.581736572265625,0.7613917837649583,1.00179716142565,0.6986988884866238
1761231960777805600,3.5918056640625,0.773483203575015,1.0144047140643,0.93833576599285
1761231960787875600,3.60187548828125,0.7134919684708118,1.017140568768978,1.1401171062268316
1761231960797944600,3.611944580078125,0.6164648419141769,0.918912834250927,1.3029879933081567
1761231960808013600,3.622013671875,0.46955695537924763,0.8415443478882312,1.4215725794173777
1761231960818083800,3.632083740234375,0.2980038724094629,0.8392840017408132,1.4967241203829644
1761231960828152600,3.642152587890625,0.13909049078226088,0.8661296308293938,1.4913158315986395
1761231960838222800,3.652222900390625,-0.020267712002992627,0.9374854327738285,1.3889181179195642
1761231960848291600,3.66229150390625,-0.13138181610107422,0.9618170332148671,1.2172668352723122
1761231960858361600,3.672361572265625,-0.23090894277989862,0.8954293750718235,1.0076772324401884
1761231960868430600,3.6824306640625,-0.32287995499074457,0.8160600702807307,0.7934163498613983
1761231960878499800,3.692499755859375,-0.37979251330196856,0.8104784707561135,0.5911136891670524
1761231960888569600,3.702569580078125,-0.3689198216319084,0.8501771516770124,0.37062750233262776
1761231960898638800,3.712638916015625,-0.33601357733011245,0.8482645960539579,0.1490717135053128
1761231960908708600,3.72270849609375,-0.302888137319684,0.806719410483539,-0.0032887393470853567
1761231960918777600,3.732777587890625,-0.26367840895950795,0.7144929622069001,-0.08461348905488848
1761231960928846000,3.74284619140625,-0.2508230190396309,0.52656595980227,-0.11503149673752486
1761231960938916000,3.752916015625,-0.2125841815382242,0.35163901648521423,-0.09183664524145424
1761231960948985000,3.762985107421875,-0.177087920743227,0.21636837625205516,-0.0331995281599462
1761231960959055000,3.77305517578125,-0.13071487662494183,0.08058277223408222,0.022893384331464765
1761231960969124000,3.7831240234375,-0.05200608156919479,-0.06042611939013004,0.0852407541077584
1761231960979193000,3.793193115234375,0.06954641443490982,-0.1609647611990571,0.12540500671379268
1761231960989263000,3.80326318359375,0.23728724564015863,-0.2796063381925225,0.12346870488896965
1761231960999332000,3.81333203125,0.35246553043723106,-0.38418285721540446,0.11805340184196829
1761231961009402000,3.823402099609375,0.4300146340638399,-0.47942076226770874,0.1162860999085009
1761231961019471000,3.83347119140625,0.4927899469286203,-0.5551183928087353,0.14935301466472445
1761231961029541400,3.843541259765625,0.5046621710300445,-0.5713485198587179,0.13623334778547286
1761231961039610000,3.853610107421875,0.5122808293402195,-0.5743202291458844,0.11176248500421643
1761231961049679000,3.86367919921875,0.524747512203455,-0.5459139266118407,0.06923975963853299
1761231961059749000,3.8737490234375,0.5710170959472656,-0.529962031981349,0.020692513286322354
1761231961069818400,3.883818359375,0.5795680666714906,-0.5169821388989687,0.01425605049803853
1761231961079888100,3.89388818359375,0.46008360911309715,-0.5296028432801365,0.05079027603864669
1761231961089957000,3.90395703125,0.36578561525940895,-0.5398512655720115,0.06697261842414737
1761231961100026000,3.914026123046875,0.34108956542015073,-0.4762243043139577,0.015810001941770315
1761231961110096100,3.92409619140625,0.3174824798613787,-0.41619478302597995,-0.03328903307430446
1761231961120165000,3.9341650390625,0.29150574256181716,-0.4188005816102028,-0.04085537667535245
1761231961130235100,3.944235107421875,0.2555973938345909,-0.4160983369141817,-0.051848187593743204
1761231961140304100,3.95430419921875,0.20503975750803946,-0.38033173474520443,-0.08151376947388052
1761231961150373000,3.964373046875,0.14124503846764563,-0.3662093936294317,-0.09791662274226545
1761231961160443100,3.974443115234375,0.06688859340250491,-0.3803577459692955,-0.09960282226353884
1761231961170512100,3.98451220703125,-0.017529811471700667,-0.40598932309299707,-0.10848638594299555
1761231961180582100,3.99458203125,-0.043572015222907066,-0.423679001301527,-0.12940489000491798
1761231961190651100,4.004651123046875,-0.06545651477277278,-0.48243251130431886,-0.12048873923011123
1761231961200720100,4.01472021484375,-0.15966566129922866,-0.5708493381649256,-0.07932575791031121
1761231961210790100,4.0247900390625,-0.20900047783255576,-0.6634811523720622,-0.05802132327072322
1761231961220859100,4.034859130859375,-0.19428455473780631,-0.7017936396315694,-0.0858389391966164
1761231961230929200,4.04492919921875,-0.2372410684108734,-0.7042661672249436,-0.08520999364331364
1761231961240998100,4.054998046875,-0.27627660924792286,-0.7476838686689734,-0.04326225515399128
1761231961251068200,4.065068115234375,-0.2876221791267395,-0.7519158071503043,-0.0011574629394337534
1761231961261137200,4.07513720703125,-0.29025837284922595,-0.7186883680701255,0.075450670042634
1761231961271206100,4.0852060546875,-0.24803835675716399,-0.690785046622157,0.1439903916530311
1761231961281276200,4.095276123046875,-0.1609632998943329,-0.7251990651383996,0.2450012175509706
1761231961291345200,4.10534521484375,-0.06918459538519382,-0.9471271213442086,0.45970005315560847
1761231961301415200,4.115415283203125,-0.1498129603266716,-1.1976719079643487,0.622016265496239
1761231961311484200,4.125484130859375,-0.35891923662126063,-1.309457919974625,0.6842252497151493
1761231961321553200,4.13555322265625,-0.47254620032310485,-1.3642533400014043,0.6153193982060998
1761231961331623200,4.145623046875,-0.5108908362865447,-1.3917822751790285,0.4575151468645781
1761231961341692200,4.155692138671875,-0.6258341432839631,-1.343747727589309,0.29416688806246966
1761231961351762200,4.16576220703125,-0.8105588425159453,-1.2223664964988827,0.17150394659843296
1761231961361831200,4.1758310546875,-0.9684276835262775,-1.0562000750035048,0.07693186677740886
1761231961371900200,4.185900146484375,-1.0205559301704168,-0.8385960194766521,0.0047334217300638555
1761231961381970200,4.19597021484375,-1.0017536145448684,-0.5358741786345839,-0.0509003488169983
1761231961392039200,4.2060390625,-0.9442834223508835,-0.19984686504006385,-0.03463631949741393
1761231961402109200,4.216109130859375,-0.8466822952985763,0.1026154480829835,0.018218076863652094
1761231961412178000,4.226177978515625,-0.7455494869887829,0.3214145586133003,0.07535789545895531
1761231961422247200,4.2362470703125,-0.6315946065068244,0.47164106817692514,0.15588533904291688
1761231961432317200,4.246317138671875,-0.4717249470680952,0.53920127723068,0.22552949649756773
1761231961442386200,4.25638623046875,-0.2580792737782001,0.6085407709166407,0.2831974945522845
1761231961452456200,4.266456298828125,-0.05036006792783737,0.6692714262112974,0.3552862869463861
1761231961462525200,4.276525146484375,0.27542320728898045,0.6959294237732887,0.45295587612502275
1761231961472594200,4.28659423828125,0.527488919866085,0.781344146208465,0.49312418385166673
1761231961482664200,4.296664306640625,0.7822504473984241,0.8722542511895298,0.4917429586263373
1761231961492733200,4.306733154296875,0.9909680166363716,0.8659326469525694,0.4831145022191107
1761231961502803200,4.31680322265625,1.0321475837647913,0.8128986836403608,0.4672628530927002
1761231961512872200,4.3268720703125,0.9710866736024617,0.7758762361913919,0.48346324259154494
1761231961522942000,4.33694189453125,0.8601350665897131,0.7532450099274516,0.44072888376917685
1761231961533011200,4.34701123046875,0.7887532534211874,0.7627285853266715,0.28088399344552306
1761231961543080200,4.357080078125,0.6650690060853958,0.8412523792043328,0.062080608598887914
1761231961553150200,4.367150146484375,0.5235772993803024,0.9328697556719183,-0.171673786740005
1761231961563219000,4.377218994140625,0.40597149517536163,0.9798819744765758,-0.4001090694153681
1761231961573289200,4.387289306640625,0.28138474604189395,1.0271785631805659,-0.5836953757345676
1761231961583358000,4.39735791015625,0.22894904088377951,1.0874454003557563,-0.7232346331976354
1761231961593427200,4.40742724609375,0.2105108823955059,1.0964160577967763,-0.816677106200531
1761231961603497200,4.417497314453125,0.14813596702516077,1.0501815453663468,-0.8429743806913494
1761231961613566200,4.427566162109375,0.1116015953540802,0.9572563011705875,-0.8328268614906817
1761231961623636200,4.43763623046875,0.09598960020244121,0.8526800744086503,-0.8350361350379883
1761231961633705200,4.447705322265625,0.08598492353856563,0.8020268687531351,-0.8428679977074265
1761231961643774200,4.457774169921875,0.055360652694106095,0.7263745386585593,-0.8348159164160489
1761231961653844200,4.46784423828125,0.012024784314632416,0.6319660701677203,-0.7700676960431039
1761231961663913200,4.477913330078125,-0.09098609282672404,0.5509431529507041,-0.7000511068131774
1761231961673983000,4.48798291015625,-0.12721066789627075,0.46031800239086146,-0.6205770995385944
1761231961684052200,4.49805224609375,-0.16939853528439996,0.41235038255751133,-0.5803369686847553
1761231961694122000,4.5081220703125,-0.2396113046735525,0.37896366126239295,-0.5353670328300446
1761231961704191200,4.518191162109375,-0.280368262475729,0.34002047488391396,-0.47767402819823473
1761231961714260200,4.52826025390625,-0.2739794382214546,0.32149230002462864,-0.4253412354253232
1761231961724330200,4.538330322265625,-0.25748189240694047,0.313462722826004,-0.38510523275732994
1761231961734399000,4.54839892578125,-0.20948621552288532,0.261430922293663,-0.31231888655312356
1761231961744469200,4.55846923828125,-0.137577748131752,0.16755466098338365,-0.23731621600631622
1761231961754538000,4.5685380859375,-0.04938566993772983,0.038381753103435036,-0.17607611335217951
1761231961764607200,4.578607177734375,0.06492284628748893,-0.059167936022579665,-0.13945367980515583
1761231961774677000,4.588677001953125,0.20997779843211173,-0.14181231696158647,-0.1593873375481926
1761231961784746200,4.598746337890625,0.3833154267311096,-0.26496581842154265,-0.2103252601629123
1761231961794816300,4.608816162109375,0.49774318542182444,-0.38574294613897797,-0.24573988882275297
1761231961804885200,4.61888525390625,0.5675795227140188,-0.5075137610688806,-0.24909466087706386
1761231961814954000,4.6289541015625,0.5659101281970739,-0.6509402352288365,-0.23808690811786798
1761231961825024000,4.63902392578125,0.5103355404913426,-0.7118646595299244,-0.2628717139528133
1761231961835093200,4.64909326171875,0.5055407074302435,-0.7188730769872665,-0.30206978840781373
1761231961845163000,4.6591630859375,0.5081622881054878,-0.7147399227052926,-0.32698275066707283
1761231961855232300,4.669232177734375,0.4766746784299612,-0.6838742443203926,-0.3448213723596185
1761231961865301200,4.67930126953125,0.5067880771428346,-0.6919982218042016,-0.37588553245868533
1761231961875371300,4.689371337890625,0.511207647150755,-0.6864660143792629,-0.40502785764969884
1761231961885440000,4.69943994140625,0.46024084550142286,-0.6713038088217377,-0.4250137570366263
1761231961895510300,4.70951025390625,0.3931885859698057,-0.6608849983990192,-0.4061897045033052
1761231961905579000,4.7195791015625,0.30897008758187294,-0.6425991078630089,-0.39304040967077014
1761231961915648300,4.729648193359375,0.30365736812651156,-0.6353606810420751,-0.39445889816656704
1761231961925718000,4.739718017578125,0.2700982128739357,-0.6019137539923191,-0.40777558545526116
1761231961935788000,4.7497880859375,0.264912919190526,-0.6088257253378629,-0.40593583934009075
1761231961945858000,4.759858154296875,0.3074216890960932,-0.6576759732246399,-0.42027752229496834
1761231961955926800,4.7699267578125,0.3127928607404232,-0.6743617350876331,-0.3859132612045854
1761231961965995800,4.779995849609375,0.29035598800480367,-0.6874322290629148,-0.36292401528321205
1761231961976065800,4.790065673828125,0.32877602729201316,-0.7081321950033307,-0.34677955722268666
1761231961986135000,4.800135009765625,0.3457189787864685,-0.7348483524933457,-0.3264482053989544
1761231961996204800,4.810204833984375,0.3049070759266615,-0.7956327838018536,-0.2901749688820913
1761231962006274000,4.820274169921875,0.27184242619276044,-0.845485486729443,-0.2710334113648161
1761231962016343800,4.83034375,0.2607429400295019,-0.8802893813461065,-0.2745410906922072
1761231962026413000,4.8404130859375,0.2173994728654623,-0.870735955581069,-0.3024653453303501
1761231962036481800,4.850481689453125,0.14840250900685786,-0.8753025328442454,-0.3575215717177838
1761231962046552000,4.860552001953125,0.05406652123034,-0.9032435559540987,-0.45251700978372245
1761231962056620800,4.870620849609375,-0.05043079507648945,-0.9297031083345413,-0.5272633674819022
1761231962066690800,4.88069091796875,-0.13833528850078583,-0.9329410673424601,-0.5746577905371785
1761231962076759800,4.890759765625,-0.16577099243700502,-0.9877283040627837,-0.512376690930128
1761231962086829000,4.9008291015625,-0.25832711105942724,-1.0540320833146573,-0.4347079795118421
1761231962096898800,4.91089892578125,-0.43326574481427665,-1.0547969302073121,-0.42054910577796395
1761231962106967800,4.9209677734375,-0.5521025521188974,-1.129363510891795,-0.4064162432681769
1761231962117038000,4.9310380859375,-0.6710831518083811,-1.2022200727880001,-0.3954940133679658
1761231962127106800,4.94110693359375,-0.8283131103932857,-1.172417347459495,-0.3968105758592486
1761231962137175800,4.95117578125,-1.0322913761496544,-1.0180872019693255,-0.40446204046048223
1761231962147245800,4.961245849609375,-1.2469903578847645,-0.7449228795230388,-0.4584108535952866
1761231962157315000,4.971315185546875,-1.3063766128331422,-0.40938334944546223,-0.4937741356603801
1761231962167384800,4.981384765625,-1.2256640767395495,-0.17577070066481829,-0.5219691335313021
1761231962177454000,4.9914541015625,-1.222705226933956,0.011693068142235278,-0.44810014318954194
1761231962187522800,5.001522705078125,-1.1103840851336717,0.2419552374511957,-0.34978213657215235
1761231962197593000,5.011593017578125,-1.0193933161318303,0.4723720127999782,-0.28755484951157123
1761231962207661800,5.021661865234375,-0.9525187512546777,0.6385942561358213,-0.20041520297992974
1761231962217731800,5.03173193359375,-1.0074141245245933,0.7244906246080994,-0.11065919993743299
1761231962227800800,5.04180078125,-0.9671820673793554,0.7285726332247257,-0.008534896372258663
1761231962237870800,5.051870849609375,-0.9079448655128478,0.7280398415222764,0.0460504976330325
1761231962247939800,5.06193994140625,-0.788938546860218,0.7978893305569886,0.13102898407541214
1761231962258008800,5.0720087890625,-0.6100730950504542,0.9434788279697298,0.11761924820840358
1761231962268078800,5.082078857421875,-0.32050679611861704,1.0609542837932706,0.031293110016733405
1761231962278147800,5.09214794921875,-0.07471066533029079,1.0518266822248696,0.05481938542425632
1761231962288218000,5.102218017578125,0.06501929239928722,1.0353054632738232,0.12180683609135448
1761231962298286800,5.112286865234375,0.24092414083778857,1.031447034280002,0.15377163482457398
1761231962308355800,5.12235595703125,0.3735352064728737,1.0040504933103918,0.17515403007119892
1761231962318425900,5.13242578125,0.43026364038884635,0.9542647181391716,0.17325046147219836
1761231962328494800,5.142494873046875,0.5709615663677454,0.8823916143223642,0.14193645479790865
1761231962338564900,5.15256494140625,0.7118693357050419,0.803295281253755,0.060731239816546434
1761231962348634000,5.162634033203125,0.769148973762989,0.7431316121920943,-0.013221154492348432
1761231962358702800,5.172702880859375,0.8214987542033195,0.7037561718761921,-0.048313437596336
1761231962368772900,5.18277294921875,0.8880126690745354,0.6302814780816436,-0.02100844736769795
1761231962378841900,5.192841796875,0.9660890114456414,0.5951496666848659,0.07639270013310015
1761231962388911900,5.202911865234375,0.9862754749059677,0.6384905035004019,0.21657968091517685
1761231962398980900,5.21298095703125,0.9708592945873736,0.6696516577005386,0.41791824581772086
1761231962409050000,5.223050048828125,0.998307858005166,0.6383575247704982,0.6653588558774441
1761231962419119900,5.233119873046875,0.9671966804265976,0.65914896838665,0.8871923656675964
1761231962429188900,5.24318896484375,0.9126531893342733,0.7059525128766894,1.0620889869116246
1761231962439259000,5.2532587890625,0.8086252441048621,0.6765668439164757,1.2339948288418352
1761231962449327900,5.263327880859375,0.6080155779987573,0.6248445477247238,1.348981244328618
1761231962459396900,5.27339697265625,0.31771745766103265,0.5355798718631267,1.4205598952434957
1761231962469467000,5.283466796875,0.1467225930958986,0.421390598103404,1.3683914627194405
1761231962479535900,5.293535888671875,-0.007023030504584312,0.38013328956365583,1.1519039901323616
1761231962489606000,5.30360595703125,-0.13279168289899826,0.3980681747049093,0.8977255962502211
1761231962499675000,5.3136748046875,-0.2612783620804548,0.43152796123623843,0.6749948453593999
1761231962509743900,5.323743896484375,-0.35634149508774277,0.44281537118703124,0.530439294104278
1761231962519814000,5.33381396484375,-0.49620823093950744,0.42613925393521784,0.45354657202716914
1761231962529883000,5.3438828125,-0.5106681334465741,0.44840310819149015,0.3845061343530193
1761231962539953000,5.353952880859375,-0.44793198354840275,0.5597010444238781,0.35479528855904935
1761231962550022000,5.36402197265625,-0.44170039568245406,0.6001096271798014,0.3813522734319791
1761231962560091100,5.374091064453125,-0.452644399023056,0.4960092012360692,0.4787424611473456
1761231962570161000,5.384160888671875,-0.48376375990808007,0.38038521849811074,0.5552432978300378
1761231962580230000,5.39422998046875,-0.4615893375009298,0.2966448590159416,0.6196824887864292
1761231962590300000,5.4042998046875,-0.38450142164528367,0.22570202178657053,0.6816854290392249
1761231962600369000,5.414368896484375,-0.27410744851529595,0.17133125691264867,0.7130987313695252
1761231962610439000,5.42443896484375,-0.18197978443801402,0.11295184091925621,0.7241091510098427
1761231962620508000,5.4345078125,-0.07725742720365524,0.022254209645092487,0.6984225557632744
1761231962630577000,5.444576904296875,0.0362941331744194,-0.07917670482844114,0.648492549815774
1761231962640647000,5.45464697265625,0.13930968649089334,-0.1764890780672431,0.602896262223646
1761231962650716000,5.4647158203125,0.2571650815427303,-0.24129531223773956,0.5512521458346397
1761231962660786000,5.474785888671875,0.38292087445557116,-0.2901063971579075,0.5236292487632483
1761231962670855000,5.48485498046875,0.4895107791274786,-0.363646265143156,0.5229238039076328
1761231962680924000,5.494923828125,0.5523562346190214,-0.4234238574966788,0.5384540390599518
1761231962690993700,5.50499365234375,0.5980845510929823,-0.47039019133299587,0.5397642448756843
1761231962701063000,5.51506298828125,0.6482827064573764,-0.48405660537481304,0.516225000388734
1761231962711133000,5.5251328125,0.6492015748679637,-0.5055582430869341,0.508996181646362
1761231962721202000,5.535201904296875,0.620605010458827,-0.5560138803437352,0.4896785734424367
1761231962731271000,5.54527099609375,0.589282235956192,-0.5874640806183219,0.48438474135063586
1761231962741341000,5.5553408203125,0.4977630591660738,-0.6033206981807947,0.4868451401147991
1761231962751410000,5.565409912109375,0.4285281948983669,-0.6627320875704288,0.5194026075115427
1761231962761480000,5.57547998046875,0.3578039688557386,-0.6927201063379645,0.5248745361166075
1761231962771549000,5.585548828125,0.283949043571949,-0.6876674991235137,0.5282588813252747
1761231962781618000,5.595617919921875,0.16458967369794844,-0.646662996301055,0.5455670128703117
1761231962791688000,5.60568798828125,-0.017123568758368492,-0.6151622348830104,0.556454281054996
1761231962801757000,5.6157568359375,-0.129722358456254,-0.6148053842693567,0.5408201106041669
1761231962811827000,5.625826904296875,-0.22016016975045202,-0.6018240298822521,0.5258322021676227
1761231962821896000,5.63589599609375,-0.36770050897002216,-0.6111874860331415,0.5075592807110398
1761231962831965000,5.64596484375,-0.48443537555933,-0.6336351724237204,0.49298192583676426
1761231962842035000,5.656034912109375,-0.5178752883464097,-0.6343120487719773,0.4526557241346687
1761231962852104000,5.66610400390625,-0.5560667795747518,-0.6061003920271992,0.42258243823647496
1761231962862173700,5.676173583984375,-0.6209738437712192,-0.5430775341421366,0.35186073294449594
1761231962872243000,5.686242919921875,-0.6690080990999937,-0.5055819162234664,0.3126733990792185
1761231962882312000,5.69631201171875,-0.6553770486325026,-0.5154182505831122,0.3240893673131242
1761231962892382000,5.7063818359375,-0.5124485871225595,-0.7103630227953195,0.48150410788040604
1761231962902450700,5.71645068359375,-0.5217471613436937,-0.9057976243510841,0.6576237315807492
1761231962912521000,5.72652099609375,-0.7084931372702121,-0.9093325204789638,0.715913204268366
1761231962922590000,5.73658984375,-0.7558914327830075,-0.9217252613231539,0.6491711797297001
1761231962932658200,5.746658203125,-0.8109218306094408,-1.0643281441405414,0.5994343217341229
1761231962942728200,5.756728271484375,-1.0263906276732682,-1.259450026485324,0.5574625813147053
1761231962952797200,5.766797119140625,-1.3994319131493567,-1.1174793040916322,0.3641767187580466
1761231962962867200,5.7768671875,-1.488175780007243,-0.7183785714685916,0.0590906969347503
1761231962972936400,5.7869365234375,-1.3769085311740636,-0.3418149570852518,-0.18591573564745484
1761231962983005200,5.797005126953125,-1.2486825487554072,-0.07513590500503778,-0.2541070639452897
1761231962993075500,5.807075439453125,-0.8967010024428367,0.17132628847658632,-0.16495775809166952
1761231963003144200,5.817144287109375,-0.5498229167491198,0.5273346060872077,-0.12283599647600203
1761231963013214500,5.82721435546875,-0.28549335040450097,0.7619421111240983,-0.021010575392702593
1761231963023283200,5.837283203125,-0.39414018760621544,0.6822779150396585,0.17732867069654165
1761231963033353200,5.847353271484375,-0.33363866489231586,0.534644929100573,0.3363580068536103
1761231963043422200,5.857422119140625,-0.15187164642214773,0.5187070629954338,0.4622798039831221
1761231963053491500,5.867491455078125,-0.02857961327433586,0.44208208847641944,0.4848427142512053
1761231963063561200,5.877561279296875,0.007905074036121368,0.27886545669734475,0.45118331349454815
1761231963073630200,5.887630126953125,0.11622867063283919,0.16812866147905586,0.3632465252358466
1761231963083700200,5.8977001953125,0.24094927527904508,0.2315940024346113,0.24106290998766197
1761231963093769200,5.907769287109375,0.3717857324570417,0.3870648423925042,0.12556643522004596
1761231963103838200,5.917838134765625,0.4954208799540996,0.5632163590684532,0.06150395035524852
1761231963113908200,5.927908203125,0.5534931296944617,0.7638748327523469,0.07243761496492661
1761231963123977200,5.937977294921875,0.5455103142470121,0.88398502099365,0.11801771860723383
1761231963134047200,5.948047119140625,0.49480947005748743,0.8972411006689072,0.14935626606773583
1761231963144116200,5.9581162109375,0.43327100551128384,0.9424766651898622,0.09605366014828905
1761231963154185200,5.968185302734375,0.3873182326316833,1.0580965562745928,-0.03480269132355461
1761231963164255500,5.97825537109375,0.39345571247339245,1.1615452403113244,-0.21610950612016022
1761231963174324200,5.98832421875,0.3624801439732313,1.2376499903485179,-0.3374717037165537
1761231963184394200,5.998394287109375,0.2667103240013122,1.2307830271884799,-0.44630430928133424
1761231963194463200,6.008463134765625,0.25111703355014325,1.173500758782029,-0.5956879017474129
1761231963204532500,6.018532470703125,0.3735264386445284,1.1367989215895533,-0.6751237324360758
1761231963214602200,6.028602294921875,0.4344271898090839,1.1187056310161947,-0.7305981477029622
1761231963224671500,6.03867138671875,0.5015805716276168,1.0388038267835975,-0.7482686828196048
1761231963234741200,6.0487412109375,0.5705518165230751,0.9342454279392957,-0.7465799260150641
1761231963244810200,6.058810302734375,0.625987288019061,0.8424018415004014,-0.7574580245126038
1761231963254879200,6.068879150390625,0.6626227819770574,0.7293877489998937,-0.737893784603849
1761231963264949200,6.07894921875,0.6379594653636217,0.58565849250108,-0.6992856753986328
1761231963275018200,6.089018310546875,0.625252544003725,0.4845467269793153,-0.6812943108297884
1761231963285088300,6.099088134765625,0.6041425359576941,0.423013230869174,-0.6699073860272765
1761231963295157200,6.1091572265625,0.5347036735504865,0.308708806297183,-0.6551409748543053
1761231963305226200,6.119226318359375,0.4794581716686487,0.22565087612122295,-0.6471015338487923
1761231963315296300,6.129296142578125,0.4436123667836189,0.2009732387214899,-0.6642831164047122
1761231963325365200,6.139365234375,0.3779898477941751,0.1854071285381913,-0.6422695836476982
1761231963335435300,6.149435302734375,0.2734352483421564,0.1461924317419529,-0.5424761707155034
1761231963345504300,6.159504150390625,0.15390052190124986,0.10224953738003968,-0.46071606179773805
1761231963355573200,6.1695732421875,0.1661556078404188,0.07065349889397621,-0.41071079865694043
1761231963365643300,6.179643310546875,0.1650187127649784,0.02656184371113777,-0.390777944631502
1761231963375712500,6.18971240234375,0.12306114700138568,-0.04749795649498701,-0.3427233406344428
1761231963385782300,6.1997822265625,0.1219277590572834,-0.08119827378392219,-0.30061690445207057
1761231963395851300,6.209851318359375,0.18324235171973705,-0.10013386040031909,-0.2826527384174056
1761231963405921300,6.21992138671875,0.28869536131620405,-0.14877572623342275,-0.22919793761093168
1761231963415990300,6.229990234375,0.32687223949730393,-0.20982348465323447,-0.18015866995807736
1761231963426059300,6.240059326171875,0.38103403779566286,-0.2618891874551773,-0.10243349737850949
1761231963436129300,6.25012939453125,0.4758253681242466,-0.31449995691925287,-0.011725509107112883
1761231963446198300,6.2601982421875,0.4954448453515768,-0.4022638728290796,0.06534220421072096
1761231963456268300,6.270268310546875,0.463836239644885,-0.45925183446407314,0.12551297886660323
1761231963466337300,6.280337158203125,0.4597048389285803,-0.48418753827810285,0.12545638984115792
1761231963476406300,6.29040625,0.5123603243172169,-0.4569271909087896,0.0941486119782552
1761231963486476300,6.300476318359375,0.5217033222019672,-0.4016612307608127,0.09163772513587028
1761231963496545300,6.310545166015625,0.45830373995900153,-0.41578444865942,0.17776077850349245
1761231963506615000,6.320614990234375,0.39668928756713867,-0.4847375733762979,0.26123859632564705
1761231963516684300,6.330684326171875,0.3537771975576877,-0.5301686604693532,0.2864193244093098
1761231963526753300,6.340753173828125,0.3339841173291206,-0.5367755113884807,0.3065462945010513
1761231963536823300,6.3508232421875,0.31962650615274907,-0.5878820137694478,0.3281537306752056
1761231963546892300,6.360892333984375,0.27598785543441773,-0.6344146323636174,0.332883535676077
1761231963556962300,6.37096240234375,0.2531657827734947,-0.6820759627267718,0.3417466410893947
1761231963567031300,6.38103125,0.2472439915090799,-0.7046443528875708,0.3350108300283551
1761231963577100300,6.391100341796875,0.20140227778851985,-0.7093216970488428,0.3167887254435569
1761231963587170300,6.40117041015625,0.220218037417531,-0.7253887424916029,0.3274835763286799
1761231963597239300,6.4112392578125,0.25107611701786514,-0.7440414205133915,0.3582749839009717
1761231963607309300,6.421309326171875,0.2429185295253992,-0.7669339280620217,0.41053946067802605
1761231963617378300,6.43137841796875,0.23852000230550766,-0.7766542348265647,0.4612765817573294
1761231963627447300,6.441447265625,0.18610358636975288,-0.746770845477283,0.5195096115499734
1761231963637517300,6.451517333984375,0.1726139901995659,-0.7225429976716637,0.5573074272856116
1761231963647586300,6.46158642578125,0.15910510480701923,-0.6971776702687144,0.5967576864033937
1761231963657656300,6.47165625,0.10372107123732566,-0.6769204796597361,0.6286681976661086
1761231963667725300,6.481725341796875,0.02419336101412773,-0.6548992019876837,0.633613545113802
1761231963677794300,6.491794189453125,-0.010295768564939498,-0.5912874382987618,0.6000095643388107
1761231963687864300,6.5018642578125,-0.05350830282568931,-0.5382806552544236,0.566515619809553
1761231963697933300,6.511933349609375,-0.09778817405700684,-0.4846455111786723,0.542268117455393
1761231963708003300,6.52200341796875,-0.1448193898230791,-0.4186477291360497,0.5352526857353747
1761231963718072000,6.532072021484375,-0.20723989790081976,-0.3408788452789187,0.5246322883259504
1761231963728141300,6.542141357421875,-0.22580197502970695,-0.2943392124220729,0.553559728657268
1761231963738211300,6.55221142578125,-0.14468494978845117,-0.3387421255111694,0.7083942069403827
1761231963748280300,6.5622802734375,-0.25359540636241434,-0.41984132283478975,0.8908150131441652
1761231963758350300,6.572350341796875,-0.3924123409003019,-0.46320787861347196,0.9757511582821607
1761231963768419300,6.58241943359375,-0.3490215274631977,-0.5768310429230332,1.040252710417658
1761231963778488300,6.59248828125,-0.6743138042926788,-0.7380851424574851,1.1082942732475698
1761231963788558300,6.602558349609375,-1.25281745660305,-0.6999012500137091,1.1392116818197071
1761231963798627300,6.61262744140625,-1.6031892296314239,-0.550717527501285,1.092686223618686
1761231963808697300,6.622697265625,-1.6318670425832271,-0.3665022390961647,0.9843559780854731
1761231963818766300,6.632766357421875,-1.5216799902021885,-0.2589107561662793,0.8714152430821209
1761231963828835300,6.64283544921875,-1.383720549276471,-0.09346212755143642,0.820088741274923
1761231963838905300,6.6529052734375,-1.2215110487133263,0.2421536826327443,0.8201843106038867
1761231963848974300,6.662974365234375,-1.2930927683681248,0.6862965030312538,0.9386424207892269
1761231963859044400,6.67304443359375,-1.4707634574353694,1.00681411280483,1.2097262836996465
1761231963869113000,6.683113037109375,-1.5962503702789543,1.1501058546692133,1.5062110567830502
1761231963879182300,6.693182373046875,-1.756264991146326,1.234068624730408,1.745003884680569
1761231963889252000,6.703252197265625,-1.8077619541496037,1.359175306084752,1.9545342316061258
1761231963899321300,6.7133212890625,-1.6130916149646042,1.54927877574563,2.0323193359456955
1761231963909391000,6.72339111328125,-1.2819728239387274,1.7600798732593654,2.0725620606154203
1761231963919460400,6.73346044921875,-0.9509382040649652,1.90421771055907,2.135227337234467
1761231963929529000,6.743529052734375,-0.607505290389061,2.0068343276858327,2.256439933759719
1761231963939603000,6.75360302734375,-0.2682189749985933,2.143760918432474,2.373300034163892
1761231963949672000,6.763671875,-0.0872889918744564,2.266238420327008,2.474663436359167
1761231963959742000,6.773741943359375,0.09567571194767951,2.318610997121036,2.5269816526174544
1761231963969811000,6.78381103515625,0.3091571345865726,2.3846385897800326,2.571603176893294
1761231963979880700,6.793880615234375,0.4983195240050554,2.3984070028916,2.6045249110251665
1761231963989950000,6.803949951171875,0.6338607978731393,2.3272680585682393,2.6537740951016544
1761231964000019000,6.81401904296875,0.6928823111623525,2.1865841611146926,2.6544635386705395
1761231964010089000,6.8240888671875,0.6739058080136776,2.0093153308466074,2.6270763500511647
1761231964020157700,6.83415771484375,0.5914648406922817,1.8252558175250886,2.5270436119377613
1761231964030228000,6.84422802734375,0.523410126119852,1.7151365696832537,2.3810639461636542
1761231964040296700,6.854296630859375,0.379532401061058,1.6865256844878196,2.2925147250950335
1761231964050366000,6.864365966796875,0.1209556991547346,1.6658081828907132,2.2850451198667288
1761231964060436000,6.87443603515625,-0.12388240025639534,1.7014701556414364,2.285095096488297
1761231964070505000,6.8845048828125,-0.4098497979134321,1.7936910509601234,2.2859932143718003
1761231964080575000,6.894574951171875,-0.6292126798063516,1.8838830707997083,2.3140753995180128
1761231964090644000,6.90464404296875,-0.786646636530757,2.032055862703919,2.348404954621196
1761231964100713000,6.914712890625,-0.8341939851254224,2.231786992409825,2.3786042780518533
1761231964110783000,6.924782958984375,-0.8762386446505784,2.421133798484504,2.404793489058316
1761231964120852000,6.93485205078125,-0.9025444677740335,2.5566426313877106,2.4090944011226294
1761231964130921700,6.944921630859375,-0.8494728027999401,2.701344240050018,2.3746112628929317
1761231964140991000,6.954990966796875,-0.8170201474845409,2.827014985027909,2.2874515964865685
1761231964151060000,6.96506005859375,-0.8331903610408306,2.91200154517889,2.197501568709314
1761231964161130000,6.9751298828125,-0.8416776188790798,2.9275474893569946,2.1434248183459044
1761231964171198700,6.98519873046875,-0.8720183966070413,2.9079522697880864,2.0669331148177386
1761231964181269000,6.99526904296875,-0.8608078512847424,2.92701498991549,1.9454256269991397
1761231964191337700,7.005337646484375,-0.8878004876285791,2.932287377360463,1.7687094621777533
1761231964201407000,7.015406982421875,-0.9109446318507194,2.8697011573269964,1.622783426287025
1761231964211476700,7.025476806640625,-1.0516495720922947,2.8601407172992825,1.4632906373366712
1761231964221546000,7.0355458984375,-1.1084370427191257,2.8889307584539052,1.2567130027368665
1761231964231616000,7.045615966796875,-1.155087734735012,2.916401241442561,1.0428998639255762
1761231964241685000,7.05568505859375,-1.2416729622542857,2.9206206127032637,0.8535993081454187
1761231964251753700,7.065753662109375,-1.2190811912178992,2.8918849320843814,0.7030980732936412
1761231964261824000,7.075823974609375,-1.1977280220657587,2.874434907850623,0.602879968675971
1761231964271892700,7.085892822265625,-1.1815776822537183,2.8654890925899146,0.5062786663159727
1761231964281962800,7.095962646484375,-1.1529571524471043,2.8741841479599475,0.39182803820632395
1761231964292032000,7.106031982421875,-1.0917845986038446,2.893694611854851,0.24880028104037044
1761231964302101000,7.11610107421875,-1.0079963083267212,2.889178303474188,0.11036745044924318
1761231964312171000,7.1261708984375,-0.9464192653357982,2.8933561736807225,0.014457783615216612
1761231964322240000,7.136239990234375,-0.9490876077622175,2.907167841412127,-0.01908537035062909
1761231964332310000,7.14631005859375,-0.9063017744809388,2.935101850259304,-0.05996442016251385
1761231964342378800,7.156378662109375,-0.7658265513420105,2.9870562016412614,-0.13077018700875342
1761231964352448000,7.166447998046875,-0.6471802981734276,3.0472341914892196,-0.2090063230514526
1761231964362517800,7.176517822265625,-0.5544371325463057,3.064577832739055,-0.2547846161469817
1761231964372587000,7.1865869140625,-0.4136784162908792,3.0454440932020543,-0.27660642572417854
1761231964382656800,7.19665673828125,-0.3220370744258165,3.0242391003489493,-0.2646704887367785
1761231964392726000,7.20672607421875,-0.2814332613587379,2.961838466015458,-0.21469050616770982
1761231964402794800,7.216794677734375,-0.23781273081898688,2.8604747715592382,-0.10372998519614338
1761231964412865000,7.226864990234375,-0.15766075121760367,2.8206267452955243,-0.0002614274151623249
1761231964422933800,7.236933837890625,-0.13124503797888756,2.768832260650396,0.06646086950972675
1761231964433003800,7.247003662109375,-0.10061959809064865,2.6659260129272937,0.17889950020983814
1761231964443072800,7.25707275390625,-0.03490940081775188,2.5434572788611054,0.2768620809856802
1761231964453142000,7.26714208984375,-0.033763737913966176,2.488855920101702,0.36163185658082364
1761231964463212000,7.2772119140625,-0.018365677773952482,2.431461715753376,0.46816513569466767
1761231964473281000,7.287281005859375,-0.009902969855070113,2.3727757180288434,0.5429171559486538
1761231964483351000,7.29735107421875,-0.06568272474408149,2.352788868793845,0.5622646113015711
1761231964493419800,7.307419677734375,-0.11781973921656608,2.2748151100143787,0.5751368792910129
1761231964503489000,7.317489013671875,-0.14885551347136497,2.1586445993095635,0.5462148823197931
1761231964513558800,7.327558837890625,-0.26306758358478544,2.052339649058878,0.501628429357335
1761231964523628000,7.3376279296875,-0.35090018081665036,1.8616542878568172,0.4374816089436412
1761231964533697800,7.34769775390625,-0.477706359565258,1.6583736489757894,0.3351579103488475
1761231964543767000,7.35776708984375,-0.5448889674782753,1.5144991387873887,0.2238013757970184
1761231964553835800,7.367835693359375,-0.5465414108604193,1.4045833045631646,0.13366057468801737
1761231964563906000,7.377906005859375,-0.5774065047234297,1.3167103753209113,0.012935761679708956
1761231964573974800,7.387974853515625,-0.6779220579177141,1.1936921906784177,-0.06356799761243165
1761231964584045000,7.398045166015625,-0.7828367228537797,1.0820189913928508,-0.10334441994465887
1761231964594113800,7.40811376953125,-0.848169318985939,1.0597630281820893,-0.17311828645989297
1761231964604183000,7.41818310546875,-0.8844616985946894,1.0207163814291358,-0.17853022850602865
1761231964614252800,7.428252685546875,-0.9468804531067609,0.9307374198183417,-0.1320871878914535
1761231964624322000,7.438322021484375,-1.0181021072775125,0.8211576856806874,-0.05512450585067272
1761231964634392000,7.44839208984375,-1.0435796628832816,0.7060501280322671,-0.0071918112002313135
1761231964644460800,7.458460693359375,-1.0964385618895292,0.5960659047469496,-0.08124379342608154
1761231964654531000,7.468531005859375,-1.1033645617604255,0.5159907897740602,-0.2526028151284903
1761231964664599800,7.478599853515625,-1.090620230999589,0.5193634810775518,-0.4466079684030264
1761231964674668800,7.488668701171875,-1.0889572662234306,0.5502586778178811,-0.6201148157890886
1761231964684738800,7.49873876953125,-1.0120265867561102,0.5734694575354456,-0.7605966878645122
1761231964694808000,7.50880810546875,-0.8408271395295858,0.6372822967544197,-0.8932824992362409
1761231964704877800,7.5188779296875,-0.6216781926482916,0.6955573755905031,-0.9335336994733661
1761231964714947000,7.528947021484375,-0.44782969221770763,0.6149769414439797,-0.8825483392540365
1761231964725015800,7.539015869140625,-0.3178513131737709,0.4363786161378026,-0.7862827716544271
1761231964735086000,7.549086181640625,-0.20919453909993171,0.2553469262048602,-0.6609724574867636
1761231964745154800,7.55915478515625,-0.1254120940417051,0.11738602397441864,-0.5665889042414725
1761231964755224800,7.569224853515625,-0.013497779476642607,-0.017773557099699973,-0.4977450851179659
1761231964765293800,7.5792939453125,0.031524434554576874,-0.14172463867813348,-0.48326625871472056
1761231964775363000,7.589363037109375,0.028794132807850835,-0.26595979789495466,-0.4215403818376362
1761231964785432800,7.599432861328125,0.11436989102363586,-0.348698286858201,-0.3809711286272853
1761231964795501800,7.609501708984375,0.17209610380530357,-0.4137181637793779,-0.34117399230059237
1761231964805571800,7.61957177734375,0.17541209648549555,-0.45729660874307154,-0.31091793371401727
1761231964815640800,7.629640869140625,0.12469196307361126,-0.5165934318423271,-0.29125136594194917
1761231964825709800,7.639709716796875,0.03531739709675312,-0.5492375180765986,-0.31465511094834653
1761231964835779800,7.64977978515625,-0.06816869634091853,-0.6044625616922974,-0.31227815268393605
1761231964845848800,7.659848876953125,-0.1811538550078869,-0.6932818318739533,-0.29059023515209553
1761231964855918800,7.6699189453125,-0.2678261762887239,-0.7533341495156287,-0.297210950199794
1761231964865988000,7.679988037109375,-0.373575538483262,-0.7746975478008389,-0.3441648812122643
1761231964876056800,7.690056884765625,-0.511248563683033,-0.8227049151226877,-0.39540319327935575
1761231964886127000,7.700127197265625,-0.5915864212453364,-0.8401727672740816,-0.4562925827996805
1761231964896195800,7.71019580078125,-0.613238281083107,-0.8215642206549644,-0.47214693533983076
1761231964906265900,7.720265869140625,-0.6355711089223622,-0.8232613799616694,-0.4655188955022022
1761231964916334800,7.7303349609375,-0.6786591400206089,-0.7650967757627367,-0.4697638030629605
1761231964926404000,7.740404052734375,-0.7046960830748081,-0.6487433097064494,-0.5039075532704591
1761231964936471000,7.750470947265625,-0.6865268046557903,-0.5721393779754639,-0.5259241547673941
1761231964946540000,7.7605400390625,-0.6267004047244786,-0.48699850404560563,-0.5078623918434605
1761231964956610000,7.770610107421875,-0.6045756666779518,-0.3624234453499317,-0.4840959144718945
1761231964966679000,7.780678955078125,-0.5742454103440046,-0.23432021252810953,-0.4420495013810694
1761231964976748000,7.790748046875,-0.5128782107114792,-0.09535743977874517,-0.40545587380342185
1761231964986818000,7.800818115234375,-0.4423363554984331,0.014847732780873774,-0.3788659730415791
1761231964996887000,7.810886962890625,-0.36035482238233085,0.08031359990388154,-0.3648085503881797
1761231965006957000,7.82095703125,-0.2835281878113746,0.12192220609933137,-0.39302353160120546
1761231965017026000,7.831026123046875,-0.20567688636779785,0.16450608706772327,-0.40876682498231526
1761231965027095000,7.841094970703125,-0.11845686807632445,0.22004823380857705,-0.43069881693571804
1761231965037164800,7.851164794921875,0.0218722245901823,0.2511936059176922,-0.39879309144597497
1761231965047234000,7.861234130859375,0.1340747084468603,0.262009014442563,-0.3486536439988762
1761231965057304000,7.871303955078125,0.19421441211104393,0.2805404041722417,-0.26715976653555407
1761231965067373000,7.881373046875,0.2795090152978897,0.32600890066623683,-0.2212672176769003
1761231965077442000,7.891442138671875,0.33427404018640516,0.4033122128382325,-0.18765545545425266
1761231965087512000,7.901511962890625,0.3283347132652998,0.46471857543736694,-0.18160393686294554
1761231965097581000,7.9115810546875,0.2872077531069517,0.4848521396666765,-0.21596719330633057
1761231965107651000,7.921651123046875,0.22849428285360335,0.5030003752976656,-0.2915471705507487
1761231965117720000,7.931719970703125,0.20822131015360354,0.5195967053115368,-0.39324769574590024
1761231965127789000,7.9417890625,0.19666122074127196,0.5945832649737596,-0.5207210331663489
1761231965137859000,7.951859130859375,0.20101824690699577,0.6948103566154837,-0.6633624944284557
1761231965147928000,7.961927978515625,0.21440438270270823,0.751953508812189,-0.7376422209955752
1761231965157998000,7.971998046875,0.17307985414564608,0.7682198762193322,-0.7557213369131088
1761231965168067000,7.982067138671875,0.15933949808478354,0.7736410244852304,-0.7284175887934863
1761231965178136000,7.992135986328125,0.13565350207090376,0.7578419823288917,-0.6532027733333409
1761231965188206000,8.0022060546875,0.10957564248442649,0.7869649086996913,-0.5937240543285385
1761231965198275000,8.012275146484376,0.08971008154153823,0.8398246844887733,-0.5544924063974991
1761231965208344800,8.0223447265625,0.08768354414999484,0.8830848572835326,-0.5397722089864313
1761231965218414000,8.0324140625,0.05116378552615642,0.8780427714630961,-0.5505099856978282
1761231965228483000,8.042483154296875,0.0542582444101572,0.8440130760893225,-0.5614485456783325
1761231965238553000,8.052552978515624,0.10448679491281508,0.832048205268383,-0.5799385074190795
1761231965248621800,8.062621826171876,0.12513503066599369,0.7973138687565923,-0.5981813625309615
1761231965258692000,8.072692138671876,0.1718891830563545,0.720222445769608,-0.5910690828403458
1761231965268760800,8.0827607421875,0.17155132940411566,0.6528238570183515,-0.5762107556002214
1761231965278830000,8.092830078125,0.20084990460276603,0.5996078151375055,-0.5436443742446601
1761231965288900000,8.102900146484375,0.2585404615491628,0.5498983200728893,-0.535749090950191
1761231965298969000,8.112968994140624,0.27742344119548795,0.519555204257369,-0.5410539924252779
1761231965309039000,8.1230390625,0.3337532311826944,0.47351416857242584,-0.5552176884647458
1761231965319108000,8.133108154296876,0.30173195302188394,0.40164778675734997,-0.5355485268767923
1761231965329177000,8.143177001953125,0.27214813114106656,0.3512845039591193,-0.5255505722146481
1761231965339247000,8.1532470703125,0.25737141776978967,0.35578152311742306,-0.5035778098594397
1761231965349316000,8.163316162109375,0.21265958486199377,0.34941432617306706,-0.4615125459376722
1761231965359385900,8.1733857421875,0.149942724186182,0.33038141666203735,-0.4345632738115266
1761231965369455000,8.183455078125,0.06800561473369598,0.314484759350121,-0.443368073166348
1761231965379524000,8.193524169921876,0.05411036037206649,0.26909020487517116,-0.46367472894024103
1761231965389594000,8.203593994140626,0.0266390006005764,0.2409635960653424,-0.47249308189637956
1761231965399662800,8.213662841796875,-0.025439561682939527,0.15369740054458378,-0.4607192036028951
1761231965409733000,8.223733154296875,-0.003927402576804161,0.06134001936465502,-0.4594006318176165
1761231965419801900,8.2338017578125,0.009499065229296683,0.001501344473659992,-0.44200054767280816
1761231965429871000,8.24387109375,-0.030322657549381255,-0.07218611528873443,-0.4313726976092905
1761231965439940900,8.25394091796875,0.011783376774191856,-0.15006664282679558,-0.4201968582741916
1761231965450010000,8.264010009765625,0.03555997368097305,-0.23400690879523753,-0.4117000288899988
1761231965460080000,8.274080078125,0.052607554593682285,-0.31016923423856496,-0.3771380532704294
1761231965470149000,8.284149169921875,0.11544365773499012,-0.3831982300922274,-0.33389234739243984
1761231965480217900,8.2942177734375,0.20181670380830763,-0.43982817206978797,-0.27357770728645847
1761231965490288000,8.3042880859375,0.23388299015462397,-0.4980509361967444,-0.22955656005656344
1761231965500356900,8.31435693359375,0.2844932334512472,-0.5306757332086562,-0.19955345331775023
1761231965510427000,8.324427001953126,0.32057109352648255,-0.541957590201497,-0.1829646672895178
1761231965520496000,8.33449609375,0.35148528722822664,-0.5287947417676448,-0.16352529586944728
1761231965530565000,8.344565185546875,0.3250917858213186,-0.5168535440832376,-0.08751363094318658
1761231965540635100,8.35463525390625,0.35883097381591794,-0.5260723310664296,-0.017059527078829705
1761231965550704000,8.3647041015625,0.35589784297347066,-0.5632900088265538,0.0027115422473289073
1761231965560774100,8.374774169921874,0.4128478106856346,-0.589521013148129,0.015658373310323805
1761231965570843000,8.3848427734375,0.3588765665233135,-0.5639455501258372,0.008445318392664193
1761231965580912000,8.394912109375,0.33582711484730243,-0.5742988940969109,0.01254767567757517
1761231965590982000,8.40498193359375,0.35998949620127674,-0.5831298508062959,0.010710578177217394
1761231965601051100,8.415051025390625,0.3384001802057028,-0.5721592517197132,-0.03273185584926978
1761231965611121000,8.425120849609375,0.30859950070381165,-0.5672027983561158,-0.033133550251647825
1761231965621190100,8.435190185546874,0.3286006707251072,-0.6001128420501947,-0.06398739206828176
1761231965631259000,8.4452587890625,0.3528811255007982,-0.585432867051661,-0.1015043815685436
1761231965641329200,8.4553291015625,0.3207470346152782,-0.6463175438642501,-0.11140768021717667
1761231965651398000,8.46539794921875,0.2511608726918697,-0.7424512287124991,-0.07839644117094575
1761231965661468000,8.475468017578125,0.18758593388199804,-0.7733323969274759,-0.06468883660221472
1761231965671537000,8.485536865234375,0.2072691239953041,-0.7457800808742642,-0.08187493093647062
1761231965681606100,8.495606201171874,0.24541677608191967,-0.7476295081332326,-0.12051060400204733
1761231965691676200,8.50567626953125,0.2573492059379816,-0.7433566531196236,-0.14112185047939418
1761231965701745200,8.5157451171875,0.2140694516599178,-0.7635629903241992,-0.1732928575755097
1761231965711815200,8.525815185546875,0.2053951468169689,-0.8198755369156598,-0.1832224414428696
1761231965721884000,8.5358837890625,0.20730945600569248,-0.8418921384125947,-0.17724292864184826
1761231965731953200,8.545953125,0.23134850324094294,-0.8009045867249369,-0.22210721216499804
1761231965742023000,8.55602294921875,0.2113859116643667,-0.7396554605141281,-0.23774450615467502
1761231965752092200,8.566092041015626,0.054037879657745355,-0.7162576337918639,-0.2544070880714804
1761231965762162000,8.576161865234376,-0.04317337129414081,-0.735405401854217,-0.27317710886262353
1761231965772231200,8.586231201171875,-0.001685176607966423,-0.692025402072072,-0.3358205024434253
1761231965782300000,8.5962998046875,-0.05560147571265697,-0.7064598778769373,-0.33562947338335214
1761231965792370200,8.6063701171875,0.015585691666603087,-0.8069909209012984,-0.2825734443698078
1761231965802439000,8.61643896484375,0.08269289625585079,-1.0232125821590423,-0.13592932333759963
1761231965812509200,8.62650927734375,-0.178242351475358,-1.214937515541911,-0.011349003944918513
1761231965822578000,8.636577880859376,-0.3303162424713373,-1.2134294490665196,0.057973209812678395
1761231965832647200,8.646647216796875,-0.3590150982111692,-1.2166133397996426,-0.007802125118300318
1761231965842717000,8.656717041015625,-0.41174774048924445,-1.2882549729481338,-0.013088358425535261
1761231965852786200,8.6667861328125,-0.6386264048397541,-1.2920599181890486,-0.018801621505804358
1761231965862856000,8.67685595703125,-0.831039320486784,-1.0946861652642488,-0.06738569273706525
1761231965872925000,8.686925048828124,-0.8450953183680773,-0.7775240033984184,-0.1154577227929607
1761231965882994000,8.696993896484376,-0.809061881956458,-0.48898149455636736,-0.12034454498644917
1761231965893064000,8.70706396484375,-0.8405453999787569,-0.1824015169814229,-0.05365377571098506
1761231965903133000,8.7171328125,-0.8855997627139091,0.13400953425616025,0.04437142197228968
1761231965913203000,8.727202880859375,-0.7896428957372903,0.43460839159488673,0.07826700610499829
1761231965923272200,8.737272216796875,-0.7483072612643241,0.6358434961229562,0.08365330225322395
1761231965933340400,8.74734033203125,-0.684336016613245,0.700787092937529,0.07572112101446837
1761231965943410400,8.757410400390626,-0.5692834040224551,0.6571773760527372,0.1103939000647515
1761231965953479200,8.767479248046875,-0.5016852010458708,0.6392673330917954,0.18363927861545234
1761231965963549400,8.777549560546875,-0.34518180316984653,0.6281909355431795,0.20171021122653035
1761231965973618400,8.787618408203125,-0.16417641672194003,0.5983899637803435,0.20888375611770896
1761231965983687400,8.7976875,0.006039864686131477,0.6138999598622322,0.22656959840133784
1761231965993757400,8.80775732421875,0.17224515688717365,0.5941799448698759,0.2327579316474497
1761231966003826400,8.817826416015626,0.31428046894967554,0.5413900194466114,0.22652488247677682
1761231966013896400,8.827896484375,0.37382746741771694,0.5826499583348631,0.23521350810602307
1761231966023965400,8.83796533203125,0.26804712556302546,0.6107943950623274,0.22839688689373433
1761231966034034400,8.848034423828125,0.16112988863289354,0.6047396250680088,0.2528755676552653
1761231966044104400,8.8581044921875,0.11245616635680197,0.6964844273075461,0.2795589919194579
1761231966054173400,8.86817333984375,0.07476561038792133,0.8562754685521126,0.19805881257951258
1761231966064243200,8.8782431640625,0.10967442668378352,0.9221300427317619,0.1093704753011465
1761231966074312400,8.8883125,0.08282967437803745,0.9315943289086223,0.009794760240241885
1761231966084381400,8.89838134765625,0.05359481206536293,0.9541218025371432,-0.04934826053678989
1761231966094451500,8.908451416015625,0.11971592822670936,0.9330720002457499,-0.0496413251992315
1761231966104520400,8.9185205078125,0.1529635333120823,0.9210337719276547,0.0685397581430152
1761231966114590500,8.928590576171874,0.12806523889899252,0.9356409739509224,0.2250300408091396
1761231966124659200,8.9386591796875,0.10211655865013598,0.9949611779257654,0.3853225287698209
1761231966134728400,8.948728515625,0.06292495046854019,1.0642401735961438,0.5551815942380577
1761231966144798500,8.958798583984375,0.050073067680001256,1.094902438363433,0.6733367759540677
1761231966154867500,8.968867431640625,0.07695990556180476,1.1586962806209922,0.8247892471160739
1761231966164937500,8.9789375,0.06348141530752181,1.2156979785203934,0.9515488102439791
1761231966175006500,8.98900634765625,-0.07826923459470271,1.207929098084569,1.0147282469302414
1761231966185075500,8.999075439453126,0.009614800563454628,1.142637126223743,1.0808489247001707
1761231966195145500,9.0091455078125,-0.012416998502612114,1.1574746298715473,1.1209162928029894
1761231966205214500,9.01921435546875,-0.0808364547342062,1.0994777834549545,1.1141405881229787
1761231966215284200,9.0292841796875,0.026305238601565358,1.0038853658765554,1.0016870521146803
1761231966225353500,9.039353515625,0.05465630381703376,0.9043740212887525,0.8606948193643241
1761231966235422500,9.04942236328125,0.02188800668120384,0.7754641482591629,0.6777443632632494
1761231966245492500,9.059492431640624,-0.08021043179035187,0.6499798657640814,0.4914484691917896
1761231966255561500,9.0695615234375,-0.10851999595165251,0.605677490440011,0.35844968288075174
1761231966265631500,9.079631591796876,-0.11041150878667831,0.6870695332303642,0.2402972776437178
1761231966275700200,9.0897001953125,-0.14172668450474737,0.7733949407696723,0.1376386114735156
1761231966285769500,9.09976953125,-0.10613690020740031,0.7772288198441266,0.12371350996289401
1761231966295839200,9.109839111328125,0.23472996237277982,0.9755947986766695,0.27327026703879237
1761231966305908500,9.119908447265624,-0.8796142585635185,0.9876318579509854,0.6608247926443814
1761231966315978200,9.129978271484376,-0.6324018312364816,0.6269935424521565,0.4622904715076089
1761231966326047500,9.140047607421875,-0.4166507100999355,0.4387751558855176,0.22745182459596544
1761231966336116200,9.1501162109375,-0.37488311395049095,0.31432635391801594,0.17295725067928433
1761231966346186500,9.1601865234375,-0.25833997054100033,0.1553933908075094,0.11743497768267988
1761231966356255200,9.170255126953125,-0.1449327870696783,-0.04256079235374927,-0.04038768609836697
1761231966366325500,9.180325439453124,-0.03576864799559116,-0.14646101955026386,-0.13814444210380314
