time,seconds_elapsed,z,y,x
1761820751242140700,0.081140625,-0.007210662031173706,0.0019036233979277313,0.018336369481077416
1761820751252211700,0.091211669921875,-0.013044775012135504,0.0030495054974220693,0.016918593371333553
1761820751262282000,0.101281982421875,-0.004664484679698944,0.0039919922456145285,0.009295925606321543
1761820751272352000,0.11135205078125,-0.0001765256106853485,0.002835406089015305,0.021804757977696133
1761820751282422800,0.1214228515625,-0.016635492980480192,0.0005290836417116225,0.013888641957752405
1761820751292492800,0.131492919921875,-0.00466506920158863,-0.0012801760036498307,0.011712677025003358
1761820751302563000,0.14156298828125,-0.005862170031666755,0.0035028022228740154,0.012143405725620686
1761820751312633900,0.1516337890625,-0.005863339075446129,0.004242551206890493,0.01832782084844075
1761820751322704000,0.161703857421875,-0.0006236848562955855,0.007212013738043606,0.00903559416970238
1761820751332775000,0.17177490234375,-0.001969254246354103,0.0104686043811962,0.017737472006166353
1761820751342845000,0.181844970703125,-0.001821370208263397,0.001542206207010895,0.01967484241006896
1761820751352914700,0.191914794921875,-0.0015232640445232391,0.004671352811902761,0.015636755133559926
1761820751362985700,0.20198583984375,-0.009602525603771209,0.0020926979629322887,0.013867717900732532
1761820751373056000,0.212055908203125,-0.007205985856056213,0.0005509849462658167,0.007829378451406955
1761820751383125800,0.222125732421875,0.0019224924951791761,-0.003900825097132474,0.017539090756699443
1761820751393196800,0.23219677734375,-0.004957914668321609,0.0069658386909402905,0.02396940693198703
1761820751403266800,0.242266845703125,-0.007351531806588173,0.0041814321368001395,0.01765319125619717
1761820751413337900,0.252337890625,-0.014086977541446685,0.004988876062165946,0.016571186439460144
1761820751423407900,0.262407958984375,0.00012274959683418273,0.008173077322542667,0.012117440167302264
1761820751433478000,0.272477783203125,-0.012895721930265426,0.002755691916309297,0.003238908855989575
1761820751443549000,0.282548828125,-0.016192425388097762,-0.0013171470131725072,0.014171979810623452
1761820751453619000,0.292618896484375,-0.002876432219147682,0.003050199617166072,0.01513259587055072
1761820751463689200,0.302689208984375,-0.013652677777409552,0.008509926327783614,0.012834776390111073
1761820751473760300,0.31276025390625,-0.013652093255519866,0.007290120475552976,0.011773430768912657
1761820751483830000,0.322830078125,-0.0016787468671798705,0.0037614166264422237,0.014499229870457202
1761820751493901000,0.332901123046875,-0.006019406419992447,-0.00023713322412222622,0.00877936351946555
1761820751503971000,0.34297119140625,-0.010510288098454475,0.0026265308449976146,0.01305122301923111
1761820751514040800,0.353040771484375,-0.0018313070803880691,0.005029025409463793,0.005276287301955744
1761820751524112000,0.36311181640625,-0.015298691418766974,0.009073825554549693,0.009914103170437737
1761820751534182100,0.37318212890625,-0.016941197928786275,0.0005827317913994193,0.012386840826366097
1761820751544252000,0.383251953125,-0.009162380620837211,0.00020180618241429326,0.01217549963062629
1761820751554323000,0.393322998046875,-0.009463409394025802,-0.0028616365088149904,0.016349798773741347
1761820751564393000,0.40339306640625,-0.0075169515013694755,0.0026482677527703345,0.016998745935456826
1761820751574464000,0.413464111328125,-0.011411036330461501,0.007788955109473318,0.00920908757308498
1761820751584534000,0.423533935546875,-0.007521627676486968,0.007231978813838213,0.007213045784505084
1761820751594604000,0.43360400390625,-0.01455342600941658,0.006127433371730148,0.014698460503295064
1761820751604675000,0.443675048828125,-0.00976502268910408,0.0068489525793120265,0.02064226267011836
1761820751614745000,0.4537451171875,-0.008566168293356895,0.004226385523378849,0.016428964957175777
1761820751624815000,0.463815185546875,-0.015297522374987601,0.000535568181425333,0.02065701271467842
1761820751634886100,0.47388623046875,-0.0075169515013694755,0.007572682010289281,0.008020928101288155
1761820751644956200,0.4839560546875,-0.006021744507551193,0.0024199206233024594,0.014553508207807316
1761820751655026000,0.49402587890625,-0.003928571620583534,0.005524279846809804,0.011200708914874121
1761820751665097000,0.504096923828125,-0.0036339725881814953,0.004505385127849876,0.013363786966586485
1761820751675167000,0.5141669921875,0.0033960721790790554,0.005177402637898921,0.0015890592897310851
1761820751685238000,0.524238037109375,-0.007075052952766418,0.0017686536403372882,0.00854284221669659
1761820751695308000,0.53430810546875,0.002351531562209129,-0.002345357549749315,0.007794946458842605
1761820751705378000,0.5443779296875,-0.0048322424620389935,0.008382080430723726,0.010996546378592029
1761820751715449000,0.554448974609375,0.007287818920612334,0.0027384119879454373,0.008967314706463366
1761820751725518800,0.564518798828125,-0.0019879589468240737,0.002353029399551451,0.007418486962420865
1761820751735589000,0.574589111328125,-0.00767535693347454,0.006936886591091752,0.010207505759596823
1761820751745660200,0.58466015625,-0.0033376199901103973,0.0027400742220692336,0.013903565532248467
1761820751755730200,0.594730224609375,-0.021595161214470863,-0.0027252419791184363,0.01869704688647762
1761820751765801000,0.604801025390625,-0.011724924585223197,0.005953391979075968,0.012352819825755432
1761820751775871000,0.61487109375,-0.005889642560482025,0.010610935461334884,0.015206108631333336
1761820751785941200,0.624941162109375,-0.009327215793728827,0.0020240349072031677,0.017552607825398445
1761820751796012000,0.635011962890625,0.0030979660153388974,0.009490699259750544,0.016620724669611082
1761820751806082000,0.64508203125,-0.0012397709280252457,0.007646989355515688,0.010980234564607963
1761820751816152000,0.655152099609375,0.0011567688196897506,0.0015806750538758932,0.012067299148952588
1761820751826223000,0.66522314453125,-0.0001958148330450058,0.0037139972881413993,0.022133770736353472
1761820751836292900,0.67529296875,-0.002594108146429062,0.007090743712242692,0.013438596635311842
1761820751846364000,0.685364013671875,-0.0009492635488510131,0.010582366953976451,0.00486961533036083
1761820751856434200,0.69543408203125,-0.002746083837747574,0.003795903417933732,0.009775105691701173
1761820751866504000,0.70550390625,-0.007833177843689918,0.004350779088027775,0.016946805685665457
1761820751876575000,0.715574951171875,-0.01412204885482788,0.008831687361747026,0.015683361621107905
1761820751886645000,0.72564501953125,-0.0040974984467029565,0.008546458945889025,0.015141181035805492
1761820751896715000,0.735715087890625,-0.013075170150399208,0.003220112823974341,0.0047208453762810675
1761820751906786000,0.7457861328125,0.007871171766519545,0.0030194939516484734,0.013691612415155395
1761820751916856000,0.75585595703125,-0.006046878948807716,0.006756050131469965,0.010990399765595793
1761820751926926000,0.765926025390625,-0.007546177595853805,0.006824366127327084,0.014622500057099386
1761820751936996900,0.775996826171875,-0.009040215545892715,0.007929441292397678,0.009718306603701784
1761820751947067100,0.786067138671875,-0.013978840991854667,0.001961363200843334,0.008216432407079264
1761820751957138200,0.79613818359375,-0.009640519526600838,0.0032325156478211284,0.009127866429882123
1761820751967208200,0.806208251953125,-0.002011924344301224,0.004372570794727653,-0.0017065390564035623
1761820751977278000,0.81627783203125,-0.001712064614892006,-0.003573657235689461,0.015539231309527531
1761820751987349000,0.826348876953125,-0.0027560207098722457,-0.0015763276723213494,0.011117277548275887
1761820751997419000,0.8364189453125,-0.0051554830670356745,0.006258201878238469,0.015102584324777126
1761820752007489000,0.846489013671875,-0.006200608205795288,0.009942333751078695,0.02192186328503303
1761820752017560000,0.85656005859375,-0.015483400335907935,0.0038193390924483534,0.01734835395757109
1761820752027630000,0.866630126953125,-0.005309212324023246,0.005791059290524572,0.01757990682427771
1761820752037701000,0.876701171875,-0.007104863569140434,-0.0007511471608653665,0.017379589346051216
1761820752047771000,0.88677099609375,-0.005911269870400428,-0.0007699797254987061,0.010417111655976623
1761820752057841200,0.896841064453125,-0.01234568683207035,-0.0026444318278692662,0.009118724142201244
1761820752067912200,0.906912109375,-0.0147398884922266,0.0025674393352121115,0.004998146214010193
1761820752077982000,0.91698193359375,-0.005911269870400428,-0.004290609866008163,0.00324565825718455
1761820752088052000,0.927052001953125,-0.01429156020283699,0.006356511153560131,0.010138559576077386
1761820752098123000,0.937123046875,0.0051566521108150475,0.005001114489231258,0.009719146853918208
1761820752108193000,0.947193115234375,0.007252163085341453,0.002259158837329596,0.01221131072952412
1761820752118264000,0.95726416015625,0.0038122517645359038,0.0017599954098463056,0.011076233151834458
1761820752128334000,0.967333984375,-0.015789105284214018,0.00024602891663089393,0.01309669699561782
1761820752138404000,0.977404052734375,-0.014890695139765738,0.010960991008020936,0.013923430143343284
1761820752148475000,0.987474853515625,-0.0033697686940431593,0.009544183012656866,0.016371544814668595
1761820752158545000,0.997544921875,-0.0006792144358158111,0.00458135470720008,0.0123308363228105
1761820752168615200,1.007615234375,-0.002477203768491745,0.006502806022763252,0.00666100139231421
1761820752178686200,1.017686279296875,-0.007264438045024872,0.00342756329588592,0.009612033217633143
1761820752188756000,1.027755859375,-0.0006803834795951843,-0.0018404767675325273,0.02033585446891375
1761820752198826000,1.037825927734375,-0.0015741174489259718,0.0048048064658418295,0.018114625622332094
1761820752208897000,1.04789697265625,0.0005213935256004333,0.008953267914801836,0.00657050096411258
1761820752218967000,1.057967041015625,0.00336626156270504,0.006951773632969707,0.010316482559405267
1761820752229038000,1.0680380859375,-0.013837386694550513,0.0036622671009041365,0.014045960544468834
1761820752239108000,1.078108154296875,-0.010849310794472693,0.015295787075627594,0.010716112868860364
1761820752249177900,1.088177734375,-0.010398644417524337,0.002018427150323987,0.010666894299117848
1761820752259249000,1.098248779296875,-0.00665536623597145,0.002083601341024041,0.00830902432766743
1761820752269319200,1.108319091796875,-0.00036941783428192136,0.010055256073642521,0.010837812152924016
1761820752279389200,1.11838916015625,-0.004559270739555359,0.005063968858681619,0.006120510440599173
1761820752289460000,1.1284599609375,-0.015031564915180205,0.0069709349911659954,0.004584039854630828
1761820752299530000,1.138530029296875,-0.0006704466074705124,-0.001059464191365987,0.015527760067442432
1761820752309601000,1.14860107421875,-0.010847557228803635,0.0026993403528816997,0.01455868670642376
1761820752319671000,1.158671142578125,-0.0050075990289449685,0.002588116797059774,0.013750484729232265
1761820752329741000,1.168740966796875,-0.012038228318095206,0.006515428042318671,0.014934461216256021
1761820752339812000,1.17881201171875,0.007864742025732993,0.0010865713940002024,0.013309846555953844
1761820752349882000,1.188882080078125,-0.0008165770798921585,0.007086378064379096,0.006557833278784528
1761820752359952000,1.198951904296875,-0.009793664261698722,0.0034787089612334965,0.010089231408480554
1761820752370023000,1.20902294921875,0.005020458510518073,0.0001692190870642662,0.01125818385630846
1761820752380093200,1.21909326171875,-0.013382628664374351,0.008160528368223459,0.010069147601677104
1761820752390164200,1.229164306640625,-0.015323825860023498,0.004838745268061757,0.011514651968562975
1761820752400234000,1.23923388671875,-0.01173135432600975,0.0024491101851686833,0.010438090511923655
1761820752410304000,1.249303955078125,-0.002599368843436241,-0.006084489279147237,0.009457518509356305
1761820752420375000,1.259375,0.000993102690577507,0.003955496160127222,0.003132745067775249
1761820752430445000,1.269445068359375,-0.0076864628493785855,0.007149981352500617,0.00408526915279217
1761820752440515000,1.27951513671875,-0.0003577273964881897,0.008760138229187578,0.010703755710786208
1761820752450587000,1.2895869140625,-0.003949029886722564,0.012172175162378698,0.014263503152132033
1761820752460656600,1.29965673828125,-0.0026017069309949873,0.006361095997132361,0.0170296159977559
1761820752470726700,1.3097265625,-0.010080664509534836,0.002912307250127196,0.017426652491325512
1761820752480797700,1.319797607421875,-0.012622165685892105,0.005876271622255444,0.012200460541946814
1761820752490868000,1.329867919921875,-0.011124036082625388,0.004467409471329301,0.008941330881835892
1761820752500938800,1.339938720703125,-0.0010971475869417189,0.006675477442238479,0.018805311300233007
1761820752511008800,1.3500087890625,-0.00902910962998867,0.0032424525199458002,0.013355420997040346
1761820752521078800,1.360078857421875,0.008927987343072891,0.0005996098609641194,0.014825840609474106
1761820752531149600,1.370149658203125,-0.00035129765570163723,0.0017015432208776474,0.013917274397192522
1761820752541219600,1.380219482421875,-0.008432312780618668,0.004118449903186411,0.010601190385455265
1761820752551289900,1.390289794921875,0.005630699363350868,0.010619191833026707,0.013505643122689797
1761820752561361000,1.40036083984375,0.002338087558746338,0.0031087248713709413,0.012815185773652047
1761820752571430700,1.4104306640625,-0.00005319149196147918,0.0030830241745337843,0.018391962992679325
1761820752581501700,1.420501708984375,-0.0034907647252082822,0.005525960347242653,0.015390424822829664
1761820752591571700,1.43057177734375,-0.002741407662630081,0.005354859830345958,0.0036181265650782734
1761820752601641700,1.440641845703125,-0.0006418050348758697,0.004637066949810833,0.009898275413643569
1761820752611712800,1.450712646484375,-0.010815993046760558,0.007684800615254789,0.020451854664552956
1761820752621782800,1.46078271484375,-0.016648352462053297,0.008027440040465444,0.01516530169690959
1761820752631852500,1.4708525390625,-0.008415361645817757,0.0010012859970331192,0.004065870332578197
1761820752641923600,1.480923583984375,-0.009315525355935095,0.003453263992723077,0.01296633034790866
1761820752651993900,1.490993896484375,-0.004675006073713303,0.0007887757575139403,0.016188333734869956
1761820752662063900,1.50106396484375,-0.006620879444479942,0.0072361435323022305,0.01646663921959698
1761820752672134700,1.511134765625,-0.00826747760772705,-0.004365501733124256,0.009973386476468294
1761820752682204700,1.52120458984375,-0.004378653475642204,-0.00411013873256743,0.01105994873731397
1761820752692275700,1.531275634765625,-0.0051315176695585244,0.0030758089824579654,0.008996184607921167
1761820752702345700,1.541345703125,-0.00827449187040329,-0.0012697459411807359,0.020793936967337504
1761820752712415700,1.551415771484375,-0.010668109008669853,0.009645962886698544,0.011807314772205427
1761820752722486800,1.56148681640625,-0.009318447965383529,0.002201309436559677,0.008884650524845347
1761820752732556800,1.571556884765625,0.0011567688196897506,0.00387494173720479,0.01001389201679267
1761820752742626600,1.58162646484375,-0.0021329203754663468,0.00757105630878359,0.006647283394215628
1761820752752697600,1.591697509765625,-0.011564181065559386,0.00323624197486788,0.00810222230972722
1761820752762768000,1.601767822265625,-0.0027349779218435286,0.004894548842217773,0.007719716665009036
1761820752772839000,1.6118388671875,0.0005617255359888076,-0.0040289267225191,0.007981253678025678
1761820752782908700,1.62190869140625,0.005050269126892089,0.007085793542489409,0.020303486569272354
1761820752792978700,1.631978759765625,-0.00497661936879158,0.008891984447930008,0.012305263490136713
1761820752803049700,1.6420498046875,-0.0036316345006227493,0.01281913129640743,0.019853048521187154
1761820752813119700,1.65211962890625,-0.010519055926799773,0.0047338053225539625,0.013812781976256518
1761820752823189800,1.662189697265625,0.009233692291378975,0.008604253547731786,0.011565395775111391
1761820752833260800,1.6722607421875,-0.0022825579792261123,0.0024295469681732355,0.010965959444083273
1761820752843330800,1.682330810546875,0.0020598551392555235,0.0006093275373801588,0.012629846668848766
1761820752853401600,1.692401611328125,0.007145195579528808,0.00008705722894519566,0.020669908728869632
1761820752863471900,1.702471923828125,-0.001980360162258148,0.0038021870282478627,0.01495294672101736
1761820752873542000,1.7125419921875,-0.01081248591542244,0.004686513848416507,0.007286887338850647
1761820752883612700,1.72261279296875,-0.014401450318098067,0.0055368105348199605,0.015773788984073327
1761820752893682700,1.7326826171875,-0.008718728506565094,0.005459726710617542,0.013993472305405884
1761820752903752700,1.742752685546875,0.0029547581523656843,0.00998091219579801,0.015281630686111748
1761820752913823700,1.75282373046875,-0.017244564789533613,0.00643231633612886,0.0008587813869584351
1761820752923893800,1.762893798828125,-0.01589490374624729,0.008196732192765921,0.014673636589292436
1761820752933963800,1.7729638671875,-0.010957447344064711,0.005114456936903298,0.020280498419329523
1761820752944034800,1.783034912109375,-0.017840777117013932,0.010779606559127568,0.007782817629631608
1761820752954104600,1.7931044921875,-0.009011573973298072,0.0018361659185960888,0.009386900958558543
1761820752964175600,1.803175537109375,-0.0051245034068822855,0.0019317717801779508,0.02499756266963668
1761820752974246000,1.813245849609375,-0.00946224035024643,0.002436415100377053,0.021866105376649646
1761820752984315600,1.823315673828125,-0.00826923117339611,0.008306330047082155,0.00941250119069591
1761820752994386700,1.83338671875,-0.003632219022512436,0.011500175918638705,0.009686459293868393
1761820753004456700,1.843456787109375,0.010882628542184828,0.0012218516788445413,0.007364674415951594
1761820753014526700,1.853526611328125,-0.005579845958948135,0.004125208437535911,0.017319885914912448
1761820753024597800,1.86359765625,-0.0066261401414871215,-0.0024129976921714842,0.009403797294432296
1761820753034667800,1.873667724609375,-0.009912906727194786,0.0032640432972460983,0.003091983799124136
1761820753044738800,1.88373876953125,-0.012156301739811897,0.004457125539332628,0.005444501742022111
1761820753054808800,1.893808837890625,-0.001982113727927208,0.015452566806226968,0.01072135529955849
1761820753064878600,1.903878662109375,0.002805120548605919,0.012995437711384146,0.009745066746463998
1761820753074949600,1.91394970703125,-0.006770517048239708,0.008431088937912137,0.014178710945509373
1761820753085020000,1.92402001953125,-0.0012327566653490066,-0.001815050065331161,0.008919767503999173
1761820753095089700,1.934089599609375,0.001014145478606224,0.0023804471294395623,0.011621674273302778
1761820753105160700,1.94416064453125,-0.007515197935700416,0.005081230520736426,0.015093652099650353
1761820753115230700,1.954230712890625,-0.00601882189810276,0.005785159272700548,0.009345774363726377
1761820753125300700,1.96430078125,-0.002422258710861206,0.001875383684132248,0.010044086225656793
1761820753135371800,1.974371826171875,-0.00900514423251152,0.0015068061000667512,0.015261236352054402
1761820753145441800,1.98444189453125,-0.0025718963146209714,0.0027552352585829792,0.008824097710335627
1761820753155512800,1.994512939453125,-0.005111643925309181,0.003578315144497901,0.0084195354974363
1761820753165582600,2.00458251953125,-0.0013718728750944137,0.0009248049610294402,0.017264913457818328
1761820753175652900,2.01465283203125,-0.01035012910068035,0.0013833806497976183,0.014126186173828319
1761820753185724000,2.024723876953125,-0.006311667364835739,0.003954053121712059,0.014340787905734032
1761820753195793700,2.034793701171875,-0.004215571868419647,-0.0009972308764234184,0.016959829564020038
1761820753205863700,2.04486376953125,-0.007960019093751906,0.004200082038342953,0.022840749961929394
1761820753215934700,2.054934814453125,-0.0006260229438543319,0.0034391806684434412,0.012612073550140485
1761820753226004700,2.065004638671875,-0.0015209259569644927,0.0015261866539716719,0.01745823493967764
1761820753236075500,2.075075439453125,-0.007955927440524101,-0.002745809843111783,0.016176433234522117
1761820753246145800,2.085145751953125,-0.0018190321207046509,0.00476841997820884,0.01006344851325266
1761820753256215800,2.0952158203125,-0.0061573535859584805,0.00664247022178024,0.01500696019688621
1761820753266286800,2.105286865234375,-0.006754734957218169,0.007237531771790236,0.019410510651767254
1761820753276356600,2.115356689453125,-0.000021627309918403625,0.00948823330802843,0.019515021339012308
1761820753286427000,2.125427001953125,0.0016249708533287047,0.007811714930552989,0.010397868099389597
1761820753296498000,2.135497802734375,-0.003312485548853874,0.005738068727962673,0.017037817570520565
1761820753306567700,2.145567626953125,-0.007202478724718094,0.0030314401177689433,0.0068901431062258775
1761820753316637700,2.1556376953125,-0.005704933643341064,0.007907813982479275,0.019433471402246504
1761820753326708700,2.165708740234375,-0.004657470417022705,0.006819379424955695,0.015057402609335259
1761820753336778800,2.17577880859375,-0.0043622868627309795,-0.0020095862567424774,0.01081894305567257
1761820753346849800,2.185849853515625,-0.006904957082867622,0.003808635035343468,0.015487665519071742
1761820753356919800,2.195919921875,-0.001967500680685043,0.0057313467262312765,0.017210525522613897
1761820753366989800,2.20598974609375,-0.010799041911959647,-0.0008970949701964855,0.009528857579361647
1761820753377060600,2.216060546875,-0.009006313276290893,-0.0030230376156046984,0.010853137586219235
1761820753387130600,2.226130615234375,0.004160042288899422,0.003268408945109695,0.010897643448226153
1761820753397201000,2.236200927734375,-0.0030219781696796417,0.0094316625488922,0.018894898412982
1761820753407272000,2.24627197265625,-0.014097498935461044,-0.0003680478611029684,0.012593816374242305
1761820753417341700,2.256341796875,-0.007514028891921043,0.002533884125482291,0.015322209291672334
1761820753427412700,2.266412841796875,-0.0031710312515497207,0.0036013672265224157,0.017626001855172217
1761820753437482800,2.276482666015625,-0.00900514423251152,0.002325264609791338,0.005933965759398415
1761820753447552300,2.28655224609375,-0.006162029761075973,0.006428681340627372,0.0077213971654418855
1761820753457623300,2.296623291015625,-0.002722118440270424,0.002500164518970996,0.013601806106697768
1761820753467693300,2.306693359375,-0.003919219270348549,-0.005152158598788082,0.018070055828243493
1761820753477763000,2.31676318359375,-0.004964928930997848,0.003154427176620811,0.013437637654086574
1761820753487834000,2.326834228515625,-0.012747253370285034,0.00841875917930156,0.009641926032397895
1761820753497904400,2.336904296875,-0.010952186647057533,0.009586031126696615,0.006863739156490191
1761820753507974100,2.34697412109375,-0.01723521243929863,0.0027308132033795115,0.012917312707565723
1761820753518045200,2.357045166015625,0.0016197101563215255,0.002086907542962581,0.020486880312161518
1761820753528115200,2.367115234375,-0.010049684849381447,0.0014941475478932262,0.016032275523478166
1761820753538186200,2.377186279296875,-0.015434885019063949,0.0060749725321307775,0.011745729911234229
1761820753548256300,2.38725634765625,-0.0006207622468471527,-0.003140964906848967,0.012301427565235643
1761820753558326300,2.397326171875,0.001477086815237999,0.0036592531599104403,0.011486613184167072
1761820753568397300,2.407397216796875,-0.011988543957471847,0.0007049881978891789,0.010062270336318761
1761820753578467000,2.417467041015625,-0.011391747108101844,-0.003419087728485465,0.013207673956267535
1761820753588537300,2.427537353515625,-0.008999299013614653,0.00009058262659236788,0.023220497393980622
1761820753598608100,2.437608154296875,-0.017379589346051216,-0.0026964542760513723,0.012339156626584007
1761820753608678400,2.447678466796875,0.00012859481573104857,0.00320423940140754,0.020766857164166867
1761820753618748200,2.457748046875,-0.0027110125243663785,0.00019596096351742742,0.017738266590610147
1761820753628819200,2.467819091796875,-0.0019628245055675507,0.002700052738934755,0.005269574433378875
1761820753638889200,2.47788916015625,-0.010942834296822548,-0.00019411606630310416,0.009926935252547264
1761820753648960300,2.487960205078125,-0.011844751572608947,0.0075852492309175425,0.016458547244686633
1761820753659030300,2.4980302734375,-0.006312836408615112,0.004703245787508786,0.01614522524550557
1761820753669100300,2.508100341796875,-0.02336860062777996,0.0002686608735471964,0.01231763891451992
1761820753679171300,2.51817138671875,-0.015437223106622695,0.0047141690403223035,0.012442132943868636
1761820753689241000,2.528240966796875,-0.009150105661153794,0.010631813852582127,0.006679559962311759
1761820753699311400,2.538311279296875,-0.014539397484064102,0.0022013459691777823,0.0177469156879466
1761820753709382400,2.54838232421875,-0.009750994163751601,0.0014952435264363885,0.014666421397216618
1761820753719452200,2.5584521484375,-0.005858662900328636,0.009625340223778039,0.016282989748381077
1761820753729523200,2.568523193359375,-0.004211480215191841,0.005888747511338442,0.01386814715899527
1761820753739593200,2.57859326171875,-0.006156769064068794,-0.0018511808246374128,0.009739212394412606
1761820753749663200,2.588663330078125,-0.014834581038355827,-0.002328570811729878,0.012926327131083234
1761820753759734300,2.598734375,-0.004960252755880356,0.0036001799164339897,0.012372976697795092
1761820753769804300,2.60880419921875,-0.021721417942643165,0.00841645762436092,0.002389991275919601
1761820753779874300,2.618874267578125,-0.005560556736588478,0.0009542319849133491,0.012134162973240017
1761820753789945000,2.628945068359375,-0.001519172391295433,0.0010890556120313703,0.0157952336309012
1761820753800015000,2.63901513671875,-0.009598433950543403,0.0059914041682146485,0.004625193848926574
1761820753810085400,2.64908544921875,-0.01633154159784317,0.005723236485011875,0.01457719047749415
1761820753820156400,2.659156494140625,-0.01618599564731121,-0.0013464096402749418,0.010586193745722993
1761820753830226200,2.66922607421875,-0.001222235271334648,0.00019261822896078228,0.005589152643410489
1761820753840297200,2.679297119140625,-0.0033148236364126202,-0.005278196131251752,0.009483091342030093
1761820753850367200,2.6893671875,-0.00914718305170536,0.003557089693378657,0.00979742712136358
1761820753860437200,2.699437255859375,-0.0010632453173398972,0.00012938026702031491,0.012074012017529457
1761820753870508300,2.70950830078125,-0.01138882449865341,-0.0011516907857730984,0.016705197215825317
1761820753880578300,2.719578369140625,0.0005827683240175247,0.002265004056226462,0.008611368275107816
1761820753890648000,2.72964794921875,0.003423544707894325,0.00701714875306934,0.01700249966196716
1761820753900719000,2.739718994140625,-0.016329203510284423,0.010529814782831817,0.017966988179413602
1761820753910789400,2.749789306640625,-0.00854629454910755,0.0037539091734215616,0.007549127604765817
1761820753920859400,2.759859375,0.0067179100781679145,0.0011899952358566223,0.006131278429785743
1761820753930930200,2.76993017578125,-0.01018938558101654,-0.0051213433354161675,0.015480952650494872
1761820753941000200,2.780000244140625,-0.003906944310665131,-0.0014994813101366162,0.014786357982456684
1761820753951071200,2.7900712890625,-0.012141104170680045,0.004651113741472363,0.011583926945645362
1761820753961141200,2.800141357421875,-0.005108136793971062,0.005079714417085051,0.009328256973344832
1761820753971211300,2.810211181640625,-0.013187398353219032,0.003811795106809586,0.011822064816765487
1761820753981282300,2.8202822265625,-0.010941665253043175,0.003649279755167663,0.018941842827247455
1761820753991352300,2.830352294921875,-0.007348024675250053,-0.00282011718833819,0.018757307440042496
1761820754001422000,2.840422119140625,-0.00734334850013256,0.010736863395944237,0.010614506524754687
1761820754011493000,2.8504931640625,-0.004796586626768112,0.00852583628296852,0.015429925716156138
1761820754021563400,2.8605634765625,-0.012279635858535766,0.0009282207608222961,0.015434172633010893
1761820754031633200,2.870633056640625,-0.011982114216685295,0.0011584310538135468,0.008672697407752275
1761820754041704200,2.8807041015625,-0.0013555062621831893,0.0004478350990451872,0.015539368306845425
1761820754051774200,2.890774169921875,-0.009136077135801314,0.007153817277401686,0.017795915061980486
1761820754061845200,2.90084521484375,-0.009887187764048577,0.00003457812303677201,0.009582323065958917
1761820754071915300,2.910915283203125,-0.013034253618121147,0.004196995032113045,0.01395196211808361
1761820754081985300,2.9209853515625,-0.011987374913692474,0.011670363120082764,0.01610816290443763
1761820754092056300,2.931056396484375,-0.006903203517198562,0.007903996323887259,0.012922153279464691
1761820754102126300,2.941126220703125,-0.0040606735676527025,0.008348086829576641,0.008069352086586877
1761820754112196000,2.951196044921875,-0.0034568624556064603,-0.00024047595867887137,0.020238595506362617
1761820754122267100,2.96126708984375,0.00043722237348556514,0.001988561735022813,0.013958620187733322
1761820754132337400,2.97133740234375,-0.012284896555542945,0.010924330525752157,0.019422703413059933
1761820754142407200,2.9814072265625,-0.006154430976510048,0.005680164528265595,0.003592234071996063
1761820754152478200,2.991478271484375,-0.0009182838886976242,0.0013625570574775337,0.0074365980078466235
1761820754162548200,3.00154833984375,0.0013268646895885467,0.0009328421370126306,0.026966095396783202
1761820754172619300,3.011619384765625,-0.00870060832798481,0.0025546346525661644,0.011403364480659366
1761820754182689300,3.021689208984375,-0.006754734957218169,0.0025157822132110593,0.010162305777845904
1761820754192759300,3.03175927734375,0.0022205986589193343,0.008143084043078124,0.015041273458441718
1761820754202830300,3.041830322265625,0.00012625672817230223,0.0035875396305695174,0.020812367673171683
1761820754212900000,3.051900146484375,0.0007277297526597976,0.00886688653929159,0.010225936465431004
1761820754222970400,3.061970458984375,0.0004296235889196396,0.006151033443026244,0.015483719996316357
1761820754233041400,3.07204150390625,-0.0007657236754894256,0.008387395926658063,0.010690494370413944
1761820754243111200,3.082111083984375,-0.0016629647761583328,0.003887180164270103,0.0145908628098201
1761820754253181200,3.09218115234375,-0.006750643303990364,-0.007004051809478551,0.005821363097243011
1761820754263252200,3.102252197265625,-0.0009176993668079376,0.0007194916472770273,0.01235692974529229
1761820754273322200,3.112322265625,-0.0034632921963930127,0.00521519563132897,0.013415389289660379
1761820754283393000,3.12239306640625,0.0008756137907505035,-0.003266984173003584,0.011197274848772212
1761820754293463300,3.13246337890625,-0.0036140988439321516,-0.0014394947512075304,0.008217263524141162
1761820754303533300,3.142533203125,-0.011696867534518242,0.004203771832771599,0.006601535423193127
1761820754313604400,3.152604248046875,-0.005868015250563621,0.0016027407552115618,0.007812482115533203
1761820754323674000,3.162674072265625,-0.0003308393895626068,0.014195680346619336,0.008939988308120518
1761820754333744400,3.172744384765625,-0.013649170646071433,0.0020805326011031863,0.012533108296105638
1761820754343815400,3.1828154296875,-0.0031722002953290937,0.0032498686414211986,0.009202840495388954
1761820754353885200,3.19288525390625,-0.0007756605476140976,0.0011288213668391109,0.004712780800834298
1761820754363955200,3.202955078125,-0.018284429231286047,0.0065728025190532205,0.011127104822546243
1761820754374026200,3.213026123046875,-0.004067103308439255,0.0055956280499696726,0.009645460563199594
1761820754384096300,3.22309619140625,-0.003767828100919723,0.007523436041083186,0.01200436258111149
1761820754394167300,3.233167236328125,-0.005713116949796676,0.004621887646988034,0.004977651415253058
1761820754404237300,3.2432373046875,-0.005264788660407066,0.00510663895662874,0.012469313211739063
1761820754414307300,3.253307373046875,0.0019195698857307434,0.0006642360623925924,0.019919766215002164
1761820754424378000,3.263378173828125,-0.007505845585465431,0.010046524777915329,0.002917476615589112
1761820754434448100,3.2734482421875,-0.005110474881529808,0.006029818216152488,0.01282827358408831
1761820754444518700,3.2835185546875,-0.013789455899596214,0.0018419746048748491,0.02077428241879679
1761820754454589700,3.293589599609375,-0.015431962409615516,0.004248524289950728,0.01691599955544807
1761820754464659700,3.30365966796875,-0.01438216109573841,0.005074855578877032,0.008866064555384218
1761820754474729700,3.313729736328125,0.0016284779846668243,0.006818027718085796,0.019364854012290014
1761820754484800500,3.323800537109375,0.00132803373336792,0.005808850675541907,0.00735644544372335
1761820754494870800,3.333870849609375,-0.008844400712847708,0.008414430064056068,0.0074303326638415455
1761820754504941800,3.34394189453125,0.008213117071986197,0.006185173174645751,0.007963690621871501
1761820754515011600,3.354011474609375,-0.005253682744503021,0.002786342782899737,0.008406593817472458
1761820754525081600,3.36408154296875,-0.0024099837511777876,0.0030601182229816914,0.014513751586154103
1761820754535152600,3.374152587890625,0.004921089789271354,0.0044686150477267796,0.0125807833627332
1761820754545222700,3.38422265625,-0.012290741774439812,0.00865585587080568,0.011372110825870186
1761820754555292700,3.394292724609375,-0.01588496687412262,0.003360270213335752,0.008004141363268718
1761820754565363700,3.40436376953125,-0.010494506007432937,0.0016473470819182692,0.0050189515400212254
1761820754575433700,3.414433837890625,-0.0119949736982584,0.0076413085334002965,0.01714215472782962
1761820754585503500,3.42450341796875,-0.016937106275558472,0.012460070459358394,-0.0017265041321981697
1761820754595574500,3.434574462890625,-0.00706102442741394,0.0031926220288500187,-0.00292985203997232
1761820754605644800,3.444644775390625,-0.000173018479347229,0.0014433124097995458,0.01793114968105219
1761820754615715800,3.4547158203125,-0.00615910715162754,0.0077460292831994584,0.013854630090296268
1761820754625785600,3.46478564453125,-0.004958499190211295,0.011741400795988738,0.015152725343126804
1761820754635855600,3.474855712890625,-0.009596095862984657,-0.0005418883243575692,0.012364391532540321
1761820754645926700,3.4849267578125,-0.011842413485050201,0.000991860581561923,0.01770765225663781
1761820754655996700,3.49499658203125,-0.001218143618106842,0.01395098487054929,0.011570866534672677
1761820754666066700,3.505066650390625,-0.006005377894639968,0.004359528650064021,0.007733873054524883
1761820754676137700,3.5151376953125,-0.013785364246368408,0.0008506985452026129,0.0070957121483050285
1761820754686207700,3.525207763671875,-0.006001870763301849,0.0019642310113646088,0.010123078879155218
1761820754696277500,3.535277587890625,-0.010787935996055603,0.005930358163360506,0.012157397718355058
1761820754706348500,3.5453486328125,-0.013480828341841698,0.004916523212008178,0.01133936846689321
1761820754716418800,3.555418701171875,-0.013327683606743811,0.004169211976043879,0.011795414271857589
1761820754726488600,3.565488525390625,-0.008535773155093192,0.0045635450558736915,0.017366017478425054
1761820754736559600,3.5755595703125,-0.008081599646806716,0.0008122662309557199,0.01287350096530281
1761820754746629600,3.585629638671875,-0.005535422295331955,0.005456968497950583,0.01217374606495723
1761820754756700700,3.59570068359375,-0.001342062258720398,0.006592584931757301,0.015480769987404346
1761820754766770700,3.605770751953125,-0.004337736943364143,0.009505294040683657,0.014053650660580024
1761820754776840700,3.6158408203125,-0.010918868899345397,0.014808825542591511,0.0157668843192514
1761820754786911700,3.625911865234375,-0.008829787665605545,0.006361552654858678,0.017969773791544137
1761820754796981500,3.6359814453125,-0.004641688326001167,0.0018511808246374128,0.025530975426593792
1761820754807051800,3.6460517578125,-0.015566986966133118,0.004452741625159979,0.011288944320753216
1761820754817122800,3.656122802734375,-0.016761165186762808,-0.000679908555559814,0.01597604269105941
1761820754827192600,3.666192626953125,-0.0001502221256494522,0.003925849940534681,0.016599873677827417
1761820754837262600,3.6762626953125,-0.0037409400939941405,0.0075169880339875815,0.019765306305652482
1761820754847333600,3.686333740234375,-0.016909049224853513,0.0007716784922406077,0.015104511420382187
1761820754857403600,3.696403564453125,-0.006284779357910156,0.0018313984119333326,0.01844456082959659
1761820754867474400,3.706474365234375,-0.0008972411006689071,-0.0017428616119548677,0.014182820865046231
1761820754877544700,3.716544677734375,-0.0056873979866504665,0.002994304711464792,0.01780354124600999
1761820754887614700,3.72661474609375,-0.014817045381665228,-0.0007820537557825445,0.020553333144495263
1761820754897685800,3.736685791015625,-0.011672902137041091,0.0024167057529091832,0.008582196979550644
1761820754907755500,3.746755615234375,-0.0011982698738574982,0.0016614121398888528,0.009305314489174633
1761820754917825800,3.75682568359375,-0.0031429742008447646,0.006122373604122549,0.014185031088441609
1761820754927896800,3.766896728515625,-0.009879004457592964,0.003522255842015147,0.0159994326998014
1761820754937966600,3.776966552734375,-0.01032791726887226,0.000034030133765190837,0.02039787772130221
1761820754948036600,3.78703662109375,0.00478664975464344,0.006782043089251965,0.017673567323945462
1761820754958107600,3.797107666015625,-0.013017887005209922,0.008111355464253574,0.01093326275087893
1761820754968177700,3.807177734375,-0.008824526968598366,0.0029032288945280015,0.008155249404907226
1761820754978247700,3.81724755859375,-0.01196399403810501,0.008254764256626367,0.014356980988709255
1761820754988318700,3.827318603515625,-0.00882218888103962,-0.0024525077186524865,0.010525668330676852
1761820754998388700,3.837388671875,-0.012115385207533835,0.002698445303738117,0.012206461024470627
1761820755008459500,3.84745947265625,-0.013166940087080001,0.005038706553261727,0.007682480794005095
1761820755018529500,3.857529541015625,-0.005983750584721565,0.00887019274123013,0.01270672043049708
1761820755028599800,3.867599853515625,-0.016010639080405235,0.006970003409404307,0.00939892932306975
1761820755038670800,3.8776708984375,-0.008528174370527266,0.0006854249808937311,0.013336186573607847
1761820755048740600,3.88774072265625,-0.01930208184123039,-0.0010183467296883463,0.012358591979416087
1761820755058810600,3.897810546875,-0.01795709697306156,0.0021784034850075838,0.007354363084491342
1761820755068881700,3.907881591796875,-0.0025444237858057023,0.006516779749188572,0.018016334613319484
1761820755078951700,3.91795166015625,-0.01316869365274906,0.005083933934476226,0.018136307731177657
1761820755089021700,3.928021728515625,-0.004637012150883675,0.003794898770935833,0.01125257609942928
1761820755099092700,3.9380927734375,-0.01301496439576149,0.004548511883523315,0.016534215429937466
1761820755109162500,3.94816259765625,-0.0040390462577342984,0.005547989515960216,0.01725220923987217
1761820755119233500,3.958233642578125,-0.003592471534013748,0.0005476056790910661,0.023987006520759312
1761820755129303800,3.9683037109375,-0.0031412206351757047,0.0006226254103705287,0.01948336582542397
1761820755139373600,3.97837353515625,-0.007780570873618125,0.003375065923668444,0.009235098797176032
1761820755149444600,3.988444580078125,0.003591302490234375,0.0057643174140714105,0.019526529113715514
1761820755159514600,3.9985146484375,-0.012568389672040938,0.011406579351052642,0.01399776488803327
1761820755169584600,4.008584716796875,-0.017805705803632735,0.00777499964935705,0.015876801833976058
1761820755179655400,4.018655517578125,-0.01586100147664547,0.0007762450695037841,0.008078914499375969
1761820755189725700,4.0287255859375,-0.00658171647787094,-0.0009608991877175867,0.017059828472929073
1761820755199795700,4.038795654296875,-0.013315408647060394,0.008569492761604488,0.01202775258985348
1761820755209866800,4.04886669921875,-0.005982581540942192,0.012117029175348579,0.01514945567380637
1761820755219936500,4.0589365234375,-0.006432663396000861,0.0006265526668168604,0.013736638866970314
1761820755230006800,4.0690068359375,0.0013490765213966369,0.006576218318846076,0.011473205713322386
1761820755240077800,4.079077880859375,-0.001491115340590477,0.007359769911970943,0.015993112556869162
1761820755250147600,4.089147705078125,-0.011064414849877358,-0.0010164105009287596,0.005980480915401131
1761820755260218600,4.099218505859375,-0.0061263739258050915,0.00447793086534366,0.006493581536691636
1761820755270288600,4.10928857421875,-0.017052257087826726,-0.0017243761071935296,0.019491320803016424
1761820755280358700,4.119358642578125,-0.011666472396254539,0.009153539727255702,0.013295151310320942
1761820755290429700,4.1294296875,-0.002389525485038757,-0.0011064816708676517,0.003207509070727974
1761820755300499700,4.139499755859375,-0.0032867665857076642,0.0017846001281403004,0.013216962374420835
1761820755310569700,4.14956982421875,-0.0038823943912982936,0.0009475647821091114,0.010603199679451062
1761820755320640500,4.159640625,-0.016750059270858764,0.004724014580901712,0.010895387559058145
1761820755330710500,4.16971044921875,-0.012260346636176108,-0.0017756131040863692,0.014583291424717754
1761820755340780800,4.17978076171875,-0.008971826484799385,-0.003559555645100772,0.018339100294280795
1761820755350851800,4.189851806640625,-0.011222235760092734,0.01055292166378349,0.023914544072747228
1761820755360921600,4.199921630859375,-0.003743278181552887,-0.0002928819993510842,0.0216973429473117
1761820755370992600,4.20999267578125,0.0004471592456102371,-0.00314058131435886,0.01813773250328377
1761820755381062700,4.220062744140625,-0.008832125753164291,0.0021426015192642805,0.016006474361941216
1761820755391132700,4.230132568359375,-0.009131400960683822,0.003542421847209334,0.012946228274796157
1761820755401203700,4.24020361328125,-0.010029226583242417,0.008801420087646693,0.018831587385805322
1761820755411273700,4.250273681640625,-0.0031482348978519436,0.00247899386677891,0.02346718389773741
1761820755421343500,4.260343505859375,0.0017827917635440825,0.005770546225458383,0.017629381122346965
1761820755431414500,4.27041455078125,-0.010187047493457793,0.001924684452265501,0.010048890264937653
1761820755441484800,4.28048486328125,-0.014074702581763267,-0.00784291378641501,0.022319703496200962
1761820755451553800,4.2905537109375,0.016150339812040327,0.00042414369620382786,0.0014562997555360197
1761820755461624800,4.300624755859375,-0.03413257122635841,0.008520575585961341,0.016501810997677967
1761820755471694600,4.310694580078125,0.015995441511273384,0.01043430025279522,0.006373708883533254
1761820755481764900,4.320764892578125,-0.004355857121944427,0.018382574109826237,0.007837634823098778
1761820755491836000,4.3308359375,-0.0420627797037363,0.015201222393661737,0.014523332265252247
1761820755501905700,4.34090576171875,0.03814297591149807,0.003116488052718341,0.00901530943349935
1761820755511975700,4.3509755859375,-0.03622632863521576,-0.009778302295785397,0.023107173212617634
1761820755522046700,4.361046630859375,-0.0082435122102499,-0.0030893991163931786,0.018138974612299352
1761820755532116700,4.37111669921875,0.023930326163768768,0.001762150834314525,0.01901890838514082
1761820755542187800,4.381187744140625,-0.034579145950078966,-0.006401245344430208,0.020671315234666688
1761820755552257800,4.3912578125,0.018686580291390417,0.002797960155457258,0.017089748687157406
1761820755562327800,4.401327880859375,-0.008100304347276687,0.009077442283742129,0.016442938683601097
1761820755572398600,4.411398681640625,-0.03592997603714466,0.0065273011432029305,0.017136190777923912
1761820755582468900,4.42146875,0.030505028378963468,0.006119377929437906,0.0029438348995521665
1761820755592539000,4.431538818359375,-0.0354880774885416,0.009230934078712016,0.013568607089994475
1761820755602609700,4.441609619140625,-0.00720832394361496,0.004458239784184843,0.01341766344513744
1761820755612679700,4.4516796875,0.013141805645823477,0.007620722403097897,0.022515399598237125
1761820755622749700,4.461749755859375,-0.037438627034425735,0.002616319978237152,0.0211223469377961
1761820755632820700,4.47182080078125,0.014783727633953093,0.0055222522865049535,0.0049432468221522865
1761820755642890800,4.481890869140625,-0.017540332865715026,0.00932337986882776,0.006555184663971886
1761820755652960800,4.491960693359375,-0.017083821269869803,0.00852488643489778,0.018279908319795504
1761820755663031800,4.50203173828125,0.014938041412830352,0.005688475698884576,0.01185070638936013
1761820755673101600,4.5121015625,-0.02426525720655918,0.00979932681750506,0.023812006146879866
1761820755683172600,4.522172607421875,0.008660276317596435,0.00590102247102186,0.007474655862757936
1761820755693243000,4.532242919921875,-0.010194061756134033,0.005694996771216392,0.0051389977231156075
1761820755703312600,4.542312744140625,-0.024254151290655133,-0.0001555924205109477,0.02188918485813774
1761820755713383700,4.5523837890625,0.0064256491333246225,-0.0003195142779499292,0.011443267232785001
1761820755723453700,4.56245361328125,-0.02694178293943405,0.0015949410412460564,0.015428957601776346
1761820755733524000,4.57252392578125,-0.00405073669552803,-0.004648081534169614,0.017045197159377856
1761820755743594800,4.5825947265625,0.007024784070253372,0.005329031269345432,0.02550141140539199
1761820755753664800,4.592664794921875,-0.021706804895401,0.006202288706228137,0.014153010248672217
1761820755763734800,4.60273486328125,0.00014086977541446686,0.014996329205017535,0.007965498986467718
1761820755773805800,4.612805908203125,-0.006440262180566788,0.0033958347170613703,0.017352692205971104
1761820755783875600,4.62287548828125,-0.011525018098950386,0.0007591112716123461,0.018751526153227314
1761820755793945900,4.63294580078125,0.00822656107544899,-0.001341368138976395,0.01869774100622162
1761820755804017000,4.643016845703125,-0.01601473073363304,-0.0034360753959044813,0.010613191350502893
1761820755814086700,4.653086669921875,0.004487959069013595,-0.0009474003853276371,0.014618362738098948
1761820755824157700,4.66315771484375,0.0034381577551364896,0.0038711788775399325,0.012243148906202986
1761820755834228700,4.673228759765625,-0.015266542714834212,0.006645155369210988,0.027511974909668786
1761820755844298800,4.683298828125,0.012568389672040938,0.013005758175998925,0.012286860183766112
1761820755854368800,4.69336865234375,-0.010476385828852653,0.006345679232291877,0.011077621391322463
1761820755864439800,4.703439697265625,-0.012269698986411094,-0.0012642843147739767,0.01893944994076155
1761820755874509800,4.713509765625,0.002242225968837738,-0.0016940905667841434,0.006947124857315793
1761820755884579600,4.72357958984375,-0.010924129596352576,-0.006595197013951838,0.015543697422090916
1761820755894650600,4.733650634765625,-0.000744096365571022,-0.0019518464538268744,0.02403188684210181
1761820755904721000,4.743720947265625,-0.014203297397494315,-0.0021798099908046423,0.02293929669926874
1761820755914792000,4.7537919921875,-0.012559037321805954,0.0019023630226030945,0.01031116706347093
1761820755924861700,4.76386181640625,-0.002837269252538681,0.00727097738366574,0.01857250719135627
1761820755934931700,4.773931640625,-0.028423545929789542,0.008616802502050996,0.01150632253163494
1761820755945002800,4.784002685546875,-0.009270517170429229,-0.0010820230830460786,0.009547224353114142
1761820755955072800,4.79407275390625,-0.0035842882275581357,0.0009649177757091819,0.016203787032328543
1761820755965142800,4.804142822265625,-0.000741173756122589,0.0005243709339760244,0.018173625800572333
1761820755975213800,4.8142138671875,0.004191021949052811,0.0033509543957188723,0.01012157190865837
1761820755985283800,4.824283935546875,-0.01586217052042484,0.003759589995536953,0.02034859521947801
1761820755995353600,4.834353515625,-0.015564064356684684,0.004099160680826753,0.008807868094742297
1761820756005424600,4.844424560546875,0.004490297156572342,0.0027638569564558562,0.016739684007316825
1761820756015495000,4.854494873046875,-0.006435001483559608,0.006317603915277868,0.01650516286538914
1761820756025564700,4.864564697265625,-0.01047697035074234,0.005251088928617537,0.006420388436317443
1761820756035635700,4.8746357421875,-0.00913198548257351,0.0016213358578272164,0.013994997542211784
1761820756045705700,4.884705810546875,-0.01751169129312038,-0.0024107874687761066,0.014602845508558674
1761820756055776800,4.89477685546875,-0.009427169036865234,0.006007624650653452,0.013219747986551374
1761820756065846800,4.9048466796875,-0.01421440331339836,0.0005544555449858308,0.017183856711396946
1761820756075916800,4.914916748046875,-0.010323825615644454,0.006033179217018187,0.01975620055058971
1761820756085987800,4.92498779296875,-0.003739771050214767,0.006799268218688667,0.011710932592488824
1761820756096057600,4.9350576171875,-0.009274608823657035,0.0020851905099116266,0.01785835843947716
1761820756106127600,4.945127685546875,-0.00433481433391571,0.002956329054944217,0.015724378618085757
1761820756116198700,4.95519873046875,-0.0043313072025775905,0.004047941950242966,0.008780980087816715
1761820756126268700,4.9652685546875,-0.00792377873659134,0.007741060847137123,0.013637681137677281
1761820756136338700,4.975338623046875,-0.009870821151137351,0.003298310893028974,0.01850309521695599
1761820756146409700,4.98540966796875,-0.0058306058496236796,0.002550524733029306,0.016584493445605038
1761820756156479700,4.995479736328125,-0.001340308693051338,0.008499404933769255,0.00284185409611091
1761820756166549800,5.0055498046875,-0.015102876585721969,0.01272231985842809,0.010262350352527573
1761820756176620800,5.015620849609375,-0.0116594581335783,0.00010987184895202517,0.01004474381278269
1761820756186690800,5.02569091796875,0.005095277312397957,0.001193118774704635,0.01763686117590405
1761820756196760600,5.035760498046875,-0.014057166925072669,0.0007759710748679935,0.020166699313931166
1761820756206831600,5.04583154296875,-0.007774141132831573,0.005961045562569052,0.017393553939322008
1761820756216902000,5.05590185546875,0.0013525836527347563,0.005147025765944272,0.014157321097608654
1761820756226973000,5.065972900390625,-0.007922609692811965,0.002482354867644608,0.018028700904548167
1761820756237042700,5.076042724609375,-0.011066168415546416,0.004769936081860215,0.01079933417290449
1761820756247112700,5.08611279296875,-0.00388473247885704,0.009150525786262005,0.01394280156409368
1761820756257183700,5.096183837890625,-0.0010369418323040009,0.010506050314754246,0.01734461849736981
1761820756267253800,5.106253662109375,0.0030050270348787305,0.007496310572139919,0.014470770960953085
1761820756277323800,5.11632373046875,-0.007471358793973922,0.002666661925986409,0.013613204283546655
1761820756287394800,5.126394775390625,-0.00014145429730415344,0.006628679158445447,0.015204062804719433
1761820756297464800,5.13646484375,-0.0034323125362396237,0.005042323282454163,0.009475172897055744
1761820756307534600,5.14653466796875,-0.014057751446962356,0.006855765912588685,0.00954114167219959
1761820756317605600,5.156605712890625,-0.014503157126903534,0.006380092958547174,0.008262006848165766
1761820756327676000,5.166676025390625,-0.011512158617377281,0.007313282155431806,0.015663076884904877
1761820756337745700,5.17674560546875,-0.01136661266684532,0.004279102091304957,0.008534165719896554
1761820756347816700,5.186816650390625,-0.000443067592382431,0.0037192945177666843,0.015487190595036372
1761820756357886700,5.19688671875,-0.01196574760377407,0.0006270641234703362,0.023305727992020547
1761820756367956700,5.206956787109375,-0.0020890812337398526,0.01580591028854251,0.027529455767432227
1761820756378027800,5.21702783203125,-0.01106909102499485,0.008680131795536726,0.022367022369802
1761820756388097800,5.227097900390625,0.001499298647046089,0.007255706749297678,0.018995079984981567
1761820756398168800,5.2371689453125,0.0005997194588184357,0.005457589552458376,0.013011786057986318
1761820756408238600,5.247238525390625,-0.012265607333183288,0.009379585301782935,0.020841639433428642
1761820756418308600,5.25730859375,-0.014359364742040633,0.009158161103446036,0.017675330022769047
1761820756428379600,5.267379638671875,-0.011664134308695792,0.004496726897358894,0.017451038013910875
1761820756438450000,5.277449951171875,-0.00926876360476017,-0.0036497912118211386,0.022241267965128642
1761820756448520200,5.287520263671875,-0.0037304186999797817,0.0002180449311621487,0.016955043791048226
1761820756458591200,5.29759130859375,-0.013754384586215019,0.005144797276239842,0.023335876535112036
1761820756468661200,5.3076611328125,-0.009565700724720955,0.000828961637429893,0.017027076980797574
1761820756478731300,5.317731201171875,-0.014651041164994239,-0.0012263817234896123,0.01684016697341576
1761820756488802300,5.32780224609375,-0.005818915411829948,0.004340111563540995,0.003122716864105314
1761820756498872300,5.337872314453125,0.00390869787633419,0.012645236034225672,0.025995898657757786
1761820756508942000,5.347942138671875,-0.003124269500374794,0.0051813116280362,0.019260964379552752
1761820756519013000,5.35801318359375,-0.009708908587694168,0.0021910255045630034,0.015204610793991014
1761820756529083100,5.368083251953125,-0.004770867663621902,0.004785115384683012,0.027838457784522323
1761820756539153400,5.3781533203125,-0.008959551525115966,-0.000366148164961487,0.01915671855378896
1761820756549224200,5.38822412109375,-0.0022258593559265137,0.0006702091454528271,0.018850913140783087
1761820756559294200,5.398294189453125,-0.009408464336395262,0.00040176746761426326,0.015169639945309609
1761820756569365200,5.408365234375,-0.00850888514816761,0.0022366730108857153,0.014178820543363689
1761820756579435300,5.418435302734375,0.007203647768497467,0.003333491804264486,0.012989163234224542
1761820756589505300,5.42850537109375,0.00675298139154911,0.005709299291204661,0.02476334292180836
1761820756599576300,5.438576416015625,-0.011948211947083473,0.0018778861684724687,0.015144551169825717
1761820756609646300,5.448646240234375,-0.009254150557518005,0.00542555044637993,0.008975461480300873
1761820756619716000,5.458716064453125,0.006608019962906837,0.00022571678096428512,0.005380971519136801
1761820756629787100,5.468787109375,-0.0002706336349248886,0.002897292344085872,0.012483780128508806
1761820756639857400,5.478857421875,-0.018370938470959663,0.0010486505364067852,0.023624794745398685
1761820756649927200,5.48892724609375,-0.007447977918386459,0.004554850292764603,0.018612583473417908
1761820756659998200,5.498998291015625,-0.005649988585710525,0.004692085072677582,0.020908119665225967
1761820756670068200,5.509068115234375,0.000187047004699707,0.0026697123995982107,0.01549670734205283
1761820756680138200,5.51913818359375,-0.012228782454133034,0.0014581629190593957,0.009372781101660803
1761820756690209000,5.529208984375,-0.010730068328976631,0.006142594408243894,0.013712846999429165
1761820756700279300,5.539279296875,-0.008333528581261634,0.0011655731806531548,0.018459329140465705
1761820756710349300,5.549349365234375,-0.007289572486281395,0.0010952844234183431,0.022510814754664897
1761820756720420400,5.55942041015625,-0.0013017302483320236,-0.0012454334838315844,0.019239063074998557
1761820756730490000,5.569489990234375,-0.0021960487395524977,0.0037165911040268835,0.013766778276907279
1761820756740561200,5.57956103515625,0.00004968436062335968,0.009400810752902179,0.013090833510411903
1761820756750631400,5.58963134765625,-0.011176058530807494,0.00459317300915718,0.025058928334899245
1761820756760701200,5.599701171875,-0.01507014335989952,-0.0008221665704622864,0.008869973545521498
1761820756770772200,5.609772216796875,-0.011478256347775459,0.01430270265135914,0.0072843757213558995
1761820756780842200,5.61984228515625,-0.014022680133581161,0.0010099807601422072,0.023005018879240377
1761820756790912300,5.629912353515625,-0.008784194958209991,-0.0024776421599090096,0.015386515832692384
1761820756800983300,5.6399833984375,-0.010725976675748825,0.009559143119771032,0.016860259913373737
1761820756811053300,5.65005322265625,-0.008179799324274062,0.0005460165102034807,0.021627839641366154
1761820756821123300,5.660123291015625,-0.004440028274059296,0.001375014680251479,0.02404618936209008
1761820756831194000,5.670194091796875,-0.015954524978995323,-0.0032409364162944254,0.017128738123830405
1761820756841264000,5.68026416015625,-0.008321838143467902,0.008413608080148696,0.01302094661197625
1761820756851334400,5.69033447265625,-0.0018909283131361007,-0.0006610211919993162,0.01401744683603756
1761820756861405200,5.7004052734375,-0.01042377885878086,0.003179963476676494,0.01692095885835588
1761820756871475200,5.71047509765625,-0.007882277682423592,0.009842709301505237,0.02344527346002869
1761820756881545200,5.720545166015625,-0.014466916769742965,-0.0005487199239432812,0.015193139551905915
1761820756891616300,5.7306162109375,-0.00429214423596859,0.0007079108073376119,0.017166558516724034
1761820756901686300,5.740686279296875,0.0009410802423954009,-0.0009923355055972934,0.015058562519960104
1761820756911756300,5.75075634765625,-0.004445288971066475,-0.001960559483245015,0.015317871043272315
1761820756921827300,5.760827392578125,-0.0036971009522676467,-0.004698514813464135,0.011023279121890663
1761820756931897000,5.77089697265625,-0.006242693781852722,-0.0033821349852718413,0.013964629803411661
1761820756941968100,5.780968017578125,-0.009837503403425216,-0.000008384235855191946,0.023961954277893528
1761820756952038400,5.791038330078125,0.001087210714817047,0.014025657541956752,0.02029428034950979
1761820756962108200,5.801108154296875,-0.006247954478859901,0.002966430323850363,0.016735857215570284
1761820756972179200,5.81117919921875,0.0034761516779661175,0.004118924827221781,0.022577550714788956
1761820756982249200,5.821249267578125,-0.0002653729379177093,0.001878543755598366,0.020427889267075807
1761820756992319200,5.8313193359375,-0.006404606345295906,-0.001292450963333249,0.019151658786181358
1761820757002390300,5.841390380859375,-0.011042203018069267,-0.003245923118665814,0.015299933527782559
1761820757012460300,5.851460205078125,-0.009091068950295447,-0.0014031630625016987,0.017424570132093503
1761820757022530300,5.8615302734375,-0.01357610540986061,-0.0007945296448655426,0.0053665411349851635
1761820757032601300,5.871601318359375,-0.012379589101672172,0.007717369444295763,0.012018692500563338
1761820757042671000,5.881671142578125,-0.014622399592399596,0.009140552381519227,0.020573891875334083
1761820757052741400,5.891741455078125,-0.008784194958209991,0.009654456720408051,0.018057278545061124
1761820757062812400,5.9018125,-0.014767945542931557,0.00807918849401176,0.008478289080504327
1761820757072882200,5.911882080078125,-0.012072715109586714,0.004257803574949503,0.016115642957994714
1761820757082952200,5.9219521484375,-0.0084831661850214,0.005077339796908199,0.01714420968759805
1761820757093023200,5.932023193359375,-0.0033949031352996824,0.0018363668479956686,0.02013122614175081
1761820757103093200,5.94209326171875,-0.0066857613742351526,0.00465898652067408,0.026777824549376963
1761820757113163300,5.952163330078125,-0.008332359537482261,-0.0005305266801267862,0.01648299669935368
1761820757123234300,5.962234375,-0.007733809122443198,0.008012991390004753,0.009313981852820143
1761820757133304300,5.97230419921875,-0.010128010782599449,0.000960259866900742,0.018590618236782028
1761820757143374000,5.9823740234375,-0.0005512041419744491,0.0033561602937988936,0.024574898544466123
1761820757153445000,5.992445068359375,-0.005194061511754989,0.00898300546593964,0.01887248565177433
1761820757163515400,6.002515380859375,-0.004594342052936554,0.00733606024282053,0.013988905728142707
1761820757173586200,6.012586181640625,-0.012519289833307266,0.0011791267819702624,0.023878294582432135
1761820757183656200,6.02265625,-0.008182137411832808,0.001666417108569294,0.019425425093108788
1761820757193726200,6.032726318359375,-0.011174304965138434,0.005933481702208519,0.020849046421749517
1761820757203797200,6.04279736328125,-0.009225508984923362,0.0024744455558247864,0.015892319063516333
1761820757213867300,6.0528671875,-0.007577157256007194,0.002692179959733039,0.023693147273873907
1761820757223937300,6.062937255859375,-0.010867430973052978,0.003811922970972955,0.020553104815632103
1761820757234008300,6.07300830078125,-0.01550327408015728,-0.0005455233198590577,0.017047681377409026
1761820757244078000,6.083078125,-0.0008358663022518157,0.0015681260995566845,0.01809762882175855
1761820757254148400,6.0931484375,-0.0033791210442781446,0.004720945840980858,0.024133794580306855
1761820757264219400,6.103219482421875,-0.005328501546382904,0.010130823794193566,0.01845476256320253
1761820757274289200,6.1132890625,-0.013712883532047271,0.0036318171637132763,0.01644475618135184
1761820757284359200,6.123359130859375,0.00019873744249343872,0.005409877953212708,0.022440599062666294
1761820757294430200,6.13343017578125,-0.009677928927540779,-0.00009902166137471794,0.023037286314181983
1761820757304500200,6.143500244140625,-0.006383563557267189,0.006722293992340565,0.02297358256136067
1761820757314570200,6.1535703125,-0.009077624946832657,0.002623772632330656,0.01483299186946824
1761820757324641300,6.163641357421875,-0.0009960253000259398,0.0029761114676482973,0.0057815516766626385
1761820757334711300,6.173711181640625,-0.006383563557267189,-0.00530133954482153,0.021499509687116367
1761820757344781000,6.183781005859375,-0.01236789866387844,0.0012041516253724694,0.023086459218151865
1761820757354852000,6.19385205078125,-0.011169628790020942,-0.0013991992734372616,0.0214298602506984
1761820757364922400,6.20392236328125,-0.017752514311671255,0.009412446391768753,0.018492847817577422
1761820757374993400,6.213993408203125,-0.01371112996637821,0.008579466166347265,0.0112576084675733
1761820757385063200,6.224063232421875,-0.0015858078867197036,0.012969024628493935,0.01471639801878482
1761820757395133200,6.23413330078125,-0.010113397735357283,0.0028198979926295576,0.0175219204261899
1761820757405204200,6.244204345703125,-0.016246785923838613,-0.0006667202804237604,0.020684256914630533
1761820757415274200,6.254274169921875,-0.001132218900322914,-0.0011064634045585989,0.023197655374510212
1761820757425344300,6.26434423828125,-0.012951251509785652,0.0038718729972839353,0.01977100539407693
1761820757435415300,6.274415283203125,-0.007561959686875343,0.006504760517831891,0.01474113973439671
1761820757445488400,6.28448828125,-0.011451368340849876,0.005680018397793174,0.010985577460005879
1761820757455558700,6.29455859375,-0.00935059666931629,-0.004051120288018137,0.011463661566842347
1761820757465629700,6.304629638671875,-0.005160159242153167,0.000820084211230278,0.017510074724769217
1761820757475699500,6.314699462890625,-0.01668050116598606,-0.0005600085029378533,0.0074126417435239995
1761820757485769500,6.32476953125,-0.017279051581025124,-0.003669390961434692,0.011226966734137386
1761820757495840500,6.334840576171875,0.005915361523628235,0.001581442238856107,0.02013618544465862
1761820757505910300,6.34491015625,-0.0003682487905025482,-0.0017537483321502804,0.012957407255936413
1761820757515980500,6.35498046875,-0.006502221500873566,0.0003045907034538686,0.018391168408235535
1761820757526051600,6.365051513671875,-0.004105681753158569,0.005535038702841848,0.01511601919508539
1761820757536121600,6.37512158203125,0.002330488774180412,-0.0007998086081817745,0.022199894775124265
1761820757546191400,6.38519140625,-0.0011129296779632568,0.001035882386378944,0.012120152714196591
1761820757556262400,6.395262451171875,-0.0020148469537496568,-0.002681622033100575,0.019095690815243867
1761820757566332700,6.405332763671875,0.0002297171026468277,0.001319211106095463,0.02146003619325347
1761820757576402400,6.41540234375,-0.0012625672817230223,-0.004494699337054044,0.016607892587501553
1761820757586473500,6.425473388671875,-0.0029062428355216977,0.001885813746601343,0.018628045904031023
1761820757596543500,6.43554345703125,-0.011884499061107634,-0.005572667299490422,0.02269771562889218
1761820757606614500,6.445614501953125,-0.012184358790516853,-0.005168689608480781,0.01151280707134865
1761820757616684500,6.4556845703125,-0.005298690930008888,0.0037138694239780305,0.005538902027206495
1761820757626754600,6.465754638671875,0.0008370353460311889,-0.003994622594118118,0.0156107530426234
1761820757636825600,6.47582568359375,-0.0073906947731971736,0.003213098561298102,0.019046243916638193
1761820757646895400,6.485895263671875,-0.0015513210952281952,0.004808843320142478,0.014306538576260209
1761820757656965400,6.49596533203125,0.007124152791500091,-0.0007726466066204011,0.011809753324463964
1761820757667036400,6.506036376953125,0.001886252138018608,0.002385105038248002,0.011949097863072529
1761820757677106400,6.5161064453125,-0.003202595433592796,-0.0071914093414321536,0.013798917847685515
1761820757687176400,6.526176513671875,-0.00020808979272842406,-0.004613649541605263,0.02045584585308097
1761820757697247500,6.53624755859375,-0.011429741030931473,0.006089603845681995,0.013217647361010313
1761820757707317500,6.5463173828125,-0.01606616865992546,0.001633026295620948,0.019318174459505826
1761820757717387500,6.556387451171875,-0.01172784719467163,-0.009664649320859461,0.02224478422962129
1761820757727458600,6.56645849609375,-0.004545826736092567,0.003817676858324557,0.024425434470642358
1761820757737528600,6.576528564453125,-0.007836684975028037,0.00027777576176449655,0.013277971846656873
1761820757747598300,6.586598388671875,-0.007838438540697098,-0.0010205569530837236,0.004983186106896027
1761820757757669400,6.59666943359375,-0.008289104917645455,0.0014630400235764681,0.010584065720718353
1761820757767739600,6.60673974609375,-0.011278349861502647,-0.0023976722588762637,0.014076045155478641
1761820757777809400,6.616809326171875,-0.0073906947731971736,0.004067541699856519,0.009095982587430626
1761820757787880400,6.62688037109375,-0.005447744011878967,0.009098740800097585,0.017442589845973997
1761820757797950500,6.636950439453125,-0.0002104278802871704,0.005056297008879483,0.027774169509811326
1761820757808020500,6.6470205078125,-0.005151391413807869,-0.0032139753441326317,0.01756909316931851
1761820757818091500,6.657091552734375,-0.0023106150299310683,-0.00702889398979023,0.01677817112049088
1761820757828161500,6.66716162109375,-0.00829495013654232,0.0015519238834269344,0.01680906858225353
1761820757838231600,6.6772314453125,-0.004698971471190453,-0.0007021021210588514,0.01584584957328625
1761820757848302600,6.687302490234375,-0.01921674164533615,0.003301744959130883,0.0206259873887524
1761820757858372400,6.697372314453125,-0.010388707545399665,-0.00041181393759325143,0.023430569081241262
1761820757868442600,6.707442626953125,-0.0036550153762102125,0.006900810630712658,0.017868815901409832
1761820757878513700,6.717513671875,-0.007241641691327095,0.0014806670118123293,0.014037841170094906
1761820757888583400,6.72758349609375,-0.006796236011385917,0.0015542985036037862,0.021796739068021997
1761820757898654500,6.737654541015625,-0.006946458137035369,-0.003217993932124227,0.01134322265810333
1761820757908724500,6.747724365234375,-0.010989011526107787,0.00912814955767244,0.012038438380649313
1761820757918794500,6.75779443359375,-0.0033580782562494275,-0.0016025763584300876,0.008746338032698258
1761820757928865500,6.767865478515625,-0.0003653261810541153,-0.00018827084740623832,0.013679072593990713
1761820757938935600,6.777935546875,-0.0030628947019577025,-0.000004219517391175032,0.008749077979056163
1761820757949005600,6.788005615234375,-0.007253916651010513,-0.003503752070944756,0.018389259578939526
1761820757959076400,6.798076416015625,-0.004711246430873871,0.004024981199763715,0.013004379069665447
1761820757969146400,6.808146484375,-0.0032119477838277815,0.006289473799336701,0.018420065709156913
1761820757979216600,6.818216552734375,-0.002762450450658798,-0.0020595446120016277,0.012691924720164388
1761820757989287400,6.828287353515625,-0.007101356437802314,0.0024840719006955624,0.013143869738746433
1761820757999357400,6.838357421875,-0.010393383720517157,0.0008353913782164454,0.0188153943028301
1761820758009427500,6.848427490234375,-0.005457680884003639,-0.001485708513110876,0.02057567284046672
1761820758019498500,6.85849853515625,-0.0020166005194187163,0.001421210175845772,0.029143676897883414
1761820758029568500,6.868568603515625,-0.005458849927783012,-0.004440028274059296,0.011100810470664873
1761820758039638500,6.878638427734375,-0.009202128109335898,-0.009161302908603102,0.009080584088899194
1761820758049709600,6.88870947265625,-0.006057984864711761,0.0013791063334792852,0.019093571923393754
1761820758059779300,6.898779296875,-0.006959317618608474,0.0019422931741923093,0.01753478904091753
1761820758069849600,6.908849609375,-0.0017196633994579313,-0.002469604983925819,0.01637918926500715
1761820758079920600,6.918920654296875,-0.0032177930027246474,0.0004299523824825883,0.014576094498950988
1761820758089990400,6.928990478515625,-0.002018354085087776,0.004678202677797526,0.018498062848811968
1761820758100060400,6.939060302734375,-0.005160159242153167,-0.007922025170922279,0.01729530859608203
1761820758110131500,6.94913134765625,-0.004114449581503868,-0.0032102855497039852,0.01369097309433855
1761820758120201500,6.959201416015625,-0.006660042411088943,-0.00497223545461893,0.016593252140795812
1761820758130271500,6.969271484375,-0.012199556359648703,-0.0037319713362492617,0.011322773525118826
1761820758140342500,6.979342529296875,-0.011747136417031288,-0.0008525251761078834,0.011394432255532591
1761820758150412500,6.98941259765625,-0.00770458302795887,0.005909607636276632,0.01271230078791268
1761820758160482300,6.999482421875,-0.016087795969843863,-0.00011546133952215313,0.009802815682534128
1761820758170553300,7.00955322265625,-0.0165349552154541,-0.004379347595386207,0.022947525671496986
1761820758180623600,7.01962353515625,-0.005165419939160347,0.0030635157564654946,0.018427573162177576
1761820758190694700,7.029694580078125,0.000820084211230278,-0.0009874036021530629,0.02362825621096417
1761820758200764400,7.039764404296875,-0.004268763360381126,-0.00045218248059973116,0.019241940018674356
1761820758210834400,7.04983447265625,-0.004267594316601753,-0.0006248721663840114,0.020340247516240924
1761820758220905500,7.059905517578125,-0.01219663375020027,0.00022206351915374397,0.014716735945502294
1761820758230975500,7.0699755859375,-0.003070493486523628,0.006177245596516877,0.01643949548434466
1761820758241045500,7.08004541015625,-0.003075169661641121,0.0037075858136638995,0.009560156899923459
1761820758251116500,7.090116455078125,-0.011904372805356979,0.003310476254858076,0.01843297085650265
1761820758261186600,7.1001865234375,-0.004573883786797523,0.0054936289802193635,0.019539945717714727
1761820758271256300,7.11025634765625,-0.00652034167945385,-0.004381685682944953,0.024214641264174133
1761820758281327400,7.120327392578125,-0.0018780688315629959,-0.0029839294479228552,0.014296912231389432
1761820758291397600,7.130397705078125,-0.013398995277285575,0.0060965633094310755,0.021641996030882
1761820758301467400,7.14046728515625,-0.0023269816428422925,0.002585961372591555,0.014826945721171795
1761820758311538400,7.150538330078125,-0.007265607088804245,0.005087879457231611,0.017845599422603844
1761820758321608400,7.1606083984375,-0.004420154529809952,0.0036296434729360043,0.0187014764664229
1761820758331678500,7.170678466796875,0.001267243456840515,0.0008140563292428851,0.02019160542632453
1761820758341749500,7.18074951171875,-0.010399228939414024,-0.008844126718211918,0.01360087452493608
1761820758351819500,7.190819580078125,-0.01608136622905731,-0.001359433518629521,0.016069968052208422
1761820758361889500,7.2008896484375,-0.02416121231019497,-0.007045059673301875,0.027482082094904034
1761820758371960300,7.210960205078125,-0.007550853770971298,-0.013345164464507252,0.004756464678933843
1761820758382030600,7.221030517578125,-0.0011117606341838836,-0.004347162358835339,0.010477536606322974
1761820758392100600,7.2311005859375,-0.011581132200360297,-0.00019186931028962134,0.026703635935159398
1761820758402171600,7.241171630859375,-0.006941781961917877,0.00672280544899404,0.03128070719288662
1761820758412241400,7.251241455078125,-0.005448328533768654,0.008897025949228555,0.023746676692552864
1761820758422311400,7.2613115234375,-0.005445990446209907,0.002270666612032801,0.021426818910241126
1761820758432382500,7.271382568359375,-0.011285364124178885,0.002055599089246243,0.00021371581591665743
1761820758442452500,7.281452392578125,-0.010686229187250137,0.005098309519700706,0.012368638449395074
1761820758452519200,7.291519287109375,-0.013083937978744506,-0.0006983575277030468,0.009752473734784871
1761820758462590200,7.301590087890625,-0.012186112356185913,-0.0042257827351801095,0.017680417189840227
1761820758472660000,7.311659912109375,-0.004254734835028648,0.003985544238518923,0.011832430947152897
1761820758482730200,7.321730224609375,-0.0053033671051263805,0.010374806884210556,0.018868640593718736
1761820758492801300,7.33180126953125,-0.0036567689418792724,0.012154913500323892,0.021692666772194204
1761820758502871000,7.34187109375,-0.008446925827860831,0.000926795988716185,0.011667276113852858
1761820758512941000,7.351941162109375,-0.012786416336894035,-0.006528269257582724,0.010712276943959296
1761820758523012000,7.36201220703125,-0.00006546645164489745,-0.005826057538669556,0.02664160354961641
1761820758533082000,7.37208203125,0.004719429737329483,-0.007196322978567332,0.028060174243804067
1761820758543152000,7.382152099609375,-0.00620703794658184,-0.009975249639991671,0.02242253368301317
1761820758553223200,7.39222314453125,-0.02116962927877903,-0.007619991750735789,0.013139513224037364
1761820758563293200,7.402293212890625,-0.009942717343568802,-0.004901490039657801,0.004866436992585659
1761820758573364000,7.412364013671875,-0.0018605331748723982,-0.00017124664736911654,0.002541245448030531
1761820758583434000,7.42243408203125,0.0014314941078424452,-0.004011062272265553,0.01713647390571423
1761820758593504300,7.432504150390625,-0.010241992551088333,0.004591419443488121,0.018191024459945037
1761820758603575300,7.4425751953125,-0.012486556607484817,0.005327953557111322,0.017989099546521902
1761820758613645000,7.45264501953125,-0.016679332122206687,0.0014099215968511997,0.015608853346481918
1761820758623715000,7.462715087890625,-0.010994856745004652,0.0023907493277452885,0.004072692799009382
1761820758633786000,7.4727861328125,-0.009946808996796607,-0.002719067966658622,0.010820486558787524
1761820758643856100,7.482856201171875,-0.023112580040097235,-0.0070691894675605,0.021024649583827704
1761820758653926100,7.492926025390625,-0.01787526390850544,-0.007990943954978139,0.02230825965357944
1761820758663997200,7.5029970703125,-0.014132570248842239,-0.0020525303493253884,0.02595740241142921
1761820758674067000,7.51306689453125,-0.00500233833193779,0.0062224547114223235,0.01876144475904293
1761820758684137200,7.52313720703125,-0.007845452803373336,0.004399604932125658,0.006311749563226476
1761820758694208300,7.533208251953125,-0.014281623330712317,0.0027899960447102783,0.016272029962949453
1761820758704278300,7.5432783203125,-0.011143325304985045,0.006891184285841882,0.01574720237124711
1761820758714348000,7.55334814453125,-0.0006698620855808258,-0.0036940139460377394,0.016758397840941325
1761820758724419000,7.563419189453125,-0.005165419939160347,-0.011149188790190964,0.02358929417375475
1761820758734489000,7.573489013671875,-0.007405307820439338,-0.004336531366966665,0.015328666431922464
1761820758744559000,7.58355908203125,-0.0009708908587694168,-0.00723641752693802,0.007452453164104372
1761820758754630100,7.593630126953125,-0.003363338953256607,-0.0019376352653838692,0.014482233069883658
1761820758764700200,7.6037001953125,-0.008905190989375113,0.00034207316963002083,0.024107454562652855
1761820758774770000,7.61377001953125,-0.0014209727138280869,-0.008866356816329062,0.014566449887771159
1761820758784841000,7.623841064453125,-0.003669628423452377,-0.002084350259695202,0.017283225432643667
1761820758794911200,7.6339111328125,-0.0029249475359916684,0.0003384929730556905,0.012739636319410054
1761820758804981200,7.643981201171875,-0.012200725403428076,0.002948931199777871,0.0128879496157635
1761820758815052000,7.654052001953125,-0.006367196944355964,0.004315104986447841,0.017662516206968574
1761820758825122000,7.6641220703125,0.0024584990680217743,-0.002485642803274095,0.01384668424585834
1761820758835192300,7.6741923828125,-0.004130816194415092,0.0022074834490194914,0.019606608612602574
1761820758845263000,7.68426318359375,-0.010412672942876814,0.0037438627034425734,0.01903250765223056
1761820758855333000,7.6943330078125,-0.012957681250572204,0.0067634662529453635,0.020204857633542267
1761820758865403100,7.704403076171875,-0.0009884265154600142,0.005585946906171739,0.015778245963482186
1761820758875474200,7.71447412109375,-0.0012894552886486053,-0.004558887147065252,0.013298576243268325
1761820758885544000,7.7245439453125,-0.00817336958348751,-0.0038215858484618366,0.015319341481151058
1761820758895614200,7.7346142578125,-0.009817629659175871,0.002588116797059774,0.017346938318619505
1761820758905685200,7.744685302734375,-0.009669161099195479,0.0006732961516827345,0.016577634446555748
1761820758915755000,7.754755126953125,-0.012967618122696875,0.0023064320451579986,0.012817048937175422
1761820758925825000,7.764824951171875,-0.012524550530314444,0.00863053876645863,0.016715545079903676
1761820758935896000,7.77489599609375,-0.0017547347128391265,0.005016969645489007,0.018140024925069883
1761820758945966000,7.784966064453125,0.001685176607966423,0.007625106317270547,0.013005401982972398
1761820758956036000,7.7950361328125,-0.008345803540945053,0.0006128894676454365,0.007058001353265717
1761820758966107100,7.805107177734375,-0.0008650923967361449,0.007584408980701118,0.011157993151154368
1761820758976177200,7.81517724609375,-0.0025105215162038804,-0.0024088512400165197,0.01699535753512755
1761820758986247200,7.8252470703125,-0.006099485918879509,0.0008980813508853315,0.016628177323704585
1761820758996318200,7.835318115234375,-0.013582535150647163,0.003510145279113203,0.011112025984423235
1761820759006388200,7.84538818359375,-0.008349895194172858,0.0031160861939191816,0.015942935005901382
1761820759016458000,7.8554580078125,-0.009244213685393333,0.002976568125374615,0.017457814814569428
1761820759026529000,7.865529052734375,-0.006703881552815437,0.0023506365130655468,0.02056635702284984
1761820759036599000,7.87559912109375,-0.0041582887232303615,0.0007113996723666786,0.009772511875815688
1761820759046670000,7.885670166015625,-0.007598784565925598,0.0020401092591695487,0.015671013596188277
1761820759056740000,7.895739990234375,-0.005351882421970367,-0.0013498437063768506,0.0098338592747692
1761820759066810000,7.90581005859375,-0.016571195572614668,0.013106222875788807,0.015427350166579708
1761820759076880100,7.915880126953125,-0.005648819541931152,0.002826272934488952,0.015233937353175133
1761820759086951000,7.925950927734375,-0.005651157629489898,0.0062519000016152855,0.023549208758538588
1761820759097021200,7.936021240234375,-0.0037111294776201245,0.0009303396526724099,0.018014855042286216
1761820759107092200,7.94609228515625,0.0015215104788541792,0.0008133439431898295,0.005404324995260686
1761820759117162200,7.956162353515625,-0.00626022943854332,0.004107234389428049,0.011020621373923494
1761820759127232000,7.96623193359375,-0.009106851041316985,0.0011505765409208833,0.021739346324978395
1761820759137303000,7.976302978515625,-0.00910451295375824,-0.003813530406169593,0.021877357423026114
1761820759147373300,7.986373291015625,-0.015540098959207533,0.006100161772314459,0.01542999878139235
1761820759157443000,7.996443115234375,-0.007008417457342147,0.0008118461058475077,0.005610405493993312
1761820759167514000,8.00651416015625,-0.013890578186511992,-0.0012461824025027453,0.016443760667508467
1761820759177584000,8.016584228515624,-0.014044307443499564,0.0022325082924216986,0.012861892725899814
1761820759187654100,8.026654052734376,-0.006709142249822616,-0.0050083844802342355,0.01581785645466298
1761820759197724200,8.03672412109375,-0.009094576081633568,-0.007621105995588004,0.009604069106886163
1761820759207794200,8.046794189453125,-0.0022106617867946625,-0.00327398016937077,0.009349308894528075
1761820759217864000,8.056864013671875,-0.007904489514231682,-0.0017199008614756167,0.027225394786940887
1761820759227935000,8.06693505859375,-0.008506547060608863,0.0014379786475561557,0.014091014395747333
1761820759238005200,8.077005126953125,-0.02181961762011051,0.004790156885981559,0.012525071120122447
1761820759248075000,8.087074951171875,-0.005213350734114647,0.007361048553604632,0.013884796899696811
1761820759258146000,8.09714599609375,-0.0026718495577573776,0.002657656635623425,0.016997038035560397
1761820759268216000,8.107216064453125,-0.0029682021558284756,-0.0004711977083235979,0.02342709848252125
1761820759278286300,8.117286376953125,-0.01239887832403183,0.0032471469613723457,0.013806507499096914
1761820759288357000,8.127357177734375,-0.0067155719906091685,-0.0034523872098885474,0.011246794812614097
1761820759298427100,8.13742724609375,0.0006172551155090331,-0.003644676645286381,0.009695884709339589
1761820759308497200,8.1474970703125,-0.00506897382736206,-0.004440174404531717,0.014553709137206897
1761820759318568200,8.157568115234374,-0.012401800933480263,-0.004047923683933913,0.008155980057269334
1761820759328638000,8.167637939453124,-0.007758359041810035,0.005393876666482537,0.023832848005509003
1761820759338709000,8.177708984375,-0.005362988337874412,0.006726422178186476,0.014481173623958602
1761820759348779300,8.187779296875,-0.014788403809070587,0.0029337518969550728,0.016775467706751077
1761820759358849000,8.19784912109375,0.005413257220387459,0.002575092918705195,0.012357021076837555
1761820759368920000,8.207920166015626,-0.0023667291313409803,-0.004788640782330185,0.010896236942429095
1761820759378990000,8.217989990234376,-0.01224456454515457,0.0036190490136854348,0.020698267173673957
1761820759389060000,8.22806005859375,-0.012543255230784416,-0.0015747750360518692,0.02350194468386471
1761820759399131100,8.238131103515625,-0.008504208973050117,-0.006837718799244612,0.01345813245284371
1761820759409201200,8.248201171875,-0.001772270369529724,0.0025693572976626454,0.011773366836830973
1761820759419271200,8.258271240234375,0.0004699555993080139,0.0027812464826740325,0.0058764634185004975
1761820759429342000,8.268342041015625,-0.012252163329720496,0.004948653649631887,0.015357171007199213
1761820759439412200,8.278412109375,-0.004324292939901352,0.007456234290078282,0.009043101622723043
1761820759449482000,8.28848193359375,-0.008064648512005805,-0.004522884251922369,0.012037735127750783
1761820759459552800,8.298552734375,-0.002830254989862442,-0.0006322152226231992,0.015571599209168925
1761820759469622800,8.308622802734375,-0.004326631027460098,0.007552716934494674,0.01083058782769367
1761820759479693000,8.318693115234375,-0.0040296939074993135,0.003229373842664063,0.016694684954965486
1761820759489764000,8.32876416015625,-0.002985153290629387,0.007712291410379111,0.011916200240468605
1761820759499833900,8.338833740234374,-0.005230886390805244,0.003044062137324363,0.016997449027514083
1761820759509904000,8.34890380859375,-0.004029109385609626,0.0074938446204178034,0.010602268097689375
1761820759519975000,8.358974853515624,-0.008073416340351105,0.004469802357815206,0.015410901355277746
1761820759530044700,8.369044677734376,-0.012863573226332664,0.006524725593626499,0.006191749045904725
1761820759540115000,8.379114990234376,-0.014209727138280868,0.002053133137524128,0.008828527290280908
1761820759550186000,8.38918603515625,-0.0094242464274168,-0.00448839746043086,0.004652017923770472
1761820759560255700,8.399255859375,-0.00613338818848133,-0.004095891011506318,0.010849392992863431
1761820759570325800,8.40932568359375,-0.016160276684165,0.002333046057447791,0.015672447501448913
1761820759580396800,8.419396728515625,-0.022594693645834923,0.000980754665657878,0.01389063298543915
1761820759590467000,8.429467041015625,-0.013612930288910864,0.001323247960396111,0.011732285907771438
1761820759600536800,8.439536865234375,-0.014806523987650871,-0.000032276568096131085,0.018443930641934274
1761820759610607900,8.44960791015625,0.00599134936928749,0.0099487817581743,0.013712545605329796
1761820759620678000,8.459677978515625,0.000751110628247261,0.0094397727901116,0.014985095424950122
1761820759630748000,8.469747802734375,-0.02289104624390602,-0.004124258589465171,0.0053779484449885786
1761820759640819000,8.47981884765625,-0.0031371289819478987,0.0004852992989122867,0.010131499647628515
1761820759650889000,8.489888916015625,0.0009036708414554595,-0.0017583514420315622,0.01645449212407693
1761820759660958700,8.499958740234375,-0.002836100208759308,0.004779745089821518,0.010189924437133594
1761820759671029800,8.51002978515625,0.004494973331689835,-0.0060028388776816426,0.011411712183896451
1761820759681099800,8.520099853515624,-0.006575286737084388,0.005308536470588297,0.018593577378848567
1761820759691170000,8.530170166015624,-0.003731587743759155,-0.0011817388641647993,0.01733675485132262
1761820759701240800,8.54024072265625,0.0027080899149179456,0.008654741625953465,0.01934916325281374
1761820759711310800,8.550310791015624,-0.0038771336942911147,0.011247534598130732,0.02351569008142687
1761820759721380900,8.560380859375,-0.005675123026967048,-0.00005034194774925708,0.014511450031213461
1761820759731451600,8.57045166015625,-0.003281505888700485,-0.0002298267005011439,0.003186438883235678
1761820759741522000,8.58052197265625,-0.007324643799662589,-0.006575834726355969,0.008623743699491024
1761820759751592000,8.590592041015626,-0.004029109385609626,-0.0042022739954292775,0.012664717052830383
1761820759761663000,8.6006630859375,-0.01944061352908611,0.0017596483499743043,0.018091847534943372
1761820759771732700,8.610732666015625,0.006149170279502869,0.004457326468732208,0.013732556346897035
1761820759781803000,8.620802978515625,-0.008360416588187217,0.008304594747722148,0.011866963404417038
1761820759791874000,8.6308740234375,-0.008657938230037689,0.0002549611417576671,0.012561594605073332
1761820759801943800,8.64094384765625,0.000018704700469970702,0.0021365919035859406,0.011907450678432359
1761820759812013800,8.651013916015625,-0.007615151178836822,0.008924553276970983,0.012577431495022029
1761820759822084900,8.6610849609375,-0.0037251580029726027,0.002533116940502077,0.010664775407267733
1761820759832154600,8.671154541015625,-0.006720832687616348,0.003812215231917798,0.023466042253421616
1761820759842225000,8.681224853515625,-0.0064233110457658765,-0.0034025384524837133,0.013051990204211324
1761820759852296000,8.6912958984375,-0.010911270114779471,0.001169774431735277,0.006900490970304236
1761820759862366000,8.701365966796875,-0.004176993423700332,-0.001247205315809697,0.007057553828693926
1761820759872435700,8.711435791015624,-0.0043278000712394715,-0.001748122308962047,-0.0018383852751459925
1761820759882506800,8.7215068359375,-0.005227379259467125,0.009209142372012138,0.021274861485231666
1761820759892577000,8.731576904296874,-0.00911795695722103,0.004193341770302504,0.005241827909927815
1761820759902646800,8.741646728515626,-0.008071662774682044,0.00268118364168331,0.006491051652887836
1761820759912717800,8.7517177734375,-0.0026817864298820495,-0.002107457140646875,0.019272170760156585
1761820759922787800,8.761787841796876,-0.016597499057650567,0.005781213749945164,0.009510609536617995
1761820759932857900,8.77185791015625,-0.014801263290643692,-0.005471161420084536,0.013395698208501563
1761820759942929000,8.781928955078126,-0.006119944185018539,-0.0026807817828841504,0.013978311268892138
1761820759952999000,8.7919990234375,-0.006121697750687599,-0.0043042365325614805,0.016260832715500145
1761820759963069000,8.80206884765625,-0.007617489266395569,-0.0005219415148720145,0.02008895790260285
1761820759973139700,8.8121396484375,-0.012405308064818382,0.00427223395910114,0.008805456941947341
1761820759983209700,8.822209716796875,-0.004625321713089943,0.00033131431359797716,0.012171161382226273
1761820759993280000,8.832280029296875,-0.00881342105269432,0.0037786965548060832,0.012607086847769096
1761820760003351000,8.84235107421875,-0.001782207241654396,-0.004409432206396014,0.01120637147068046
1761820760013420800,8.8524208984375,0.0009124386698007583,0.0007194733809679746,0.0164880290674977
1761820760023490800,8.86249072265625,-0.003426467317342758,0.005411193127464502,0.015918202423444015
1761820760033561900,8.872561767578125,-0.010460603737831115,0.0013934271197766064,0.016598375840485097
1761820760043631900,8.8826318359375,-0.004328384593129158,-0.0001004646997898817,0.015043912940099834
1761820760053702000,8.892701904296874,-0.012707505881786346,-0.00557717907782644,0.01100280258944258
1761820760063773000,8.90277294921875,-0.00911971052289009,-0.003331555575504899,0.012501452782517299
1761820760073842700,8.9128427734375,-0.004485036459565162,-0.004285751027800142,0.015777487911656497
1761820760083913000,8.922912841796874,-0.0019376900643110274,-0.0007981098414398729,0.0040433845061343164
1761820760093984000,8.93298388671875,-0.004781389057636261,0.0005016659118235111,0.016493673356994986
1761820760104054000,8.943053955078126,-0.004631751453876495,0.003797017662785947,0.00678488350030966
1761820760114123800,8.953123779296876,-0.010620178213715553,0.006405519660748541,0.011464045159332454
1761820760124194800,8.96319482421875,-0.0034340661019086837,-0.00252827636860311,0.007184659940237179
1761820760134264800,8.973264892578126,-0.01151391218304634,0.0028493250165134666,0.015772135883104055
1761820760144334800,8.9833349609375,-0.0022328736186027526,-0.00031043592235073444,0.01663078940589912
1761820760154406000,8.993406005859375,-0.005222703084349632,-0.0019099800734780727,0.006045709905028343
1761820760164476000,9.003475830078125,-0.010462357303500175,0.003700863811932504,0.009299167876178398
1761820760174545700,9.013545654296875,-0.007765957826375961,0.004115454228501766,0.007214452290302142
1761820760184616700,9.02361669921875,-0.006119944185018539,-0.0021712796244770286,0.010066800380963832
1761820760194687000,9.03368701171875,-0.012705752316117286,-0.007196706571057438,0.008234726115595548
1761820760204757000,9.043757080078125,-0.013756722673773765,-0.0054261715008877215,0.01402686311835423
1761820760214827800,9.053827880859375,-0.022734394377470015,-0.0020036131736822426,0.003541453732829541
1761820760224897800,9.063897705078125,-0.01360007080733776,0.0018527151945978402,0.008807767630042507
1761820760234968000,9.073968017578125,-0.004323123896121979,-0.0008431180269457399,0.013575466089043765
1761820760245039000,9.0840390625,-0.004025602254271507,0.0019353885093703865,0.01312960375137627
1761820760255108900,9.09410888671875,-0.0014817629903554916,0.003325345030426979,0.010953300891909748
1761820760265179000,9.104178955078124,-0.015843465819954872,0.000818531574960798,0.013421791630983351
1761820760275250000,9.11425,-0.008960136047005653,-0.00021557897944003343,0.013441975902486593
1761820760285319700,9.124319580078126,-0.009109773650765419,-0.006508651241660118,0.015073011170420795
1761820760295390000,9.134389892578126,-0.010607318732142448,0.0038716903341934083,0.01434547321400605
1761820760305461000,9.1444609375,-0.0001344400346279144,0.00135335083771497,0.008567428668681532
1761820760315530800,9.15453076171875,0.0012158055305480956,-0.00239312394792214,0.016939718357753007
1761820760325600800,9.164600830078125,0.0003191489517688751,-0.0036553259034641083,0.013928288981551304
1761820760335671800,9.174671875,-0.004471592456102371,0.0041159656851552425,0.0015549834901932625
1761820760345741800,9.184741943359375,-0.01045651208460331,0.006070935677830129,0.01598380587240681
1761820760355811800,9.194811767578125,-0.012702829706668852,0.0017841252041049301,0.01866461505475454
1761820760365883000,9.2048828125,-0.011056231543421745,0.0032557869255542752,0.00878459681700915
1761820760375953000,9.214952880859375,-0.0050660512179136275,0.0032056276408955454,0.015519238834269344
1761820760386023000,9.22502294921875,0.006757073044776916,0.012179974876344203,0.012354664722969755
1761820760396094000,9.235093994140625,-0.006709726771712303,0.00889969283035025,0.010769194762967527
1761820760406164000,9.2451640625,-0.008357493978738785,0.006398450599145144,0.011450902549969031
1761820760416233700,9.255233642578125,-0.005063713130354881,-0.0024792678614147007,0.019749405483622102
1761820760426304800,9.2653046875,-0.008655015620589256,-0.008473941698949784,0.01911997587312944
1761820760436374800,9.275374755859374,-0.014047230052947998,-0.0012960311599075794,0.011784363154880701
1761820760446444800,9.28544482421875,-0.0026776947766542435,-0.004680979156773537,0.00939133967165835
1761820760456516400,9.295516357421874,-0.0037257425248622893,0.004018989850394427,0.009704807801311836
1761820760466586400,9.30558642578125,-0.014354104045033454,0.0051197906991466875,0.020688101972686126
1761820760476656400,9.315656494140624,0.0013566753059625625,-0.0014324074232950805,0.011707498526386915
1761820760486727400,9.3257275390625,-0.006721417209506034,0.003588416413404047,0.007089958260953426
1761820760496797400,9.33579736328125,-0.0068657941162586205,0.007280037472955882,0.01389859709618613
1761820760506867500,9.345867431640626,0.004506079247593879,0.00568593668192625,0.00857038781074807
1761820760516938500,9.3559384765625,-0.0014817629903554916,-0.004271357176266611,0.006425539535470306
1761820760527008300,9.36600830078125,-0.005221534040570259,-0.00597311959285289,0.009548767856229096
1761820760537078300,9.376078369140625,-0.00028407763838768005,0.0015782821673899889,0.011270897207409142
1761820760547149300,9.3861494140625,-0.010310966134071349,0.006544617604184896,0.014358734554378316
1761820760557219300,9.39621923828125,-0.015402736315131187,0.00012379077645018695,0.008789592652535065
1761820760567289300,9.406289306640625,-0.011961071428656577,0.008487002109922467,0.00814973297957331
1761820760577360400,9.4163603515625,-0.007474281403422356,-0.000008987024053931236,0.00789597741421312
1761820760587430400,9.426430419921875,-0.002238134315609932,-0.0009869104118086396,0.020043739654542876
1761820760597500400,9.43650048828125,-0.0077723875671625135,0.004043448438216001,0.014609713640762492
1761820760607571500,9.446571533203125,-0.004927519530057906,-0.001256941258534789,0.0073000299482140684
1761820760617641500,9.456641357421875,-0.01016542018353939,-0.0013483093364164232,0.018703969817608593
1761820760627711200,9.466711181640624,-0.011810264781117439,0.006843728414922952,0.014368132570385932
1761820760637782300,9.4767822265625,-0.0010410334855318068,-0.0008523242467083036,0.008150746759725734
1761820760647852500,9.4868525390625,-0.01466097803711891,0.006784399443119764,0.006771156369056552
1761820760657922300,9.49692236328125,-0.003441664886474609,0.0074930957017466425,0.017156219785800203
1761820760667993300,9.506993408203124,-0.007034720942378044,-0.001020483887847513,0.01073174882940948
1761820760678063400,9.5170634765625,-0.004042553389072418,-0.0016580694053322075,0.008108935178304091
1761820760688133400,9.52713330078125,-0.006737199300527573,-0.0015012166094966232,0.01520559717467986
1761820760698204200,9.5372041015625,-0.01182370878458023,-0.004023702558130025,0.01441787172993645
1761820760708274400,9.5472744140625,-0.023196751192212102,0.001942183576337993,0.012230791748128831
1761820760718344400,9.557344482421875,-0.005091770181059837,0.005313139580469578,0.010488140198728069
1761820760728415200,9.567415283203125,-0.012571896803379059,-0.0009675115915946662,0.011224144589388743
1761820760738485200,9.5774853515625,-0.010329086312651633,0.005510726245492696,0.012825277909403666
1761820760748555500,9.587555419921875,-0.01362228263914585,-0.0052292241566814475,0.015642244159430264
1761820760758626600,9.59762646484375,-0.018112579795718193,0.0024225875044241547,0.01227952626068145
1761820760768696300,9.6076962890625,0.0019411971956491468,0.0033689467101357877,0.017067664719512685
1761820760778766300,9.617766357421875,-0.009284545695781707,0.004751487109716982,0.012603333121258765
1761820760788837400,9.62783740234375,-0.014824059644341468,-0.00156796170277521,0.008964565626950935
1761820760798907400,9.637907470703125,-0.005398644173145294,0.0030729959708638488,0.011098645913042127
1761820760808977400,9.647977294921875,-0.009289806392788886,0.0052551257829181845,0.011956057326821609
1761820760819048400,9.65804833984375,-0.00614215601682663,0.005253427016176283,0.01030425326549448
1761820760829118200,9.6681181640625,-0.009290390914678573,0.008749543769937008,0.01528405097206123
1761820760839188200,9.678188232421874,-0.0027057518273591995,0.0014059760740958154,0.015299623000528662
1761820760849259300,9.68825927734375,-0.008541618373990058,-0.006976542748045176,0.009735979257710277
1761820760859329500,9.69832958984375,-0.011684592574834823,-0.0077155245470814406,0.008083499342948199
1761820760869399300,9.7083994140625,-0.011536708536744118,-0.004839457654114812,0.011725509107112883
1761820760879470300,9.71847021484375,-0.009592588731646538,-0.0024900084511376916,0.008982475742977112
1761820760889540400,9.728540283203126,-0.0031570027261972424,0.006958185107447207,0.011820174253778532
1761820760899610400,9.7386103515625,-0.000768061763048172,0.007606018024310469,0.010551487758522852
1761820760909681400,9.748681396484375,-0.01887596538364887,-0.0001840878626331687,0.010564831297285854
1761820760919751400,9.75875146484375,0.00132803373336792,-0.00243552005123347,0.012313346331892534
1761820760929821200,9.7688212890625,-0.0039040217012166973,0.00039844299936667084,0.020677607978135348
1761820760939892200,9.778892333984375,-0.01302840839922428,0.0030613968646153807,0.011207577047077939
1761820760949962500,9.78896240234375,-0.007938391783833503,0.011206417136453092,0.00958882587198168
1761820760960032500,9.799032470703125,-0.0026999066084623337,-0.0011151764339767396,0.006310854514082894
1761820760970102300,9.809102294921875,-0.00613864888548851,-0.005955072479508817,0.003149559205258265
1761820760980173300,9.81917333984375,-0.006438508614897727,-0.005869513087905943,0.018214688463322817
1761820760990243300,9.829243408203125,-0.009583236381411552,0.005027509305812418,0.01824422508506104
1761820761000313300,9.839313232421874,-0.010330839878320694,-0.0028033304503187534,0.015055676443129776
1761820761010384400,9.84938427734375,-0.012877601751685142,0.00356136400969699,0.015586175723792985
1761820761020454400,9.859454345703124,-0.011532032361626624,0.012581614479795097,0.006114701754320413
1761820761030524200,9.869524169921876,-0.007787000614404678,-0.0014284801668487488,0.013313097958965226
1761820761040595200,9.87959521484375,-0.010174772533774376,0.005843812391068786,0.018548998451605438
1761820761050665500,9.88966552734375,-0.005080664265155792,0.005483893037494272,0.010574000984430312
1761820761060735500,9.899735595703126,-0.009270517170429229,0.003023402941785753,0.008074941577157005
1761820761070806300,9.90980615234375,-0.013612930288910864,0.004144388062041253,0.012312259486503899
1761820761080876300,9.919876220703125,-0.009272270736098289,0.010716149401478468,0.017306670240312814
1761820761090946600,9.929946533203125,-0.016607435929775236,0.01006084556421265,0.018311490768147632
1761820761101017600,9.940017578125,-0.016012392646074295,-0.004286664343252778,0.010700148114748299
1761820761111087400,9.95008740234375,-0.009878419935703276,-0.006468593225907534,0.009495631163194775
1761820761121157400,9.960157470703125,-0.01287292557656765,0.0004898293435573578,0.00951179684670642
1761820761131228400,9.970228515625,-0.009582651859521864,-0.00452208053432405,0.016098563959030435
1761820761141298200,9.980298095703125,0.0064244800895452495,0.004855075348354876,0.015509137565363198
1761820761151368400,9.990368408203125,-0.005247837525606155,0.0034299927149899303,0.008379230886511504
1761820761161439500,10.000439453125,-0.006001286241412163,0.006261069688759744,0.014830197124183177
1761820761171509200,10.01050927734375,0.0037257425248622893,-0.003851305133290589,0.012281864348240195
1761820761181579300,10.020579345703124,-0.011537293058633803,0.006183419608976692,0.0080759096915368
1761820761191650300,10.030650390625,0.005673369461297989,0.0026302571720443666,0.006998708914080634
1761820761201720600,10.040720458984374,-0.02515197691321373,-0.0032267069615423676,0.02104145458815619
1761820761211790300,10.050790283203124,0.010461772781610488,-0.009020159138552844,0.010927609328227117
1761820761221861400,10.060861328125,-0.011237433329224587,-0.0038390667062252757,0.022208735668705775
1761820761231931400,10.070931396484376,-0.03323708369135856,0.0052712184011936185,0.021123159788548944
1761820761242001400,10.08100146484375,0.02601706930994987,0.0026188772615045306,0.009505193575983867
1761820761252072400,10.091072509765626,-0.03069675155878067,0.003076576167438179,0.011838614092767237
1761820761262142500,10.101142578125,-0.008543956461548805,0.001356328246090561,0.018056730555789543
1761820761272212200,10.111212158203125,0.004625321713089943,0.007347458419669419,0.013066731115616858
1761820761282283300,10.121283203125,-0.035927637949585915,0.011887494735792278,0.025056224921159446
1761820761292353300,10.131353271484375,0.03320785759687424,0.006383289562631398,-0.0004950991737190634
1761820761302423600,10.141423583984375,-0.020362989071011542,0.0008317746490240096,0.014091708515491335
1761820761312494300,10.151494384765625,-0.022607553127408028,-0.0023295389261096715,0.008503368722833693
1761820761322564400,10.161564453125,0.013751461976766586,-0.0019995945856906474,0.005797909156419336
1761820761332634400,10.17163427734375,-0.029792496195435524,0.002492529201786965,0.01915966856270097
1761820761342705200,10.181705078125,0.012108955466747283,0.0013269377548247574,0.016914666114887223
