time,seconds_elapsed,z,y,x
1761841485247558000,0.067557861328125,0.9477087206244468,0.24086451960504054,-0.6173349027469753
1761841485257627100,0.077627197265625,0.3691594756066799,0.3713222065985203,-0.7199787001416087
1761841485267697000,0.08769677734375,-0.4195844254642725,0.5119079043745994,-0.5494841863140464
1761841485277767000,0.097766845703125,-0.11564882491827011,0.5950947216272354,-0.3950467810571193
1761841485287836000,0.1078359375,-0.34190438893437386,0.6103630179077386,-0.4350792239770293
1761841485297906000,0.117906005859375,-0.4492372209280729,0.24261983883976934,-0.25974633020758625
1761841485307976000,0.127975830078125,-0.5709481223642826,0.06657412062585354,-0.08665741597265005
1761841485318045000,0.138044921875,-0.8336398583739996,0.17417466364502907,0.07457008781582117
1761841485328115000,0.148114990234375,-0.8721335474193096,0.050740591678023333,0.12630085957497358
1761841485338184000,0.158183837890625,-0.9229448662459849,0.036684009274840355,0.1659741137936711
1761841485348254000,0.16825390625,-0.6724678841650485,0.34046412699818607,0.11219020889699459
1761841485358324000,0.178323974609375,-1.0809785424292087,-0.11708148806989192,-0.05283814847916364
1761841485368393000,0.18839306640625,-1.557567296141386,-0.3956429933845997,0.04751607667356729
1761841485378463000,0.198462890625,-1.479585646316409,-0.42814182592928407,0.38854163694679733
1761841485388532000,0.208531982421875,-1.1064607742100954,-0.46188452105522154,0.7137652324542403
1761841485398602000,0.21860205078125,-0.6516296787977218,-0.55961365840137,0.893940305557847
1761841485408671700,0.228671630859375,-0.353304903870821,-0.5770487773269415,0.9394020800501107
1761841485418741000,0.238740966796875,0.007303016489744186,-0.40236557963788505,0.6926523017987608
1761841485428810800,0.248810791015625,0.04336100282073021,-0.26907062339186666,0.3011857173159718
1761841485438881000,0.258881103515625,-0.128968909740448,-0.14693419001996516,0.03759001820385456
1761841485448950000,0.268949951171875,0.07660860790610313,0.12008826867043972,-0.13553455186635255
1761841485459019800,0.279019775390625,-0.23771803827285765,-0.010413257464766502,-0.2809130368769169
1761841485469089000,0.289089111328125,-0.5436065264523029,-0.2140273660838604,0.09261369402855635
1761841485479158800,0.29915869140625,-0.44043724387884137,-0.3019190000265837,0.4623603218734264
1761841485489229000,0.30922900390625,-0.13586626803874968,0.026728432449698445,0.4579305227324366
1761841485499297800,0.3192978515625,-1.6071306607335805,-0.27926760775744913,0.5957397415325045
1761841485509368000,0.3293681640625,-0.5896762037098408,-0.9253858296573162,0.9040811758220195
1761841485519438000,0.33943798828125,0.135239076051116,-0.9022013534247875,0.41854923719763754
1761841485529506800,0.3495068359375,-0.09030980100035667,-0.46282969295084475,-0.0795747642353177
1761841485539577000,0.3595771484375,-0.7162567570090294,-0.3729354870140552,-0.31374855403006074
1761841485549645800,0.369645751953125,-0.6470815139740705,-0.3487935639262199,-0.5722177039086819
1761841485559716000,0.379716064453125,-1.1541653591930865,-0.7307920628398656,-0.13328399646058678
1761841485569786600,0.38978662109375,-1.1621586960345507,-1.2626976301044226,0.4865194883570075
1761841485579855400,0.39985546875,-1.2710504479080438,-1.527628084951639,0.7507615225486457
1761841485589925600,0.409925537109375,-1.3643138380169868,-1.611031175303459,0.05624189250804484
1761841485599995400,0.419995361328125,-0.9664917470276355,-1.68438048915267,-0.4709563007831573
1761841485610064400,0.430064453125,-0.8870458698689937,-1.568546370795369,-0.0323755532248877
1761841485620134700,0.440134765625,-0.9671882048591971,-1.374336050337553,0.6882886997617781
1761841485630203400,0.450203369140625,-1.2364634109124542,-1.5412369235873222,1.1901079755160957
1761841485640273700,0.460273681640625,-1.8827227948486804,-1.6353198133856057,1.3961166511215268
1761841485650343400,0.470343505859375,-2.2608079197108744,-1.3354887255489825,0.7150954581446946
1761841485660412700,0.48041259765625,-2.937725476761162,-0.7073036352247,0.5217120900303125
1761841485670482400,0.490482421875,-4.470340410214662,0.9319500104784965,0.6560933802083134
1761841485680551400,0.500551513671875,-4.052714425341785,2.0467618489265442,0.1254120940417051
1761841485690621400,0.510621337890625,-3.4852480076134205,2.011892195597291,-0.30957243738919493
1761841485700691500,0.52069140625,-2.347000348520279,1.826461978444457,-1.2802011380910874
1761841485710760700,0.5307607421875,-1.6882861182890831,2.2977906196713445,-2.386739069190621
1761841485720830500,0.54083056640625,-1.0266973555348813,2.3799855032771826,-3.3102205265313387
1761841485730900500,0.550900390625,0.11518354549407958,2.0911498567074536,-4.513174758812785
1761841485740969500,0.560969482421875,0.681724957332015,2.025662946796417,-5.247514869523048
1761841485751039500,0.57103955078125,0.6077507895827293,3.1450083370208737,-6.04095891110897
1761841485761108500,0.5811083984375,0.4288169487118721,5.040376678431034,-6.673240330836176
1761841485771178500,0.591178466796875,0.9697801210485398,5.3067526559114455,-6.804303582507371
1761841485781248500,0.60124853515625,1.980862704952806,3.4873511173725125,-6.260253988462686
1761841485791317500,0.6113173828125,1.8103556239046155,3.9225335094630718,-5.658724265351891
1761841485801387500,0.621387451171875,1.3243163202799857,4.349132197603583,-4.95243068395257
1761841485811457300,0.631457275390625,1.145143848347664,4.4392175421983,-4.113761599239707
1761841485821526500,0.641526611328125,0.6483386744283139,4.921287942191958,-3.1635937950253483
1761841485831596300,0.65159619140625,0.45050037273168564,5.558962745395302,-2.1942583490043877
1761841485841665500,0.66166552734375,0.36730405699834223,5.831064114785194,-1.3152929097384214
1761841485851735600,0.671735595703125,-0.009817775789648294,6.51157560467422,-0.7500181568354368
1761841485861805300,0.681805419921875,-0.05933145602121949,7.0552698094099755,-0.11766133378446102
1761841485871874600,0.69187451171875,-0.2473721479333937,7.6082672645419835,0.9110602210544049
1761841485881944300,0.7019443359375,-0.032615006270259615,8.400448738846181,2.061265590575337
1761841485892014600,0.7120146484375,0.5868740057706833,9.851722482913733,3.35566827249825
1761841485902083300,0.722083251953125,1.157563623329252,11.360122135782241,4.921301386195421
1761841485912153600,0.732153564453125,1.9333589032389222,12.509875523751973,6.408433794629573
1761841485922222300,0.742222412109375,2.7194214562714096,13.473276319026946,7.659128267729282
1761841485932292400,0.752292236328125,3.0861329542040825,14.025773423421382,8.954087999013066
1761841485942362600,0.762362548828125,3.050563628172874,13.388085760736464,10.884559802508354
1761841485952431400,0.772431396484375,2.840818469452858,11.67256779052019,13.61211897252798
1761841485962501600,0.782501708984375,3.1852114603325723,9.624964230072498,16.53697532310486
1761841485972570400,0.7925703125,3.9253891911551353,6.864889860895276,19.61081461292505
1761841485982640400,0.802640380859375,4.3001846268221735,4.443570476710796,21.259940248823163
1761841485992710700,0.812710693359375,3.7733164692029355,3.336269744545221,21.275327203047276
1761841486002779400,0.822779296875,3.356938146303594,3.3193905059367417,20.371948622536657
1761841486012849700,0.832849609375,3.1215082189679144,4.399154996401071,18.96714846035242
1761841486022919400,0.84291943359375,2.6761878792226312,5.759840707048774,17.56115353542566
1761841486032988700,0.85298876953125,2.1213361745260655,6.581255290099978,16.243481037074325
1761841486043058400,0.863058349609375,1.8105097915530204,7.240873045042156,14.389631285488605
1761841486053127400,0.87312744140625,1.0821499242961405,7.587332028540969,12.133190913337469
1761841486063197400,0.883197509765625,-0.9397393491804599,7.534851315197348,9.546602641019225
1761841486073267500,0.893267333984375,-4.334770494773983,7.8839207734555,6.7610092151820655
1761841486083336700,0.903336669921875,-8.029796394333243,8.996752836263179,4.8357729742527
1761841486093406500,0.913406494140625,-9.408329896360636,10.717508122611045,4.258347764828801
1761841486103476500,0.9234765625,-6.503957530885934,13.358766142749786,3.6905554761469364
1761841486113545500,0.93354541015625,-0.5810382853545248,17.162631187212465,0.20304244621098042
1761841486123615500,0.943615478515625,7.764106061029434,21.78808149511814,-8.360460427328944
1761841486133684500,0.9536845703125,14.026173236393928,20.421941610717774,-18.536452858287095
1761841486143754500,0.96375439453125,12.093716981083155,22.871425013113022,-23.609624721860886
1761841486153824500,0.973824462890625,9.191431358754635,27.426524604463577,-25.913517750060556
1761841486163893500,0.9838935546875,15.832076995456218,21.077969232213494,-26.081488298368452
1761841486173963500,0.993963623046875,16.85403636268377,12.27197979082465,-21.956727750730515
1761841486184033300,1.004033203125,13.697996928560732,13.016201244080065,-17.825085042363405
1761841486194102500,1.0141025390625,9.365028514772654,13.184274668240546,-13.396241010141372
1761841486204172300,1.02417236328125,5.246179821527004,11.398466771745682,-9.102714379903674
1761841486214241500,1.034241455078125,2.5630615585193035,10.026599741870164,-5.421719928306341
1761841486224311600,1.0443115234375,0.485194377233088,9.373598774719238,-2.58293062659353
1761841486234381300,1.05438134765625,-1.300112291741371,9.214205500620603,-0.49022418809384105
1761841486244450600,1.064450439453125,-2.3866391159474847,9.864641585719585,1.47189070789963
1761841486254520300,1.074520263671875,-3.0922762792646883,11.033893454885483,3.633973172703385
1761841486264589600,1.084589599609375,-3.4049554504975674,12.20555004710555,5.800799909424781
1761841486274659300,1.094659423828125,-3.2174256307169795,13.249278178548812,8.031939836102724
1761841486284729600,1.1047294921875,-3.4302152716994283,12.844611336231232,11.25654134979844
1761841486294798300,1.11479833984375,-3.6308337056338784,10.984614752453565,15.588400341039895
1761841486304868400,1.124868408203125,-3.563422257401049,8.267394021096825,20.57327198987007
1761841486314937600,1.1349375,-3.2828514580905437,5.127998847782612,25.210073712873456
1761841486325007400,1.14500732421875,-2.143403191035986,2.4962866546243427,27.94560809955597
1761841486335077600,1.15507763671875,-0.47427053989768025,0.14379998364746568,29.05739211461544
1761841486345146400,1.165146484375,0.6749342742785811,-0.27769290578663347,28.868397482979297
1761841486355216400,1.17521630859375,1.4883321396127343,1.9460913974314926,26.954424978864193
1761841486365286700,1.18528662109375,1.6718867721520363,4.916381465449929,24.32120764183998
1761841486375355400,1.19535546875,2.0309704055547715,7.522864524805545,21.1185093323946
1761841486385425700,1.20542578125,1.5365432128131389,9.657946462219954,17.436556849420068
1761841486395494400,1.215494384765625,-0.03612447569593787,10.822968730992079,13.703345303851366
1761841486405564700,1.225564697265625,-2.127764892399311,12.328600088191031,9.417847081768512
1761841486415634400,1.235634521484375,-4.796092121249437,13.281408177781104,5.098394567635655
1761841486425703400,1.245703369140625,-5.459014762955904,14.140880981069802,1.1617284879237413
1761841486435773400,1.2557734375,-2.171082640600204,16.689250289630888,-3.9560914956718682
1761841486445843500,1.265843505859375,2.452187400656938,20.784490143752098,-11.455214494884013
1761841486455912700,1.27591259765625,7.887659959983825,23.137838399994372,-20.66027222793102
1761841486465982500,1.285982421875,12.682087362891435,21.941378205907345,-27.86308296108246
1761841486476051500,1.296051513671875,14.30521229609251,19.068953468835353,-30.564698711550236
1761841486486121500,1.30612158203125,13.210456572723388,16.299902596998212,-28.5928562022686
1761841486496191500,1.31619140625,10.445270559620857,14.261132331347465,-23.61712998292446
1761841486506260500,1.326260498046875,7.8191224303305145,11.976572949171066,-18.27618045837879
1761841486516330500,1.33633056640625,5.42021186183095,9.309144130465388,-13.593688997346161
1761841486526400500,1.346400390625,3.069622548907995,6.705523474803567,-9.985381596297024
1761841486536469500,1.356469482421875,1.3202129766143857,5.192673272266983,-7.34191349889338
1761841486546539500,1.36653955078125,-0.1273380936682224,4.617049559307098,-5.01078467324376
1761841486556608500,1.3766083984375,-1.2128887663185597,5.2726148239880795,-2.7470819088742133
1761841486566678500,1.386678466796875,-2.2357436210811135,7.358184250214696,-0.39494010581225153
1761841486576748800,1.396748779296875,-2.844032170802355,9.809705880439282,2.147598889160156
1761841486586817800,1.40681787109375,-2.7712399063140154,11.864648697733879,4.916246440893412
1761841486596887800,1.4168876953125,-2.3975556467592716,12.523022590094804,8.155423592430353
1761841486606956800,1.426956787109375,-2.7742379190862176,11.562127055639028,12.087113052773475
1761841486617026800,1.43702685546875,-3.4608383735001085,8.809492481073736,17.385930239510536
1761841486627096600,1.4470966796875,-2.410087796074152,5.437525400203466,23.234221383428572
1761841486637165800,1.457165771484375,-0.06415346935018897,3.0668934162050485,27.547936815214154
1761841486647235600,1.467235595703125,3.024153760153055,1.7263953380614518,29.156080452382565
1761841486657305600,1.4773056640625,4.752092820525169,2.034694979035854,28.713274725806713
1761841486667374600,1.48737451171875,5.450906275302171,4.601504199650884,26.010536693310737
1761841486677444600,1.497444580078125,4.954559512674808,7.72810009714663,22.715649929511546
1761841486687513900,1.507513916015625,4.488280556052923,9.99464276111722,19.44873487622142
1761841486697583600,1.51758349609375,4.10864644818306,11.389745705151558,16.301915690386295
1761841486707654000,1.52765380859375,3.2833670063972473,11.885541848158836,12.846354380506277
1761841486717722600,1.53772265625,2.04563138359189,11.359417202383279,8.989653233391046
1761841486727792600,1.547792724609375,0.2423696269383654,11.042855344498157,4.543535410284996
1761841486737861600,1.557861572265625,-1.9014321714937685,11.24309500824809,-0.731964613750577
1761841486747931600,1.567931640625,-1.9756383944332598,12.50492228525877,-6.748538440665603
1761841486758002000,1.578001953125,1.6825428984619677,15.6907793500185,-13.797795857918262
1761841486768070700,1.588070556640625,7.652954547530412,18.53943041279316,-21.900587930357457
1761841486778140700,1.598140625,12.712652012503147,18.717804281693695,-29.419524468064306
1761841486788210700,1.608210693359375,14.031991567283868,17.42279135891795,-33.40752092204094
1761841486798279700,1.61827978515625,12.269610139083861,15.655782855439185,-32.335224867761134
1761841486808350000,1.628349853515625,9.121045570886135,13.587697647976874,-26.967899377465248
1761841486818418700,1.638418701171875,6.340601198375225,12.39369244582653,-20.20748754365444
1761841486828488700,1.64848876953125,4.255674746227264,10.67066921454668,-13.68427469267845
1761841486838558700,1.658558837890625,2.2443571356475354,9.006108693629503,-8.493578273442386
1761841486848627700,1.668627685546875,0.5068063434518874,8.247288806179165,-4.801769874624908
1761841486858697700,1.67869775390625,-0.9449554033283144,8.32911661003828,-1.8559408786460756
1761841486868766700,1.6887666015625,-1.5063994189620018,9.13284122262001,0.5692471636652946
1761841486878836700,1.698836669921875,-1.6331003837704658,10.476701470673083,2.695495221760869
1761841486888906800,1.70890673828125,-1.8218857565701008,11.915476383173464,4.713557922686636
1761841486898975500,1.7189755859375,-2.721545608818531,12.781882785117626,7.130697683098912
1761841486909045800,1.729045654296875,-3.607352292281389,12.277218276000022,10.609398461025952
1761841486919115800,1.73911572265625,-3.921967692273855,10.604075804698466,14.463562783139944
1761841486929184800,1.749184814453125,-2.764496277272701,8.034529268074035,18.030525781887768
1761841486939254800,1.7592548828125,-1.5814413620732723,7.370412448146939,20.960679069828984
1761841486949323800,1.76932373046875,-0.5427613077998161,6.8468801569521425,22.484109118568895
1761841486959393800,1.779393798828125,1.123015018647909,5.5693736647725105,22.294614136195182
1761841486969463800,1.7894638671875,3.2724937302052974,5.208780941981077,21.211747588062284
1761841486979532800,1.79953271484375,4.389656515693664,5.891512446007132,19.786790773034095
1761841486989602800,1.809602783203125,5.240353307330608,6.455692973932623,18.315322382199763
1761841486999671800,1.819671875,5.240142879450321,6.551147736606001,16.55841675506234
1761841487009741800,1.829741943359375,4.615232865273952,5.929334519401192,14.424876786392927
1761841487019811600,1.8398115234375,3.296474325251579,5.121427652698755,11.958298456811905
1761841487029880800,1.849880859375,0.6909787425633519,4.318683867847919,8.966328471904992
1761841487039950800,1.859950927734375,-2.616784088617563,4.033692621746659,5.323724833500385
1761841487050019800,1.870019775390625,-5.405018968874216,4.596768987822532,1.2399015686675905
1761841487060089900,1.88008984375,-6.385160471069812,6.370951328453422,-2.776141706880927
1761841487070159600,1.89015966796875,-4.137490265351533,9.828541513812542,-7.575946126651764
1761841487080228900,1.900228759765625,0.6105670160472393,14.2890771538496,-14.23066471236944
1761841487090298600,1.910298583984375,6.865015533101558,17.011503052634,-22.459601284778117
1761841487100368600,1.92036865234375,11.713257528305054,15.4839123770833,-28.8923371614933
1761841487110437600,1.930437744140625,13.282604109567403,13.464473419368266,-31.239982822179794
1761841487120507600,1.940507568359375,12.865304580169916,11.673547449207305,-28.98550761262178
1761841487130576600,1.95057666015625,10.17830655311942,10.331953977042437,-23.118303678441045
1761841487140646700,1.960646728515625,7.414225286388397,10.311846424037217,-16.776183892196414
1761841487150716700,1.970716552734375,4.838349839003384,9.486685640195011,-10.83725210788846
1761841487160785700,1.98078564453125,2.600392925786972,8.8519901450634,-6.1663043696552515
1761841487170855700,1.990855712890625,0.5249978337027132,9.31374665582478,-2.611544142137468
1761841487180924700,2.000924560546875,-0.48130087692588563,10.280243663549422,0.29964857087656854
1761841487190994700,2.01099462890625,-0.42108357798084617,11.417296559900045,2.8884382987618444
1761841487201064700,2.021064697265625,0.1008826329410076,12.305680984896421,5.350437483859062
1761841487211133700,2.0311337890625,-0.23665786169543862,11.897345683199166,8.658622120648621
1761841487221203700,2.04120361328125,-1.27794386068359,9.651221537879108,13.258410748553276
1761841487231272700,2.051272705078125,-1.8353613242149351,7.064958844253421,17.980510581874846
1761841487241342700,2.0613427734375,-1.6334266931153834,4.590891620221734,22.01854210960865
1761841487251412700,2.071412841796875,-0.4313432523190975,2.7572189797461033,24.752958890438077
1761841487261481700,2.081481689453125,1.4819029833480715,2.5424317352056502,25.72257549148798
1761841487271551700,2.0915517578125,2.5897896987080573,3.30387671046257,24.730751734805107
1761841487281620700,2.101620849609375,2.5181425126016137,5.763877415218949,22.650765661668775
1761841487291690800,2.111690673828125,2.3093875339627266,7.994057556954026,20.222846440827844
1761841487301760800,2.1217607421875,2.6451766548871993,9.193056329607963,17.687986602181194
1761841487311829800,2.131829833984375,2.7858593832969665,10.004795906341075,14.875539656209945
1761841487321899800,2.141899658203125,1.8780676625192165,10.003844304704666,11.799317855167388
1761841487331969800,2.1519697265625,0.4132393672864884,9.540487373009324,8.306035009658336
1761841487342038500,2.16203857421875,-1.9563608625113964,9.369035996848345,4.079205834165215
1761841487352108800,2.17210888671875,-4.122347641277313,9.944281524145602,-0.6320674847155809
1761841487362177500,2.182177490234375,-4.2212253641366955,11.41167462836504,-5.737607832452655
1761841487372247800,2.192247802734375,-0.8215148285552859,14.993711277604103,-12.243809342873096
1761841487382317800,2.20231787109375,5.018444832608103,18.52645168875456,-20.425051267170904
1761841487392386600,2.212386474609375,10.357859987193345,17.7473938999176,-27.510931903421877
1761841487402456800,2.222456787109375,12.818729875999688,15.400018288344144,-31.18019324712753
1761841487412525600,2.232525634765625,13.205926528078317,12.781235134863852,-30.099061559963225
1761841487422595800,2.242595947265625,11.081050342857838,10.91211182630062,-25.32404145283699
1761841487432665900,2.252665771484375,7.756050180345773,10.379697724992036,-19.71833624548912
1761841487442734600,2.262734619140625,4.924553665989637,8.809220093873142,-14.136928444051742
1761841487452804900,2.272804931640625,2.563295659536123,7.0370356490612025,-9.353383669686316
1761841487462873600,2.28287353515625,0.6386124493796378,6.380201971879601,-5.551921010190248
1761841487472943900,2.29294384765625,-0.8194155181884765,6.49573973763883,-2.320793017335236
1761841487483013600,2.303013671875,-1.4928560467779635,7.581855642956495,0.5149222837597132
1761841487493083000,2.313082763671875,-1.5224538971841335,9.237269565343857,3.10104790700227
1761841487503153000,2.32315283203125,-1.3996154530227183,10.660881980025767,5.617732914271951
1761841487513222700,2.33322265625,-1.8330945483267307,10.812377194350958,8.87347541616261
1761841487523292000,2.3432919921875,-2.6110534360110758,9.082121673730015,13.180435528469085
1761841487533361700,2.353361572265625,-3.2240427107691763,6.291370426738262,18.024507544511554
1761841487543431000,2.363430908203125,-2.7742554547429084,4.522514249566197,22.104868978452682
1761841487553500700,2.373500732421875,-1.3147837911725044,3.3393332237690685,24.58529229351282
1761841487563570700,2.38357080078125,1.2066459264062344,2.4595032766282556,25.363340028524398
1761841487573643300,2.393643310546875,2.834121017640829,3.470882213130593,24.477370847976207
1761841487583713000,2.403713134765625,4.036517616039514,5.682307970035076,22.24651499893665
1761841487593782300,2.4137822265625,4.2543268387496465,7.585906379652023,19.545403106337783
1761841487603852000,2.42385205078125,3.804613232481479,8.80314457335174,16.374341459649802
1761841487613921300,2.43392138671875,2.8848002345204353,9.015255292159319,12.991376599425077
1761841487623991000,2.443990966796875,1.202564940702915,8.432499243101477,9.425506656610965
1761841487634061000,2.45406103515625,-1.0216215866405516,7.433396435326338,5.7646764566421504
1761841487644130000,2.464130126953125,-3.8798645805597305,6.523975652042031,1.816168840228021
1761841487654200000,2.474199951171875,-5.594428611052036,6.3725903278321026,-2.026596428254247
1761841487664270000,2.48427001953125,-4.594387645643949,7.368707982316613,-6.146288002064824
1761841487674339000,2.494339111328125,-1.7721370985388756,9.621350131228565,-11.510059014749526
1761841487684409000,2.5044091796875,1.5898014864005148,12.410817768150567,-18.18130787950754
1761841487694478000,2.51447802734375,4.949185418421029,13.40269646989107,-24.586381842315195
1761841487704548000,2.524548095703125,8.332489301341772,12.342426368969678,-28.79667664711475
1761841487714618000,2.5346181640625,10.491038623583316,11.02433184581399,-29.665647931110858
1761841487724687000,2.54468701171875,10.775447101360559,9.638895140269398,-27.112683111453055
1761841487734757000,2.554757080078125,8.994663755029439,9.065839816492796,-22.47278108434677
1761841487744826000,2.564826171875,6.603030484056473,9.064572573035955,-17.426870152664183
1761841487754896100,2.574896240234375,4.370686442285776,8.70631209258437,-12.477442742180823
1761841487764966000,2.5849658203125,2.262282083916664,8.707057942515611,-8.116646410268544
1761841487775035100,2.59503515625,0.34020445314869285,9.029790597990155,-4.476803176487982
1761841487785105000,2.60510498046875,-0.9661528704620898,9.691947516021132,-1.4202077208049595
1761841487795174100,2.615174072265625,-1.51580686038509,11.076443141323328,1.2857339300379156
1761841487805244200,2.625244140625,-1.7768645654521882,12.28069033602476,4.106790591183304
1761841487815314200,2.635314208984375,-2.268256043759733,12.104175246733426,7.844735010492801
1761841487825383200,2.645383056640625,-3.0071628778636454,10.237381842422485,12.951118238794804
1761841487835453000,2.655452880859375,-3.6979941017150875,7.323740713343024,18.88607644329667
1761841487845522200,2.665522216796875,-3.40436303756237,4.37355059954524,24.261885684299468
1761841487855592000,2.675592041015625,-1.8230828574001787,2.2610908283054827,27.797183963239192
1761841487865662200,2.685662109375,0.009255027340352535,1.9217232643723487,29.053798474037645
1761841487875731000,2.69573095703125,1.2971946507290004,3.43595703022182,28.34553330030441
1761841487885801000,2.705801025390625,2.1064159610308706,6.051159987127781,26.314705518090722
1761841487895870200,2.7158701171875,2.957106761318445,8.54034703887999,23.487202457284926
1761841487905940000,2.72593994140625,3.695551969259977,9.950268197339772,20.149739119040966
1761841487916010200,2.73601025390625,3.754174838620424,10.340068309915065,16.72699871326685
1761841487926079000,2.746078857421875,2.757372124481201,10.12530327720642,13.235043901491164
1761841487936149200,2.756149169921875,0.3681307170808315,9.844902281504869,9.377416871702671
1761841487946218000,2.766218017578125,-2.4413646856084465,9.670939214783907,4.751328265893459
1761841487956288000,2.7762880859375,-4.767518353193998,10.079607693958282,-0.3996598278105259
1761841487966358300,2.786358154296875,-4.448318255759776,11.87302138928175,-6.090348088178038
1761841487976427000,2.796427001953125,-1.706636013972014,15.217377409648895,-13.250186525565384
1761841487986497300,2.806497314453125,1.7640037687048316,17.429795100200174,-21.24730288556814
1761841487996566000,2.81656591796875,5.682118584942818,17.142628848147393,-27.554259003973005
1761841488006636000,2.826635986328125,9.149054690796136,15.722702428501844,-30.494378390133377
1761841488016706000,2.8367060546875,10.616092405706643,13.758740443336963,-29.372404989492892
1761841488026775000,2.846775146484375,9.961148487794398,11.864134318470954,-25.095771626389027
1761841488036845300,2.85684521484375,7.6715692316293715,10.655371107649803,-19.784230567157266
1761841488046914000,2.8669140625,5.008631294602155,9.023298313361407,-14.71070097618699
1761841488056984000,2.876984130859375,2.829926488560438,7.217657004627585,-10.210767391741275
1761841488067054000,2.88705419921875,1.0180872019693255,6.2819683921426535,-6.4926324192732565
1761841488077123000,2.897123046875,-0.4815852468252182,6.377270594602823,-3.4175682638332248
1761841488087193000,2.907193115234375,-1.413932878319174,7.65448774844706,-0.715144119592011
1761841488097262000,2.917261962890625,-1.6457647811628877,9.351405647611617,1.7250580981083212
1761841488107332000,2.92733203125,-1.5743128253675995,10.618847841894626,4.289698304121196
1761841488117402000,2.937402099609375,-1.6397908213198185,10.834294427126645,7.488716171488165
1761841488127471000,2.94747119140625,-1.8202748142421246,9.971842900288104,11.877729128581285
1761841488137541000,2.957541015625,-1.9301148067511618,7.669005518621206,17.17582852243781
1761841488147610000,2.967610107421875,-1.489735722800344,4.728382274591922,21.814427065730094
1761841488157680000,2.97768017578125,-0.3028017742104828,2.232665528810024,24.736297678494452
1761841488167750100,2.987750244140625,1.9184322600029409,0.5705810426175594,26.131824985420703
1761841488177819100,2.997819091796875,3.480763555675745,1.0048492424726485,26.127211938667294
1761841488187889200,3.00788916015625,3.3519466216266154,2.912048891451955,24.16156068524122
1761841488197958000,3.0179580078125,2.4621616821825505,5.222337173646689,21.430370465242863
1761841488208028200,3.028028076171875,1.8462322623193264,7.051071188676357,18.38526744056344
1761841488218097200,3.03809716796875,1.357895787668228,8.49644710687697,15.247332987451552
1761841488228167200,3.048167236328125,0.6186451085627078,9.275269333392382,12.090676298213005
1761841488238237200,3.0582373046875,-0.5952795036096126,9.390225499871372,8.620205003970861
1761841488248306000,3.068305908203125,-2.0925942102968693,9.439704693311452,4.633046754384041
1761841488258376200,3.078376220703125,-3.158883717638254,10.255871438837051,-0.24121990891396997
1761841488268445000,3.08844482421875,-2.6590613878548144,12.659313221025466,-6.070939623352885
1761841488278515200,3.09851513671875,0.19548852370008826,15.098390964740513,-12.695702046746014
1761841488288585200,3.108585205078125,4.228838177227973,16.72069289112091,-19.80123547797203
1761841488298654000,3.118654052734375,7.793424509972334,16.410566619241237,-25.562119556593892
1761841488308724200,3.12872412109375,8.19411192726493,15.371057566797733,-27.610578857088086
1761841488318793000,3.13879296875,8.75012200821638,13.601941277384757,-26.808722376465795
1761841488328863200,3.14886328125,8.41341635696888,11.555880854725837,-22.937120597338676
1761841488338933000,3.15893310546875,6.63209174336791,9.74971055368185,-17.94418839164972
1761841488349002200,3.169002197265625,4.44908368717432,9.496837031853198,-13.652081565082073
1761841488359072300,3.179072265625,2.7341537459790706,7.751072391933202,-9.43646410395503
1761841488369141000,3.18914111328125,1.7345115706302225,6.701718821823596,-5.775052889227867
1761841488379211300,3.199211181640625,0.682787179736048,6.949613970717787,-2.653037889781594
1761841488389281000,3.209281005859375,-0.15237199715971947,8.018281313106417,-0.027182021436095237
1761841488399350300,3.219350341796875,-0.5147709656555205,9.604084523651004,2.3190936660714447
1761841488409420000,3.229419921875,-0.9292238003849983,10.831405719947814,4.70645452042222
1761841488419489000,3.239489013671875,-1.6455203048825262,10.60444288444519,7.953817901024222
1761841488429559000,3.24955908203125,-2.1848983999848364,8.495504857590793,13.131861759436129
1761841488439629000,3.259629150390625,-1.5166729756951332,5.216391416984796,18.766086958825586
1761841488449698300,3.2696982421875,-0.790505065524578,2.755958166030049,23.030239610540864
1761841488459768000,3.27976806640625,0.003233575093746185,1.1023767197668553,25.487270359575746
1761841488469837300,3.28983740234375,1.7502561061203479,0.17519523886442184,25.727380261421203
1761841488479907000,3.299906982421875,2.3876398174226283,1.4915443796575067,24.174177005708216
1761841488489977000,3.30997705078125,2.5450609146654606,4.0391000337481495,21.429332354366778
1761841488500046000,3.320046142578125,2.4102678288161754,6.388420934170484,18.48410775402188
1761841488510116000,3.3301162109375,2.18651401848793,8.00300074186623,15.439623153501747
1761841488520185000,3.34018505859375,1.5151999805331229,9.027699763190746,12.344613649880886
1761841488530255000,3.350255126953125,0.41021278600692745,9.069322397911549,9.026522536104917
1761841488540324000,3.360323974609375,-0.7672890251100063,8.939351617652177,5.339785741463303
1761841488550394000,3.37039404296875,-1.9090601821541786,9.069415336892009,1.1181973892331123
1761841488560464100,3.380464111328125,-1.9635586650609969,9.57514718298018,-3.6162796951025724
1761841488570533000,3.390533203125,-0.4347346483230591,11.180900710141659,-9.378603451138734
1761841488580599300,3.400599365234375,2.377632802671194,12.997027757054566,-16.049484067106246
1761841488590668300,3.410668212890625,5.535777684640884,13.17951198388338,-22.16283250712156
1761841488600738300,3.42073828125,7.797937018960714,11.682142259073256,-25.77128486959934
1761841488610808000,3.43080810546875,9.076537736117839,10.03332057455778,-26.008434752595424
1761841488620877300,3.440877197265625,8.561454708838463,8.937522648659348,-23.345689707791802
1761841488630947000,3.450947021484375,6.606301468551158,8.3805147888422,-19.383610954403878
1761841488641016300,3.461016357421875,4.521248759675026,7.490901114311814,-15.192196206641196
1761841488651086300,3.47108642578125,2.811568994092941,5.657757466146349,-11.132188993942737
1761841488661156000,3.481156005859375,1.40166420224607,4.504974501222372,-7.656545850020646
1761841488671225300,3.491225341796875,0.19991529063377528,4.137979510173201,-4.711785652317107
1761841488681295000,3.501295166015625,-0.47986024966351687,4.416123666858673,-2.1549355156585572
1761841488691364400,3.5113642578125,-0.6710580173671246,5.390101385727524,0.24275603244006633
1761841488701434000,3.52143408203125,-1.0847837068658321,6.373534915205836,2.8221161070704457
1761841488711504100,3.531504150390625,-2.1396486608080565,6.488482898378372,5.859521562984585
1761841488721573000,3.541572998046875,-3.5853164015620944,5.292117981359362,9.816392810857295
1761841488731643100,3.55164306640625,-4.710447389450669,3.2281489770442247,14.321838436722755
1761841488741712400,3.56171240234375,-4.959651867377758,0.9279179784834385,18.542426671999692
1761841488751782100,3.5717822265625,-3.9272459249377247,-0.03519932367503643,21.714462132155894
1761841488761852200,3.58185205078125,-3.1314912683218714,1.0555611925780772,23.425981972646714
1761841488771921200,3.591921142578125,-0.07914660195112228,-0.12657938425540924,23.092657196009156
1761841488781991200,3.6019912109375,1.595715532749891,1.4655167889535425,21.59941185765266
1761841488792060200,3.61206005859375,2.971078003525734,3.821068692719936,19.221438863241673
1761841488802130200,3.622130126953125,3.756959500902891,5.706386764758825,16.874835989606378
1761841488812199200,3.63219921875,4.103611961147189,7.301494394743442,14.367884733104704
1761841488822269200,3.642269287109375,3.784440213024616,8.34944452779591,11.836002448964118
1761841488832339200,3.652339111328125,2.4119851541280743,8.737804378435015,9.06529153496027
1761841488842408200,3.662408203125,0.41403084645774213,8.806773869764804,5.696845029431581
1761841488852478200,3.672478271484375,-1.9733634352385996,9.079061117115616,1.4287462704390286
1761841488862547200,3.682547119140625,-2.851812157154083,9.450367541623114,-2.9427731155395507
1761841488872617200,3.6926171875,-0.9289316125053911,9.935043740200996,-6.730504771324992
1761841488882687200,3.702687255859375,2.5876947722554204,11.34065171163678,-10.866040979999303
1761841488892756200,3.712756103515625,4.806016133892536,12.609948009353875,-15.538347731626033
1761841488902826200,3.722826171875,6.305768369925022,12.87370883589983,-19.0744199175477
1761841488912895200,3.732895263671875,7.67634594451189,12.313138315165043,-20.435481475770473
1761841488922965200,3.74296533203125,8.99457023152709,11.331360151678323,-19.61794344189167
1761841488933035000,3.753034912109375,8.132367711013556,10.540260042870043,-17.036909881091116
1761841488943104300,3.763104248046875,6.556001021856069,10.072773464024067,-14.015117589372396
1761841488953174000,3.773174072265625,4.576010277432203,8.956718347516656,-10.981618493247032
1761841488963243300,3.7832431640625,2.9242130842372775,7.66051300008595,-8.201086442452668
1761841488973313300,3.793313232421875,1.814840806494653,7.181252981337905,-5.768529624938965
1761841488983383300,3.80338330078125,1.0394329184673725,7.412793792280555,-3.480974568077922
1761841488993452300,3.813452392578125,0.45713688813671466,7.780834492990374,-1.1437240446776151
1761841489003522000,3.82352197265625,0.048441667085886,8.50688783687055,0.9969657957464456
1761841489013591300,3.83359130859375,0.049938043123483655,9.888585940408706,3.0035780051141976
1761841489023661000,3.8436611328125,0.15595051323361694,11.079916370391844,5.169171400648355
1761841489033730300,3.853730224609375,0.15132219584584236,11.099434725332259,7.976186384698748
1761841489043800000,3.863800048828125,-0.5677016877889632,9.173341575312614,12.151106509256362
1761841489053870000,3.8738701171875,-2.0932932984769343,4.740198384591936,17.34024283956885
1761841489063939300,3.883939208984375,-2.7201941942095753,0.5622907686561346,21.84781495606899
1761841489074009000,3.894009033203125,-3.215906750586629,-2.496616324970126,25.67092713731527
1761841489084078300,3.904078369140625,-3.909526728373766,-3.9274592754274606,28.082725244438645
1761841489094148000,3.914148193359375,-3.3723774152368304,-3.5654607774913307,27.32832726508379
1761841489104218400,3.92421826171875,-2.3229478572815654,-1.6194640726059675,24.508949058544633
1761841489114287000,3.934287109375,-1.3798966070741414,1.7431810531675815,21.04683058210611
1761841489124357000,3.944357177734375,-0.1937882956534624,4.854654200333356,17.52920824511051
1761841489134426000,3.954426025390625,0.1001980847429484,7.190896423473954,13.849480452448129
1761841489144496000,3.96449609375,-0.37379586670305576,8.830870784667134,9.766378779888152
1761841489154565400,3.9745654296875,-0.9137246179580688,9.923383697545528,5.212918187916278
1761841489164635100,3.98463525390625,-1.4757856695115565,10.91727899980545,0.29494331579506394
1761841489174705200,3.994705078125,-0.5197721349436789,12.420601495540142,-5.162456413179636
1761841489184774100,4.004774169921875,2.588378662866354,14.235602753293513,-11.296841796004772
1761841489194844200,4.01484423828125,6.54201224399209,15.179314513236283,-17.826140688896178
1761841489204913200,4.0249130859375,9.67830068346262,14.347595978313684,-22.922741358852385
1761841489214983200,4.034983154296875,12.329531816083191,12.341110025674103,-25.163325990223882
1761841489225053200,4.04505322265625,12.27463001307249,10.613928505671023,-23.843957209348677
1761841489235122200,4.0551220703125,9.801102887266874,10.252621497130393,-20.207052659368514
1761841489245192200,4.065192138671875,6.9260489707350725,10.2278424451828,-16.04168069987893
1761841489255261200,4.07526123046875,4.762214401566982,8.88647226037979,-11.623994021487235
1761841489265331200,4.085331298828125,3.1670775454878806,7.3811431009978055,-7.771039659684896
1761841489275401200,4.095401123046875,1.770138618198037,6.649777037662267,-4.607147466234863
1761841489285470200,4.10547021484375,0.48477092765662816,6.577067775282264,-1.7822119178295135
1761841489295540200,4.115540283203125,-0.475975590249896,7.208105332428216,0.7954581578873098
1761841489305609200,4.125609130859375,-1.4074088833779095,7.921229052108526,3.1703742489457127
1761841489315679200,4.13567919921875,-3.0995781267106532,7.000983507949114,6.0919976089507335
1761841489325748200,4.145748291015625,-5.417210341927409,2.9423885001361367,11.027695184767246
1761841489335818200,4.155818359375,-5.900740877601504,-1.1034148306429385,16.852817050021887
1761841489345888300,4.16588818359375,-5.337152470350265,-1.9831319650590418,21.927913159656523
1761841489355957200,4.175957275390625,-5.476745065435767,-2.1862305253714323,25.508530589747426
1761841489366027000,4.186027099609375,-5.199361371728777,-1.4703157136678695,26.71275791070461
1761841489376096300,4.19609619140625,-4.4247161386370655,-0.10173311229050158,25.44155139545202
1761841489386166300,4.206166259765625,-2.3707237539350987,0.979387468957901,23.25170326410532
1761841489396236300,4.216236328125,-0.8216156585812568,4.3447780940473075,20.582547183215617
1761841489406305300,4.22630517578125,0.2939116529260762,7.003219304177165,17.26469572341442
1761841489416375000,4.236375,0.7642612017214298,8.677693900865316,13.679748155164718
1761841489426444300,4.2464443359375,0.6945733329892159,9.155991212061046,9.716517893654107
1761841489436514000,4.25651416015625,-0.016091924155689774,9.300385069948435,5.216959572261572
1761841489446583300,4.266583251953125,-0.6447779862720519,9.886598565983771,0.558919830918312
1761841489456653000,4.276653076171875,-0.3647113370914012,10.210561640036106,-4.101794682592153
1761841489466723300,4.286723388671875,1.1918543077267705,11.24083992279768,-8.98889803110957
1761841489476792300,4.296792236328125,3.5803973575994372,12.830863381385802,-14.297290855443476
1761841489486862000,4.306862060546875,5.9184372778117655,13.413435306048392,-19.012741167747972
1761841489496931300,4.316931396484375,7.23256640446782,13.018899397122858,-21.79074691493511
1761841489507001000,4.3270009765625,8.530858495044708,12.152877610582113,-22.28258233761787
1761841489517071400,4.3370712890625,8.952750028407573,10.729593697202205,-20.30137111148834
1761841489527140000,4.34714013671875,7.9919784125924105,10.257435619413853,-17.139544910657406
1761841489537210000,4.357210205078125,6.666614775216579,10.363458537852763,-13.819130906891822
1761841489547279000,4.367279052734375,5.208740025448799,9.628553194475174,-10.567005426454543
1761841489557349000,4.37734912109375,4.040234006214142,8.831350092616677,-7.7287448247909545
1761841489567419400,4.38741943359375,3.1702292875170706,8.41222217874825,-5.1311359767645595
1761841489577489200,4.3974892578125,2.5678011542618275,8.301758647513388,-2.647332956138253
1761841489587559000,4.407558837890625,2.050181448111683,8.7009432590276,-0.38179800790548324
1761841489597628200,4.417628173828125,1.6503262438595294,9.72272376255691,1.7569721165023744
1761841489607698000,4.427697998046875,1.2743535811066626,11.344515401327609,3.7888901781708
1761841489617767200,4.43776708984375,0.5437444005530327,12.413691277760266,6.241940917658805
1761841489627837200,4.447837158203125,-0.8857038076102733,11.793117246961593,9.89831589178443
1761841489637907000,4.457906982421875,-2.357943767338991,9.116026865941286,14.514003515088557
1761841489647976200,4.46797607421875,-2.9266216066837307,5.928957502782344,19.302188224214316
1761841489658046000,4.4780458984375,-2.8453251332223415,3.0110031866788862,23.268254585933683
1761841489668115200,4.488115234375,-2.321732636272907,1.285416242390871,25.938846252584455
1761841489678185000,4.49818505859375,0.27565241293497383,-0.3051327013760805,26.55460966823101
1761841489688255000,4.5082548828125,2.0078981575250623,1.0670879642426967,25.58965521377325
1761841489698324000,4.518323974609375,2.7398738771915436,3.866784149712324,23.297202447998522
1761841489708394000,4.52839404296875,3.18856340110898,6.3782800639063115,20.68575270614624
1761841489718463000,4.538462890625,3.515933068734407,8.311696104159951,17.76602728871703
1761841489728533000,4.548532958984375,3.1385148833483454,9.332855260920525,14.748101024776696
1761841489738602200,4.558602294921875,2.074696150034666,9.641836454418302,11.436750617432594
1761841489748672000,4.568672119140625,0.7853519205451012,9.95263901812434,7.604676546573638
1761841489758742000,4.578741943359375,-0.5676011500239372,10.666205805397032,2.7604034550011156
1761841489768811000,4.58881103515625,-1.0923532653372734,12.042833181542157,-2.8947996504873035
1761841489778881000,4.598881103515625,0.20891762185469268,14.204693235766888,-9.378871162164211
1761841489788950000,4.608949951171875,3.2987329178333282,15.657614747041462,-16.241504184043407
1761841489799020000,4.61902001953125,6.2220741876721375,15.360309378290175,-22.24151616773605
1761841489809090000,4.629090087890625,7.959385472023486,14.255850591552257,-25.948451116275788
1761841489819159000,4.639158935546875,8.568817346560955,12.72778645327091,-26.39533914372921
1761841489829229000,4.64922900390625,8.531565766531228,10.641009404820203,-24.08622048983574
1761841489839298000,4.659298095703125,7.403036368376016,9.49437210304439,-19.757508564448354
1761841489849368000,4.6693681640625,5.805681836247444,9.276921192252635,-15.570304712378977
1761841489859438000,4.67943798828125,4.285838413822651,7.994322929891943,-11.628413006973267
1761841489869507000,4.689507080078125,3.163370507663488,6.577593260461092,-8.268785183194279
1761841489879577000,4.6995771484375,2.286018348813057,6.175400699302553,-5.517586194390058
1761841489889646000,4.70964599609375,1.4034697903633118,6.3751780062377446,-3.1605966590359804
1761841489899716000,4.719716064453125,0.6501894168615341,7.14942576444447,-1.0965426067858934
1761841489909785000,4.72978515625,0.17159988125357775,8.518032915741205,0.8497779232263565
1761841489919855000,4.739855224609375,0.01682604711651802,9.944795903408528,2.8185809186816213
1761841489929924900,4.7499248046875,0.2948088026951998,10.430145471203327,5.06688474612832
1761841489939994000,4.759994140625,0.14303078937325625,10.485132614409922,8.421773850947618
1761841489950063900,4.77006396484375,0.26677286784350873,9.546281738501786,12.341384750962257
1761841489960133000,4.780133056640625,0.6539262653023005,8.126394481822848,16.18769543696642
1761841489970203100,4.790203125,1.1880465860068798,5.4322372306674716,19.255324766230583
1761841489980273000,4.80027294921875,3.0488615004301067,2.2275416099250314,20.782388203036785
1761841489990342100,4.810342041015625,3.6352485994666814,0.9333008405655622,21.568179684042928
1761841490000412000,4.820411865234375,3.643730596607923,1.2546779897779226,20.98648688030243
1761841490010481200,4.830481201171875,3.285625014457106,3.1353596341878176,19.473379488134384
1761841490020551000,4.840551025390625,3.2157746486395595,4.957542912399768,17.685916225647926
1761841490030620200,4.8506201171875,3.4104406039103865,6.284973419177532,15.701922675323486
1761841490040690000,4.86068994140625,3.8203988306343555,7.45552994120121,13.45265789389014
1761841490050760000,4.870760009765625,3.8296433365806934,7.996541190463304,10.70839659539461
1761841490060829200,4.8808291015625,3.2879835602819916,8.755572674837708,7.0295274653881785
1761841490070899000,4.89089892578125,2.273117950707674,10.279638098871708,2.4311311686247588
1761841490080968200,4.90096826171875,2.2436571706846355,11.547732619583606,-3.447831007888913
1761841490091038000,4.911037841796875,2.6252088026136158,12.819881384122372,-10.222067368912697
1761841490101108000,4.92110791015625,4.212898557557166,12.081723760950565,-17.757587961673735
1761841490111177000,4.931177001953125,4.786390226924419,9.011114539092778,-23.10704578684568
1761841490121247000,4.9412470703125,3.8758138438642025,7.3946706910908215,-25.65241649811268
1761841490131316000,4.95131591796875,1.8624255644902585,7.1454995309114455,-25.56484810477495
1761841490141386000,4.961385986328125,-0.9247674054980277,6.486487925168872,-22.905689686286447
1761841490151456000,4.9714560546875,-2.8173943392455576,6.162638832885027,-19.004666582363843
1761841490161525000,4.98152490234375,-4.209662936636805,6.991707145559787,-15.024295800960063
1761841490171595000,4.991594970703125,-3.454470007511973,6.083059100213647,-11.375092910420895
1761841490181664000,5.0016640625,-2.614020469123125,4.373910080507398,-7.871784345459938
1761841490191734000,5.011734130859375,-1.7303379382073878,3.718930506759882,-4.9937294935464855
1761841490201803000,5.021802978515625,-0.96099110378474,3.5946687517970797,-2.558047237488627
1761841490211873000,5.031873046875,-0.36421617398560047,3.9744706174492834,-0.3205551653049886
1761841490221943000,5.041943115234375,0.14005202929079533,4.879976273116469,1.6720250115789472
1761841490232012000,5.052011962890625,0.20636136150062084,5.8992965240120885,3.829666132934391
1761841490242082000,5.06208203125,-0.21853929055035112,6.444940109249949,6.918496363398432
1761841490252151000,5.072151123046875,-1.2642299542382358,5.314060348576307,10.329358699852227
1761841490262221000,5.082220947265625,-1.3780413345962763,2.7312884196758267,14.176166229462623
1761841490272291000,5.092291015625,-0.8558689335778356,1.5018459934413433,18.27416502690315
1761841490282360000,5.102360107421875,0.9770099261716008,1.0006552979141474,21.470494385838506
1761841490292430000,5.11243017578125,2.6752400769785045,0.013890578186511992,22.450356486570833
1761841490302499000,5.1224990234375,3.7865322168678044,0.3586597089022398,21.227924815881252
1761841490312569000,5.132569091796875,3.912196824365854,2.6703888375550506,19.101893615406752
1761841490322638000,5.14263818359375,3.749126615320146,4.421540431210398,16.61055844570994
1761841490332708000,5.1527080078125,4.022729036922753,5.917336038571595,14.028282191371916
1761841490342777900,5.16277783203125,3.7624791411072014,7.288661216655373,11.39839429103136
1761841490352847000,5.17284716796875,2.9098423213183877,8.106894831582903,8.483905020689964
1761841490362916900,5.182916748046875,1.491376329614222,8.544467333680391,5.15247161026001
1761841490372986000,5.192986083984375,-0.8342904312372207,8.55392489785552,1.3182874153792858
1761841490383056100,5.20305615234375,-2.2594902612410483,8.998755408257246,-2.7433833466172217
1761841490393126000,5.2131259765625,-1.67708799405694,10.121150833702087,-6.153128077217936
1761841490403195100,5.223195068359375,1.5037836835056542,11.423576663082837,-9.408103101867436
1761841490413265000,5.233264892578125,6.070160455673933,12.9805161827147,-13.681653696525096
1761841490423334100,5.243334228515625,10.42622216027975,13.72976452422142,-18.688375942635535
1761841490433404000,5.25340380859375,11.646240924608707,12.989424296313523,-21.989923917889595
1761841490443473200,5.26347314453125,11.884970185750722,11.015680921846627,-22.171696197056768
1761841490453543000,5.27354296875,10.358163938575982,10.266507399141787,-19.586082322728632
1761841490463613000,5.283613037109375,8.211660443437099,10.072351439219712,-15.539745907986163
1761841490473682200,5.29368212890625,5.990646773976088,9.95857191530466,-11.298902820187806
1761841490483752000,5.303751953125,4.305443862524628,9.227635475558042,-7.021403195643424
1761841490493821200,5.3138212890625,3.274998991024494,9.018656040513514,-3.2178695750921964
1761841490503891000,5.323890869140625,2.2298739983953535,9.47008872565925,0.008580196818709373
1761841490513961000,5.3339609375,1.1694611280024052,10.108438651645184,2.860911993932724
1761841490524030000,5.344030029296875,-0.001378302615880966,10.414444044202565,5.557170016759634
1761841490534100000,5.354099853515625,-1.3748925151765345,9.459134785446524,9.037338529151677
1761841490544169000,5.3641689453125,-2.9765976437300443,6.951281027147173,13.865916038942336
1761841490554239000,5.374239013671875,-4.030198934412002,2.83439866553843,19.167176527178288
1761841490564308200,5.38430810546875,-4.385395351117849,-0.8299281443744897,24.033961894810197
1761841490574378000,5.3943779296875,-5.208416784843802,-2.627489022505283,27.399935872745512
1761841490584447000,5.404447021484375,-3.9546664313048123,-3.516073938509822,27.67762117974758
1761841490594516000,5.414515869140625,-2.3350629502281546,-2.5823458124428984,25.468196241271496
1761841490604586000,5.4245859375,-1.5721369426332412,0.6947901906102896,22.13453930957317
1761841490614655000,5.434655029296875,-0.46443508232086894,3.899510945793986,18.282791400951147
1761841490624725000,5.44472509765625,0.582943096062541,6.125882927417755,14.36683025561571
1761841490634795000,5.454794921875,0.9870305310569703,7.289059860584139,10.480762728762626
1761841490644863700,5.46486376953125,0.9107022013969719,7.88127230477333,6.548790944346785
1761841490654934000,5.47493408203125,1.2335049994982779,8.535019706377387,2.288430670651793
1761841490665002800,5.485002685546875,1.6253016927182673,9.75043945247829,-2.6256004322797057
1761841490675073000,5.495072998046875,2.3563474380582567,10.771335574388504,-8.077741802334785
1761841490685142000,5.50514208984375,4.006556777539849,10.684534073770045,-13.496326355224847
1761841490695211800,5.515211669921875,4.909114104795456,9.52609527504146,-17.50748039742708
1761841490705282000,5.525281982421875,6.205185012191533,8.326873215025662,-19.107129762494562
1761841490715350800,5.535350830078125,6.031455754226446,7.699523406481743,-19.48289667354226
1761841490725421000,5.545421142578125,6.7560022006750104,6.684602851849794,-18.492832327747344
1761841490735489800,5.55548974609375,6.242254221391677,6.615282647386193,-16.20658484635353
1761841490745559800,5.565559814453125,5.66801524078846,7.486369316101074,-13.585863418287039
1761841490755630000,5.575630126953125,4.930766549155115,7.444048762243986,-10.477350289970635
1761841490765698800,5.58569873046875,4.238613136789202,6.360960095793009,-7.178662964844703
1761841490775769000,5.59576904296875,3.634116965088248,5.733315103694796,-4.178786152336001
1761841490785837800,5.605837890625,2.7405548451930284,5.474748923182487,-1.445896142682433
1761841490795908000,5.615908203125,1.4890087237000464,5.211808180847764,1.2110709032416342
1761841490805977900,5.625977783203125,0.15126681239679454,4.83051403081119,4.161561461290717
1761841490816046800,5.636046875,-1.5148120041288435,3.599528466787934,7.739236992710828
1761841490826117000,5.6461171875,-1.6942745450489223,0.9337906699091195,11.59375319700241
1761841490836185900,5.656185791015625,-2.0317963349848984,-0.6688742435872554,15.078458768302202
1761841490846256000,5.666256103515625,-2.358467791213095,-1.064077091988921,16.982861480039357
1761841490856324900,5.676324951171875,-2.6516695240378376,-1.2266501651674508,18.096535838890073
1761841490866395000,5.686394775390625,-2.688618906250596,-0.8189157519727945,18.212393922644853
1761841490876465000,5.69646484375,-2.1901056132391092,0.017961773148179053,16.71173918481469
1761841490886534000,5.706533935546875,-1.703927193404734,0.3906201967865228,14.513399119454622
1761841490896604000,5.71660400390625,-1.4251719190835952,1.685361316883564,12.103044781398772
1761841490906673000,5.7266728515625,-0.7855208473712205,2.879225649258494,9.667736034828424
1761841490916743200,5.7367431640625,-0.050639469391107556,3.669069620525837,7.07107645035088
1761841490926812000,5.74681201171875,0.38245676407516,3.9899499261319633,4.22661553274244
1761841490936882000,5.7568818359375,0.39664997847005723,4.512019159036875,0.9376622506454586
1761841490946952000,5.766951904296875,0.5190437476038933,5.42498623662591,-2.897381483674049
1761841490957021000,5.77702099609375,1.58915310549438,6.88662822997272,-7.2495830057203765
1761841490967091000,5.787091064453125,2.7455384788244963,8.408852994576096,-12.032170333230495
1761841490977160000,5.797159912109375,3.9712235983520743,8.08871503176987,-16.287864953202007
1761841490987230000,5.80722998046875,5.34773582368493,6.770689482197165,-18.81029551838636
1761841490997300000,5.817300048828125,6.9301558215320105,5.8958519365161655,-19.163342063581943
1761841491007369000,5.827368896484375,6.9068725611001245,5.483054394713044,-17.768373559582233
1761841491017439000,5.83743896484375,5.85785333751142,6.682334322395921,-15.196859522277116
1761841491027508000,5.847508056640625,4.925962363743782,7.488079042628407,-11.991361352980135
1761841491037578000,5.857577880859375,4.004040410804748,7.208035774323344,-8.324533958423137
1761841491047648000,5.86764794921875,3.226271492734551,6.783384713119268,-4.888197281233966
1761841491057716700,5.877716796875,2.167517057073116,6.33997459090948,-1.7692630044072866
1761841491067787000,5.887787109375,0.6197500010646879,5.745811012652516,1.447428320685774
1761841491077855700,5.897855712890625,-1.4181566334940492,5.115221783795953,4.9037201367974275
1761841491087926000,5.907926025390625,-2.759692091861367,3.3302579369097947,8.868461971914767
1761841491097995000,5.9179951171875,-2.2311878574728965,0.813521199452877,12.637432228606938
1761841491108064800,5.928064697265625,-2.0287275950640438,0.05702361747026443,16.42654861674905
1761841491118135000,5.938135009765625,-3.0483102962881325,-0.7236749243110417,19.41672061232328
1761841491128203800,5.948203857421875,-3.442593691757321,-0.5626087485641241,20.601165374445912
1761841491138274000,5.958274169921875,-2.48237854078114,-0.24347324079871177,20.164155766928193
1761841491148342800,5.9683427734375,-1.478185862521082,0.16629764665961264,18.449792811965942
1761841491158413000,5.9784130859375,-0.8859751718975603,1.9175474399924277,16.129293516880274
1761841491168483000,5.988483154296875,-0.18576807080507277,3.5230788488358256,13.541719156134128
1761841491178551800,5.9985517578125,0.6676748046696186,4.929260236245393,10.840091715228557
1761841491188622000,6.0086220703125,1.587015508943796,5.637828192317485,7.973473034086823
1761841491198690800,6.01869091796875,1.8080501234412192,5.728577553778886,4.924996733582019
1761841491208761000,6.028760986328125,1.7557962045907973,6.112946873477101,1.1860650568008422
1761841491218829800,6.038829833984375,1.3422294319808483,6.801816441866755,-3.089041535127163
1761841491228899800,6.04889990234375,1.3830465955376625,7.383154440820217,-7.440638077017664
1761841491238970000,6.05897021484375,2.1197031664967536,7.796219693648815,-11.230755751156806
1761841491249038800,6.069038818359375,3.4199908148050304,7.1798910453349345,-14.43271990110874
1761841491259109000,6.079109130859375,4.486768982446193,6.505698821595311,-16.529572937893867
1761841491269177900,6.089177734375,5.437271717703342,6.23197306587398,-17.302603137004375
1761841491279248000,6.099247802734375,5.917357081359625,5.938506836894154,-16.476593042856454
1761841491289318000,6.10931787109375,5.670844326734542,5.695494199344515,-14.376578911691903
1761841491299387000,6.119386962890625,4.7545180018454785,5.60285098696053,-11.716268985080719
1761841491309457000,6.129456787109375,4.049759374928474,5.35847875149548,-8.915485004374384
1761841491319526000,6.13952587890625,3.301711056861281,4.8855514429003,-6.026805298072099
1761841491329596200,6.14959619140625,2.7774679870486256,4.438483967226744,-3.336089419542253
1761841491339665000,6.159664794921875,2.16846646675244,4.546372095015645,-1.017994847510755
1761841491349735000,6.16973486328125,1.4325193592369556,5.049851193740964,1.1018469968043267
1761841491359805000,6.179804931640625,0.6269201849550008,5.024067933186888,3.3508722703933715
1761841491369874000,6.1898740234375,-0.17841902321651576,3.9656875915348526,6.28967648230195
1761841491379944000,6.19994384765625,-1.154368626680225,2.2108757218062878,9.91450013386607
1761841491390013000,6.210012939453125,-1.8968604796640574,0.8643003695756196,13.58121296213269
1761841491400083000,6.2200830078125,-3.375425112369656,0.23905893148779866,17.09033751989603
1761841491410153000,6.230153076171875,-4.186538081637025,-0.6700701753735542,19.110813419443367
1761841491420222000,6.240221923828125,-2.992573796018958,-1.2272674202829599,19.343774618577957
1761841491430292000,6.2502919921875,-1.5432199140980838,-1.0065274048179387,18.037266488319634
1761841491440361000,6.26036083984375,-0.6749316439300775,0.5837281089603901,15.741069275319575
1761841491450431000,6.270430908203125,0.21933950101733207,2.292566163021326,13.155691547834872
1761841491460501000,6.2805009765625,1.2028555942125618,3.2617133929938076,10.600288102853298
1761841491470569700,6.29056982421875,1.2039515727557242,3.891653218030929,7.948926037329435
1761841491480640000,6.300639892578125,0.6686334205687046,4.098995991784334,5.245183796226978
1761841491490708700,6.310708740234375,0.48396556609049435,4.364685740566253,2.2129110270261765
1761841491500779000,6.320779052734375,0.26977102674618364,4.774188332477212,-1.210925941812992
1761841491510848000,6.330847900390625,0.44616088222265243,5.087231368586421,-4.91955015861392
1761841491520918000,6.34091796875,1.2973457496374845,5.592394474875927,-8.493595224577188
1761841491530988000,6.350988037109375,2.3418892891168595,5.847886070248484,-11.78271743350029
1761841491541056800,6.361056884765625,3.5662779390931125,5.634972218364477,-14.509348382759093
1761841491551127000,6.371126953125,4.76995814756155,5.565297793635725,-16.136158141952752
1761841491561195800,6.38119580078125,5.577350635001063,5.0186084987372155,-16.401434049236773
1761841491571266000,6.39126611328125,5.558100575608015,4.390424577456712,-15.218305630409716
1761841491581336600,6.401336669921875,4.841464463892579,4.224180706810951,-13.153790682649612
1761841491591405600,6.411405517578125,3.9008343033522364,4.219588702845573,-10.776984393930434
1761841491601475600,6.4214755859375,3.031404754194617,3.9796167481660842,-8.21115541652441
1761841491611544600,6.431544677734375,2.2947885152459144,3.6830262496858834,-5.777760394620895
1761841491621614300,6.4416142578125,1.6073514638774096,3.656668988636136,-3.4758126552700994
1761841491631684600,6.4516845703125,0.7976046683967113,3.777006263631582,-1.2680002665571868
1761841491641753600,6.461753662109375,-0.4485818257592618,3.4067087239056826,1.2414154803618789
1761841491651823600,6.47182373046875,-1.421349145925045,2.6721611079245804,4.281141488178074
1761841491661892600,6.481892578125,-2.357324028005451,2.0082149683892725,7.572422628700733
1761841491671962600,6.491962646484375,-4.059622012773156,1.0940431911855935,10.995690273219346
1761841491682031600,6.502031494140625,-5.275443909934163,0.3299854030817747,14.134732979834078
1761841491692101400,6.512101318359375,-4.801386720526218,-0.2519587450712919,16.17007327103615
1761841491702171600,6.522171630859375,-3.3851714303582905,-0.40587797167301176,17.47980328595042
1761841491712240400,6.532240478515625,-1.8423900538079439,-0.7943032887637614,17.567158913320302
1761841491722310700,6.542310546875,-0.5052960850194096,-0.02025894417464733,16.305658968567847
1761841491732379600,6.552379638671875,0.4099598341591656,1.4445540804237127,14.317848490303755
1761841491742449400,6.562449462890625,0.8038878403194248,2.397268061989546,12.145268304622173
1761841491752518700,6.5725185546875,1.0992163560397923,2.846100209248066,9.799700034731625
1761841491762588400,6.58258837890625,1.2104555478222667,3.194796158018708,7.353933022511005
1761841491772658700,6.59265869140625,0.8318770864851772,2.9675013140827415,4.728854276017844
1761841491782727400,6.6027275390625,0.09220262900963425,3.2248049273133277,1.7293351909056305
1761841491792797400,6.61279736328125,-0.6226974526934326,4.289318072631955,-1.6108786150902508
1761841491802866400,6.622866455078125,-0.5855622655849904,5.662750452128052,-5.266085129958391
1761841491812936400,6.6329365234375,0.3081518300015479,7.1842843118578195,-9.097619687113164
1761841491823006700,6.6430068359375,2.452908116146922,7.382863933441042,-12.593065848135948
1761841491833075500,6.653075439453125,4.883509123417735,6.261201498445868,-15.083942752671241
1761841491843145700,6.663145751953125,5.941614739781618,5.767812416580319,-15.976526382923126
1761841491853214500,6.67321435546875,6.619381899398565,5.290082676139473,-15.969737745696305
1761841491863284500,6.683284423828125,6.158508016690612,4.867899466353655,-14.473772042465209
1761841491873354800,6.693354736328125,5.230528663408756,4.857207391947507,-12.409889547389746
1761841491883423500,6.703423583984375,4.315601683923602,5.039602771449089,-9.99641152435541
1761841491893493800,6.71349365234375,3.425240405896306,4.689844161882997,-7.324831431189179
1761841491903562500,6.7235625,2.6717636330395935,4.3941035582304,-4.915723878324031
1761841491913632500,6.733632568359375,1.9551719449877738,4.4786558186173435,-2.7933807187125086
1761841491923702500,6.74370263671875,1.3141164133049548,4.842970776802301,-0.9542740704894065
1761841491933771500,6.753771484375,0.38401583008542656,4.982667416784167,0.95306922474429
1761841491943841500,6.763841552734375,-0.3598549100361764,4.543457084351778,3.5193080981254576
1761841491953910500,6.77391064453125,-0.5518924164995551,3.878607858496904,6.4343286988645785
1761841491963980800,6.783980712890625,-1.2477508208632468,3.269525528049469,9.19460998879075
1761841491974049500,6.794049560546875,-1.2293636619098485,2.5405343771517277,12.0435731862545
1761841491984119600,6.80411962890625,-1.1432355305083095,1.5360072062402963,14.662702376693487
1761841491994189600,6.814189453125,-0.9127794460624455,0.1475029298186302,15.790460205954313
1761841492004258600,6.824258544921875,-0.40611411851644513,-0.8121487420558929,15.88058179090619
1761841492014328600,6.83432861328125,-0.1627875927120447,-0.7232353638499974,14.94972016018629
1761841492024397600,6.8443974609375,-0.2446959144614637,0.6103992582648993,13.10241237758994
1761841492034467600,6.854467529296875,0.07320274498537183,1.7227724713891743,11.01878940925598
1761841492044537600,6.86453759765625,0.5831244439788162,2.413158874082565,8.849443967711926
1761841492054606600,6.874606689453125,0.8429583063393831,2.9139725529909133,6.341972486728429
1761841492064676600,6.884676513671875,0.5991659165889024,3.131630384531617,3.518905947065353
1761841492074745600,6.89474560546875,0.3268396524019539,2.615607446053624,0.6356956120848656
1761841492084815600,6.904815673828125,0.3601182371474802,2.430779870969057,-2.3935440730303523
1761841492094885600,6.9148857421875,1.002026586267352,3.228875537753105,-5.737379868915677
1761841492104954400,6.924954345703125,1.1814341090645641,4.318825322145224,-9.390564522567391
1761841492115024600,6.935024658203125,2.0143730526275934,5.00864123147428,-12.66878013755083
1761841492125093400,6.94509326171875,3.520693415004015,4.618714862170815,-14.974922405982017
1761841492135163600,6.95516357421875,4.469345553958416,3.9361557921022174,-15.869646555393933
1761841492145232600,6.965232666015625,4.537345907995104,3.660909110423922,-15.264759923070669
1761841492155302400,6.975302490234375,4.195508154556155,3.6349557539999484,-13.53561440951824
1761841492165372700,6.98537255859375,3.5471734256505965,3.622039573803544,-11.426523822450637
1761841492175441400,6.99544140625,2.7838877909630537,3.429587495189905,-9.004189708265661
1761841492185511700,7.00551171875,2.101535641643405,3.0908342637628317,-6.476101555711031
1761841492195580400,7.015580322265625,1.2580430822968482,2.640447288277745,-4.048614004285633
1761841492205650700,7.025650634765625,0.4310556675493717,2.273203875425458,-1.593164679223299
1761841492215720700,7.035720703125,-0.3986893753431737,2.0834669009894133,0.9694436556357889
1761841492225789400,7.04578955078125,-1.338631553619355,1.7001614111304282,3.8849782703116533
1761841492235859700,7.055859619140625,-1.8444786966502666,1.4602414788991211,6.682682112920284
1761841492245928400,7.065928466796875,-2.223293889352679,1.674655798473954,8.924825079649686
1761841492255998700,7.075998779296875,-2.645893278723955,1.0966565885543822,11.315448296797275
1761841492266067500,7.0860673828125,-2.3908849368236957,0.1685690987229347,13.740620264756679
1761841492276137500,7.096137451171875,-2.1858814196728167,-0.3318541195631027,15.436790560424328
1761841492286207700,7.106207763671875,-1.4498060096025467,-0.4126397208929062,16.118132655918597
1761841492296276500,7.1162763671875,-0.7083756483703851,0.4050397672832012,15.762551623809337
1761841492306346800,7.1263466796875,-0.5437735535822809,1.136411675837636,14.533694888508318
1761841492316415500,7.13641552734375,-0.4637205043107271,1.570653572207689,12.688189771419763
1761841492326485800,7.14648583984375,-0.38445480602458115,2.2131325608223675,10.526368295639752
1761841492336555500,7.156555419921875,0.08440306117460131,2.8486411259025335,8.17303289887905
1761841492346624500,7.16662451171875,0.07689385458827018,3.592109130442142,5.552289258980751
1761841492356694500,7.176694580078125,-0.173663791513443,4.666245844152569,2.3780551197364925
1761841492366763500,7.186763427734375,0.3959294091105461,5.884820839414,-1.3092664890557526
1761841492376833800,7.196833740234375,0.9318880511581897,7.00113957529366,-5.34678480657041
1761841492386903600,7.206903564453125,2.158058323854208,8.565366329324245,-9.55183352741003
1761841492396972500,7.21697265625,4.433854553860425,9.336662836509943,-13.526370780354737
1761841492407042600,7.22704248046875,6.139260295385122,8.548489428803324,-16.310171477556228
1761841492417111600,7.237111572265625,7.586599622613191,7.5407707683742045,-17.165556134748456
1761841492427181600,7.247181640625,7.172130348205566,6.8478224062383175,-16.132323678356407
1761841492437250600,7.25725048828125,7.446900060021877,5.575536279055476,-14.65400586001873
1761841492447320600,7.267320556640625,6.579464899551868,5.024209972006083,-11.687699893200397
1761841492457390600,7.277390625,5.594021783816814,5.171036609998345,-8.723915553814173
1761841492467459600,7.28745947265625,4.541837958717346,5.31148143799901,-5.596643949013948
1761841492477529600,7.297529541015625,3.556616961300373,4.57528897742033,-2.499882633289695
1761841492487598600,7.3075986328125,2.621159819483757,4.362983612823486,0.28448066623061896
1761841492497668600,7.317668701171875,1.334365274477005,4.702717671981453,2.7394109358549117
1761841492507738600,7.327738525390625,-0.23323059066049753,4.910906248909234,5.087310863563418
1761841492517807400,7.337807373046875,-2.1742992645591497,3.841751415264606,8.046853327596187
1761841492527877600,7.347877685546875,-2.4827520502686498,1.6156652648448944,11.262969921541213
1761841492537946400,7.3579462890625,-3.485411089220643,0.555788547155261,14.397463878810404
1761841492548016600,7.3680166015625,-3.9871582495868205,-0.07378712074458599,16.67211327686906
1761841492558085600,7.378085693359375,-4.059589279547334,-0.1178670854896307,18.18722207198739
1761841492568155600,7.38815576171875,-3.9831145271539685,0.35177111843228337,18.540470861756802
1761841492578225200,7.39822509765625,-2.77617385558486,0.6139519823104143,17.242186954486368
1761841492588294100,7.408294189453125,-1.8270938466072082,0.8723930751383304,15.196513485318421
1761841492598364200,7.4183642578125,-1.0560007530391216,1.8133739488124847,12.685738286614418
1761841492608433000,7.428432861328125,-0.582788197761774,2.6946529257178304,10.037567710608243
1761841492618503200,7.438503173828125,-0.13645765806064009,3.4244740976989267,7.195725158804654
1761841492628573200,7.4485732421875,0.3302460998445749,3.8484874455213545,4.234581104794144
1761841492638642200,7.45864208984375,0.39847441741824147,4.479566503721475,1.153806462752819
1761841492648712200,7.468712158203125,1.1114676425866783,5.778271266752481,-2.754585124111175
1761841492658781000,7.478781005859375,2.4164000479608774,7.488269012242555,-7.361292737624049
1761841492668851200,7.488851318359375,4.003112190043926,8.955600157141685,-12.04116963224411
1761841492678920000,7.498919921875,6.364753058335185,8.72240807186067,-15.512729306244848
1761841492688990200,7.508990234375,8.263847142270206,7.505002120378613,-16.712048981416224
1761841492699060000,7.51906005859375,9.430677337247133,5.482144294130801,-16.29785560134053
1761841492709129200,7.529129150390625,8.329945462077855,3.7879204563558098,-15.213475141513348
1761841492719199200,7.53919921875,5.868098252671957,3.894053849431872,-13.297590081775187
1761841492729268000,7.54926806640625,3.878972015634179,3.9306168626755476,-10.771439619284868
1761841492739338200,7.559338134765625,2.230603627844155,3.2185598954439163,-7.391995918923616
1761841492749408000,7.569407958984375,0.9314896994903683,2.9842338376969098,-3.8655779887929556
1761841492759477200,7.579477294921875,-0.8055451060071587,2.776481314098835,-0.6704279027700424
1761841492769547000,7.589547119140625,-2.7881448638856408,1.484710734245181,2.699357450146973
1761841492779616000,7.599615966796875,-3.3260458721727133,-0.7181453472346067,6.520635693964362
1761841492789686000,7.60968603515625,-3.113165045775473,-1.7298270660758017,10.486764599525928
1761841492799756000,7.619756103515625,-2.3199548129454253,-0.891769391259551,12.98551384487152
1761841492809825000,7.629824951171875,-2.6233324873477217,0.5170014281213283,14.209513203269243
1761841492819895000,7.63989501953125,-1.6990420517116784,0.4601952527940273,13.868050712883472
1761841492829964300,7.64996435546875,-0.5455678896531463,-0.5014537303775549,12.514675617510079
1761841492840034000,7.660033935546875,-0.3101829705029726,0.078766662722826,10.618907463127375
1761841492850103000,7.67010302734375,-0.27399463579058647,0.5281459224700927,8.51658563954234
1761841492860173000,7.680173095703125,-0.4297609515637159,0.5359896217077971,6.001040157696605
1761841492870243000,7.6902431640625,-0.5597302705183624,-0.04764963992536068,3.1888936559766528
1761841492880312000,7.70031201171875,-1.0463917976945638,-0.8718430400401354,0.37646015400886534
1761841492890382000,7.710382080078125,-1.3762556202232836,-0.8173235143452883,-2.2729357260085643
1761841492900451000,7.720451171875,-1.263679626879096,-0.14883213259577752,-4.579135423715412
1761841492910521000,7.73052099609375,-1.011823465399444,0.4523994843512773,-6.4060051061779255
1761841492920590000,7.740590087890625,-0.628919249817729,1.1162252123773098,-7.829283758860826
1761841492930660000,7.75066015625,-0.5783697967976331,1.6858207510888576,-8.956624239492417
1761841492940730000,7.760730224609375,-0.577640898001194,1.9094038810253142,-9.917753582704067
1761841492950799000,7.770799072265625,-0.33710780230760573,2.675504573133588,-10.31217843247056
1761841492960869000,7.780869140625,0.2671703427284956,3.85108856793046,-10.216720162665844
1761841492970937900,7.790937744140625,1.0451654707700013,4.566232395261526,-9.84680314669013
1761841492981008100,7.801008056640625,2.204216848438978,4.597800668957829,-9.32131913690567
1761841492991078100,7.811078125,2.766401818633079,4.926653853139281,-8.075450476527214
1761841493001147100,7.821147216796875,3.19180808211863,5.188886154943704,-5.944261454898118
1761841493011217200,7.831217041015625,3.3792782806664703,5.164209978848695,-3.2344282034441827
1761841493021286000,7.841285888671875,3.1529514049798246,4.897227852168679,-0.3155000738725066
1761841493031356200,7.851356201171875,2.4709365247905253,4.05148312998116,3.111309188775718
1761841493041426000,7.861426025390625,0.2946231439299881,2.5595652408361436,7.762429067727923
1761841493051495200,7.8714951171875,-1.9853543172836303,0.8874731553703546,12.872612272834777
1761841493061565200,7.881565185546875,-2.1008704557329416,-2.9983821900367733,17.1330672390759
1761841493071634200,7.89163427734375,-3.557185408838093,-5.087374576449394,21.307438497579096
1761841493081704200,7.9017041015625,-3.884074307209253,-4.029069638121128,22.813269761264323
1761841493091773000,7.91177294921875,-3.8487735689863563,-1.851984542235732,21.55365080795288
1761841493101843200,7.92184326171875,-2.48898130004704,-0.5890805759042501,18.345288481396434
1761841493111913000,7.931912841796875,-1.7873393438458443,2.357315406307578,14.484588035511969
1761841493121982200,7.941982177734375,-0.17804770568609238,6.065937869542837,9.720760938051342
1761841493132052000,7.952052001953125,1.8451980969659982,8.60103385503292,4.437645470575988
1761841493142121000,7.962120849609375,4.190981032520533,10.19292661462426,-1.3694994239613414
1761841493152191200,7.972191162109375,6.7749711050391195,9.959466233795881,-7.056227840787172
1761841493162260000,7.982260009765625,8.505360481172799,7.173684591910242,-11.231404570454359
1761841493172330200,7.992330322265625,9.08535758691132,4.7167824376910925,-12.97706516547799
1761841493182400000,8.00239990234375,8.156528338801861,3.6026240947157144,-11.927605212384462
1761841493192469200,8.01246923828125,5.226894690820575,3.877901171532273,-8.89561184464693
1761841493202539000,8.0225390625,2.6718703082844613,3.702642804303765,-5.260004933261871
1761841493212608000,8.03260791015625,0.41394378922879693,2.705648366984725,-1.2952614907093345
1761841493222678000,8.042677978515625,-1.3403981249004602,1.383231888976693,2.1943061336688694
1761841493232748000,8.052748046875,-2.431991584846377,0.305862769216299,5.341711156567931
1761841493242817300,8.0628173828125,-2.746396556958556,-0.3327992914587259,7.718902060690522
1761841493252887000,8.072886962890625,-2.6724896092265844,-1.5215414585143328,9.0949823243469
1761841493262956000,8.0829560546875,-1.8420134755805133,-2.8891373869419095,8.767751188409328
1761841493273026000,8.093026123046876,-1.2056988548144698,-2.4669395641088485,6.920915114977955
1761841493283095000,8.103094970703125,-0.5182078813016414,-1.2575433160811662,4.450883430072665
1761841493293165000,8.1131650390625,0.3314303411930799,-0.3247685452163219,2.0131617771416903
1761841493303235000,8.123235107421875,1.4705185427635907,0.332401816573739,-0.06386193905770779
1761841493313304000,8.133303955078125,2.02420281111598,0.7105904018104076,-1.5087335609979926
1761841493323374000,8.1433740234375,1.73848383526206,0.6827636527299881,-2.368364477457851
1761841493333443000,8.153443115234374,1.256941258534789,0.5403326193481683,-3.0900565573886034
1761841493343513000,8.16351318359375,1.45403327190876,0.2591653154492378,-3.678565178623795
1761841493353582000,8.17358203125,1.0952058052241802,-0.2465735449016094,-3.9211592985004184
1761841493363652000,8.183652099609375,-0.025034488013386726,0.23901567686796188,-3.985562504827976
1761841493373722000,8.19372216796875,-0.3720002519905567,0.15298106896877287,-3.808441266337037
1761841493383790800,8.203790771484375,-1.0799380934655665,-0.022052841854095458,-3.1563819639503956
1761841493393861000,8.213861083984375,-1.537464419311285,0.013421207109093666,-2.383322538745403
1761841493403929900,8.223929931640624,-1.5092957249253987,0.18668050947487352,-1.6746461538627744
1761841493414000000,8.234000244140624,-1.2115648242384194,0.3824450736373663,-0.9890393866613507
1761841493424069000,8.244069091796876,-0.8866104010611772,0.584509614726901,-0.1627902230605483
1761841493434139100,8.25413916015625,-0.19483985053300856,0.5030465525269509,0.511207647150755
1761841493444209200,8.264209228515625,0.9340928677260875,0.35145606113374234,0.7887263654142618
1761841493454278000,8.27427783203125,1.345234459015727,0.45913434556424615,0.9290455212086438
1761841493464348200,8.28434814453125,0.3991127153217792,0.14433891282975672,0.5642530086398124
1761841493474417000,8.2944169921875,-0.7698743654280901,0.26775603366196155,-0.09409078084379434
1761841493484487200,8.304487060546874,-2.1530214987307787,-0.4129173687905073,-1.8755875361412762
1761841493494556000,8.314555908203126,-2.850779306975007,-0.8845733422756195,-2.1235455211386083
1761841493504626000,8.3246259765625,-2.867554500687122,-1.799922931087017,-2.1392232750028373
1761841493514696200,8.3346962890625,-3.329449543136358,-1.98565300796926,-1.8467703147187828
1761841493524765000,8.344764892578125,-3.130308196017146,-1.7298615528672932,-1.2049676179304718
1761841493534835200,8.354835205078125,-1.7925895194590091,-1.536576530560851,0.05253858101069927
1761841493544904000,8.364904052734374,-1.756653113681078,-0.93270813536942,0.22019348749816417
1761841493554974000,8.374973876953124,-1.1861667636096478,-0.8480407241702079,0.4878919457539916
1761841493565043000,8.38504296875,-0.22536942883133887,-0.9227002438351511,0.26084873849153517
1761841493575113000,8.395113037109375,-0.7161246550619602,-0.9148305333733558,-0.5411833909586071
1761841493585187000,8.40518701171875,-0.5908458320111036,-1.1186518550023437,-0.81258304181993
1761841493595256300,8.41525634765625,0.049777299603819845,-1.3657298422947526,-0.8810857924208044
1761841493605326300,8.425326416015626,0.3019616701245308,-1.506206526738405,-0.8403418402306735
1761841493615395300,8.435395263671875,0.5889449668258429,-1.390177470330894,-0.6590729805409908
1761841493625465300,8.44546533203125,0.6548480563223361,-1.2021952306076884,-0.45032501616477966
1761841493635535400,8.455535400390625,0.4693430203676223,-1.0280533001884817,-0.1761921409472823
1761841493645604400,8.465604248046875,-0.0165524908721447,-0.8391381635293365,0.02067073984593153
1761841493655674000,8.475674072265624,-0.5366980622380971,-0.6698866355001926,0.14641776493042707
1761841493665743400,8.485743408203126,-0.8303203585624694,-0.6634352674037217,0.20169863038659094
1761841493675813000,8.495813232421876,-0.6475105530411005,-0.6807090582877398,0.2962564442202449
1761841493685882400,8.50588232421875,-0.3388578608453274,-0.6367027433007956,0.28828239660114047
1761841493695952400,8.515952392578125,-0.25185703826248645,-0.4995135560952127,0.338588103993237
1761841493706022100,8.526022216796875,-0.43408465998172757,-0.4012440282620489,0.44721082966700193
1761841493716091400,8.53609130859375,-0.6447130312770605,-0.36867768343910573,0.6017261224657297
1761841493726161200,8.5461611328125,-0.9629752633392811,-0.341150647957623,0.6781921070307493
1761841493736230400,8.55623046875,-0.9406289914965629,-0.338798824134469,0.5879080249935388
1761841493746300200,8.566300048828126,-0.66836220241189,-0.28456775999218226,0.49338499021232124
1761841493756369400,8.576369384765625,-0.4149661180138588,-0.25387685365229845,0.3167935477491468
1761841493766439200,8.586439208984375,-0.19655249966979024,-0.14410744216144084,0.19496734937019644
1761841493776509200,8.59650927734375,-0.3214502144485712,0.06788549548536539,0.2255559643793851
1761841493786578400,8.606578369140625,-0.3883516673326492,0.2273956739619374,0.24345475529395041
1761841493796648200,8.616648193359374,-0.3624263679593801,0.2456377253562212,0.18419263818189502
1761841493806717400,8.626717529296876,-0.24534371084570883,0.1322229431003332,0.0288742123067379
1761841493816787200,8.636787109375,-0.04966857853233814,0.07385755563229322,-0.08523965812921523
1761841493826856400,8.6468564453125,-0.04058393932282924,0.048180093540251254,-0.15252415551412848
1761841493836927500,8.656927490234375,-0.007523965764045715,0.015789105284214018,-0.13702332911938428
1761841493846997200,8.666997314453125,0.1832487814605236,-0.0036076691031455992,-0.08203793947845697
1761841493857066500,8.67706640625,0.23455519032776354,-0.03190700413137674,-0.00451857340298593
1761841493867136300,8.68713623046875,0.14721242243945598,-0.16993571090102194,0.026348274025693535
1761841493877206300,8.697206298828124,0.17311784806847572,-0.2534142045766115,0.016132621492259202
1761841493887275300,8.707275146484376,0.2546171506255865,-0.2284709019780159,0.019190840019099414
1761841493897345300,8.71734521484375,0.3620037586331367,-0.17635902194678782,0.07594353159349411
1761841493907414300,8.727414306640625,0.45527825465798377,-0.2007166336119175,0.08643858559019862
1761841493917484300,8.737484375,0.6228203484207392,-0.20748130544126034,-0.028194230685941873
1761841493927554300,8.74755419921875,0.7327344290792942,-0.18214228152334688,-0.05697802476286888
1761841493937623300,8.757623291015625,0.628010902801156,-0.2120931831508875,0.02011259450651705
1761841493947693300,8.767693359375,0.4750649051457643,-0.29415421124398705,0.09470668425243348
1761841493957762300,8.77776220703125,0.48153439342081544,-0.32365269292891025,0.09086188192516564
1761841493967832300,8.787832275390626,0.5893839427649974,-0.3107926268339157,0.009600625907629728
1761841493977901300,8.7979013671875,0.603622311475873,-0.3248965555101633,-0.07579679833287373
1761841493987971300,8.807971435546875,0.5359440290004015,-0.27409020511955023,-0.05709281024895608
1761841493998041300,8.818041259765625,0.4727823471665382,-0.23615444221794604,-0.009208977975230664
1761841494008110300,8.8281103515625,0.42379882828891274,-0.238187409350276,0.035436584763322024
1761841494018180400,8.838180419921875,0.3850011878609657,-0.24344489148706197,0.06252787744235247
1761841494028249300,8.848249267578124,0.3444990816026926,-0.28464608592540025,0.05513436965756118
1761841494038319400,8.8583193359375,0.313559753459692,-0.33903818584829565,0.05559802338024601
1761841494048388400,8.868388427734375,0.34519933882653714,-0.35115795497000213,0.045137730169668794
1761841494058458400,8.878458251953125,0.42090719850063324,-0.3429667574688792,-0.007835059273522347
1761841494068527000,8.888527099609375,0.44218964050412174,-0.29260552049726246,-0.0097621183459647
1761841494078597400,8.898597412109375,0.4152636396557092,-0.23783552717268466,0.011631802941672504
1761841494088667400,8.90866748046875,0.3456424064189195,-0.1967418847620487,0.021879056189768015
1761841494098736400,8.918736328125,0.23041502178311346,-0.1703817011028528,0.06921279856637119
1761841494108806400,8.928806396484376,0.10172902063727378,-0.18092267660051584,0.09646298986785114
1761841494118875400,8.93887548828125,0.05515490098893642,-0.22204233023524284,0.11609065040163695
1761841494128945400,8.9489453125,0.04936112001836299,-0.28195056323111056,0.14191139342188835
1761841494139014100,8.95901416015625,0.06064765318632125,-0.3275990924671292,0.15963318380173294
1761841494149084400,8.96908447265625,0.09073474841415882,-0.37303222538679837,0.1752294333949685
1761841494159154400,8.979154541015625,0.1446270821213722,-0.35402474257797,0.17558098677899686
1761841494169223400,8.989223388671874,0.11249766741096973,-0.27674627258628604,0.137301525006257
1761841494179293400,8.99929345703125,0.04593465270102024,-0.15736293731480835,0.1413202591283247
1761841494189362200,9.009362060546875,0.11408522886335849,-0.16172931583076713,0.14351283726915717
1761841494199432400,9.019432373046875,0.08146890741884708,-0.22489859644919633,0.1728705953091383
1761841494209501200,9.029501220703125,0.028518822997808453,-0.23148820397257802,0.19347049840856342
1761841494219571500,9.039571533203125,0.09031973787248133,-0.23533494252860546,0.14663681450858712
1761841494229641200,9.04964111328125,0.08159399510324,-0.22421967427432535,0.06196713828705251
1761841494239710200,9.059710205078124,0.05685702873170376,-0.1735971560180187,0.03536174769513309
1761841494249780500,9.069780517578126,0.04072831622958183,-0.157680624961853,0.02812244409136474
1761841494259849200,9.07984912109375,0.03563011630773544,-0.1510679288238287,0.033180531198531385
1761841494269919500,9.08991943359375,0.05838087729811668,-0.165657302929461,0.02664064456839114
1761841494279988200,9.09998828125,0.04720189615786075,-0.17411913406550883,0.03591379208732396
1761841494290058500,9.11005859375,0.015780921977758405,-0.15450141040384768,0.03903418913017958
1761841494300128300,9.120128173828125,-0.07466273453533649,-0.07078735440671444,0.005744571533985435
1761841494310197200,9.130197265625,-0.04978314482271671,0.01127864212244749,0.009890621830150485
1761841494320267300,9.140267333984376,0.0733288555830717,-0.05237696070820093,-0.016242402009665965
1761841494330336300,9.150336181640625,0.07554477806687354,-0.10526917746216058,0.019447773922234773
1761841494340406500,9.160406494140625,0.09834814602732658,-0.14992957244366406,0.046932760360278186
1761841494350475300,9.170475341796875,0.14228256482183932,-0.2307420617803931,0.0625746757261455
1761841494360545300,9.180545166015625,0.14646131181120872,-0.2733788419798016,0.06811948690433055
1761841494370614300,9.1906142578125,0.18772914174497127,-0.25291969905793665,0.05077938931845128
1761841494380684300,9.200684326171874,0.24910803181529043,-0.21088672997057437,-0.0007205328268930316
1761841494390754300,9.21075439453125,0.18845687149763107,-0.15563918226212262,0.020431451197341084
1761841494400823300,9.2208232421875,0.118228320017457,-0.13744506166279316,0.02591678727325052
1761841494410893300,9.230893310546875,0.11320493889749049,-0.135160750117898,0.026892719633318483
1761841494420962300,9.24096240234375,0.1176052196830511,-0.13888707716464996,0.05106489172894507
1761841494431032300,9.2510322265625,0.11558569655418395,-0.13615882124453782,0.07263827950302511
1761841494441101300,9.261101318359374,0.10626198789179324,-0.15939122827202082,0.06951978215631097
1761841494451171300,9.27117138671875,0.07605974185168743,-0.1865507456153631,0.0935092546287924
1761841494461241300,9.281241455078124,0.07519815658628941,-0.20460019704699514,0.12359076036605983
1761841494471310300,9.291310302734376,0.07396130826771259,-0.21184739169627426,0.11826704459264874
1761841494481380400,9.30138037109375,0.08171089948117732,-0.14873451744019983,0.08224716178234666
1761841494491449300,9.311449462890625,0.10664484972953796,-0.09355331296622753,0.039576698509044946
1761841494501519000,9.32151904296875,0.07571428941488266,-0.08524024265110493,0.011226217815466224
1761841494511588400,9.33158837890625,0.09648995094001292,-0.10069178654402494,-0.010495784649066626
1761841494521658400,9.341658447265624,0.1596153924167156,-0.1320730132356286,0.007504238150268793
1761841494531727400,9.351727294921876,0.15262392609417438,-0.15126695852726696,0.03666910396665334
1761841494541797400,9.36179736328125,0.07683481787741184,-0.10747370176911353,0.06939031055774539
1761841494551867100,9.3718671875,0.11782850704491138,-0.13774112199991942,0.08492460083067417
1761841494561936400,9.381936279296875,0.09971709629297255,-0.15552929214686154,0.08269980092067271
1761841494572006100,9.392006103515625,0.08456044369339942,-0.11368190875947475,0.05939133298229426
1761841494582071000,9.402071044921875,0.08586217394173144,-0.08211743445545434,0.03489018466062844
1761841494592140800,9.412140869140625,0.06997662254571914,-0.04557517173886299,0.014154635950177907
1761841494602210000,9.4222099609375,0.008423544952273368,-0.06045446870177984,0.03095321053788066
1761841494612279800,9.43227978515625,-0.03129822458326816,-0.1248009764060378,0.04099306811299175
1761841494622350000,9.44235009765625,0.00042319384813308713,-0.1966372553437948,-0.00282788036968559
1761841494632418800,9.452418701171876,0.09737433255910873,-0.1800941168218851,-0.01235580636728555
1761841494642488800,9.46248876953125,0.03172083390951157,-0.12853782484680412,0.007079911790974437
1761841494652558000,9.47255810546875,0.065678048568964,-0.052800739078223705,0.021341405649110672
1761841494662627800,9.4826279296875,0.11399521249234676,-0.026357845571637152,0.07878116617221385
1761841494672697000,9.492697021484375,-0.0661924278318882,-0.08833119440376758,0.17372980595435947
1761841494682766800,9.502766845703125,-0.09984452206492424,-0.1923766752898693,0.11013992530368268
1761841494692836000,9.512836181640624,0.05886603046655654,-0.21185966665595768,0.0721365405259654
1761841494702905900,9.52290576171875,0.12966624435484408,-0.19763035803437232,0.04467077024504542
1761841494712976000,9.532975830078126,0.17622984260916708,-0.1420584006771445,0.048456170535273846
1761841494723044900,9.543044921875,0.17888474103212357,-0.10866320381462573,0.04009995519816875
1761841494733115000,9.553114990234375,0.19872575205564497,-0.12226298236101865,0.05137377501502633
