time,seconds_elapsed,z,y,x
1761841485238749000,0.0587490234375,-0.631805419921875,-0.5867919921875,0.2129364013671875
1761841485248819000,0.06881884765625,-0.65789794921875,-0.5875091552734375,0.21734619140625
1761841485258888000,0.078887939453125,-0.7361602783203125,-0.5757904052734375,0.2243499755859375
1761841485268958000,0.0889580078125,-0.7572174072265625,-0.5762939453125,0.259063720703125
1761841485279027000,0.09902685546875,-0.71234130859375,-0.5618743896484375,0.2701263427734375
1761841485289097000,0.109096923828125,-0.7555389404296875,-0.592529296875,0.2878265380859375
1761841485299167000,0.1191669921875,-0.7340240478515625,-0.6312713623046875,0.318023681640625
1761841485309236000,0.129236083984375,-0.755279541015625,-0.6328125,0.3463897705078125
1761841485319306000,0.139305908203125,-0.7577972412109375,-0.6367645263671875,0.367279052734375
1761841485329376000,0.1493759765625,-0.7525634765625,-0.6595001220703125,0.3793487548828125
1761841485339445000,0.159445068359375,-0.7269439697265625,-0.6395263671875,0.390289306640625
1761841485349515000,0.169514892578125,-0.7180023193359375,-0.65545654296875,0.379608154296875
1761841485359583700,0.179583740234375,-0.7655181884765625,-0.71240234375,0.378875732421875
1761841485369654000,0.189654052734375,-0.7758331298828125,-0.7303619384765625,0.4043731689453125
1761841485379724000,0.19972412109375,-0.740447998046875,-0.7427978515625,0.442169189453125
1761841485389793000,0.20979296875,-0.6844635009765625,-0.7550811767578125,0.46734619140625
1761841485399863000,0.219863037109375,-0.6407470703125,-0.773284912109375,0.4785919189453125
1761841485409931800,0.229931884765625,-0.5922393798828125,-0.766815185546875,0.470245361328125
1761841485420002000,0.240001953125,-0.5723419189453125,-0.7634124755859375,0.4307708740234375
1761841485430071800,0.25007177734375,-0.5677337646484375,-0.7512054443359375,0.3945159912109375
1761841485440141000,0.26014111328125,-0.564910888671875,-0.73895263671875,0.37445068359375
1761841485450211000,0.270211181640625,-0.553497314453125,-0.7326812744140625,0.3508148193359375
1761841485460280800,0.28028076171875,-0.5954132080078125,-0.760955810546875,0.35650634765625
1761841485470350000,0.29035009765625,-0.5985260009765625,-0.7842864990234375,0.4002532958984375
1761841485480419800,0.300419921875,-0.558868408203125,-0.7814483642578125,0.4126739501953125
1761841485490489900,0.31048974609375,-0.6164398193359375,-0.7706146240234375,0.391845703125
1761841485500558800,0.320558837890625,-0.671051025390625,-0.8468017578125,0.415618896484375
1761841485510628900,0.33062890625,-0.5263671875,-0.89471435546875,0.395751953125
1761841485520697900,0.34069775390625,-0.5048065185546875,-0.8677520751953125,0.31402587890625
1761841485530768000,0.350767822265625,-0.5618896484375,-0.845062255859375,0.26470947265625
1761841485540838000,0.360837890625,-0.585174560546875,-0.8586273193359375,0.21649169921875
1761841485550907000,0.370906982421875,-0.5927734375,-0.8734130859375,0.1932220458984375
1761841485560977000,0.380976806640625,-0.625274658203125,-0.9438934326171875,0.235870361328125
1761841485571046700,0.391046630859375,-0.613006591796875,-0.997314453125,0.2473297119140625
1761841485581116400,0.401116455078125,-0.62957763671875,-1.0212554931640625,0.1900634765625
1761841485591186400,0.4111865234375,-0.603851318359375,-1.0393829345703125,0.0637359619140625
1761841485601255400,0.42125537109375,-0.563140869140625,-1.0477294921875,0.019439697265625
1761841485611325400,0.431325439453125,-0.559417724609375,-1.031036376953125,0.038604736328125
1761841485621395700,0.441395751953125,-0.5709381103515625,-1.032196044921875,0.0535430908203125
1761841485631464400,0.45146435546875,-0.596893310546875,-1.0572509765625,0.0331268310546875
1761841485641534500,0.461534423828125,-0.66766357421875,-1.0345001220703125,-0.03936767578125
1761841485651603500,0.471603515625,-0.648956298828125,-0.994140625,-0.1837921142578125
1761841485661673500,0.481673583984375,-0.8024139404296875,-0.86993408203125,-0.22821044921875
1761841485671743500,0.491743408203125,-0.800689697265625,-0.684173583984375,-0.32196044921875
1761841485681812500,0.5018125,-0.7133941650390625,-0.6261138916015625,-0.444610595703125
1761841485691882500,0.511882568359375,-0.570159912109375,-0.6337127685546875,-0.5707855224609375
1761841485701952500,0.521952392578125,-0.4152069091796875,-0.5909423828125,-0.75244140625
1761841485712021500,0.532021484375,-0.3033599853515625,-0.5338134765625,-0.899017333984375
1761841485722091500,0.542091552734375,-0.1555938720703125,-0.52520751953125,-1.0587005615234375
1761841485732160500,0.552160400390625,0.0027923583984375,-0.5049285888671875,-1.18133544921875
1761841485742230500,0.56223046875,0.0682525634765625,-0.4725799560546875,-1.280548095703125
1761841485752300500,0.572300537109375,0.0888671875,-0.27435302734375,-1.369537353515625
1761841485762369300,0.582369384765625,0.14508056640625,-0.125244140625,-1.4116668701171875
1761841485772439600,0.592439453125,0.261962890625,-0.2613372802734375,-1.3744659423828125
1761841485782509600,0.602509521484375,0.35345458984375,-0.360107421875,-1.2954254150390625
1761841485792578600,0.61257861328125,0.303924560546875,-0.2960357666015625,-1.2060546875
1761841485802648600,0.622648681640625,0.30072021484375,-0.31536865234375,-1.0943145751953125
1761841485812717300,0.63271728515625,0.268890380859375,-0.310638427734375,-0.9621429443359375
1761841485822787600,0.64278759765625,0.2312164306640625,-0.2863311767578125,-0.8209991455078125
1761841485832857300,0.652857421875,0.2233734130859375,-0.2713165283203125,-0.6626739501953125
1761841485842926600,0.662926513671875,0.1901702880859375,-0.2619781494140625,-0.5294036865234375
1761841485852996600,0.67299658203125,0.157928466796875,-0.2275848388671875,-0.400482177734375
1761841485863065600,0.683065673828125,0.1326446533203125,-0.20458984375,-0.2337799072265625
1761841485873135600,0.693135498046875,0.1089935302734375,-0.1659698486328125,-0.02362060546875
1761841485883205400,0.703205322265625,0.1397857666015625,-0.06793212890625,0.2008514404296875
1761841485893274600,0.713274658203125,0.1885833740234375,0.092132568359375,0.4641571044921875
1761841485903344400,0.723344482421875,0.24810791015625,0.2393035888671875,0.747650146484375
1761841485913414400,0.733414306640625,0.3423919677734375,0.37628173828125,1.014862060546875
1761841485923483400,0.7434833984375,0.4283294677734375,0.511016845703125,1.262176513671875
1761841485933553400,0.753553466796875,0.4840545654296875,0.59332275390625,1.53131103515625
1761841485943622700,0.76362255859375,0.50128173828125,0.5253448486328125,1.8750152587890625
1761841485953692400,0.7736923828125,0.559814453125,0.428497314453125,2.227508544921875
1761841485963762400,0.783762451171875,0.644256591796875,0.2378692626953125,2.5904388427734375
1761841485973831400,0.79383154296875,0.7545318603515625,-0.00634765625,2.86737060546875
1761841485983901400,0.8039013671875,0.7357330322265625,-0.18341064453125,2.944122314453125
1761841485993970400,0.813970458984375,0.66510009765625,-0.2690887451171875,2.8763275146484375
1761841486004040400,0.82404052734375,0.6005706787109375,-0.266876220703125,2.7204132080078125
1761841486014110500,0.8341103515625,0.517852783203125,-0.201507568359375,2.5147552490234375
1761841486024179500,0.844179443359375,0.4015655517578125,-0.1667327880859375,2.3006134033203125
1761841486034249500,0.85424951171875,0.303192138671875,-0.1743621826171875,2.036834716796875
1761841486044319500,0.864319580078125,0.2089996337890625,-0.1768646240234375,1.6897125244140625
1761841486054388500,0.874388427734375,0.0382843017578125,-0.212310791015625,1.29229736328125
1761841486064458500,0.88445849609375,-0.272216796875,-0.2225341796875,0.8438720703125
1761841486074527500,0.894527587890625,-0.654022216796875,-0.1339263916015625,0.408966064453125
1761841486084597500,0.904597412109375,-0.916412353515625,0.0546112060546875,0.109832763671875
1761841486094667500,0.91466748046875,-0.7783050537109375,0.3580780029296875,-0.0746002197265625
1761841486104736500,0.924736572265625,-0.1931304931640625,0.7699432373046875,-0.3805389404296875
1761841486114806500,0.934806640625,0.60809326171875,1.3801727294921875,-1.0640716552734375
1761841486124876500,0.94487646484375,1.55047607421875,1.691986083984375,-2.2020111083984375
1761841486134945300,0.9549453125,1.8019256591796875,1.6519012451171875,-2.977630615234375
1761841486145015600,0.965015625,1.457489013671875,2.2147674560546875,-3.365386962890625
1761841486155084300,0.975084228515625,1.6830596923828125,2.268585205078125,-3.474212646484375
1761841486165154600,0.985154541015625,2.2487945556640625,1.11114501953125,-3.239654541015625
1761841486175224600,0.995224609375,2.0577392578125,0.755889892578125,-2.757049560546875
1761841486185293300,1.005293212890625,1.6373443603515625,0.806121826171875,-2.2806549072265625
1761841486195363600,1.015363525390625,1.166259765625,0.61639404296875,-1.7734222412109375
1761841486205433300,1.025433349609375,0.7841339111328125,0.3630523681640625,-1.2977294921875
1761841486215502600,1.035502685546875,0.527435302734375,0.19677734375,-0.8897552490234375
1761841486225572600,1.045572509765625,0.2805328369140625,0.089630126953125,-0.55914306640625
1761841486235641600,1.0556416015625,0.100799560546875,0.058837890625,-0.2660980224609375
1761841486245711600,1.065711669921875,-0.0261383056640625,0.119171142578125,0.05230712890625
1761841486255781400,1.075781494140625,-0.1139984130859375,0.2151031494140625,0.3975830078125
1761841486265850600,1.0858505859375,-0.1298370361328125,0.3257598876953125,0.743133544921875
1761841486275920400,1.09592041015625,-0.135711669921875,0.3914337158203125,1.1455841064453125
1761841486285990400,1.105990478515625,-0.1667327880859375,0.2992401123046875,1.6640777587890625
1761841486296059400,1.116059326171875,-0.150848388671875,0.09735107421875,2.2494964599609375
1761841486306129400,1.12612939453125,-0.1440582275390625,-0.1451568603515625,2.842193603515625
1761841486316198700,1.13619873046875,-0.04144287109375,-0.4480133056640625,3.2606658935546875
1761841486326268400,1.146268310546875,0.1110076904296875,-0.6875152587890625,3.44049072265625
1761841486336338400,1.15633837890625,0.240447998046875,-0.887939453125,3.4617156982421875
1761841486346407400,1.166407470703125,0.3284454345703125,-0.828094482421875,3.2761688232421875
1761841486356477400,1.1764775390625,0.33282470703125,-0.578826904296875,2.932708740234375
1761841486366546400,1.18654638671875,0.3353271484375,-0.3359527587890625,2.50958251953125
1761841486376616400,1.196616455078125,0.3213348388671875,-0.1033477783203125,2.0037994384765625
1761841486386686500,1.2066865234375,0.1744537353515625,0.0592498779296875,1.463043212890625
1761841486396755500,1.21675537109375,0.0001983642578125,0.2250823974609375,0.9048614501953125
1761841486406825500,1.226825439453125,-0.2558746337890625,0.426544189453125,0.2862548828125
1761841486416895500,1.2368955078125,-0.442352294921875,0.5857391357421875,-0.2609710693359375
1761841486426964500,1.246964599609375,-0.2508392333984375,0.8520660400390625,-0.8198394775390625
1761841486437034500,1.257034423828125,0.2317047119140625,1.3214111328125,-1.5297088623046875
1761841486447103500,1.267103515625,0.7805023193359375,1.7920379638671875,-2.4647216796875
1761841486457173500,1.277173583984375,1.3641815185546875,1.88226318359375,-3.3697052001953125
1761841486467243500,1.287243408203125,1.69537353515625,1.662994384765625,-3.8913116455078125
1761841486477312500,1.2973125,1.7076416015625,1.3016510009765625,-3.90643310546875
1761841486487382500,1.307382568359375,1.4507293701171875,1.01727294921875,-3.4828033447265625
1761841486497451500,1.317451416015625,1.140594482421875,0.7213134765625,-2.88604736328125
1761841486507521300,1.327521240234375,0.861572265625,0.3961029052734375,-2.3094024658203125
1761841486517591600,1.337591552734375,0.5774078369140625,0.041778564453125,-1.8121337890625
1761841486527660300,1.347660400390625,0.339111328125,-0.2367401123046875,-1.4229888916015625
1761841486537730600,1.35773046875,0.144317626953125,-0.3931732177734375,-1.0904083251953125
1761841486547800600,1.367800537109375,-0.01751708984375,-0.445404052734375,-0.7609710693359375
1761841486557869300,1.377869384765625,-0.1515960693359375,-0.3342132568359375,-0.422119140625
1761841486567939800,1.38793994140625,-0.265411376953125,-0.1141510009765625,-0.0496368408203125
1761841486578008600,1.398008544921875,-0.2968597412109375,0.1161346435546875,0.351287841796875
1761841486588078800,1.408078857421875,-0.2557830810546875,0.274444580078125,0.7956390380859375
1761841486598148900,1.41814892578125,-0.2132568359375,0.288299560546875,1.2891998291015625
1761841486608217600,1.428217529296875,-0.2606201171875,0.1342010498046875,1.8690185546875
1761841486618287900,1.438287841796875,-0.228424072265625,-0.15179443359375,2.5391387939453125
1761841486628356600,1.448356689453125,-0.00433349609375,-0.446136474609375,3.1258544921875
1761841486638427000,1.458427001953125,0.3025054931640625,-0.6212005615234375,3.411163330078125
1761841486648496600,1.46849658203125,0.5556182861328125,-0.71539306640625,3.4414825439453125
1761841486658565600,1.478565673828125,0.6662445068359375,-0.600067138671875,3.19000244140625
1761841486668636000,1.488635986328125,0.6433258056640625,-0.31719970703125,2.7674102783203125
1761841486678705700,1.49870556640625,0.5564727783203125,-0.069610595703125,2.304473876953125
1761841486688775000,1.50877490234375,0.4955902099609375,0.103179931640625,1.8419189453125
1761841486698844700,1.5188447265625,0.42730712890625,0.20880126953125,1.3620758056640625
1761841486708914000,1.528913818359375,0.2987213134765625,0.2332305908203125,0.835357666015625
1761841486718983700,1.538983642578125,0.168548583984375,0.23138427734375,0.2740936279296875
1761841486729053700,1.5490537109375,-0.0399627685546875,0.3067779541015625,-0.363189697265625
1761841486739122700,1.559122802734375,-0.1517333984375,0.464569091796875,-1.0531158447265625
1761841486749192700,1.569192626953125,0.085968017578125,0.79852294921875,-1.805999755859375
1761841486759262000,1.579261962890625,0.656402587890625,1.2429656982421875,-2.6369171142578125
1761841486769331700,1.589331787109375,1.3069000244140625,1.4614715576171875,-3.494537353515625
1761841486779401700,1.599401611328125,1.6548309326171875,1.3837890625,-4.1123809814453125
1761841486789470700,1.609470703125,1.6063232421875,1.2020416259765625,-4.2576141357421875
1761841486799540700,1.619540771484375,1.323394775390625,0.9298248291015625,-3.8607330322265625
1761841486809610800,1.62961083984375,0.97991943359375,0.692535400390625,-3.1598358154296875
1761841486819679700,1.6396796875,0.728790283203125,0.4805908203125,-2.403564453125
1761841486829749800,1.649749755859375,0.484375,0.21697998046875,-1.714385986328125
1761841486839818800,1.65981884765625,0.2815704345703125,0.0239715576171875,-1.1842041015625
1761841486849888800,1.669888671875,0.0843505859375,-0.061614990234375,-0.7562713623046875
1761841486859958500,1.67995849609375,-0.0351715087890625,-0.061737060546875,-0.3802490234375
1761841486870027800,1.69002783203125,-0.0792999267578125,0.02191162109375,-0.0389862060546875
1761841486880097500,1.70009765625,-0.0918121337890625,0.14923095703125,0.289886474609375
1761841486890167800,1.710167724609375,-0.1472930908203125,0.2784271240234375,0.6316986083984375
1761841486900236800,1.72023681640625,-0.2337799072265625,0.31146240234375,1.0504913330078125
1761841486910306800,1.730306884765625,-0.2919921875,0.224884033203125,1.5505828857421875
1761841486920375800,1.740375732421875,-0.2093658447265625,0.0171051025390625,2.0060577392578125
1761841486930445600,1.750445556640625,-0.0712432861328125,-0.1356201171875,2.4141998291015625
1761841486940515800,1.760515869140625,0.0941925048828125,-0.151336669921875,2.6597900390625
1761841486950584600,1.77058447265625,0.2176361083984375,-0.2422637939453125,2.728729248046875
1761841486960654800,1.78065478515625,0.453582763671875,-0.364501953125,2.62432861328125
1761841486970723600,1.7907236328125,0.6101531982421875,-0.3455810546875,2.445648193359375
1761841486980793600,1.800793701171875,0.6928558349609375,-0.3062286376953125,2.23345947265625
1761841486990864000,1.81086376953125,0.720306396484375,-0.2879638671875,1.9925994873046875
1761841487000932600,1.8209326171875,0.6503448486328125,-0.3418731689453125,1.699432373046875
1761841487011003000,1.8310029296875,0.5321197509765625,-0.427490234375,1.357147216796875
1761841487021071600,1.841071533203125,0.3123016357421875,-0.5122222900390625,0.96295166015625
1761841487031141600,1.8511416015625,-0.026397705078125,-0.550750732421875,0.49603271484375
1761841487041212000,1.8612119140625,-0.3494873046875,-0.4971466064453125,-0.0396575927734375
1761841487051280600,1.87128076171875,-0.54022216796875,-0.317413330078125,-0.5802154541015625
1761841487061351000,1.881350830078125,-0.44171142578125,0.0276947021484375,-1.1240081787109375
1761841487071420700,1.891420654296875,0.0010833740234375,0.5365753173828125,-1.7805633544921875
1761841487081490000,1.901489990234375,0.6182098388671875,1.0243988037109375,-2.604156494140625
1761841487091559700,1.9115595703125,1.2874603271484375,1.1093902587890625,-3.4250640869140625
1761841487101628700,1.921628662109375,1.625030517578125,0.87713623046875,-3.8667755126953125
1761841487111698700,1.93169873046875,1.6581268310546875,0.66253662109375,-3.8487548828125
1761841487121768700,1.941768798828125,1.4828033447265625,0.4139862060546875,-3.346343994140625
1761841487131838000,1.951837890625,1.1594085693359375,0.2970733642578125,-2.6302337646484375
1761841487141907700,1.96190771484375,0.851318359375,0.1910400390625,-1.90814208984375
1761841487151976700,1.971976806640625,0.5823211669921875,0.0322723388671875,-1.2599334716796875
1761841487162046700,1.982046630859375,0.3236083984375,-0.0225830078125,-0.735076904296875
1761841487172116700,1.99211669921875,0.1423797607421875,0.0236968994140625,-0.2909393310546875
1761841487182185700,2.002185791015625,0.0868988037109375,0.1172027587890625,0.114593505859375
1761841487192255700,2.012255859375,0.1334991455078125,0.23193359375,0.4934539794921875
1761841487202324700,2.02232470703125,0.1588134765625,0.29229736328125,0.89923095703125
1761841487212394800,2.032394775390625,0.0936279296875,0.1806488037109375,1.41876220703125
1761841487222464800,2.04246484375,0.0120697021484375,-0.050750732421875,2.0003204345703125
1761841487232533800,2.05253369140625,0.0236358642578125,-0.281402587890625,2.49822998046875
1761841487242603800,2.062603759765625,0.080841064453125,-0.4950714111328125,2.8768310546875
1761841487252672800,2.0726728515625,0.2411041259765625,-0.6097564697265625,3.0621337890625
1761841487262742800,2.08274267578125,0.421478271484375,-0.616302490234375,3.0034027099609375
1761841487272812800,2.092812744140625,0.4317626953125,-0.473388671875,2.76385498046875
1761841487282881800,2.1028818359375,0.3861846923828125,-0.244781494140625,2.432159423828125
1761841487292951800,2.112951904296875,0.3630828857421875,-0.09893798828125,2.0651397705078125
1761841487303020800,2.123020751953125,0.3896942138671875,-0.011199951171875,1.667144775390625
1761841487313090800,2.1330908203125,0.327606201171875,0.0451202392578125,1.23028564453125
1761841487323160600,2.14316064453125,0.1994781494140625,0.0359649658203125,0.761383056640625
1761841487333229800,2.153229736328125,0.00048828125,0.0482177734375,0.230010986328125
1761841487343299600,2.163299560546875,-0.239898681640625,0.1358184814453125,-0.359344482421875
1761841487353369600,2.17336962890625,-0.3462677001953125,0.3260040283203125,-0.9697265625
1761841487363438800,2.18343896484375,-0.1336822509765625,0.657958984375,-1.6273040771484375
1761841487373508600,2.193508544921875,0.4014892578125,1.1813507080078125,-2.448394775390625
1761841487383577900,2.203577880859375,1.0737152099609375,1.3753204345703125,-3.300201416015625
1761841487393647600,2.213647705078125,1.4673614501953125,1.17828369140625,-3.857818603515625
1761841487403717600,2.223717529296875,1.5904998779296875,0.8989410400390625,-3.9948883056640625
1761841487413786600,2.23378662109375,1.5158843994140625,0.590850830078125,-3.6220703125
1761841487423856600,2.243856689453125,1.1519927978515625,0.4153594970703125,-3.014984130859375
1761841487433925600,2.253925537109375,0.81170654296875,0.2544708251953125,-2.370880126953125
1761841487443995600,2.26399560546875,0.5086669921875,-0.015472412109375,-1.7509765625
1761841487454066000,2.27406591796875,0.2633209228515625,-0.202545166015625,-1.2261199951171875
1761841487464134700,2.284134765625,0.0552825927734375,-0.2777862548828125,-0.768829345703125
1761841487474204700,2.29420458984375,-0.075531005859375,-0.258575439453125,-0.351104736328125
1761841487484274700,2.304274658203125,-0.1246490478515625,-0.1331329345703125,0.0444488525390625
1761841487494343700,2.31434375,-0.1123199462890625,0.0236053466796875,0.4247283935546875
1761841487504414000,2.3244140625,-0.11749267578125,0.12420654296875,0.836273193359375
1761841487514482700,2.334482666015625,-0.165985107421875,0.0662689208984375,1.3414764404296875
1761841487524552700,2.344552734375,-0.2292022705078125,-0.1605072021484375,1.91461181640625
1761841487534622700,2.354622802734375,-0.218109130859375,-0.3823699951171875,2.448211669921875
1761841487544691700,2.364691650390625,-0.1172637939453125,-0.50311279296875,2.8160247802734375
1761841487554761700,2.37476171875,0.1305084228515625,-0.628509521484375,2.9633026123046875
1761841487564830700,2.384830810546875,0.3356475830078125,-0.6469879150390625,2.925201416015625
1761841487574904300,2.394904296875,0.4819488525390625,-0.48797607421875,2.68182373046875
1761841487584973000,2.40497314453125,0.5408782958984375,-0.285980224609375,2.34136962890625
1761841487595043000,2.41504296875,0.5107879638671875,-0.147064208984375,1.9380645751953125
1761841487605113000,2.425113037109375,0.4258880615234375,-0.0729522705078125,1.490081787109375
1761841487615182000,2.43518212890625,0.2835693359375,-0.0944671630859375,1.016693115234375
1761841487625252000,2.445252197265625,0.071441650390625,-0.1538543701171875,0.5294189453125
1761841487635322000,2.455322021484375,-0.19390869140625,-0.22467041015625,0.0225677490234375
1761841487645391000,2.46539111328125,-0.45037841796875,-0.2267303466796875,-0.4964141845703125
1761841487655461000,2.475461181640625,-0.4611968994140625,-0.123931884765625,-0.99066162109375
1761841487665530000,2.485530029296875,-0.2123260498046875,0.1223297119140625,-1.5506439208984375
1761841487675600100,2.49560009765625,0.1586456298828125,0.4638214111328125,-2.232513427734375
1761841487685670100,2.505670166015625,0.5380859375,0.739349365234375,-2.9613494873046875
1761841487695739100,2.5157392578125,0.9131317138671875,0.7354278564453125,-3.53125
1761841487705809200,2.52580908203125,1.2321929931640625,0.5971221923828125,-3.7924957275390625
1761841487715878000,2.5358779296875,1.3621368408203125,0.4245452880859375,-3.671417236328125
1761841487725948200,2.5459482421875,1.2693634033203125,0.2592620849609375,-3.2344207763671875
1761841487736018200,2.55601806640625,1.022064208984375,0.190643310546875,-2.67041015625
1761841487746087200,2.566087158203125,0.76708984375,0.1051177978515625,-2.08154296875
1761841487756157200,2.5761572265625,0.524658203125,0.021026611328125,-1.51458740234375
1761841487766226200,2.58622607421875,0.296905517578125,-0.0092620849609375,-1.00811767578125
1761841487776296200,2.596296142578125,0.1106414794921875,-0.0059967041015625,-0.558929443359375
1761841487786366000,2.606365966796875,0.0088348388671875,0.072601318359375,-0.149200439453125
1761841487796435200,2.616435302734375,-0.0266876220703125,0.2127685546875,0.248565673828125
1761841487806505200,2.626505126953125,-0.05487060546875,0.281982421875,0.6957244873046875
1761841487816574200,2.63657421875,-0.1107330322265625,0.1949462890625,1.2622528076171875
1761841487826644200,2.646644287109375,-0.173675537109375,-0.0332183837890625,1.923980712890625
1761841487836714000,2.6567138671875,-0.201904296875,-0.32623291015625,2.5794525146484375
1761841487846783200,2.666783203125,-0.0767822265625,-0.58447265625,3.0568084716796875
1761841487856853000,2.67685302734375,0.0949249267578125,-0.723297119140625,3.2899932861328125
1761841487866922200,2.686922119140625,0.2713623046875,-0.6806488037109375,3.256134033203125
1761841487876992000,2.696991943359375,0.360626220703125,-0.4774932861328125,3.0303955078125
1761841487887062000,2.70706201171875,0.44171142578125,-0.2203826904296875,2.679107666015625
1761841487897131300,2.71713134765625,0.5243072509765625,-0.02532958984375,2.24615478515625
1761841487907201000,2.727200927734375,0.5670623779296875,0.066070556640625,1.773773193359375
1761841487917270300,2.737270263671875,0.5164642333984375,0.090179443359375,1.2965850830078125
1761841487927340000,2.747340087890625,0.3356170654296875,0.0985107421875,0.7991790771484375
1761841487937410000,2.75741015625,0.0470733642578125,0.1330108642578125,0.2427215576171875
1761841487947479000,2.76747900390625,-0.21875,0.2139892578125,-0.3765411376953125
1761841487957549000,2.777549072265625,-0.340667724609375,0.404815673828125,-1.0205230712890625
1761841487967618000,2.7876181640625,-0.11279296875,0.7786712646484375,-1.739501953125
1761841487977688000,2.79768798828125,0.2424468994140625,1.1822967529296875,-2.582550048828125
1761841487987758000,2.807758056640625,0.6546478271484375,1.32098388671875,-3.364990234375
1761841487997827000,2.8178271484375,1.0643463134765625,1.232818603515625,-3.8520965576171875
1761841488007897000,2.82789697265625,1.3287353515625,1.0318756103515625,-3.9327850341796875
1761841488017966000,2.837966064453125,1.3589630126953125,0.7738189697265625,-3.6068572998046875
1761841488028036000,2.8480361328125,1.17620849609375,0.546051025390625,-3.0474700927734375
1761841488038106000,2.858106201171875,0.883758544921875,0.344757080078125,-2.4553985595703125
1761841488048175000,2.868175048828125,0.6124267578125,0.07733154296875,-1.893280029296875
1761841488058245000,2.8782451171875,0.3926239013671875,-0.132659912109375,-1.395965576171875
1761841488068314000,2.888314208984375,0.19970703125,-0.238189697265625,-0.96221923828125
1761841488078384000,2.898384033203125,0.0569305419921875,-0.2122650146484375,-0.573089599609375
1761841488088454000,2.908453857421875,-0.0127105712890625,-0.08685302734375,-0.2056121826171875
1761841488098523100,2.918523193359375,-0.020965576171875,0.049713134765625,0.1598968505859375
1761841488108593000,2.928593017578125,-0.0149078369140625,0.1183929443359375,0.566925048828125
1761841488118662100,2.938662109375,-0.0243377685546875,0.0958251953125,1.0657806396484375
1761841488128732200,2.948732177734375,-0.026885986328125,-0.0535736083984375,1.6717987060546875
1761841488138802200,2.95880224609375,-0.005859375,-0.31524658203125,2.270416259765625
1761841488148871200,2.96887109375,0.0836029052734375,-0.586700439453125,2.6942901611328125
1761841488158941000,2.97894091796875,0.2649688720703125,-0.81634521484375,2.9027557373046875
1761841488169010200,2.98901025390625,0.4763641357421875,-0.89263916015625,2.944732666015625
1761841488179080000,2.999079833984375,0.5316314697265625,-0.784942626953125,2.771270751953125
1761841488189149200,3.009149169921875,0.43658447265625,-0.564239501953125,2.424591064453125
1761841488199219000,3.019218994140625,0.3383636474609375,-0.362640380859375,2.01910400390625
1761841488209289000,3.0292890625,0.266204833984375,-0.1854248046875,1.5768585205078125
1761841488219358200,3.039358154296875,0.19677734375,-0.04376220703125,1.12872314453125
1761841488229428000,3.049427978515625,0.0863189697265625,0.0426177978515625,0.6658782958984375
1761841488239497200,3.059497314453125,-0.0500335693359375,0.1093902587890625,0.1597442626953125
1761841488249567000,3.06956689453125,-0.188018798828125,0.2204132080078125,-0.4001922607421875
1761841488259637000,3.079636962890625,-0.201904296875,0.488037109375,-1.0466461181640625
1761841488269706000,3.0897060546875,0.0083465576171875,0.8506927490234375,-1.749725341796875
1761841488279776000,3.09977587890625,0.4222564697265625,1.1468963623046875,-2.506927490234375
1761841488289845000,3.109844970703125,0.8505401611328125,1.26947021484375,-3.2106170654296875
1761841488299915000,3.1199150390625,1.119049072265625,1.182037353515625,-3.634246826171875
1761841488309985300,3.1299853515625,1.057861328125,1.0165557861328125,-3.6580352783203125
1761841488320054000,3.140053955078125,1.14837646484375,0.790802001953125,-3.4037017822265625
1761841488330124000,3.1501240234375,0.9801025390625,0.462860107421875,-2.85662841796875
1761841488340193000,3.160193115234375,0.7550048828125,0.3351593017578125,-2.33563232421875
1761841488350263000,3.170262939453125,0.5192718505859375,0.147003173828125,-1.8269195556640625
1761841488360333300,3.180333251953125,0.3620758056640625,-0.09112548828125,-1.336944580078125
1761841488370402000,3.190402099609375,0.2406005859375,-0.1899566650390625,-0.8979034423828125
1761841488380472000,3.20047216796875,0.1128387451171875,-0.1708221435546875,-0.5001220703125
1761841488390541000,3.210541015625,0.0388336181640625,-0.067352294921875,-0.1348724365234375
1761841488400611000,3.220611083984375,-0.0028533935546875,0.0639801025390625,0.223785400390625
1761841488410681000,3.23068115234375,-0.0590362548828125,0.1197967529296875,0.6209716796875
1761841488420750000,3.24075,-0.1371612548828125,0.005035400390625,1.1693572998046875
1761841488430820000,3.250820068359375,-0.108489990234375,-0.2744140625,1.8412017822265625
1761841488440889000,3.26088916015625,-0.0450592041015625,-0.558502197265625,2.43304443359375
1761841488450959000,3.270958984375,0.0586090087890625,-0.7665863037109375,2.7886505126953125
1761841488461029000,3.281029052734375,0.1811065673828125,-0.9107818603515625,2.9092864990234375
1761841488471098000,3.29109814453125,0.310394287109375,-0.9122314453125,2.785186767578125
1761841488481168100,3.301168212890625,0.3261871337890625,-0.7162322998046875,2.4664154052734375
1761841488491237000,3.311237060546875,0.300445556640625,-0.45269775390625,2.0650787353515625
1761841488501307100,3.32130712890625,0.2700653076171875,-0.2580718994140625,1.638763427734375
1761841488511376100,3.331376220703125,0.20941162109375,-0.094085693359375,1.1969451904296875
1761841488521446000,3.34144580078125,0.108551025390625,-0.0041961669921875,0.743011474609375
1761841488531516200,3.35151611328125,-0.011871337890625,0.0352325439453125,0.2608795166015625
1761841488541585200,3.361585205078125,-0.1313629150390625,0.112548828125,-0.2588043212890625
1761841488551655200,3.3716552734375,-0.1875457763671875,0.222991943359375,-0.8146820068359375
1761841488561724200,3.38172412109375,-0.0794525146484375,0.4153900146484375,-1.4216766357421875
1761841488571790300,3.391790283203125,0.175506591796875,0.69403076171875,-2.12225341796875
1761841488581860400,3.4018603515625,0.53021240234375,0.8638458251953125,-2.8270111083984375
1761841488591929000,3.41192919921875,0.820404052734375,0.8033905029296875,-3.3559112548828125
1761841488601999400,3.421999267578125,1.0045013427734375,0.6097869873046875,-3.5435333251953125
1761841488612068000,3.432068115234375,1.0382537841796875,0.4276580810546875,-3.38641357421875
1761841488622138400,3.442138427734375,0.861236572265625,0.2848052978515625,-2.982330322265625
1761841488632208400,3.45220849609375,0.62451171875,0.1651611328125,-2.516143798828125
1761841488642277000,3.462277099609375,0.3891448974609375,-0.056610107421875,-2.0210113525390625
1761841488652347400,3.472347412109375,0.20660400390625,-0.287353515625,-1.5606689453125
1761841488662416100,3.482416015625,0.0374298095703125,-0.415863037109375,-1.1519317626953125
1761841488672486400,3.492486328125,-0.09124755859375,-0.4711456298828125,-0.7806854248046875
1761841488682556200,3.50255615234375,-0.156494140625,-0.4444580078125,-0.4312896728515625
1761841488692625400,3.51262548828125,-0.194976806640625,-0.3618011474609375,-0.070953369140625
1761841488702695200,3.522695068359375,-0.283233642578125,-0.3160552978515625,0.3272857666015625
1761841488712764200,3.53276416015625,-0.4197540283203125,-0.3730316162109375,0.793701171875
1761841488722834200,3.542834228515625,-0.550872802734375,-0.5511322021484375,1.329864501953125
1761841488732904200,3.552904296875,-0.6433868408203125,-0.7550811767578125,1.8588409423828125
1761841488742973400,3.562973388671875,-0.55206298828125,-0.9798431396484375,2.2657470703125
1761841488753043200,3.573043212890625,-0.4900054931640625,-0.8964385986328125,2.5319061279296875
1761841488763112200,3.5831123046875,-0.2412109375,-0.945281982421875,2.5489044189453125
1761841488773182200,3.59318212890625,0.0109710693359375,-0.9558868408203125,2.3975067138671875
1761841488783251200,3.603251220703125,0.1728057861328125,-0.723358154296875,2.100311279296875
1761841488793321200,3.6133212890625,0.2850494384765625,-0.504241943359375,1.762176513671875
1761841488803391200,3.62339111328125,0.3481292724609375,-0.3132476806640625,1.411041259765625
1761841488813460200,3.633460205078125,0.36163330078125,-0.1489410400390625,1.0449371337890625
1761841488823530200,3.6435302734375,0.2765655517578125,-0.035675048828125,0.6721954345703125
1761841488833599200,3.65359912109375,0.1088104248046875,0.0313262939453125,0.2576141357421875
1761841488843669200,3.663669189453125,-0.105987548828125,0.1152801513671875,-0.234344482421875
1761841488853739300,3.6737392578125,-0.2774505615234375,0.2314605712890625,-0.7841033935546875
1761841488863808300,3.683808349609375,-0.1843414306640625,0.3534393310546875,-1.27459716796875
1761841488873878300,3.693878173828125,0.1851043701171875,0.53302001953125,-1.72076416015625
1761841488883947000,3.703947021484375,0.536468505859375,0.762115478515625,-2.219329833984375
1761841488894017300,3.714017333984375,0.7477264404296875,0.887664794921875,-2.675872802734375
1761841488904087300,3.72408740234375,0.9188385009765625,0.8840789794921875,-2.9346466064453125
1761841488914156300,3.73415625,1.0856170654296875,0.786163330078125,-2.9483184814453125
1761841488924226300,3.744226318359375,1.1171417236328125,0.648590087890625,-2.743438720703125
1761841488934295300,3.75429541015625,0.9703369140625,0.53961181640625,-2.414215087890625
1761841488944365300,3.764365234375,0.7761077880859375,0.3998870849609375,-2.0618438720703125
1761841488954435000,3.77443505859375,0.56951904296875,0.1990814208984375,-1.713592529296875
1761841488964504300,3.78450439453125,0.4156646728515625,0.030853271484375,-1.387451171875
1761841488974574300,3.79457421875,0.304351806640625,-0.035980224609375,-1.081329345703125
1761841488984643300,3.804643310546875,0.2146453857421875,-0.0634765625,-0.7643280029296875
1761841488994713300,3.81471337890625,0.1382598876953125,-0.069915771484375,-0.4406890869140625
1761841489004783000,3.824783203125,0.0916748046875,-0.00634765625,-0.1280975341796875
1761841489014852400,3.834852294921875,0.0804901123046875,0.1057281494140625,0.195068359375
1761841489024922000,3.844922119140625,0.0630645751953125,0.153961181640625,0.5668487548828125
1761841489034991400,3.854991455078125,0.031280517578125,0.0694122314453125,1.036376953125
1761841489045061000,3.86506103515625,-0.1226043701171875,-0.2633209228515625,1.6448974609375
1761841489055130400,3.87513037109375,-0.2421112060546875,-0.7176513671875,2.22869873046875
1761841489065200400,3.885200439453125,-0.313690185546875,-1.0817718505859375,2.69256591796875
1761841489075270100,3.895270263671875,-0.3670196533203125,-1.3245697021484375,3.0139312744140625
1761841489085339400,3.90533935546875,-0.447235107421875,-1.371826171875,3.0695648193359375
1761841489095409200,3.9154091796875,-0.3243255615234375,-1.288360595703125,2.758697509765625
1761841489105478400,3.925478515625,-0.2620849609375,-0.9954986572265625,2.3183746337890625
1761841489115548200,3.935548095703125,-0.1351776123046875,-0.6422882080078125,1.82208251953125
1761841489125618200,3.9456181640625,-0.0480499267578125,-0.33544921875,1.32427978515625
1761841489135687200,3.955687255859375,-0.047515869140625,-0.0814666748046875,0.79229736328125
1761841489145757200,3.965757080078125,-0.0816802978515625,0.1204986572265625,0.225433349609375
1761841489155826400,3.975826416015625,-0.1043243408203125,0.3080291748046875,-0.36981201171875
1761841489165896200,3.985896240234375,-0.0665740966796875,0.51861572265625,-0.99066162109375
1761841489175965200,3.995965087890625,0.1914825439453125,0.79315185546875,-1.6405181884765625
1761841489186035200,4.00603515625,0.6202850341796875,1.01708984375,-2.342864990234375
1761841489196105200,4.016105224609375,1.007537841796875,1.064788818359375,-2.976531982421875
1761841489206172200,4.026172119140625,1.3326263427734375,0.89874267578125,-3.3629608154296875
1761841489216242400,4.036242431640625,1.450653076171875,0.659942626953125,-3.38909912109375
1761841489226311200,4.046311279296875,1.2947845458984375,0.4832611083984375,-3.0767059326171875
1761841489236381200,4.056381103515625,0.9584503173828125,0.4197540283203125,-2.6151275634765625
1761841489246450200,4.0664501953125,0.66644287109375,0.2753448486328125,-2.10516357421875
1761841489256520200,4.076520263671875,0.441986083984375,0.031524658203125,-1.5915069580078125
1761841489266590200,4.086590087890625,0.25714111328125,-0.1475677490234375,-1.143951416015625
1761841489276659200,4.0966591796875,0.0857391357421875,-0.2443389892578125,-0.7380828857421875
1761841489286729200,4.106729248046875,-0.0613861083984375,-0.255889892578125,-0.3478851318359375
1761841489296798200,4.116798095703125,-0.1677398681640625,-0.202362060546875,0.019744873046875
1761841489306868200,4.1268681640625,-0.3095703125,-0.19677734375,0.39544677734375
1761841489316938200,4.136938232421875,-0.5306243896484375,-0.454559326171875,0.8893280029296875
1761841489327007200,4.14700732421875,-0.72479248046875,-0.9234619140625,1.56573486328125
1761841489337077200,4.1570771484375,-0.6562042236328125,-1.166412353515625,2.169281005859375
1761841489347146200,4.167146240234375,-0.6788787841796875,-1.181976318359375,2.65386962890625
1761841489357216000,4.177216064453125,-0.621002197265625,-1.1954345703125,2.86590576171875
1761841489367285200,4.18728515625,-0.60906982421875,-1.0443878173828125,2.807861328125
1761841489377355300,4.197355224609375,-0.40234375,-0.9868316650390625,2.51287841796875
1761841489387425300,4.20742529296875,-0.205322265625,-0.7305908203125,2.1706390380859375
1761841489397494300,4.217494384765625,-0.04278564453125,-0.38885498046875,1.742706298828125
1761841489407564300,4.227564208984375,0.052398681640625,-0.136383056640625,1.267303466796875
1761841489417633300,4.23763330078125,0.09735107421875,0.0215911865234375,0.76910400390625
1761841489427703000,4.247703125,0.074249267578125,0.0951080322265625,0.2212371826171875
1761841489437773300,4.257773193359375,0.018890380859375,0.2162628173828125,-0.3474273681640625
1761841489447842000,4.267842041015625,0.031219482421875,0.3437957763671875,-0.907440185546875
1761841489457912300,4.277912353515625,0.159423828125,0.4818267822265625,-1.4519195556640625
1761841489467981300,4.287981201171875,0.4109954833984375,0.7004852294921875,-2.0159759521484375
1761841489478051000,4.298051025390625,0.69354248046875,0.87860107421875,-2.5709381103515625
1761841489488121300,4.308121337890625,0.9125823974609375,0.8940887451171875,-2.9675750732421875
1761841489498190000,4.318190185546875,1.0378570556640625,0.828216552734375,-3.132415771484375
1761841489508260400,4.32826025390625,1.14801025390625,0.66827392578125,-3.029998779296875
1761841489518329000,4.3383291015625,1.107696533203125,0.502899169921875,-2.71728515625
1761841489528399000,4.348399169921875,0.9742279052734375,0.44989013671875,-2.3402099609375
1761841489538469400,4.358469482421875,0.8150177001953125,0.3523712158203125,-1.94683837890625
1761841489548538000,4.3685380859375,0.6618499755859375,0.1957244873046875,-1.5705413818359375
1761841489558608400,4.3786083984375,0.5428924560546875,0.07232666015625,-1.22283935546875
1761841489568677000,4.388677001953125,0.44818115234375,-0.01385498046875,-0.8773651123046875
1761841489578748000,4.398747802734375,0.371063232421875,-0.0521697998046875,-0.5412139892578125
1761841489588817200,4.408817138671875,0.298614501953125,-0.0223236083984375,-0.209686279296875
1761841489598887000,4.418886962890625,0.2422637939453125,0.0886993408203125,0.1172943115234375
1761841489608957000,4.42895703125,0.1743621826171875,0.2310028076171875,0.4588775634765625
1761841489619026000,4.43902587890625,0.0604248046875,0.2671966552734375,0.8901824951171875
1761841489629096000,4.449095947265625,-0.104461669921875,0.1072998046875,1.432708740234375
1761841489639165200,4.459165283203125,-0.2016448974609375,-0.1905517578125,2.0147247314453125
1761841489649235000,4.46923486328125,-0.205718994140625,-0.4945526123046875,2.5151214599609375
1761841489659305200,4.47930517578125,-0.2036285400390625,-0.7186431884765625,2.8900299072265625
1761841489669374000,4.4893740234375,-0.0248260498046875,-0.9103851318359375,3.0173492431640625
1761841489679444000,4.49944384765625,0.20245361328125,-0.9615478515625,2.94921875
1761841489689513000,4.509512939453125,0.3021087646484375,-0.7331390380859375,2.6740264892578125
1761841489699583000,4.5195830078125,0.3318939208984375,-0.468780517578125,2.310882568359375
1761841489709652000,4.52965185546875,0.3630523681640625,-0.240234375,1.89849853515625
1761841489719722000,4.539721923828125,0.351226806640625,-0.0659027099609375,1.45751953125
1761841489729792000,4.5497919921875,0.268524169921875,0.0311737060546875,1
1761841489739861000,4.559861083984375,0.1469879150390625,0.117462158203125,0.502593994140625
1761841489749931000,4.569930908203125,0.0185089111328125,0.2467041015625,-0.0621185302734375
1761841489760000000,4.58,-0.067047119140625,0.4477691650390625,-0.7105865478515625
1761841489770070000,4.590070068359375,0.0056304931640625,0.73199462890625,-1.41192626953125
1761841489780140300,4.600140380859375,0.27685546875,1.033782958984375,-2.158966064453125
1761841489790209000,4.610208984375,0.6458282470703125,1.149871826171875,-2.8636932373046875
1761841489800279000,4.620279052734375,0.8826751708984375,1.0967559814453125,-3.386322021484375
1761841489810348000,4.63034814453125,1.04327392578125,0.9430999755859375,-3.592864990234375
1761841489820418000,4.64041796875,1.0250244140625,0.7155303955078125,-3.47357177734375
1761841489830490000,4.650489990234375,0.9721527099609375,0.467803955078125,-3.0750732421875
1761841489840559000,4.66055908203125,0.7898406982421875,0.3433990478515625,-2.57525634765625
1761841489850629000,4.670629150390625,0.605804443359375,0.2086029052734375,-2.1019439697265625
1761841489860698000,4.680697998046875,0.4432830810546875,-0.0303192138671875,-1.64971923828125
1761841489870768000,4.69076806640625,0.323089599609375,-0.185516357421875,-1.261260986328125
1761841489880838100,4.700838134765625,0.2064056396484375,-0.2467498779296875,-0.910430908203125
1761841489890907100,4.7109072265625,0.0984649658203125,-0.24639892578125,-0.588470458984375
1761841489900977200,4.72097705078125,0.0119171142578125,-0.170684814453125,-0.2779388427734375
1761841489911046100,4.731046142578125,-0.0336761474609375,-0.0412750244140625,0.0361175537109375
1761841489921116200,4.7411162109375,-0.0380859375,0.0560150146484375,0.366973876953125
1761841489931185000,4.751184814453125,-0.018310546875,0.073974609375,0.7698974609375
1761841489941255200,4.761255126953125,-0.0284576416015625,0.060577392578125,1.26483154296875
1761841489951325200,4.7713251953125,0.030731201171875,-0.0512542724609375,1.755523681640625
1761841489961394200,4.781394287109375,0.064788818359375,-0.2188568115234375,2.1828155517578125
1761841489971464200,4.791464111328125,0.20831298828125,-0.5499420166015625,2.4332122802734375
1761841489981533000,4.801532958984375,0.333648681640625,-0.7917938232421875,2.543731689453125
1761841489991603200,4.811603271484375,0.3267364501953125,-0.853973388671875,2.51361083984375
1761841490001673000,4.8216728515625,0.2659759521484375,-0.7512969970703125,2.3209686279296875
1761841490011742200,4.8317421875,0.193511962890625,-0.5583343505859375,2.0467987060546875
1761841490021812000,4.84181201171875,0.160400390625,-0.4077911376953125,1.7332000732421875
1761841490031881200,4.851881103515625,0.1602630615234375,-0.2689361572265625,1.37994384765625
1761841490041951200,4.861951171875,0.1578826904296875,-0.138702392578125,0.9892730712890625
1761841490052020000,4.87202001953125,0.1136474609375,-0.04364013671875,0.52294921875
1761841490062090200,4.88209033203125,0.0077667236328125,0.1669464111328125,-0.0313568115234375
1761841490072160000,4.892159912109375,-0.055877685546875,0.3967742919921875,-0.6818695068359375
1761841490082229200,4.902229248046875,-0.021759033203125,0.6305999755859375,-1.423980712890625
1761841490092299000,4.912299072265625,0.083648681640625,0.776336669921875,-2.2317657470703125
1761841490102368000,4.922367919921875,0.215545654296875,0.5995635986328125,-2.9626922607421875
1761841490112438000,4.93243798828125,0.173583984375,0.3558197021484375,-3.3637847900390625
1761841490122508000,4.942508056640625,-0.0031585693359375,0.2802276611328125,-3.4790496826171875
1761841490132577300,4.952577392578125,-0.294189453125,0.2043914794921875,-3.297393798828125
1761841490142647000,4.96264697265625,-0.5879974365234375,0.0871734619140625,-2.88702392578125
1761841490152716000,4.972716064453125,-0.786712646484375,0.0540618896484375,-2.4083404541015625
1761841490162786000,4.9827861328125,-0.8202667236328125,0.0187835693359375,-1.94781494140625
1761841490172855000,4.99285498046875,-0.741455078125,-0.2185211181640625,-1.488494873046875
1761841490182925000,5.002925048828125,-0.65087890625,-0.39642333984375,-1.07330322265625
1761841490192995000,5.0129951171875,-0.5618438720703125,-0.4724884033203125,-0.7093505859375
1761841490203064000,5.02306396484375,-0.4902191162109375,-0.50054931640625,-0.3745880126953125
1761841490213134000,5.033134033203125,-0.4102935791015625,-0.4571380615234375,-0.0566558837890625
1761841490223202800,5.043202880859375,-0.3772430419921875,-0.3679962158203125,0.249725341796875
1761841490233273000,5.053273193359375,-0.36285400390625,-0.2805328369140625,0.6151123046875
1761841490243343000,5.063343017578125,-0.416046142578125,-0.29998779296875,1.04632568359375
1761841490253412000,5.073412109375,-0.4589691162109375,-0.5078277587890625,1.4711151123046875
1761841490263482000,5.083482177734375,-0.43701171875,-0.716461181640625,1.9422149658203125
1761841490273551000,5.093551025390625,-0.271820068359375,-0.79693603515625,2.3175811767578125
1761841490283621000,5.10362109375,-0.0721893310546875,-0.870269775390625,2.525787353515625
1761841490293689900,5.11368994140625,0.0805816650390625,-0.9673004150390625,2.43865966796875
1761841490303760100,5.123760009765625,0.1453704833984375,-0.808563232421875,2.175018310546875
1761841490313830100,5.133830078125,0.1284942626953125,-0.5942230224609375,1.838348388671875
1761841490323899100,5.143899169921875,0.136138916015625,-0.4369964599609375,1.4698028564453125
1761841490333969200,5.15396923828125,0.1556549072265625,-0.265289306640625,1.0942535400390625
1761841490344038000,5.164037841796875,0.098785400390625,-0.12579345703125,0.700775146484375
1761841490354108200,5.174108154296875,0.0050811767578125,-0.0189056396484375,0.2724456787109375
1761841490364178200,5.18417822265625,-0.178192138671875,0.05889892578125,-0.2036895751953125
1761841490374247200,5.1942470703125,-0.35894775390625,0.140777587890625,-0.716766357421875
1761841490384317200,5.204317138671875,-0.3557281494140625,0.3070220947265625,-1.204071044921875
1761841490394386200,5.21438623046875,-0.106597900390625,0.5140228271484375,-1.5948638916015625
1761841490404456200,5.224456298828125,0.3837738037109375,0.735198974609375,-2.0245208740234375
1761841490414525000,5.23452490234375,0.9200439453125,0.915924072265625,-2.53448486328125
1761841490424595200,5.24459521484375,1.2217254638671875,0.9340057373046875,-3.001617431640625
1761841490434665000,5.2546650390625,1.3227691650390625,0.75067138671875,-3.16741943359375
1761841490444734200,5.264734130859375,1.223907470703125,0.5416259765625,-3.0065460205078125
1761841490454804000,5.274803955078125,1.01788330078125,0.4450225830078125,-2.6018829345703125
1761841490464873000,5.284873046875,0.7641448974609375,0.3581390380859375,-2.1147918701171875
1761841490474943200,5.294943115234375,0.5180511474609375,0.2373199462890625,-1.5978851318359375
1761841490485013000,5.305012939453125,0.3533782958984375,0.1013336181640625,-1.090179443359375
1761841490495082200,5.315082275390625,0.211639404296875,0.0574493408203125,-0.6255950927734375
1761841490505152000,5.325152099609375,0.0670013427734375,0.0657958984375,-0.196929931640625
1761841490515221000,5.335220947265625,-0.0748443603515625,0.0908050537109375,0.2117156982421875
1761841490525291000,5.345291015625,-0.235687255859375,0.047515869140625,0.648345947265625
1761841490535361000,5.355361083984375,-0.390533447265625,-0.1230926513671875,1.19775390625
1761841490545430000,5.365429931640625,-0.5753326416015625,-0.4569091796875,1.840087890625
1761841490555500000,5.3755,-0.60528564453125,-0.884490966796875,2.4166412353515625
1761841490565569300,5.3855693359375,-0.706756591796875,-1.1406097412109375,2.8831939697265625
1761841490575638000,5.395637939453125,-0.71697998046875,-1.278472900390625,3.0537109375
1761841490585707000,5.40570703125,-0.5146942138671875,-1.31915283203125,2.8654022216796875
1761841490595777000,5.415777099609375,-0.4237518310546875,-1.0808868408203125,2.483123779296875
1761841490605846800,5.4258466796875,-0.32330322265625,-0.7314453125,1.9988250732421875
1761841490615916000,5.435916015625,-0.20001220703125,-0.4336395263671875,1.48388671875
1761841490625985800,5.44598583984375,-0.1034088134765625,-0.2399139404296875,0.965606689453125
1761841490636055000,5.456054931640625,-0.071746826171875,-0.11407470703125,0.4542083740234375
1761841490646124800,5.466124755859375,-0.046539306640625,-0.0113983154296875,-0.06634521484375
1761841490656194800,5.47619482421875,0.03448486328125,0.1529998779296875,-0.6268310546875
1761841490666263800,5.486263916015625,0.117706298828125,0.3375701904296875,-1.2355194091796875
1761841490676333800,5.496333740234375,0.2773590087890625,0.45648193359375,-1.8591461181640625
1761841490686403000,5.506403076171875,0.4842376708984375,0.41461181640625,-2.3912200927734375
1761841490696472800,5.516472900390625,0.591705322265625,0.2877349853515625,-2.6985321044921875
1761841490706542000,5.5265419921875,0.63372802734375,0.235076904296875,-2.7681884765625
1761841490716611800,5.53661181640625,0.7015533447265625,0.0922698974609375,-2.7408447265625
1761841490726681900,5.546681884765625,0.69268798828125,-0.0015106201171875,-2.5201263427734375
1761841490736750800,5.556750732421875,0.6183013916015625,-0.0039520263671875,-2.2198944091796875
1761841490746820900,5.56682080078125,0.536773681640625,0.01171875,-1.8677520751953125
1761841490756889900,5.576889892578125,0.4335174560546875,-0.1232757568359375,-1.4592437744140625
1761841490766959900,5.5869599609375,0.3440093994140625,-0.26873779296875,-1.050537109375
1761841490777030000,5.59702978515625,0.243011474609375,-0.3506011962890625,-0.66558837890625
1761841490787099000,5.607098876953125,0.09527587890625,-0.4068450927734375,-0.2903900146484375
1761841490797169000,5.6171689453125,-0.0611419677734375,-0.4581146240234375,0.093597412109375
1761841490807238000,5.62723779296875,-0.24005126953125,-0.5350341796875,0.529937744140625
1761841490817308000,5.637307861328125,-0.377410888671875,-0.7410736083984375,1.006500244140625
1761841490827377000,5.647376953125,-0.38665771484375,-0.9869537353515625,1.4661865234375
1761841490837447000,5.657447021484375,-0.444976806640625,-1.0585174560546875,1.789459228515625
1761841490847517000,5.667516845703125,-0.4864044189453125,-1.0839996337890625,1.9439697265625
1761841490857586000,5.6775859375,-0.5081939697265625,-1.077545166015625,2.0010833740234375
1761841490867656000,5.687656005859375,-0.5087738037109375,-0.9988250732421875,1.8917694091796875
1761841490877725000,5.697724853515625,-0.4285430908203125,-0.9558868408203125,1.615478515625
1761841490887795000,5.707794921875,-0.4091796875,-0.8690032958984375,1.3040924072265625
1761841490897864000,5.717864013671875,-0.3542938232421875,-0.72137451171875,0.958984375
1761841490907934000,5.727933837890625,-0.2733001708984375,-0.6005706787109375,0.610198974609375
1761841490918004000,5.73800390625,-0.1932525634765625,-0.518798828125,0.230804443359375
1761841490928073000,5.748072998046875,-0.1510772705078125,-0.447998046875,-0.172637939453125
1761841490938143000,5.75814306640625,-0.1290283203125,-0.32598876953125,-0.6261749267578125
1761841490948212000,5.7682119140625,-0.0372161865234375,-0.166046142578125,-1.1175384521484375
1761841490958282000,5.778281982421875,0.1264190673828125,0.0512542724609375,-1.6451263427734375
1761841490968351700,5.788351806640625,0.2665252685546875,0.1573486328125,-2.156494140625
1761841490978421000,5.7984208984375,0.443084716796875,0.0471954345703125,-2.529266357421875
1761841490988490800,5.80849072265625,0.5886688232421875,-0.0572967529296875,-2.665191650390625
1761841490998560000,5.81856005859375,0.7031097412109375,-0.1738128662109375,-2.583038330078125
1761841491008630000,5.828630126953125,0.60540771484375,-0.1636505126953125,-2.3222198486328125
1761841491018699800,5.83869970703125,0.490234375,-0.08001708984375,-1.9661102294921875
1761841491028769000,5.84876904296875,0.3714141845703125,-0.110015869140625,-1.5278167724609375
1761841491038838800,5.8588388671875,0.2641448974609375,-0.19970703125,-1.0673980712890625
1761841491048908000,5.868907958984375,0.1511383056640625,-0.2742919921875,-0.6324462890625
1761841491058977800,5.878977783203125,-0.0010986328125,-0.3552703857421875,-0.2061767578125
1761841491069047800,5.8890478515625,-0.201446533203125,-0.4257965087890625,0.23956298828125
1761841491079116800,5.89911669921875,-0.4189910888671875,-0.52587890625,0.718017578125
1761841491089186800,5.909186767578125,-0.4438323974609375,-0.7879791259765625,1.1966400146484375
1761841491099256000,5.919256103515625,-0.3838348388671875,-0.93670654296875,1.63262939453125
1761841491109325800,5.929325927734375,-0.4478759765625,-0.9994964599609375,2.0268707275390625
1761841491119395000,5.93939501953125,-0.526123046875,-1.050994873046875,2.2319183349609375
1761841491129464800,5.94946484375,-0.5153350830078125,-0.9976806640625,2.2440032958984375
1761841491139534800,5.959534912109375,-0.3700714111328125,-1.0054779052734375,2.06298828125
1761841491149603800,5.969603759765625,-0.3009185791015625,-0.8824615478515625,1.780487060546875
1761841491159673900,5.979673828125,-0.222747802734375,-0.702789306640625,1.441802978515625
1761841491169742800,5.989742919921875,-0.14031982421875,-0.5372161865234375,1.0780487060546875
1761841491179812900,5.999812744140625,-0.0165863037109375,-0.4047698974609375,0.698577880859375
1761841491189882000,6.009882080078125,0.0501861572265625,-0.3442840576171875,0.3073272705078125
1761841491199952000,6.019951904296875,0.080810546875,-0.2922515869140625,-0.1241302490234375
1761841491210022000,6.03002197265625,0.0755615234375,-0.1868896484375,-0.6205902099609375
1761841491220091000,6.0400908203125,0.0707244873046875,-0.076507568359375,-1.136199951171875
1761841491230161000,6.050160888671875,0.1389923095703125,0.02154541015625,-1.6098785400390625
1761841491240230000,6.06022998046875,0.275146484375,0.04541015625,-2.00146484375
1761841491250300000,6.0702998046875,0.4191436767578125,-0.023406982421875,-2.2949981689453125
1761841491260370000,6.080369873046875,0.530670166015625,-0.067352294921875,-2.4422454833984375
1761841491270439000,6.09043896484375,0.6158599853515625,-0.111053466796875,-2.423095703125
1761841491280509000,6.100509033203125,0.61260986328125,-0.17138671875,-2.230377197265625
1761841491290578000,6.110577880859375,0.53521728515625,-0.2255706787109375,-1.932281494140625
1761841491300648000,6.12064794921875,0.431610107421875,-0.27996826171875,-1.5919189453125
1761841491310717700,6.1307177734375,0.33270263671875,-0.3599090576171875,-1.227569580078125
1761841491320787000,6.140786865234375,0.24432373046875,-0.448089599609375,-0.8588409423828125
1761841491330857000,6.15085693359375,0.1674957275390625,-0.502777099609375,-0.513671875
1761841491340926000,6.160926025390625,0.07220458984375,-0.4828338623046875,-0.194580078125
1761841491350996000,6.170995849609375,-0.0242767333984375,-0.461151123046875,0.1190643310546875
1761841491361065000,6.18106494140625,-0.1264801025390625,-0.51593017578125,0.4755859375
1761841491371135000,6.191135009765625,-0.228790283203125,-0.6671142578125,0.9029693603515625
1761841491381204700,6.201204833984375,-0.3361053466796875,-0.828155517578125,1.345306396484375
1761841491391274000,6.21127392578125,-0.442657470703125,-0.9089508056640625,1.7645721435546875
1761841491401343700,6.22134375,-0.60040283203125,-0.98089599609375,2.0709075927734375
1761841491411413000,6.2314130859375,-0.58197021484375,-1.065582275390625,2.170440673828125
1761841491421483000,6.24148291015625,-0.4105987548828125,-1.1027374267578125,2.0683746337890625
1761841491431552800,6.251552734375,-0.300445556640625,-1.011383056640625,1.8161163330078125
1761841491441622000,6.2616220703125,-0.2122344970703125,-0.8280181884765625,1.487152099609375
1761841491451691800,6.27169189453125,-0.1087646484375,-0.690216064453125,1.1425628662109375
1761841491461761000,6.281760986328125,-0.0362396240234375,-0.601318359375,0.7885894775390625
1761841491471830800,6.291830810546875,-0.0797119140625,-0.5436553955078125,0.426300048828125
1761841491481900000,6.301900146484375,-0.10369873046875,-0.497955322265625,0.0469970703125
1761841491491969800,6.3119697265625,-0.103790283203125,-0.4280548095703125,-0.37017822265625
1761841491502039800,6.322039794921875,-0.0996246337890625,-0.3518524169921875,-0.813262939453125
1761841491512109000,6.332109130859375,-0.0142059326171875,-0.2758331298828125,-1.2566070556640625
1761841491522178800,6.3421787109375,0.104736328125,-0.19317626953125,-1.6497650146484375
1761841491532248000,6.352248046875,0.2458648681640625,-0.1781005859375,-1.9970703125
1761841491542317800,6.36231787109375,0.380126953125,-0.1835784912109375,-2.231597900390625
1761841491552387800,6.372387939453125,0.49371337890625,-0.2151641845703125,-2.3217926025390625
1761841491562456800,6.382456787109375,0.530487060546875,-0.3098907470703125,-2.250091552734375
1761841491572526800,6.39252685546875,0.474090576171875,-0.37738037109375,-2.029693603515625
1761841491582596600,6.4025966796875,0.3656463623046875,-0.4153289794921875,-1.7519073486328125
1761841491592666600,6.41266650390625,0.25115966796875,-0.458526611328125,-1.430633544921875
1761841491602736400,6.422736328125,0.15020751953125,-0.5241851806640625,-1.10357666015625
1761841491612805600,6.4328056640625,0.0547637939453125,-0.5686798095703125,-0.7819976806640625
1761841491622875400,6.44287548828125,-0.0331268310546875,-0.5795135498046875,-0.47235107421875
1761841491632944600,6.452944580078125,-0.1598968505859375,-0.5970916748046875,-0.1508026123046875
1761841491643014700,6.4630146484375,-0.296112060546875,-0.6703948974609375,0.217376708984375
1761841491653083600,6.473083740234375,-0.3885955810546875,-0.73876953125,0.6179656982421875
1761841491663153700,6.483153564453125,-0.53851318359375,-0.8123626708984375,1.025421142578125
1761841491673223400,6.493223388671875,-0.7091217041015625,-0.9007568359375,1.410125732421875
1761841491683292700,6.503292724609375,-0.757415771484375,-0.963592529296875,1.6970062255859375
1761841491693362400,6.513362548828125,-0.6287384033203125,-1.0045013427734375,1.8539581298828125
1761841491703431700,6.523431640625,-0.472076416015625,-1.03717041015625,1.9091949462890625
1761841491713501400,6.53350146484375,-0.3092041015625,-1.0394744873046875,1.7982635498046875
1761841491723571500,6.543571533203125,-0.1877899169921875,-0.90899658203125,1.565460205078125
1761841491733640700,6.553640625,-0.115875244140625,-0.7730255126953125,1.2815399169921875
1761841491743710500,6.56371044921875,-0.0816192626953125,-0.7064056396484375,0.975250244140625
1761841491753779700,6.57377978515625,-0.049346923828125,-0.64398193359375,0.6478424072265625
1761841491763849500,6.583849365234375,-0.0564727783203125,-0.6173095703125,0.3082275390625
1761841491773918700,6.593918701171875,-0.1038055419921875,-0.60272216796875,-0.0629119873046875
1761841491783988500,6.603988525390625,-0.1771392822265625,-0.486297607421875,-0.4708099365234375
1761841491794058500,6.61405859375,-0.1912384033203125,-0.3207244873046875,-0.90167236328125
1761841491804127500,6.62412744140625,-0.11175537109375,-0.12060546875,-1.3520965576171875
1761841491814197500,6.634197509765625,0.0670928955078125,0.0211639404296875,-1.777008056640625
1761841491824266800,6.644266845703125,0.3574981689453125,-0.0258636474609375,-2.11767578125
1761841491834336500,6.65433642578125,0.5531158447265625,-0.1182098388671875,-2.2943878173828125
1761841491844406500,6.664406494140625,0.64007568359375,-0.163482666015625,-2.3247528076171875
1761841491854475500,6.6744755859375,0.653839111328125,-0.241943359375,-2.2220916748046875
1761841491864545500,6.684545654296875,0.55780029296875,-0.3032684326171875,-1.9828643798828125
1761841491874614500,6.694614501953125,0.4485321044921875,-0.3214111328125,-1.7047576904296875
1761841491884684500,6.7046845703125,0.336517333984375,-0.3685760498046875,-1.3719635009765625
1761841491894754600,6.714754638671875,0.2365875244140625,-0.4477081298828125,-1.0372772216796875
1761841491904823600,6.724823486328125,0.141815185546875,-0.4890594482421875,-0.725616455078125
1761841491914893600,6.7348935546875,0.058502197265625,-0.4889068603515625,-0.438812255859375
1761841491924962600,6.744962646484375,-0.0289306640625,-0.47210693359375,-0.1668701171875
1761841491935032600,6.755032470703125,-0.147186279296875,-0.4937591552734375,0.14990234375
1761841491945102300,6.765102294921875,-0.1856536865234375,-0.563720703125,0.5205230712890625
1761841491955171600,6.775171630859375,-0.240631103515625,-0.61865234375,0.8907928466796875
1761841491965241600,6.78524169921875,-0.292633056640625,-0.678741455078125,1.227508544921875
1761841491975310600,6.795310546875,-0.2656707763671875,-0.7573089599609375,1.562103271484375
1761841491985380600,6.805380615234375,-0.266357421875,-0.8807830810546875,1.7708282470703125
1761841491995449600,6.81544970703125,-0.2157135009765625,-1.01458740234375,1.8160552978515625
1761841492005519600,6.82551953125,-0.1815032958984375,-1.0705413818359375,1.745208740234375
1761841492015589400,6.83558935546875,-0.183441162109375,-0.9947967529296875,1.5424346923828125
1761841492025658600,6.84565869140625,-0.1863861083984375,-0.857025146484375,1.26824951171875
1761841492035728400,6.855728271484375,-0.142608642578125,-0.770355224609375,0.9740447998046875
1761841492045797600,6.865797607421875,-0.1009674072265625,-0.7006988525390625,0.6534576416015625
1761841492055867600,6.87586767578125,-0.0966949462890625,-0.6467742919921875,0.2916259765625
1761841492065937400,6.8859375,-0.1277923583984375,-0.6397552490234375,-0.0828094482421875
1761841492076006700,6.896006591796875,-0.1336517333984375,-0.6692962646484375,-0.4605865478515625
1761841492086076400,6.906076416015625,-0.0714569091796875,-0.6057891845703125,-0.8523101806640625
1761841492096145700,6.916145751953125,-0.0201416015625,-0.471038818359375,-1.269256591796875
1761841492106215400,6.92621533203125,0.0406036376953125,-0.349273681640625,-1.671966552734375
1761841492116285400,6.936285400390625,0.1795806884765625,-0.3209075927734375,-1.9827117919921875
1761841492126354400,6.9463544921875,0.3263397216796875,-0.3933868408203125,-2.149017333984375
1761841492136424400,6.956424560546875,0.3706512451171875,-0.45465087890625,-2.143310546875
1761841492146493700,6.96649365234375,0.3431243896484375,-0.4888763427734375,-1.9784088134765625
1761841492156563500,6.9765634765625,0.28179931640625,-0.5129547119140625,-1.7281951904296875
1761841492166632700,6.9866328125,0.19140625,-0.5485687255859375,-1.436553955078125
1761841492176702500,6.996702392578125,0.105682373046875,-0.602020263671875,-1.1121368408203125
1761841492186772500,7.0067724609375,0.01806640625,-0.6623077392578125,-0.786529541015625
1761841492196841500,7.016841552734375,-0.0821380615234375,-0.7224884033203125,-0.4630584716796875
1761841492206911500,7.026911376953125,-0.17059326171875,-0.7584686279296875,-0.136810302734375
1761841492216980500,7.03698046875,-0.271453857421875,-0.7848663330078125,0.2108612060546875
1761841492227050500,7.047050537109375,-0.3540802001953125,-0.8302001953125,0.574249267578125
1761841492237119700,7.05711962890625,-0.384521484375,-0.8191375732421875,0.874603271484375
1761841492247189500,7.067189453125,-0.43408203125,-0.822509765625,1.13616943359375
1761841492257259500,7.077259521484375,-0.43408203125,-0.9182586669921875,1.404876708984375
1761841492267328500,7.08732861328125,-0.3995819091796875,-0.99017333984375,1.6199493408203125
1761841492277398500,7.0973984375,-0.351531982421875,-1.031280517578125,1.71722412109375
1761841492287467500,7.107467529296875,-0.250885009765625,-0.9953460693359375,1.69525146484375
1761841492297537500,7.11753759765625,-0.199676513671875,-0.903839111328125,1.556732177734375
1761841492307607600,7.127607666015625,-0.178558349609375,-0.8534088134765625,1.328643798828125
1761841492317676500,7.137676513671875,-0.1663360595703125,-0.7913970947265625,1.0434417724609375
1761841492327746600,7.14774658203125,-0.11822509765625,-0.7086639404296875,0.7256317138671875
1761841492337815600,7.157815673828125,-0.0703582763671875,-0.6178436279296875,0.382415771484375
1761841492347885600,7.167885498046875,-0.0750274658203125,-0.4907073974609375,-0.003204345703125
1761841492357955300,7.177955322265625,-0.028717041015625,-0.3242340087890625,-0.444244384765625
1761841492368024600,7.188024658203125,0.0652923583984375,-0.1577911376953125,-0.913726806640625
1761841492378094600,7.198094482421875,0.183441162109375,0.0201416015625,-1.39971923828125
1761841492388163600,7.20816357421875,0.399688720703125,0.2080078125,-1.8644866943359375
1761841492398233600,7.218233642578125,0.681396484375,0.2117462158203125,-2.2428131103515625
1761841492408303600,7.2283037109375,0.77081298828125,0.128204345703125,-2.430755615234375
1761841492418372600,7.23837255859375,0.93695068359375,0.0053558349609375,-2.4029388427734375
1761841492428442400,7.2484423828125,0.83807373046875,-0.1090545654296875,-2.2354736328125
1761841492438511600,7.25851171875,0.8516387939453125,-0.2534942626953125,-1.9630279541015625
1761841492448581400,7.268581298828125,0.6906585693359375,-0.3221282958984375,-1.590545654296875
1761841492458650600,7.278650634765625,0.580535888671875,-0.3230743408203125,-1.2196044921875
1761841492468720600,7.288720703125,0.426605224609375,-0.40679931640625,-0.81768798828125
1761841492478790400,7.298790283203125,0.306640625,-0.5006256103515625,-0.43389892578125
1761841492488859600,7.308859619140625,0.1501922607421875,-0.5122222900390625,-0.0750732421875
1761841492498929400,7.318929443359375,-0.0207366943359375,-0.4869384765625,0.2542877197265625
1761841492508998700,7.32899853515625,-0.2451019287109375,-0.524932861328125,0.6085357666015625
1761841492519068400,7.339068359375,-0.3917083740234375,-0.711822509765625,1.0121002197265625
1761841492529138700,7.349138671875,-0.4567718505859375,-0.8884429931640625,1.4032745361328125
1761841492539207400,7.35920751953125,-0.5663909912109375,-0.9539947509765625,1.71868896484375
1761841492549277400,7.36927734375,-0.606597900390625,-0.9913330078125,1.9258575439453125
1761841492559346700,7.3793466796875,-0.5984039306640625,-0.96978759765625,2.0030059814453125
1761841492569416400,7.38941650390625,-0.561004638671875,-0.9139862060546875,1.9241485595703125
1761841492579485200,7.399485107421875,-0.41802978515625,-0.9189300537109375,1.6758575439453125
1761841492589555000,7.409554931640625,-0.337188720703125,-0.844818115234375,1.369140625
1761841492599625200,7.419625244140625,-0.2673187255859375,-0.7401275634765625,1.0205535888671875
1761841492609694000,7.42969384765625,-0.2173004150390625,-0.6419677734375,0.6476593017578125
1761841492619764000,7.439763916015625,-0.1557159423828125,-0.55548095703125,0.2577362060546875
1761841492629833000,7.4498330078125,-0.114593505859375,-0.4789276123046875,-0.138519287109375
1761841492639903000,7.459903076171875,-0.0731201171875,-0.33782958984375,-0.5733795166015625
1761841492649973200,7.46997314453125,0.0611114501953125,-0.1348724365234375,-1.08380126953125
1761841492660042000,7.4800419921875,0.2303009033203125,0.075103759765625,-1.6241607666015625
1761841492670112300,7.4901123046875,0.432403564453125,0.1800994873046875,-2.0843658447265625
1761841492680181000,7.500180908203125,0.664154052734375,0.0872650146484375,-2.3368988037109375
1761841492690251000,7.5102509765625,0.8393707275390625,-0.085479736328125,-2.34051513671875
1761841492700321000,7.520321044921875,0.7857513427734375,-0.3255615234375,-2.224609375
1761841492710390000,7.53039013671875,0.5628509521484375,-0.44091796875,-2.02008056640625
1761841492720460300,7.540460205078125,0.2770843505859375,-0.43341064453125,-1.7218017578125
1761841492730529000,7.550529052734375,0.0561981201171875,-0.514923095703125,-1.341461181640625
1761841492740599000,7.56059912109375,-0.12579345703125,-0.594024658203125,-0.890289306640625
1761841492750668000,7.57066796875,-0.29974365234375,-0.6175384521484375,-0.4623260498046875
1761841492760738000,7.580738037109375,-0.52874755859375,-0.69488525390625,-0.0555419921875
1761841492770808000,7.59080810546875,-0.6917572021484375,-0.8877716064453125,0.38067626953125
1761841492780877000,7.600876953125,-0.6958465576171875,-1.08587646484375,0.84051513671875
1761841492790947000,7.610947021484375,-0.6573486328125,-1.074798583984375,1.221771240234375
1761841492801016000,7.62101611328125,-0.6048431396484375,-0.9446868896484375,1.412872314453125
1761841492811086000,7.631086181640625,-0.643157958984375,-0.83734130859375,1.472015380859375
1761841492821155000,7.641155029296875,-0.469512939453125,-0.94866943359375,1.354248046875
1761841492831225000,7.65122509765625,-0.421875,-0.95355224609375,1.167510986328125
1761841492841295000,7.661295166015625,-0.4048614501953125,-0.8881378173828125,0.93548583984375
1761841492851364000,7.671364013671875,-0.41632080078125,-0.861083984375,0.67156982421875
1761841492861433900,7.681433837890625,-0.425323486328125,-0.8866729736328125,0.3575897216796875
1761841492871503000,7.691503173828125,-0.4544219970703125,-0.96502685546875,0.024200439453125
1761841492881572900,7.70157275390625,-0.5008544921875,-1.0052490234375,-0.305816650390625
1761841492891643100,7.71164306640625,-0.4990692138671875,-0.946685791015625,-0.612701416015625
1761841492901712100,7.721712158203125,-0.4678955078125,-0.8685760498046875,-0.8747711181640625
1761841492911782100,7.7317822265625,-0.40673828125,-0.796966552734375,-1.0849456787109375
1761841492921851100,7.74185107421875,-0.37005615234375,-0.7178192138671875,-1.2505950927734375
1761841492931921000,7.7519208984375,-0.3404541015625,-0.6790313720703125,-1.3873443603515625
1761841492941990100,7.761990234375,-0.309295654296875,-0.636993408203125,-1.4805450439453125
1761841492952060000,7.772059814453125,-0.230499267578125,-0.5330810546875,-1.49786376953125
1761841492962130200,7.782130126953125,-0.1416473388671875,-0.4339599609375,-1.464263916015625
1761841492972199000,7.792198974609375,-0.0097198486328125,-0.422393798828125,-1.4007568359375
1761841492982269000,7.80226904296875,0.0943145751953125,-0.42816162109375,-1.2796173095703125
1761841492992338200,7.812338134765625,0.14923095703125,-0.4113006591796875,-1.054962158203125
1761841493002408000,7.822407958984375,0.185577392578125,-0.421875,-0.7370452880859375
1761841493012478200,7.832478271484375,0.17657470703125,-0.4511260986328125,-0.37066650390625
1761841493022547000,7.842546875,0.1343841552734375,-0.5145263671875,0.022979736328125
1761841493032617200,7.8526171875,-0.0242462158203125,-0.64129638671875,0.5147247314453125
1761841493042686000,7.86268603515625,-0.2735595703125,-0.802154541015625,1.0932769775390625
1761841493052756000,7.872755859375,-0.4208831787109375,-1.0475921630859375,1.617828369140625
1761841493062825000,7.882824951171875,-0.4922637939453125,-1.453948974609375,2.0678558349609375
1761841493072895000,7.89289501953125,-0.5843048095703125,-1.4596405029296875,2.34234619140625
1761841493082965200,7.90296533203125,-0.6323394775390625,-1.2764739990234375,2.3029937744140625
1761841493093034000,7.913033935546875,-0.5102996826171875,-1.1016082763671875,1.954010009765625
1761841493103104000,7.92310400390625,-0.409912109375,-0.9033355712890625,1.5096282958984375
1761841493113173000,7.933173095703125,-0.2802276611328125,-0.509979248046875,0.9657135009765625
1761841493123243000,7.943242919921875,-0.0680084228515625,-0.154022216796875,0.365386962890625
1761841493133312000,7.95331201171875,0.169219970703125,0.07818603515625,-0.273529052734375
1761841493143382000,7.963382080078125,0.428070068359375,0.1974945068359375,-0.91845703125
1761841493153452000,7.9734521484375,0.6715240478515625,0.03741455078125,-1.462127685546875
1761841493163521000,7.98352099609375,0.728912353515625,-0.2718658447265625,-1.753662109375
1761841493173591000,7.993591064453125,0.7254638671875,-0.4652252197265625,-1.755401611328125
1761841493183660000,8.003659912109375,0.408294677734375,-0.51153564453125,-1.4522552490234375
1761841493193730000,8.01372998046875,0.0927276611328125,-0.5036163330078125,-1.02740478515625
1761841493203797000,8.023796875,-0.2121734619140625,-0.5755767822265625,-0.5302734375
1761841493213867000,8.033866943359374,-0.4459686279296875,-0.70574951171875,-0.0540771484375
1761841493223937000,8.04393701171875,-0.625640869140625,-0.8261566162109375,0.3705902099609375
1761841493234006300,8.05400634765625,-0.7057952880859375,-0.9017333984375,0.7221527099609375
1761841493244076000,8.064075927734375,-0.7356719970703125,-0.9699554443359375,0.966552734375
1761841493254145000,8.07414501953125,-0.69146728515625,-1.1195068359375,1.050994873046875
1761841493264215000,8.084215087890625,-0.6180877685546875,-1.1714324951171875,0.9459075927734375
1761841493274285000,8.09428515625,-0.5658416748046875,-1.058502197265625,0.714202880859375
1761841493284354000,8.10435400390625,-0.49432373046875,-0.9432830810546875,0.4561767578125
1761841493294424000,8.114424072265624,-0.40509033203125,-0.8550262451171875,0.222564697265625
1761841493304493000,8.1244931640625,-0.3124237060546875,-0.7969512939453125,0.0356903076171875
1761841493314563000,8.13456298828125,-0.320220947265625,-0.7671661376953125,-0.067718505859375
1761841493324632000,8.144632080078125,-0.382293701171875,-0.7746429443359375,-0.1395263671875
1761841493334702000,8.1547021484375,-0.428131103515625,-0.77099609375,-0.189727783203125
1761841493344772000,8.164772216796875,-0.3928985595703125,-0.822540283203125,-0.221466064453125
1761841493354841000,8.174841064453124,-0.546966552734375,-0.790313720703125,-0.2055816650390625
1761841493364911000,8.1849111328125,-0.610687255859375,-0.7462005615234375,-0.1871490478515625
1761841493374980000,8.19497998046875,-0.6844940185546875,-0.749969482421875,-0.1193695068359375
1761841493385050000,8.205050048828125,-0.76678466796875,-0.7385406494140625,-0.0249481201171875
1761841493395118800,8.215118896484375,-0.7996063232421875,-0.7097625732421875,0.0662689208984375
1761841493405189000,8.225189208984375,-0.7916412353515625,-0.6747894287109375,0.1462554931640625
1761841493415259100,8.235259033203125,-0.7706146240234375,-0.640960693359375,0.2286834716796875
1761841493425328000,8.245328125,-0.736358642578125,-0.6177825927734375,0.3191375732421875
1761841493435398100,8.255398193359374,-0.644287109375,-0.6291656494140625,0.366119384765625
1761841493445467000,8.265466796875,-0.5496826171875,-0.6126861572265625,0.3938140869140625
1761841493455537200,8.275537109375,-0.6272735595703125,-0.617431640625,0.388946533203125
1761841493465606000,8.28560595703125,-0.6584930419921875,-0.59490966796875,0.360595703125
1761841493475676200,8.29567626953125,-0.9210357666015625,-0.6419677734375,0.214569091796875
1761841493485746200,8.30574609375,-0.971435546875,-0.6531219482421875,0.129302978515625
1761841493495815000,8.31581494140625,-1.015472412109375,-0.7378387451171875,0.134185791015625
1761841493505885200,8.32588525390625,-1.0491943359375,-0.774444580078125,0.15625
1761841493515954000,8.335953857421876,-1.0809173583984375,-0.753692626953125,0.2044830322265625
1761841493526024200,8.346024169921876,-1.0247039794921875,-0.7039031982421875,0.3033599853515625
1761841493536093000,8.356093017578125,-0.9191131591796875,-0.6510467529296875,0.3900909423828125
1761841493546163200,8.3661630859375,-0.977264404296875,-0.5811920166015625,0.3736572265625
1761841493556233200,8.376233154296875,-0.86431884765625,-0.5689239501953125,0.384368896484375
1761841493566302000,8.386302001953124,-0.8816070556640625,-0.5436859130859375,0.2891082763671875
1761841493576372200,8.396372314453124,-0.9390411376953125,-0.5254974365234375,0.2149505615234375
1761841493586445300,8.4064453125,-0.903289794921875,-0.522186279296875,0.1778411865234375
1761841493596515300,8.416515380859375,-0.8777923583984375,-0.515655517578125,0.1565093994140625
1761841493606585300,8.42658544921875,-0.867828369140625,-0.4863433837890625,0.1515045166015625
1761841493616654300,8.436654296875,-0.8587799072265625,-0.4430999755859375,0.1571502685546875
1761841493626724400,8.446724365234376,-0.8742828369140625,-0.400604248046875,0.170745849609375
1761841493636793300,8.45679345703125,-0.9191131591796875,-0.363006591796875,0.1869354248046875
1761841493646863000,8.466863037109375,-0.9788665771484375,-0.3269195556640625,0.194061279296875
1761841493656932400,8.476932373046875,-1.0298309326171875,-0.3060455322265625,0.1934967041015625
1761841493667002000,8.487002197265625,-1.0385894775390625,-0.3002777099609375,0.1929931640625
1761841493677072400,8.497072265625,-1.0094451904296875,-0.296875,0.1901702880859375
1761841493687141400,8.507141357421874,-0.9873046875,-0.286407470703125,0.1848907470703125
1761841493697211400,8.51721142578125,-0.9957275390625,-0.27691650390625,0.1882781982421875
1761841493707280400,8.5272802734375,-1.013519287109375,-0.274688720703125,0.1974334716796875
1761841493717350100,8.53735009765625,-1.04351806640625,-0.2793426513671875,0.2060699462890625
1761841493727419400,8.54741943359375,-1.0624847412109375,-0.2823028564453125,0.197357177734375
1761841493737489200,8.5574892578125,-1.0411529541015625,-0.2870941162109375,0.178924560546875
1761841493747558400,8.567558349609374,-1.0140380859375,-0.2876129150390625,0.158203125
1761841493757628200,8.577628173828124,-0.98681640625,-0.288787841796875,0.133026123046875
1761841493767698200,8.5876982421875,-0.9780426025390625,-0.2779541015625,0.1201629638671875
1761841493777767400,8.597767333984375,-0.9960784912109375,-0.2656097412109375,0.117462158203125
1761841493787837200,8.607837158203125,-0.9903411865234375,-0.2608642578125,0.106903076171875
1761841493797906400,8.617906494140625,-0.9871673583984375,-0.2761383056640625,0.08599853515625
1761841493807976200,8.62797607421875,-0.9639129638671875,-0.2917327880859375,0.0645904541015625
1761841493818045400,8.63804541015625,-0.9525299072265625,-0.3022918701171875,0.0489959716796875
1761841493828115200,8.648115234375,-0.951812744140625,-0.3114013671875,0.040679931640625
1761841493838185200,8.658185302734376,-0.937164306640625,-0.322052001953125,0.0399322509765625
1761841493848255500,8.66825537109375,-0.9183502197265625,-0.3294219970703125,0.043243408203125
1761841493858324200,8.67832421875,-0.9215087890625,-0.3473663330078125,0.044281005859375
1761841493868394500,8.68839453125,-0.9230194091796875,-0.3672027587890625,0.0421295166015625
1761841493878464300,8.69846435546875,-0.9139862060546875,-0.3768463134765625,0.0372467041015625
1761841493888533200,8.708533203125,-0.9014892578125,-0.37847900390625,0.0367279052734375
1761841493898603300,8.718603271484374,-0.8899383544921875,-0.3812713623046875,0.04193115234375
1761841493908672300,8.72867236328125,-0.8749237060546875,-0.3910064697265625,0.0307464599609375
1761841493918742500,8.738742431640626,-0.855438232421875,-0.39410400390625,0.0216217041015625
1761841493928812300,8.748812255859375,-0.85333251953125,-0.3981170654296875,0.023651123046875
1761841493938881300,8.75888134765625,-0.867889404296875,-0.40887451171875,0.032806396484375
1761841493948951300,8.768951416015625,-0.875885009765625,-0.4194183349609375,0.036651611328125
1761841493959020300,8.779020263671875,-0.8657379150390625,-0.4219970703125,0.030975341796875
1761841493969090300,8.78909033203125,-0.8569793701171875,-0.4244232177734375,0.021636962890625
1761841493979159300,8.7991591796875,-0.8607635498046875,-0.425537109375,0.017852783203125
1761841493989229300,8.809229248046876,-0.8666839599609375,-0.4205169677734375,0.0233306884765625
1761841493999299300,8.81929931640625,-0.8717803955078125,-0.421630859375,0.0277557373046875
1761841494009368300,8.829368408203125,-0.8750762939453125,-0.4237518310546875,0.0318450927734375
1761841494019438300,8.839438232421875,-0.8788299560546875,-0.427215576171875,0.0323486328125
1761841494029507300,8.84950732421875,-0.881683349609375,-0.434234619140625,0.0316314697265625
1761841494039577300,8.859577392578124,-0.8824920654296875,-0.4390716552734375,0.0313262939453125
1761841494049646300,8.869646240234376,-0.8748779296875,-0.439239501953125,0.0286712646484375
1761841494059716400,8.87971630859375,-0.8694915771484375,-0.4375152587890625,0.0251312255859375
1761841494069785300,8.889785400390625,-0.869903564453125,-0.4311065673828125,0.028778076171875
1761841494079855000,8.899855224609375,-0.874603271484375,-0.4264984130859375,0.031158447265625
1761841494089925400,8.90992529296875,-0.88385009765625,-0.42340087890625,0.0350494384765625
1761841494099994400,8.919994384765625,-0.8970794677734375,-0.4226837158203125,0.040863037109375
1761841494110064400,8.930064453125,-0.907012939453125,-0.425018310546875,0.0433502197265625
1761841494120133400,8.94013330078125,-0.90850830078125,-0.4313507080078125,0.0463714599609375
1761841494130203100,8.950203125,-0.9080810546875,-0.436309814453125,0.0494384765625
1761841494140272400,8.9602724609375,-0.90618896484375,-0.4421539306640625,0.0505218505859375
1761841494150342100,8.970342041015625,-0.9010009765625,-0.44354248046875,0.05218505859375
1761841494160412400,8.980412353515625,-0.8988800048828125,-0.4386444091796875,0.050689697265625
1761841494170481200,8.990481201171875,-0.906280517578125,-0.4273834228515625,0.0473785400390625
1761841494180551200,9.00055126953125,-0.906219482421875,-0.420257568359375,0.05010986328125
1761841494190620400,9.010620361328124,-0.900421142578125,-0.4262237548828125,0.0509185791015625
1761841494200690200,9.020690185546876,-0.9095001220703125,-0.4304046630859375,0.0549774169921875
1761841494210759400,9.030759521484375,-0.90655517578125,-0.43084716796875,0.0537261962890625
1761841494220829200,9.0408291015625,-0.9030609130859375,-0.4321136474609375,0.0459442138671875
1761841494230899500,9.0508994140625,-0.90509033203125,-0.4289398193359375,0.040283203125
1761841494240968200,9.06096826171875,-0.9065704345703125,-0.4261322021484375,0.038848876953125
1761841494251038200,9.0710380859375,-0.9078826904296875,-0.4254302978515625,0.03961181640625
1761841494261107200,9.081107177734374,-0.90618896484375,-0.4266204833984375,0.0392608642578125
1761841494271177200,9.09117724609375,-0.905059814453125,-0.4287109375,0.03985595703125
1761841494281246500,9.10124658203125,-0.9072723388671875,-0.4282684326171875,0.041168212890625
1761841494291316200,9.111316162109375,-0.912322998046875,-0.4252471923828125,0.0396881103515625
1761841494301386200,9.12138623046875,-0.920074462890625,-0.413543701171875,0.0389862060546875
1761841494311455200,9.131455322265625,-0.9064483642578125,-0.415252685546875,0.03704833984375
1761841494321525200,9.141525146484375,-0.9013519287109375,-0.423187255859375,0.03814697265625
1761841494331594200,9.15159423828125,-0.9001007080078125,-0.4288787841796875,0.0416259765625
1761841494341664300,9.161664306640626,-0.8950653076171875,-0.4367218017578125,0.044708251953125
1761841494351733200,9.171733154296875,-0.892181396484375,-0.44610595703125,0.045318603515625
1761841494361803300,9.18180322265625,-0.89056396484375,-0.4474334716796875,0.0463409423828125
1761841494371872500,9.19187255859375,-0.883209228515625,-0.4449615478515625,0.040985107421875
1761841494381942300,9.2019423828125,-0.88262939453125,-0.439300537109375,0.040740966796875
1761841494392012300,9.21201220703125,-0.89093017578125,-0.43548583984375,0.04339599609375
1761841494402081300,9.222081298828124,-0.8949432373046875,-0.43536376953125,0.04345703125
1761841494412151300,9.2321513671875,-0.89349365234375,-0.4355621337890625,0.0454864501953125
1761841494422220300,9.24222021484375,-0.8939361572265625,-0.4361724853515625,0.048370361328125
1761841494432290300,9.252290283203125,-0.893310546875,-0.437530517578125,0.049896240234375
1761841494442359300,9.262359375,-0.895721435546875,-0.4417572021484375,0.0505218505859375
1761841494452429300,9.27242919921875,-0.896209716796875,-0.4448699951171875,0.0547637939453125
1761841494462499300,9.282499267578125,-0.8962554931640625,-0.4478302001953125,0.0557861328125
1761841494472568300,9.292568359375,-0.8955535888671875,-0.4456787109375,0.0540924072265625
1761841494482638300,9.302638427734376,-0.8927154541015625,-0.4395294189453125,0.04949951171875
1761841494492707300,9.312707275390625,-0.8931121826171875,-0.4372711181640625,0.045623779296875
1761841494502777300,9.32277734375,-0.894378662109375,-0.4385223388671875,0.0431365966796875
1761841494512846300,9.332846435546875,-0.8887481689453125,-0.441558837890625,0.043243408203125
1761841494522916400,9.342916259765625,-0.88470458984375,-0.4447021484375,0.046173095703125
1761841494532985000,9.352985107421874,-0.8902130126953125,-0.444183349609375,0.049560546875
1761841494543055400,9.363055419921874,-0.892669677734375,-0.441070556640625,0.053497314453125
1761841494553125400,9.37312548828125,-0.8892669677734375,-0.4470977783203125,0.0535736083984375
1761841494563194400,9.3831943359375,-0.892333984375,-0.4440765380859375,0.053314208984375
1761841494573264400,9.393264404296875,-0.8930816650390625,-0.4411468505859375,0.0508880615234375
1761841494583329000,9.4033291015625,-0.89190673828125,-0.436767578125,0.048828125
1761841494593399000,9.41339892578125,-0.897796630859375,-0.4356689453125,0.048797607421875
1761841494603468000,9.423468017578125,-0.9025726318359375,-0.4391937255859375,0.0516815185546875
1761841494613538000,9.4335380859375,-0.9047088623046875,-0.4477996826171875,0.050262451171875
1761841494623607800,9.44360791015625,-0.8947906494140625,-0.4509735107421875,0.0469207763671875
1761841494633677000,9.453677001953125,-0.89312744140625,-0.4474639892578125,0.0490570068359375
1761841494643747000,9.4637470703125,-0.8992767333984375,-0.44073486328125,0.0514678955078125
1761841494653816000,9.473816162109374,-0.886260986328125,-0.4352264404296875,0.05426025390625
1761841494663886000,9.483885986328126,-0.8968658447265625,-0.4387054443359375,0.0660552978515625
1761841494673955000,9.493955078125,-0.9113311767578125,-0.4491729736328125,0.06640625
1761841494684025000,9.504025146484375,-0.9011993408203125,-0.4568939208984375,0.06011962890625
1761841494694093800,9.51409375,-0.8877716064453125,-0.4564208984375,0.0572509765625
1761841494704164000,9.5241640625,-0.8829193115234375,-0.4534454345703125,0.0555419921875
1761841494714233900,9.53423388671875,-0.8802642822265625,-0.4475555419921875,0.05615234375
1761841494724303000,9.54430322265625,-0.8799285888671875,-0.44647216796875,0.0562591552734375
1761841494734373000,9.554373046875,-0.878387451171875,-0.4485321044921875,0.0575714111328125
