time,seconds_elapsed,z,y,x
1761841485247558000,0.067557861328125,0.3195757269859314,1.4409427642822266,0.7122939825057983
1761841485257627100,0.077627197265625,0.3367163836956024,1.445494532585144,0.6436667442321777
1761841485267697000,0.08769677734375,0.32203465700149536,1.5686025619506836,0.5679059028625488
1761841485277767000,0.097766845703125,0.28976935148239136,1.6800142526626587,0.5212955474853516
1761841485287836000,0.1078359375,0.2860102951526642,1.8271292448043823,0.4505223035812378
1761841485297906000,0.117906005859375,0.33906546235084534,1.9130462408065796,0.4586704671382904
1761841485307976000,0.127975830078125,0.39558520913124084,1.9121150970458984,0.5014501214027405
1761841485318045000,0.138044921875,0.4324064552783966,1.8570691347122192,0.5921274423599243
1761841485328115000,0.148114990234375,0.4813969135284424,1.7551922798156738,0.6776857376098633
1761841485338184000,0.158183837890625,0.5011706352233887,1.7295507192611694,0.7650577425956726
1761841485348254000,0.16825390625,0.6044666767120361,1.6221381425857544,0.8118942379951477
1761841485358324000,0.178323974609375,0.7634209394454956,1.4182806015014648,0.7992569804191589
1761841485368393000,0.18839306640625,0.8960573077201843,1.222068428993225,0.7746986150741577
1761841485378463000,0.198462890625,0.9583081603050232,1.0939286947250366,0.7383814454078674
1761841485388532000,0.208531982421875,0.9763449430465698,1.030002474784851,0.6876565217971802
1761841485398602000,0.21860205078125,0.9662190675735474,0.9980244636535645,0.6221426725387573
1761841485408671700,0.228671630859375,0.9351415634155273,1.026463270187378,0.573080837726593
1761841485418741000,0.238740966796875,0.9318774342536926,1.0456987619400024,0.5078045725822449
1761841485428810800,0.248810791015625,0.9650503396987915,0.9969192743301392,0.4104652404785156
1761841485438881000,0.258881103515625,0.9856843948364258,1.0105351209640503,0.3580583930015564
1761841485448950000,0.268949951171875,1.0259029865264893,0.9421747326850891,0.3210875988006592
1761841485459019800,0.279019775390625,1.1040786504745483,0.781542956829071,0.28040266036987305
1761841485469089000,0.289089111328125,1.1578646898269653,0.6200169324874878,0.3051396906375885
1761841485479158800,0.29915869140625,1.1535694599151611,0.4596652686595917,0.565549910068512
1761841485489229000,0.30922900390625,1.2531192302703857,-0.4269423484802246,0.9409072995185852
1761841485499297800,0.3192978515625,1.2634989023208618,-0.9362248182296753,1.0696487426757812
1761841485509368000,0.3293681640625,1.1729497909545898,-1.0778828859329224,1.0192780494689941
1761841485519438000,0.33943798828125,1.2337381839752197,-1.0625649690628052,0.876467227935791
1761841485529506800,0.3495068359375,1.4190534353256226,-1.2240190505981445,0.8467590808868408
1761841485539577000,0.3595771484375,1.6803489923477173,-1.357054591178894,1.000948429107666
1761841485549645800,0.369645751953125,1.9885843992233276,-1.5781300067901611,1.1123300790786743
1761841485559716000,0.379716064453125,2.3779540061950684,-1.7783782482147217,1.123010516166687
1761841485569786600,0.38978662109375,2.7694735527038574,-2.050283908843994,1.103373408317566
1761841485579855400,0.39985546875,3.047504186630249,-2.346158981323242,1.1135095357894897
1761841485589925600,0.409925537109375,3.2827515602111816,-2.5541367530822754,1.1370972394943237
1761841485599995400,0.419995361328125,3.5379278659820557,-2.792851448059082,1.1054872274398804
1761841485610064400,0.430064453125,3.8026483058929443,-3.0449490547180176,0.9947269558906555
1761841485620134700,0.440134765625,4.042949199676514,-3.342468738555908,0.8614311814308167
1761841485630203400,0.450203369140625,4.300382614135742,-3.7529361248016357,0.7872336506843567
1761841485640273700,0.460273681640625,4.695923328399658,-4.1592607498168945,0.7961522936820984
1761841485650343400,0.470343505859375,5.045380115509033,-4.661771297454834,0.8711479902267456
1761841485660412700,0.48041259765625,5.236355781555176,-5.486422538757324,0.9968935251235962
1761841485670482400,0.490482421875,5.331120491027832,-6.119534969329834,1.3705283403396606
1761841485680551400,0.500551513671875,5.425757884979248,-6.452785491943359,1.8567044734954834
1761841485690621400,0.510621337890625,5.533687591552734,-6.4596662521362305,2.310493230819702
1761841485700691500,0.52069140625,5.413206100463867,-6.392019271850586,2.546941041946411
1761841485710760700,0.5307607421875,5.031082630157471,-6.184064865112305,2.5919740200042725
1761841485720830500,0.54083056640625,4.538525104522705,-5.727388381958008,2.5432801246643066
1761841485730900500,0.550900390625,3.7833893299102783,-5.156706809997559,2.446246385574341
1761841485740969500,0.560969482421875,2.7249131202697754,-4.613417148590088,2.2429001331329346
1761841485751039500,0.57103955078125,1.4628572463989258,-4.198773384094238,1.9951832294464111
1761841485761108500,0.5811083984375,0.13609318435192108,-3.79823637008667,1.6670293807983398
1761841485771178500,0.591178466796875,-0.9334341287612915,-3.2353456020355225,1.2455921173095703
1761841485781248500,0.60124853515625,-1.9614866971969604,-2.7912745475769043,0.742110013961792
1761841485791317500,0.6113173828125,-2.9105186462402344,-2.4864039421081543,0.2319551259279251
1761841485801387500,0.621387451171875,-3.7801082134246826,-2.230802297592163,-0.20247212052345276
1761841485811457300,0.631457275390625,-4.611228942871094,-1.9895528554916382,-0.5476609468460083
1761841485821526500,0.641526611328125,-5.439951419830322,-1.6291636228561401,-0.7752583622932434
1761841485831596300,0.65159619140625,-6.298731803894043,-1.103392243385315,-0.8687041997909546
1761841485841665500,0.66166552734375,-7.17046594619751,-0.5592172741889954,-0.9574337601661682
1761841485851735600,0.671735595703125,-8.020124435424805,0.08231183141469955,-1.1026066541671753
1761841485861805300,0.681805419921875,-8.916895866394043,0.6628962159156799,-1.2912895679473877
1761841485871874600,0.69187451171875,-9.857540130615234,1.3444417715072632,-1.4632935523986816
1761841485881944300,0.7019443359375,-10.835533142089844,2.3493497371673584,-1.5381721258163452
1761841485892014600,0.7120146484375,-11.865854263305664,3.5787081718444824,-1.4091962575912476
1761841485902083300,0.722083251953125,-12.861294746398926,4.881721019744873,-1.0397166013717651
1761841485912153600,0.732153564453125,-13.701102256774902,6.090867042541504,-0.5411989092826843
1761841485922222300,0.742222412109375,-14.263869285583496,6.976102828979492,-0.04231191799044609
1761841485932292400,0.752292236328125,-14.35893440246582,7.355774402618408,0.2665010392665863
1761841485942362600,0.762362548828125,-13.655637741088867,7.202762603759766,0.30504727363586426
1761841485952431400,0.772431396484375,-11.924817085266113,6.663163661956787,0.03652368113398552
1761841485962501600,0.782501708984375,-9.08176326751709,5.702746391296387,-0.46751871705055237
1761841485972570400,0.7925703125,-5.390416622161865,4.221407890319824,-1.1109153032302856
1761841485982640400,0.802640380859375,-1.3536555767059326,2.1306352615356445,-1.8790885210037231
1761841485992710700,0.812710693359375,2.6720972061157227,-0.08845266699790955,-2.7813241481781006
1761841486002779400,0.822779296875,6.269708633422852,-1.9451569318771362,-3.5868139266967773
1761841486012849700,0.832849609375,9.247889518737793,-3.3079516887664795,-4.083679676055908
1761841486022919400,0.84291943359375,11.625516891479492,-4.287139892578125,-4.160170078277588
1761841486032988700,0.85298876953125,13.467300415039062,-4.84685754776001,-3.8750619888305664
1761841486043058400,0.863058349609375,14.838645935058594,-5.128901958465576,-3.3589930534362793
1761841486053127400,0.87312744140625,15.887587547302246,-5.432548999786377,-2.7430431842803955
1761841486063197400,0.883197509765625,16.786718368530273,-6.15972900390625,-1.9086421728134155
1761841486073267500,0.893267333984375,17.561473846435547,-7.567472457885742,-0.604951798915863
1761841486083336700,0.903336669921875,18.157459259033203,-9.028717041015625,1.2747018337249756
1761841486093406500,0.913406494140625,18.281904220581055,-9.48882007598877,3.434414863586426
1761841486103476500,0.9234765625,17.399595260620117,-8.528533935546875,5.363533973693848
1761841486113545500,0.93354541015625,14.838562965393066,-6.322202682495117,6.788420677185059
1761841486123615500,0.943615478515625,11.27281665802002,-3.6306228637695312,7.301741123199463
1761841486133684500,0.9536845703125,7.017808437347412,-2.481100082397461,7.133724212646484
1761841486143754500,0.96375439453125,2.177074909210205,-2.6553738117218018,5.923586368560791
1761841486153824500,0.973824462890625,-1.758133888244629,-1.3045767545700073,3.807950973510742
1761841486163893500,0.9838935546875,-4.687010765075684,-0.46490681171417236,0.9637957215309143
1761841486173963500,0.993963623046875,-6.835552215576172,-0.18550924956798553,-1.8112140893936157
1761841486184033300,1.004033203125,-8.035791397094727,-0.23725485801696777,-3.388982057571411
1761841486194102500,1.0141025390625,-8.67111587524414,-0.4223994016647339,-4.2064127922058105
1761841486204172300,1.02417236328125,-9.139008522033691,-0.43558183312416077,-4.595932483673096
1761841486214241500,1.034241455078125,-9.622565269470215,-0.26298636198043823,-4.682729721069336
1761841486224311600,1.0443115234375,-10.228615760803223,0.08290627598762512,-4.541241645812988
1761841486234381300,1.05438134765625,-11.023573875427246,0.6824291348457336,-4.143762111663818
1761841486244450600,1.064450439453125,-11.996193885803223,1.4806584119796753,-3.549125909805298
1761841486254520300,1.074520263671875,-13.067119598388672,2.3718252182006836,-2.8230531215667725
1761841486264589600,1.084589599609375,-14.04833698272705,3.360607624053955,-2.057765245437622
1761841486274659300,1.094659423828125,-14.59554672241211,4.110822677612305,-1.3581457138061523
1761841486284729600,1.1047294921875,-14.275552749633789,4.408865928649902,-0.7698283791542053
1761841486294798300,1.11479833984375,-12.67343521118164,4.219920635223389,-0.28490832448005676
1761841486304868400,1.124868408203125,-9.507752418518066,3.438495397567749,0.0262879878282547
1761841486314937600,1.1349375,-5.030603408813477,2.238614320755005,0.04347975552082062
1761841486325007400,1.14500732421875,-0.03299755975604057,0.843059778213501,-0.2920592725276947
1761841486335077600,1.15507763671875,4.629663467407227,-0.6637061834335327,-1.086260199546814
1761841486345146400,1.165146484375,8.586858749389648,-1.7867841720581055,-1.9204425811767578
1761841486355216400,1.17521630859375,11.683444023132324,-2.5495052337646484,-2.333338737487793
1761841486365286700,1.18528662109375,13.898872375488281,-2.755349636077881,-2.391165018081665
1761841486375355400,1.19535546875,15.33456039428711,-2.6255807876586914,-2.2144076824188232
1761841486385425700,1.20542578125,16.3122615814209,-2.6799187660217285,-1.9763307571411133
1761841486395494400,1.215494384765625,16.896272659301758,-3.0240116119384766,-1.4782770872116089
1761841486405564700,1.225564697265625,17.284847259521484,-3.904548168182373,-0.7029906511306763
1761841486415634400,1.235634521484375,17.28772735595703,-4.958773612976074,0.4063173830509186
1761841486425703400,1.245703369140625,16.400394439697266,-5.046840190887451,1.7074848413467407
1761841486435773400,1.2557734375,13.899310111999512,-4.183022499084473,2.8786234855651855
1761841486445843500,1.265843505859375,9.756857872009277,-2.5591604709625244,3.573655128479004
1761841486455912700,1.27591259765625,4.673555850982666,-0.46731966733932495,3.388309955596924
1761841486465982500,1.285982421875,-0.4342895746231079,1.30849289894104,2.1806931495666504
1761841486476051500,1.296051513671875,-4.6090922355651855,2.217059850692749,0.5425781607627869
1761841486486121500,1.30612158203125,-7.463305473327637,2.3455748558044434,-0.8896005153656006
1761841486496191500,1.31619140625,-9.017643928527832,2.239715099334717,-1.8771666288375854
1761841486506260500,1.326260498046875,-9.69663143157959,2.003061532974243,-2.499413013458252
1761841486516330500,1.33633056640625,-9.879748344421387,1.5277934074401855,-2.8961668014526367
1761841486526400500,1.346400390625,-9.89697551727295,1.0849692821502686,-3.1545968055725098
1761841486536469500,1.356469482421875,-10.057251930236816,0.9062299132347107,-3.268793821334839
1761841486546539500,1.36653955078125,-10.512141227722168,1.2064000368118286,-3.1267142295837402
1761841486556608500,1.3766083984375,-11.309224128723145,1.870584487915039,-2.5433061122894287
1761841486566678500,1.386678466796875,-12.332619667053223,2.8493733406066895,-1.5772992372512817
1761841486576748800,1.396748779296875,-13.350959777832031,4.013647079467773,-0.39873892068862915
1761841486586817800,1.40681787109375,-13.996766090393066,4.9932122230529785,0.7730509638786316
1761841486596887800,1.4168876953125,-13.796518325805664,5.176626205444336,1.6763744354248047
1761841486606956800,1.426956787109375,-12.282955169677734,4.324526309967041,2.196009635925293
1761841486617026800,1.43702685546875,-9.128310203552246,2.9854767322540283,2.3499252796173096
1761841486627096600,1.4470966796875,-4.5694379806518555,1.5580180883407593,2.2065582275390625
1761841486637165800,1.457165771484375,0.4389564096927643,0.31981754302978516,1.6404427289962769
1761841486647235600,1.467235595703125,4.903868198394775,-1.0050128698349,0.5259458422660828
1761841486657305600,1.4773056640625,8.49533462524414,-2.04046368598938,-0.7573321461677551
1761841486667374600,1.48737451171875,11.163904190063477,-2.8308253288269043,-1.6182689666748047
1761841486677444600,1.497444580078125,13.03090763092041,-3.2059569358825684,-2.000275135040283
1761841486687513900,1.507513916015625,14.208614349365234,-3.17832612991333,-1.9926832914352417
1761841486697583600,1.51758349609375,14.922967910766602,-3.001310348510742,-1.713447093963623
1761841486707654000,1.52765380859375,15.440629959106445,-2.93416690826416,-1.4342560768127441
1761841486717722600,1.53772265625,15.797106742858887,-3.3525707721710205,-1.0371774435043335
1761841486727792600,1.547792724609375,16.01698112487793,-4.383350372314453,-0.4714181423187256
1761841486737861600,1.557861572265625,15.726859092712402,-5.575388431549072,0.36212998628616333
1761841486747931600,1.567931640625,14.145758628845215,-5.919007301330566,1.4233983755111694
1761841486758002000,1.578001953125,10.788681983947754,-4.827841281890869,2.3584213256835938
1761841486768070700,1.588070556640625,5.942984580993652,-2.582167863845825,2.577779769897461
1761841486778140700,1.598140625,0.6800564527511597,-0.3836028277873993,1.8909754753112793
1761841486788210700,1.608210693359375,-3.9160842895507812,0.8896224498748779,0.7249362468719482
1761841486798279700,1.61827978515625,-7.167927265167236,1.3102068901062012,-0.48537376523017883
1761841486808350000,1.628349853515625,-9.170010566711426,1.3728845119476318,-1.2831170558929443
1761841486818418700,1.638418701171875,-10.230440139770508,1.3777384757995605,-1.7510818243026733
1761841486828488700,1.64848876953125,-10.728531837463379,1.3033961057662964,-1.9797343015670776
1761841486838558700,1.658558837890625,-10.940793991088867,1.2352876663208008,-1.997202754020691
1761841486848627700,1.668627685546875,-11.082362174987793,1.1876435279846191,-1.8223953247070312
1761841486858697700,1.67869775390625,-11.333540916442871,1.3903218507766724,-1.452850580215454
1761841486868766700,1.6887666015625,-11.785592079162598,1.9141809940338135,-0.9516152143478394
1761841486878836700,1.698836669921875,-12.378344535827637,2.6040987968444824,-0.35885199904441833
1761841486888906800,1.70890673828125,-12.793656349182129,3.0497262477874756,0.2502003610134125
1761841486898975500,1.7189755859375,-12.547308921813965,3.168398857116699,0.7773504853248596
1761841486909045800,1.729045654296875,-11.357490539550781,2.949563503265381,1.3150018453598022
1761841486919115800,1.73911572265625,-9.192943572998047,2.7354719638824463,1.7132072448730469
1761841486929184800,1.749184814453125,-6.295190811157227,2.442519187927246,1.9805735349655151
1761841486939254800,1.7592548828125,-3.037546396255493,1.778645634651184,2.161729574203491
1761841486949323800,1.76932373046875,0.17537187039852142,0.8818649053573608,1.9533745050430298
1761841486959393800,1.779393798828125,2.9881019592285156,0.08570945262908936,1.003402829170227
1761841486969463800,1.7894638671875,5.289985656738281,-0.7064443230628967,-0.24440455436706543
1761841486979532800,1.79953271484375,7.148327827453613,-1.2527869939804077,-1.3661456108093262
1761841486989602800,1.809602783203125,8.662283897399902,-1.537382960319519,-2.1696200370788574
1761841486999671800,1.819671875,9.915410041809082,-1.6339010000228882,-2.6165502071380615
1761841487009741800,1.829741943359375,11.020241737365723,-1.5715274810791016,-2.785334587097168
1761841487019811600,1.8398115234375,12.149145126342773,-1.7589343786239624,-2.662444591522217
1761841487029880800,1.849880859375,13.298694610595703,-2.61594557762146,-2.1992852687835693
1761841487039950800,1.859950927734375,14.337088584899902,-3.9918413162231445,-1.4207963943481445
1761841487050019800,1.870019775390625,14.906728744506836,-5.4886322021484375,-0.23054368793964386
1761841487060089900,1.88008984375,14.462181091308594,-6.319381237030029,1.259121298789978
1761841487070159600,1.89015966796875,12.35529899597168,-6.084261417388916,2.655515670776367
1761841487080228900,1.900228759765625,8.48646354675293,-4.572268962860107,3.56477689743042
1761841487090298600,1.910298583984375,3.655256986618042,-2.359320878982544,3.4682719707489014
1761841487100368600,1.92036865234375,-1.245252013206482,-0.39755070209503174,2.31546688079834
1761841487110437600,1.930437744140625,-5.4122748374938965,0.926814615726471,0.6244115829467773
1761841487120507600,1.940507568359375,-8.452652931213379,1.5337684154510498,-0.9574571251869202
1761841487130576600,1.95057666015625,-10.420429229736328,2.0351130962371826,-1.8659800291061401
1761841487140646700,1.960646728515625,-11.648795127868652,2.4875314235687256,-2.2636635303497314
1761841487150716700,1.970716552734375,-12.352947235107422,2.8076040744781494,-2.224980354309082
1761841487160785700,1.98078564453125,-12.75041389465332,2.9147658348083496,-1.8178044557571411
1761841487170855700,1.990855712890625,-13.014698028564453,3.0266780853271484,-1.2091965675354004
1761841487180924700,2.000924560546875,-13.287062644958496,3.2993478775024414,-0.5752856731414795
1761841487190994700,2.01099462890625,-13.515755653381348,3.7841427326202393,-0.047963861376047134
1761841487201064700,2.021064697265625,-13.378061294555664,4.056236743927002,0.2997666597366333
1761841487211133700,2.0311337890625,-12.341495513916016,3.7714381217956543,0.4712355136871338
1761841487221203700,2.04120361328125,-10.009520530700684,3.0121471881866455,0.5478091239929199
1761841487231272700,2.051272705078125,-6.471044540405273,1.8901745080947876,0.5073970556259155
1761841487241342700,2.0613427734375,-2.3004302978515625,0.5444179177284241,0.38656917214393616
1761841487251412700,2.071412841796875,1.8691177368164062,-0.554572343826294,0.011990483850240707
1761841487261481700,2.081481689453125,5.483729839324951,-1.4482587575912476,-0.7035079598426819
1761841487271551700,2.0915517578125,8.354349136352539,-2.143040418624878,-1.3847862482070923
1761841487281620700,2.101620849609375,10.521097183227539,-2.6315693855285645,-1.7570773363113403
1761841487291690800,2.111690673828125,12.055322647094727,-2.7337429523468018,-1.8865892887115479
1761841487301760800,2.1217607421875,13.063035011291504,-2.4718377590179443,-1.872226595878601
1761841487311829800,2.131829833984375,13.775412559509277,-2.2897448539733887,-1.7682265043258667
1761841487321899800,2.141899658203125,14.36055850982666,-2.35025691986084,-1.5839821100234985
1761841487331969800,2.1519697265625,14.850248336791992,-2.913557529449463,-1.248060941696167
1761841487342038500,2.16203857421875,15.101654052734375,-3.9609262943267822,-0.5769123435020447
1761841487352108800,2.17210888671875,14.807634353637695,-4.954203128814697,0.4610775411128998
1761841487362177500,2.182177490234375,13.252944946289062,-5.1190266609191895,1.790554404258728
1761841487372247800,2.192247802734375,9.907499313354492,-3.9478960037231445,2.9018516540527344
1761841487382317800,2.20231787109375,5.398702621459961,-1.8152945041656494,3.0967419147491455
1761841487392386600,2.212386474609375,0.5326696038246155,0.02259816974401474,2.3275034427642822
1761841487402456800,2.222456787109375,-3.7648472785949707,1.4236114025115967,0.8212707042694092
1761841487412525600,2.232525634765625,-7.01706075668335,2.1062910556793213,-0.7057617902755737
1761841487422595800,2.242595947265625,-9.085144996643066,2.396040201187134,-1.6492472887039185
1761841487432665900,2.252665771484375,-10.2486572265625,2.4805312156677246,-2.163957357406616
1761841487442734600,2.262734619140625,-10.87259578704834,2.4192965030670166,-2.3962788581848145
1761841487452804900,2.272804931640625,-11.205070495605469,2.3366479873657227,-2.380342721939087
1761841487462873600,2.28287353515625,-11.458627700805664,2.2937188148498535,-2.0921530723571777
1761841487472943900,2.29294384765625,-11.798971176147461,2.528571844100952,-1.5669310092926025
1761841487483013600,2.303013671875,-12.289925575256348,3.125309705734253,-0.8706775903701782
1761841487493083000,2.313082763671875,-12.797982215881348,3.893216133117676,-0.08957818895578384
1761841487503153000,2.32315283203125,-12.935640335083008,4.333041667938232,0.6107727289199829
1761841487513222700,2.33322265625,-12.154366493225098,4.129368782043457,1.0543694496154785
1761841487523292000,2.3432919921875,-10.069208145141602,3.242779493331909,1.2992825508117676
1761841487533361700,2.353361572265625,-6.813346862792969,1.9945118427276611,1.4552171230316162
1761841487543431000,2.363430908203125,-2.864553213119507,0.650938868522644,1.4915004968643188
1761841487553500700,2.373500732421875,1.206109642982483,-0.3369234502315521,1.225745439529419
1761841487563570700,2.38357080078125,4.668934345245361,-1.162360668182373,0.5815946459770203
1761841487573643300,2.393643310546875,7.3662309646606445,-1.5292937755584717,-0.22221539914608002
1761841487583713000,2.403713134765625,9.257832527160645,-1.6291495561599731,-0.8381960391998291
1761841487593782300,2.4137822265625,10.509003639221191,-1.5169415473937988,-1.221195101737976
1761841487603852000,2.42385205078125,11.296667098999023,-1.2562183141708374,-1.4186897277832031
1761841487613921300,2.43392138671875,11.827735900878906,-1.1067277193069458,-1.419499158859253
1761841487623991000,2.443990966796875,12.257801055908203,-1.2275687456130981,-1.2640787363052368
1761841487634061000,2.45406103515625,12.63792896270752,-1.8819704055786133,-0.8748926520347595
1761841487644130000,2.464130126953125,12.851539611816406,-2.829057216644287,-0.11290422827005386
1761841487654200000,2.474199951171875,12.574142456054688,-3.433950901031494,0.9589442014694214
1761841487664270000,2.48427001953125,11.416646003723145,-3.3784680366516113,2.0588254928588867
1761841487674339000,2.494339111328125,9.13538646697998,-2.8700942993164062,2.8933632373809814
1761841487684409000,2.5044091796875,5.925482273101807,-2.206860065460205,3.2715563774108887
1761841487694478000,2.51447802734375,2.2583205699920654,-1.3859354257583618,2.919990062713623
1761841487704548000,2.524548095703125,-1.3456381559371948,-0.5510427355766296,1.8503220081329346
1761841487714618000,2.5346181640625,-4.451248645782471,0.07168546319007874,0.43769195675849915
1761841487724687000,2.54468701171875,-6.81671667098999,0.38959285616874695,-0.7847586274147034
1761841487734757000,2.554757080078125,-8.536056518554688,0.6348645091056824,-1.4793797731399536
1761841487744826000,2.564826171875,-9.787790298461914,0.949377179145813,-1.7695122957229614
1761841487754896100,2.574896240234375,-10.717061996459961,1.2418056726455688,-1.7419044971466064
1761841487764966000,2.5849658203125,-11.43757438659668,1.4398609399795532,-1.4984897375106812
1761841487775035100,2.59503515625,-12.026481628417969,1.6628764867782593,-1.1011278629302979
1761841487785105000,2.60510498046875,-12.552765846252441,2.031806468963623,-0.5856943130493164
1761841487795174100,2.615174072265625,-12.963135719299316,2.479107141494751,-0.022703364491462708
1761841487805244200,2.625244140625,-12.944306373596191,2.744737386703491,0.45067882537841797
1761841487815314200,2.635314208984375,-11.986343383789062,2.566710948944092,0.7309057712554932
1761841487825383200,2.645383056640625,-9.64730167388916,1.7700459957122803,0.917998194694519
1761841487835453000,2.655452880859375,-6.045675277709961,0.550637423992157,1.0768322944641113
1761841487845522200,2.665522216796875,-1.8133455514907837,-0.6385132670402527,1.0968619585037231
1761841487855592000,2.675592041015625,2.3678669929504395,-1.5061609745025635,0.903159499168396
1761841487865662200,2.685662109375,5.950060844421387,-2.036456823348999,0.5370280742645264
1761841487875731000,2.69573095703125,8.724555015563965,-2.227860450744629,0.22419288754463196
1761841487885801000,2.705801025390625,10.667505264282227,-2.009486675262451,0.015614379197359085
1761841487895870200,2.7158701171875,11.868990898132324,-1.461570143699646,-0.21584992110729218
1761841487905940000,2.72593994140625,12.59011459350586,-0.7657326459884644,-0.4970166087150574
1761841487916010200,2.73601025390625,13.107320785522461,-0.1580808162689209,-0.7615382671356201
1761841487926079000,2.746078857421875,13.583572387695312,-0.02209502086043358,-0.9138359427452087
1761841487936149200,2.756149169921875,14.077527046203613,-0.4916112422943115,-0.8568722605705261
1761841487946218000,2.766218017578125,14.356656074523926,-1.5418922901153564,-0.41913914680480957
1761841487956288000,2.7762880859375,13.936613082885742,-2.5709714889526367,0.49697479605674744
1761841487966358300,2.786358154296875,12.269087791442871,-2.9180705547332764,1.6446597576141357
1761841487976427000,2.796427001953125,9.206399917602539,-2.5957677364349365,2.601651191711426
1761841487986497300,2.806497314453125,5.149334907531738,-1.7749981880187988,3.0057570934295654
1761841487996566000,2.81656591796875,0.7477920055389404,-0.501680314540863,2.5326690673828125
1761841488006636000,2.826635986328125,-3.3035714626312256,0.7032168507575989,1.3525456190109253
1761841488016706000,2.8367060546875,-6.466972827911377,1.4743653535842896,0.06065258011221886
1761841488026775000,2.846775146484375,-8.49997329711914,1.7820956707000732,-0.8850889205932617
1761841488036845300,2.85684521484375,-9.631088256835938,1.6708451509475708,-1.4706636667251587
1761841488046914000,2.8669140625,-10.179109573364258,1.3465285301208496,-1.8146018981933594
1761841488056984000,2.876984130859375,-10.459980010986328,1.0482426881790161,-1.9356480836868286
1761841488067054000,2.88705419921875,-10.707168579101562,0.9032230377197266,-1.7790625095367432
1761841488077123000,2.897123046875,-11.090590476989746,1.0170416831970215,-1.3616381883621216
1761841488087193000,2.907193115234375,-11.652023315429688,1.4546799659729004,-0.7846904397010803
1761841488097262000,2.917261962890625,-12.264206886291504,2.085603713989258,-0.18648573756217957
1761841488107332000,2.92733203125,-12.62092399597168,2.670656204223633,0.3089072108268738
1761841488117402000,2.937402099609375,-12.235928535461426,2.976670503616333,0.6606711745262146
1761841488127471000,2.94747119140625,-10.602205276489258,2.7565271854400635,0.8892771601676941
1761841488137541000,2.957541015625,-7.617897033691406,1.9619349241256714,0.9776710867881775
1761841488147610000,2.967610107421875,-3.7324087619781494,0.716091513633728,0.8289090394973755
1761841488157680000,2.97768017578125,0.46709027886390686,-0.35915058851242065,0.21080482006072998
1761841488167750100,2.987750244140625,4.2775115966796875,-1.1015936136245728,-0.6593779921531677
1761841488177819100,2.997819091796875,7.351499080657959,-1.6130989789962769,-1.4268091917037964
1761841488187889200,3.00788916015625,9.691536903381348,-1.9223872423171997,-1.8929697275161743
1761841488197958000,3.0179580078125,11.38076400756836,-1.997089147567749,-2.0260462760925293
1761841488208028200,3.028028076171875,12.538723945617676,-1.8686169385910034,-1.9333332777023315
1761841488218097200,3.03809716796875,13.355947494506836,-1.6850718259811401,-1.7335244417190552
1761841488228167200,3.048167236328125,13.961156845092773,-1.7342414855957031,-1.4705450534820557
1761841488238237200,3.0582373046875,14.418967247009277,-2.1526074409484863,-1.1419756412506104
1761841488248306000,3.068305908203125,14.554364204406738,-2.952942132949829,-0.5675991773605347
1761841488258376200,3.078376220703125,13.949427604675293,-3.800987958908081,0.29799529910087585
1761841488268445000,3.08844482421875,12.182032585144043,-3.996674060821533,1.226045846939087
1761841488278515200,3.09851513671875,9.09931755065918,-3.2923710346221924,1.9368703365325928
1761841488288585200,3.108585205078125,5.006662368774414,-1.9555350542068481,2.097346544265747
1761841488298654000,3.118654052734375,0.6684798002243042,-0.821371853351593,1.7615710496902466
1761841488308724200,3.12872412109375,-3.182772159576416,0.5041611790657043,1.148777961730957
1761841488318793000,3.13879296875,-6.401354789733887,1.379158854484558,0.08173754066228867
1761841488328863200,3.14886328125,-8.535110473632812,1.8380169868469238,-0.8405345678329468
1761841488338933000,3.15893310546875,-9.889143943786621,1.8247706890106201,-1.3968439102172852
1761841488349002200,3.169002197265625,-10.644495010375977,1.633677363395691,-1.778239130973816
1761841488359072300,3.179072265625,-11.096624374389648,1.5455821752548218,-1.9742614030838013
1761841488369141000,3.18914111328125,-11.45775032043457,1.5838690996170044,-1.9037367105484009
1761841488379211300,3.199211181640625,-11.828582763671875,1.7874630689620972,-1.5607084035873413
1761841488389281000,3.209281005859375,-12.286689758300781,2.2610604763031006,-1.0127712488174438
1761841488399350300,3.219350341796875,-12.763681411743164,2.826585292816162,-0.38364043831825256
1761841488409420000,3.229419921875,-12.912708282470703,3.2117040157318115,0.13284024596214294
1761841488419489000,3.239489013671875,-12.133460998535156,3.122788190841675,0.4751141369342804
1761841488429559000,3.24955908203125,-9.924182891845703,2.67806339263916,0.5648936033248901
1761841488439629000,3.259629150390625,-6.441176414489746,1.9229398965835571,0.4257366359233856
1761841488449698300,3.2696982421875,-2.256897449493408,0.696387767791748,0.3479379713535309
1761841488459768000,3.27976806640625,2.0452656745910645,-0.25584909319877625,-0.016758939251303673
1761841488469837300,3.28983740234375,5.748042583465576,-1.1779825687408447,-0.7207147479057312
1761841488479907000,3.299906982421875,8.644613265991211,-1.8828707933425903,-1.3802334070205688
1761841488489977000,3.30997705078125,10.75269603729248,-2.303436756134033,-1.7970521450042725
1761841488500046000,3.320046142578125,12.166555404663086,-2.392418622970581,-1.9215748310089111
1761841488510116000,3.3301162109375,13.03608226776123,-2.311936855316162,-1.846251368522644
1761841488520185000,3.34018505859375,13.5470552444458,-2.3172032833099365,-1.6783877611160278
1761841488530255000,3.350255126953125,13.821366310119629,-2.482677698135376,-1.420735478401184
1761841488540324000,3.360323974609375,13.839701652526855,-2.8962509632110596,-0.9950276613235474
1761841488550394000,3.37039404296875,13.399784088134766,-3.396308660507202,-0.32469719648361206
1761841488560464100,3.380464111328125,12.068525314331055,-3.587881565093994,0.4474771320819855
1761841488570533000,3.390533203125,9.570650100708008,-3.18851900100708,1.1488057374954224
1761841488580599300,3.400599365234375,6.097434997558594,-2.110841751098633,1.4566071033477783
1761841488590668300,3.410668212890625,2.149679183959961,-0.7448984384536743,1.1982176303863525
1761841488600738300,3.42073828125,-1.67926025390625,0.6515582799911499,0.4428879916667938
1761841488610808000,3.43080810546875,-4.871337890625,1.661051869392395,-0.48899415135383606
1761841488620877300,3.440877197265625,-7.117653846740723,2.199618339538574,-1.2125186920166016
1761841488630947000,3.450947021484375,-8.537163734436035,2.408839225769043,-1.704755187034607
1761841488641016300,3.461016357421875,-9.352583885192871,2.384937047958374,-2.0440216064453125
1761841488651086300,3.47108642578125,-9.79006290435791,2.3316569328308105,-2.239175319671631
1761841488661156000,3.481156005859375,-10.05082893371582,2.2839128971099854,-2.231701374053955
1761841488671225300,3.491225341796875,-10.29395866394043,2.3908982276916504,-2.005100965499878
1761841488681295000,3.501295166015625,-10.68021297454834,2.8240959644317627,-1.6079055070877075
1761841488691364400,3.5113642578125,-11.162825584411621,3.396868944168091,-1.0811471939086914
1761841488701434000,3.52143408203125,-11.427613258361816,3.650968074798584,-0.534924328327179
1761841488711504100,3.531504150390625,-10.97018051147461,3.2494699954986572,-0.11035141348838806
1761841488721573000,3.541572998046875,-9.37789249420166,2.4345335960388184,0.15030306577682495
1761841488731643100,3.55164306640625,-6.697791576385498,1.3699274063110352,0.47314953804016113
1761841488741712400,3.56171240234375,-3.2747886180877686,0.33272314071655273,0.9005641341209412
1761841488751782100,3.5717822265625,0.22227415442466736,-0.8390994071960449,1.488183856010437
1761841488761852200,3.58185205078125,3.5697546005249023,-1.4946186542510986,1.6086339950561523
1761841488771921200,3.591921142578125,6.205695152282715,-2.043529748916626,1.2391507625579834
1761841488781991200,3.6019912109375,8.140419960021973,-2.2923495769500732,0.7899817824363708
1761841488792060200,3.61206005859375,9.516324996948242,-2.187607765197754,0.4287881553173065
1761841488802130200,3.622130126953125,10.398330688476562,-1.7897430658340454,0.22212541103363037
1761841488812199200,3.63219921875,10.968602180480957,-1.2327005863189697,0.13045035302639008
1761841488822269200,3.642269287109375,11.384438514709473,-0.9194169640541077,0.11978687345981598
1761841488832339200,3.652339111328125,11.788379669189453,-1.0598489046096802,0.2248123586177826
1761841488842408200,3.662408203125,12.13769817352295,-1.9507758617401123,0.49851739406585693
1761841488852478200,3.672478271484375,12.178343772888184,-3.3931288719177246,0.9615196585655212
1761841488862547200,3.682547119140625,11.692354202270508,-4.48125696182251,1.5467612743377686
1761841488872617200,3.6926171875,10.354615211486816,-4.5005059242248535,2.2037510871887207
1761841488882687200,3.702687255859375,7.934948444366455,-3.8864798545837402,2.736644983291626
1761841488892756200,3.712756103515625,4.763345718383789,-2.926959991455078,2.8133974075317383
1761841488902826200,3.722826171875,1.3122673034667969,-1.8128938674926758,2.35967755317688
1761841488912895200,3.732895263671875,-1.9156306982040405,-0.6816975474357605,1.5003849267959595
1761841488922965200,3.74296533203125,-4.5255513191223145,-0.014405579306185246,0.434639573097229
1761841488933035000,3.753034912109375,-6.342770576477051,0.31884294748306274,-0.5054203271865845
1761841488943104300,3.763104248046875,-7.486451148986816,0.33102118968963623,-1.2387561798095703
1761841488953174000,3.773174072265625,-8.224018096923828,0.14637918770313263,-1.7906007766723633
1761841488963243300,3.7832431640625,-8.778654098510742,0.01796325482428074,-2.1887331008911133
1761841488973313300,3.793313232421875,-9.336721420288086,0.05032971501350403,-2.4008989334106445
1761841488983383300,3.80338330078125,-9.97075366973877,0.28878191113471985,-2.438845157623291
1761841488993452300,3.813452392578125,-10.683472633361816,0.7293941974639893,-2.3253531455993652
1761841489003522000,3.82352197265625,-11.470479011535645,1.439698576927185,-2.0932469367980957
1761841489013591300,3.83359130859375,-12.24698543548584,2.33423113822937,-1.8020788431167603
1761841489023661000,3.8436611328125,-12.757505416870117,3.2119760513305664,-1.5269055366516113
1761841489033730300,3.853730224609375,-12.557320594787598,3.7360270023345947,-1.398505449295044
1761841489043800000,3.863800048828125,-11.062226295471191,3.512864351272583,-1.4595798254013062
1761841489053870000,3.8738701171875,-8.084403038024902,2.7526605129241943,-1.6117461919784546
1761841489063939300,3.883939208984375,-3.8893091678619385,1.5541956424713135,-1.7882205247879028
1761841489074009000,3.894009033203125,0.8682888746261597,-0.16713617742061615,-1.6379673480987549
1761841489084078300,3.904078369140625,5.393869876861572,-1.6967017650604248,-1.2408161163330078
1761841489094148000,3.914148193359375,9.001421928405762,-2.7713096141815186,-1.080381155014038
1761841489104218400,3.92421826171875,11.497318267822266,-3.430664300918579,-0.8617148995399475
1761841489114287000,3.934287109375,13.058210372924805,-3.5371029376983643,-0.47635573148727417
1761841489124357000,3.944357177734375,13.899645805358887,-3.3489155769348145,0.023761291056871414
1761841489134426000,3.954426025390625,14.283401489257812,-3.2397990226745605,0.5419040322303772
1761841489144496000,3.96449609375,14.366938591003418,-3.30823016166687,1.0387555360794067
1761841489154565400,3.9745654296875,14.085247993469238,-3.705512285232544,1.5533605813980103
1761841489164635100,3.98463525390625,13.142613410949707,-4.066295623779297,2.115551710128784
1761841489174705200,3.994705078125,11.12061882019043,-3.8495869636535645,2.6702396869659424
1761841489184774100,4.004774169921875,7.910378456115723,-2.861414670944214,2.9406189918518066
1761841489194844200,4.01484423828125,3.828650951385498,-1.416741967201233,2.6546151638031006
1761841489204913200,4.0249130859375,-0.455464243888855,0.31737959384918213,1.6970351934432983
1761841489214983200,4.034983154296875,-4.278092384338379,1.6312719583511353,0.2726552486419678
1761841489225053200,4.04505322265625,-7.186171054840088,2.2432632446289062,-1.0119010210037231
1761841489235122200,4.0551220703125,-9.135477066040039,2.5094597339630127,-1.7627612352371216
1761841489245192200,4.065192138671875,-10.355368614196777,2.647264003753662,-2.1961283683776855
1761841489255261200,4.07526123046875,-11.064501762390137,2.755509853363037,-2.432602643966675
1761841489265331200,4.085331298828125,-11.465709686279297,2.819270372390747,-2.470292329788208
1761841489275401200,4.095401123046875,-11.714645385742188,2.8705787658691406,-2.3080787658691406
1761841489285470200,4.10547021484375,-11.924112319946289,3.0214951038360596,-1.9265022277832031
1761841489295540200,4.115540283203125,-12.075221061706543,3.2244279384613037,-1.3806228637695312
1761841489305609200,4.125609130859375,-11.893505096435547,3.091343402862549,-0.8987972736358643
1761841489315679200,4.13567919921875,-10.868773460388184,2.2313787937164307,-0.8057267069816589
1761841489325748200,4.145748291015625,-8.570150375366211,1.371640920639038,-0.8797265291213989
1761841489335818200,4.155818359375,-5.225889682769775,0.9232540726661682,-0.5483403205871582
1761841489345888300,4.16588818359375,-1.477301836013794,0.16953660547733307,0.23029470443725586
1761841489355957200,4.175957275390625,2.4516897201538086,-0.5424296259880066,1.1194120645523071
1761841489366027000,4.186027099609375,5.938641548156738,-1.208850622177124,1.8732473850250244
1761841489376096300,4.19609619140625,8.619539260864258,-1.6712204217910767,1.9747183322906494
1761841489386166300,4.206166259765625,10.487395286560059,-1.8554891347885132,1.7622053623199463
1761841489396236300,4.216236328125,11.707798957824707,-1.8760725259780884,1.5859770774841309
1761841489406305300,4.22630517578125,12.401232719421387,-1.839843511581421,1.4730045795440674
1761841489416375000,4.236375,12.729718208312988,-1.8057862520217896,1.3580193519592285
1761841489426444300,4.2464443359375,12.807546615600586,-2.021244764328003,1.3493562936782837
1761841489436514000,4.25651416015625,12.549346923828125,-2.514315605163574,1.512233853340149
1761841489446583300,4.266583251953125,11.837297439575195,-2.985351800918579,1.8225070238113403
1761841489456653000,4.276653076171875,10.40632438659668,-3.130404472351074,2.279069662094116
1761841489466723300,4.286723388671875,8.133075714111328,-2.761601686477661,2.7077293395996094
1761841489476792300,4.296792236328125,5.147985458374023,-1.9982300996780396,2.861553192138672
1761841489486862000,4.306862060546875,1.8217216730117798,-1.2023428678512573,2.5723633766174316
1761841489496931300,4.316931396484375,-1.379925012588501,-0.312872052192688,1.9342576265335083
1761841489507001000,4.3270009765625,-4.117928504943848,0.35989910364151,0.970320999622345
1761841489517071400,4.3370712890625,-6.187088489532471,0.667212724685669,0.031548500061035156
1761841489527140000,4.34714013671875,-7.618492126464844,0.8187476396560669,-0.6298956274986267
1761841489537210000,4.357210205078125,-8.587006568908691,0.8022067546844482,-1.0791932344436646
1761841489547279000,4.367279052734375,-9.243057250976562,0.7341819405555725,-1.4138764142990112
1761841489557349000,4.37734912109375,-9.759354591369629,0.7011669874191284,-1.670716404914856
1761841489567419400,4.38741943359375,-10.272892951965332,0.8439212441444397,-1.8563554286956787
1761841489577489200,4.3974892578125,-10.860599517822266,1.213072657585144,-1.9294716119766235
1761841489587559000,4.407558837890625,-11.551054954528809,1.8649349212646484,-1.8525522947311401
1761841489597628200,4.417628173828125,-12.286079406738281,2.7635769844055176,-1.5898525714874268
1761841489607698000,4.427697998046875,-12.806926727294922,3.6753525733947754,-1.1907830238342285
1761841489617767200,4.43776708984375,-12.75682544708252,4.105510234832764,-0.7422937154769897
1761841489627837200,4.447837158203125,-11.69336223602295,3.899508476257324,-0.3634846806526184
1761841489637907000,4.457906982421875,-9.298467636108398,3.1502697467803955,0.014401370659470558
1761841489647976200,4.46797607421875,-5.729063034057617,1.91745924949646,0.2067541480064392
1761841489658046000,4.4780458984375,-1.5035889148712158,0.18213045597076416,0.25653472542762756
1761841489668115200,4.488115234375,2.8472301959991455,-1.175230860710144,-0.07188162952661514
1761841489678185000,4.49818505859375,6.514134883880615,-2.215648651123047,-0.7321687340736389
1761841489688255000,4.5082548828125,9.338163375854492,-2.901679039001465,-1.3257142305374146
1761841489698324000,4.518323974609375,11.39991283416748,-3.235093593597412,-1.6174640655517578
1761841489708394000,4.52839404296875,12.808554649353027,-3.18900203704834,-1.681221604347229
1761841489718463000,4.538462890625,13.771085739135742,-2.991743564605713,-1.6012303829193115
1761841489728533000,4.548532958984375,14.444128036499023,-2.8896028995513916,-1.4445077180862427
1761841489738602200,4.558602294921875,14.872530937194824,-2.9969003200531006,-1.1892205476760864
1761841489748672000,4.568672119140625,15.028416633605957,-3.423104763031006,-0.7539182901382446
1761841489758742000,4.578741943359375,14.617019653320312,-4.072447776794434,-0.055284351110458374
1761841489768811000,4.58881103515625,13.171767234802246,-4.3506669998168945,0.8059622049331665
1761841489778881000,4.598881103515625,10.51390552520752,-3.733567953109741,1.6295403242111206
1761841489788950000,4.608949951171875,6.801347732543945,-2.4667305946350098,2.1192715167999268
1761841489799020000,4.61902001953125,2.5310006141662598,-0.9354747533798218,2.0960490703582764
1761841489809090000,4.629090087890625,-1.5681123733520508,0.47039997577667236,1.6828583478927612
1761841489819159000,4.639158935546875,-5.018570423126221,1.5789908170700073,0.8584087491035461
1761841489829229000,4.64922900390625,-7.48341703414917,2.059762716293335,-0.09899905323982239
1761841489839298000,4.659298095703125,-8.99445915222168,2.1690921783447266,-0.7771636843681335
1761841489849368000,4.6693681640625,-9.801246643066406,2.023989200592041,-1.2812976837158203
1761841489859438000,4.67943798828125,-10.186850547790527,1.814427137374878,-1.6552014350891113
1761841489869507000,4.689507080078125,-10.392972946166992,1.6637542247772217,-1.8732736110687256
1761841489879577000,4.6995771484375,-10.58346176147461,1.6340323686599731,-1.9344130754470825
1761841489889646000,4.70964599609375,-10.859271049499512,1.776786208152771,-1.8049336671829224
1761841489899716000,4.719716064453125,-11.274748802185059,2.1285760402679443,-1.4679514169692993
1761841489909785000,4.72978515625,-11.78189754486084,2.726303815841675,-0.9834399819374084
1761841489919855000,4.739855224609375,-12.140118598937988,3.493504047393799,-0.4788931608200073
1761841489929924900,4.7499248046875,-12.063982963562012,4.038578510284424,-0.055733054876327515
1761841489939994000,4.759994140625,-11.158284187316895,4.1006317138671875,0.33640381693840027
1761841489950063900,4.77006396484375,-9.169970512390137,3.5469677448272705,0.585395097732544
1761841489960133000,4.780133056640625,-6.1491475105285645,2.401392698287964,0.46140652894973755
1761841489970203100,4.790203125,-2.5541958808898926,1.1763006448745728,-0.13884247839450836
1761841489980273000,4.80027294921875,1.1145795583724976,-0.27460360527038574,-1.2392410039901733
1761841489990342100,4.810342041015625,4.585717678070068,-1.7093231678009033,-2.4183387756347656
1761841490000412000,4.820411865234375,7.566218376159668,-2.9406914710998535,-3.2292633056640625
1761841490010481200,4.830481201171875,9.969128608703613,-3.8050765991210938,-3.640834093093872
1761841490020551000,4.840551025390625,11.796435356140137,-4.276116847991943,-3.765207529067993
1761841490030620200,4.8506201171875,13.097314834594727,-4.243705749511719,-3.810774564743042
1761841490040690000,4.86068994140625,13.92874813079834,-4.002145290374756,-3.7937700748443604
1761841490050760000,4.870760009765625,14.389674186706543,-3.7708139419555664,-3.6623737812042236
1761841490060829200,4.8808291015625,14.458135604858398,-3.8007619380950928,-3.3915820121765137
1761841490070899000,4.89089892578125,14.078466415405273,-3.710944652557373,-3.085972309112549
1761841490080968200,4.90096826171875,12.64145278930664,-3.5593180656433105,-2.675060987472534
1761841490091038000,4.911037841796875,9.86188793182373,-2.588623523712158,-2.308183193206787
1761841490101108000,4.92110791015625,6.382993221282959,-0.9391762614250183,-2.2770047187805176
1761841490111177000,4.931177001953125,2.4429638385772705,0.8913529515266418,-2.1972925662994385
1761841490121247000,4.9412470703125,-1.4537845849990845,2.6035637855529785,-1.7943353652954102
1761841490131316000,4.95131591796875,-4.713395595550537,3.743177652359009,-0.9927787780761719
1761841490141386000,4.961385986328125,-7.059072017669678,4.308781147003174,-0.028385307639837265
1761841490151456000,4.9714560546875,-8.613541603088379,4.237171173095703,0.9062075614929199
1761841490161525000,4.98152490234375,-9.374223709106445,4.1114935874938965,1.5907872915267944
1761841490171595000,4.991594970703125,-9.705718040466309,3.8156328201293945,1.8590457439422607
1761841490181664000,5.0016640625,-9.823769569396973,3.4307334423065186,1.9080699682235718
1761841490191734000,5.011734130859375,-9.857556343078613,3.1116981506347656,1.852063536643982
1761841490201803000,5.021802978515625,-9.938742637634277,2.91666841506958,1.8057106733322144
1761841490211873000,5.031873046875,-10.045804977416992,2.9450371265411377,1.814173936843872
1761841490221943000,5.041943115234375,-10.014004707336426,3.131139039993286,1.9169756174087524
1761841490232012000,5.052011962890625,-9.646828651428223,3.1894941329956055,2.1763248443603516
1761841490242082000,5.06208203125,-8.676509857177734,2.6626899242401123,2.4995036125183105
1761841490252151000,5.072151123046875,-6.80790901184082,1.7104493379592896,2.5606348514556885
1761841490262221000,5.082220947265625,-4.052340984344482,0.43020740151405334,2.392055034637451
1761841490272291000,5.092291015625,-0.6008927822113037,-0.4844779670238495,2.112041473388672
1761841490282360000,5.102360107421875,2.7369918823242188,-1.4009637832641602,1.8140323162078857
1761841490292430000,5.11243017578125,5.491522312164307,-2.196274995803833,1.1791852712631226
1761841490302499000,5.1224990234375,7.646254062652588,-2.741744041442871,0.497774213552475
1761841490312569000,5.132569091796875,9.225845336914062,-3.098280906677246,0.10945429652929306
1761841490322638000,5.14263818359375,10.311025619506836,-2.9689393043518066,-0.010071568191051483
1761841490332708000,5.1527080078125,10.986517906188965,-2.5646235942840576,0.07597791403532028
1761841490342777900,5.16277783203125,11.41064453125,-2.2124576568603516,0.2438393533229828
1761841490352847000,5.17284716796875,11.78829288482666,-2.193098306655884,0.3766331374645233
1761841490362916900,5.182916748046875,12.125224113464355,-3.022167921066284,0.5876087546348572
1761841490372986000,5.192986083984375,12.279986381530762,-4.482430934906006,0.9559434652328491
1761841490383056100,5.20305615234375,11.972678184509277,-5.911622524261475,1.450890064239502
1761841490393126000,5.2131259765625,10.851542472839355,-6.5551533699035645,2.095203161239624
1761841490403195100,5.223195068359375,8.603535652160645,-6.008424282073975,2.7112481594085693
1761841490413265000,5.233264892578125,5.1763105392456055,-4.209842681884766,2.8664047718048096
1761841490423334100,5.243334228515625,1.1909573078155518,-2.1658802032470703,2.2723441123962402
1761841490433404000,5.25340380859375,-2.5736258029937744,-0.34282466769218445,1.2092857360839844
1761841490443473200,5.26347314453125,-5.755313396453857,0.7583543658256531,-0.07509086281061172
1761841490453543000,5.27354296875,-8.09028148651123,1.3752485513687134,-1.2442632913589478
1761841490463613000,5.283613037109375,-9.692584991455078,1.7533737421035767,-2.037830114364624
1761841490473682200,5.29368212890625,-10.8178071975708,2.0868895053863525,-2.52154541015625
1761841490483752000,5.303751953125,-11.664509773254395,2.5463368892669678,-2.7234139442443848
1761841490493821200,5.3138212890625,-12.346760749816895,3.107422113418579,-2.6724636554718018
1761841490503891000,5.323890869140625,-12.89819049835205,3.647996425628662,-2.445317268371582
1761841490513961000,5.3339609375,-13.282217979431152,4.063901424407959,-2.134047031402588
1761841490524030000,5.344030029296875,-13.24030590057373,4.150168418884277,-1.8252944946289062
1761841490534100000,5.354099853515625,-12.23173713684082,3.7888898849487305,-1.5800683498382568
1761841490544169000,5.3641689453125,-9.792685508728027,3.002784490585327,-1.3389222621917725
1761841490554239000,5.374239013671875,-6.079570770263672,1.874947428703308,-1.1794902086257935
1761841490564308200,5.38430810546875,-1.7863284349441528,0.0687507763504982,-0.8302606344223022
1761841490574378000,5.3943779296875,2.5392162799835205,-1.4889953136444092,-0.3266147971153259
1761841490584447000,5.404447021484375,6.136419296264648,-2.516120433807373,-0.1486450880765915
1761841490594516000,5.414515869140625,8.706720352172852,-3.2458815574645996,-0.034327540546655655
1761841490604586000,5.4245859375,10.368666648864746,-3.539630651473999,0.19547636806964874
1761841490614655000,5.434655029296875,11.319500923156738,-3.4526894092559814,0.5205049514770508
1761841490624725000,5.44472509765625,11.778732299804688,-3.239130973815918,0.8113248348236084
1761841490634795000,5.454794921875,11.915069580078125,-3.189591407775879,1.023928165435791
1761841490644863700,5.46486376953125,11.757104873657227,-3.2751500606536865,1.2569878101348877
1761841490654934000,5.47493408203125,11.119636535644531,-3.4232356548309326,1.624666690826416
1761841490665002800,5.485002685546875,9.810975074768066,-3.4952993392944336,2.0470669269561768
1761841490675073000,5.495072998046875,7.781433582305908,-3.156831979751587,2.2094178199768066
1761841490685142000,5.50514208984375,5.179014205932617,-2.5345458984375,1.9684700965881348
1761841490695211800,5.515211669921875,2.445791244506836,-1.5203046798706055,1.7270933389663696
1761841490705282000,5.525281982421875,-0.3865540623664856,-0.5617722272872925,1.3631412982940674
1761841490715350800,5.535350830078125,-3.0481772422790527,0.4237922728061676,0.7728655934333801
1761841490725421000,5.545421142578125,-5.280316352844238,0.9441606402397156,0.05047651380300522
1761841490735489800,5.55548974609375,-6.970911502838135,1.269577980041504,-0.5796857476234436
1761841490745559800,5.565559814453125,-8.211125373840332,1.5191925764083862,-1.12844717502594
1761841490755630000,5.575630126953125,-9.117023468017578,1.768502950668335,-1.6028237342834473
1761841490765698800,5.58569873046875,-9.793707847595215,2.1321728229522705,-1.9564812183380127
1761841490775769000,5.59576904296875,-10.281669616699219,2.5559024810791016,-2.1765105724334717
1761841490785837800,5.605837890625,-10.56018352508545,2.888577699661255,-2.2594568729400635
1761841490795908000,5.615908203125,-10.536600112915039,3.124514102935791,-2.2140934467315674
1761841490805977900,5.625977783203125,-10.000001907348633,3.093018054962158,-2.048696756362915
1761841490816046800,5.636046875,-8.653067588806152,3.045158863067627,-1.860690951347351
1761841490826117000,5.6461171875,-6.655681610107422,2.7136175632476807,-1.7090098857879639
1761841490836185900,5.656185791015625,-4.069007396697998,2.0129406452178955,-1.4638110399246216
1761841490846256000,5.666256103515625,-1.1253960132598877,0.9818485975265503,-1.1775792837142944
1761841490856324900,5.676324951171875,1.7283331155776978,-0.138666570186615,-0.8010359406471252
1761841490866395000,5.686394775390625,4.241982460021973,-1.0450869798660278,-0.34701091051101685
1761841490876465000,5.69646484375,6.218904972076416,-1.8195714950561523,-0.1293031871318817
1761841490886534000,5.706533935546875,7.719915866851807,-2.4563677310943604,-0.06285519152879715
1761841490896604000,5.71660400390625,8.839543342590332,-2.8924176692962646,0.08047216385602951
1761841490906673000,5.7266728515625,9.546952247619629,-3.140462636947632,0.3113216161727905
1761841490916743200,5.7367431640625,9.916426658630371,-3.222907304763794,0.5525127053260803
1761841490926812000,5.74681201171875,9.943264961242676,-3.3366634845733643,0.8520381450653076
1761841490936882000,5.7568818359375,9.567316055297852,-3.5267181396484375,1.1826263666152954
1761841490946952000,5.766951904296875,8.604206085205078,-3.506640911102295,1.5461417436599731
1761841490957021000,5.77702099609375,6.840604305267334,-3.288954973220825,1.7957922220230103
1761841490967091000,5.787091064453125,4.465762138366699,-2.884521484375,1.7153942584991455
1761841490977160000,5.797159912109375,1.770392894744873,-2.1704397201538086,1.286963939666748
1761841490987230000,5.80722998046875,-1.0110503435134888,-0.8989417552947998,0.7494796514511108
1761841490997300000,5.817300048828125,-3.676135778427124,0.2145780622959137,0.07899728417396545
1761841491007369000,5.827368896484375,-5.9602742195129395,1.0369457006454468,-0.47644782066345215
1761841491017439000,5.83743896484375,-7.748811721801758,1.7080910205841064,-0.845731794834137
1761841491027508000,5.847508056640625,-9.125981330871582,2.2288684844970703,-1.1183220148086548
1761841491037578000,5.857577880859375,-10.096085548400879,2.6900689601898193,-1.3130972385406494
1761841491047648000,5.86764794921875,-10.682519912719727,3.035222291946411,-1.4192466735839844
1761841491057716700,5.877716796875,-10.859362602233887,3.046375274658203,-1.3893651962280273
1761841491067787000,5.887787109375,-10.522233009338379,2.6627185344696045,-1.2257472276687622
1761841491077855700,5.897855712890625,-9.530572891235352,1.9747319221496582,-0.9149923920631409
1761841491087926000,5.907926025390625,-7.735610485076904,1.5684765577316284,-0.7642952799797058
1761841491097995000,5.9179951171875,-5.312925338745117,1.3243982791900635,-0.6547116041183472
1761841491108064800,5.928064697265625,-2.5624308586120605,0.4905659556388855,-0.37170174717903137
1761841491118135000,5.938135009765625,0.31430813670158386,-0.5976133346557617,0.0214826799929142
1761841491128203800,5.948203857421875,3.101029396057129,-1.3331589698791504,0.4831043779850006
1761841491138274000,5.958274169921875,5.345107555389404,-1.8782131671905518,0.6670725345611572
1761841491148342800,5.9683427734375,7.001343250274658,-2.292546510696411,0.6943350434303284
1761841491158413000,5.9784130859375,8.226093292236328,-2.542337656021118,0.762784481048584
1761841491168483000,5.988483154296875,9.026182174682617,-2.5845909118652344,0.8845692276954651
1761841491178551800,5.9985517578125,9.456639289855957,-2.411663293838501,0.9797543883323669
1761841491188622000,6.0086220703125,9.618684768676758,-2.261354446411133,1.038530945777893
1761841491198690800,6.01869091796875,9.540552139282227,-2.2196221351623535,1.1235891580581665
1761841491208761000,6.028760986328125,9.103403091430664,-2.360640525817871,1.2699759006500244
1761841491218829800,6.038829833984375,8.165533065795898,-2.4954276084899902,1.4353277683258057
1761841491228899800,6.04889990234375,6.603203773498535,-2.431699514389038,1.5445810556411743
1761841491238970000,6.05897021484375,4.586765289306641,-2.035029172897339,1.502140760421753
1761841491249038800,6.069038818359375,2.2631139755249023,-1.4478332996368408,1.2388862371444702
1761841491259109000,6.079109130859375,-0.19316613674163818,-0.692619264125824,0.7890166640281677
1761841491269177900,6.089177734375,-2.5348188877105713,0.16989336907863617,0.23842252790927887
1761841491279248000,6.099247802734375,-4.539642333984375,0.9249895215034485,-0.2747516334056854
1761841491289318000,6.10931787109375,-6.130427360534668,1.4396264553070068,-0.7164917588233948
1761841491299387000,6.119386962890625,-7.300246238708496,1.8208736181259155,-1.0680451393127441
1761841491309457000,6.129456787109375,-8.18096923828125,2.0881433486938477,-1.332705020904541
1761841491319526000,6.13952587890625,-8.803509712219238,2.4064128398895264,-1.5186996459960938
1761841491329596200,6.14959619140625,-9.250706672668457,2.755432367324829,-1.5984522104263306
1761841491339665000,6.159664794921875,-9.560772895812988,3.045289993286133,-1.5757887363433838
1761841491349735000,6.16973486328125,-9.634480476379395,3.1955504417419434,-1.5447719097137451
1761841491359805000,6.179804931640625,-9.277637481689453,3.095383882522583,-1.5551702976226807
1761841491369874000,6.1898740234375,-8.289684295654297,2.635385274887085,-1.6009536981582642
1761841491379944000,6.19994384765625,-6.555048942565918,2.116414785385132,-1.6192340850830078
1761841491390013000,6.210012939453125,-4.095032691955566,1.3260382413864136,-1.2972395420074463
1761841491400083000,6.2200830078125,-1.2233169078826904,0.2643294036388397,-0.5749518275260925
1761841491410153000,6.230153076171875,1.6050094366073608,-0.5231404304504395,0.0837959423661232
1761841491420222000,6.240221923828125,4.00964879989624,-1.0459091663360596,0.30926355719566345
1761841491430292000,6.2502919921875,5.816104888916016,-1.4720005989074707,0.3388933539390564
1761841491440361000,6.26036083984375,7.115230083465576,-1.7067919969558716,0.34259405732154846
1761841491450431000,6.270430908203125,8.0465726852417,-1.6814714670181274,0.3335675299167633
1761841491460501000,6.2805009765625,8.669050216674805,-1.6636593341827393,0.3192202150821686
1761841491470569700,6.29056982421875,9.053077697753906,-1.8354923725128174,0.3608190715312958
1761841491480640000,6.300639892578125,9.209617614746094,-2.0707178115844727,0.4940013289451599
1761841491490708700,6.310708740234375,9.04345417022705,-2.3355038166046143,0.7263634204864502
1761841491500779000,6.320779052734375,8.462818145751953,-2.5365023612976074,0.99724942445755
1761841491510848000,6.330847900390625,7.32347297668457,-2.479614019393921,1.2612230777740479
1761841491520918000,6.34091796875,5.66094446182251,-2.112898349761963,1.3634347915649414
1761841491530988000,6.350988037109375,3.594778537750244,-1.5057569742202759,1.2785882949829102
1761841491541056800,6.361056884765625,1.2672206163406372,-0.6818973422050476,1.0172959566116333
1761841491551127000,6.371126953125,-1.1032662391662598,0.286968857049942,0.5772839188575745
1761841491561195800,6.38119580078125,-3.2241618633270264,1.1149259805679321,0.05738252401351929
1761841491571266000,6.39126611328125,-4.914417743682861,1.6837700605392456,-0.4114006757736206
1761841491581336600,6.401336669921875,-6.170116901397705,2.0262770652770996,-0.800571620464325
1761841491591405600,6.411405517578125,-7.056657314300537,2.2116501331329346,-1.067382574081421
1761841491601475600,6.4214755859375,-7.666440963745117,2.343756675720215,-1.2333253622055054
1761841491611544600,6.431544677734375,-8.097803115844727,2.476720094680786,-1.2993054389953613
1761841491621614300,6.4416142578125,-8.361756324768066,2.591294050216675,-1.3003478050231934
1761841491631684600,6.4516845703125,-8.412494659423828,2.502065658569336,-1.2928006649017334
1761841491641753600,6.461753662109375,-8.11176586151123,2.2940292358398438,-1.2792857885360718
1761841491651823600,6.47182373046875,-7.337613582611084,2.04398512840271,-1.2140942811965942
1761841491661892600,6.481892578125,-6.022936820983887,1.4413577318191528,-0.9866004586219788
1761841491671962600,6.491962646484375,-4.145876407623291,0.481916606426239,-0.4621398448944092
1761841491682031600,6.502031494140625,-1.817395567893982,-0.3155444860458374,0.1960652470588684
1761841491692101400,6.512101318359375,0.5766602754592896,-0.7019894123077393,0.7498999238014221
1761841491702171600,6.522171630859375,2.6713972091674805,-0.902671217918396,0.9636558890342712
1761841491712240400,6.532240478515625,4.368092060089111,-1.015404224395752,0.8910112380981445
1761841491722310700,6.542310546875,5.716854572296143,-1.0091816186904907,0.7159885764122009
1761841491732379600,6.552379638671875,6.779660224914551,-1.0355154275894165,0.5403363108634949
1761841491742449400,6.562449462890625,7.589838981628418,-1.0828173160552979,0.396735817193985
1761841491752518700,6.5725185546875,8.175581932067871,-1.135632872581482,0.29861006140708923
1761841491762588400,6.58258837890625,8.631183624267578,-1.2577168941497803,0.28623154759407043
1761841491772658700,6.59265869140625,8.94867992401123,-1.537203311920166,0.43245187401771545
1761841491782727400,6.6027275390625,9.013806343078613,-2.0105628967285156,0.7443681359291077
1761841491792797400,6.61279736328125,8.57812786102295,-2.5604746341705322,1.2020227909088135
1761841491802866400,6.622866455078125,7.392218112945557,-2.9526500701904297,1.6387665271759033
1761841491812936400,6.6329365234375,5.537689685821533,-2.7972991466522217,1.8729252815246582
1761841491823006700,6.6430068359375,3.2766642570495605,-1.948336124420166,1.7478643655776978
1761841491833075500,6.653075439453125,0.770470142364502,-0.9293832778930664,1.4169074296951294
1761841491843145700,6.663145751953125,-1.671107292175293,0.2631014883518219,0.97031170129776
1761841491853214500,6.67321435546875,-3.808595657348633,1.1720622777938843,0.40972885489463806
1761841491863284500,6.683284423828125,-5.4704437255859375,1.7034409046173096,-0.06978907436132431
1761841491873354800,6.693354736328125,-6.681457042694092,2.02364182472229,-0.4558965563774109
1761841491883423500,6.703423583984375,-7.510396480560303,2.1984198093414307,-0.7165288329124451
1761841491893493800,6.71349365234375,-8.063671112060547,2.315145969390869,-0.8652088046073914
1761841491903562500,6.7235625,-8.448771476745605,2.4223721027374268,-0.9248420596122742
1761841491913632500,6.733632568359375,-8.718961715698242,2.540712356567383,-0.924412190914154
1761841491923702500,6.74370263671875,-8.87337875366211,2.541126251220703,-0.893008291721344
1761841491933771500,6.753771484375,-8.786025047302246,2.4189412593841553,-0.8755664825439453
1761841491943841500,6.763841552734375,-8.298863410949707,2.305248975753784,-0.845066249370575
1761841491953910500,6.77391064453125,-7.339636325836182,1.9446074962615967,-0.7431553602218628
1761841491963980800,6.783980712890625,-5.746748447418213,1.6487122774124146,-0.5534063577651978
1761841491974049500,6.794049560546875,-3.6275463104248047,1.2961068153381348,-0.24462370574474335
1761841491984119600,6.80411962890625,-1.2815016508102417,0.7519792914390564,0.018903642892837524
1761841491994189600,6.814189453125,1.0247952938079834,0.029870320111513138,-0.015216776169836521
1761841492004258600,6.824258544921875,3.1875267028808594,-0.8083871603012085,-0.2847291827201843
1761841492014328600,6.83432861328125,5.042926788330078,-1.7375222444534302,-0.5108863711357117
1761841492024397600,6.8443974609375,6.496804714202881,-2.5052473545074463,-0.6263378858566284
1761841492034467600,6.854467529296875,7.506063938140869,-2.913071632385254,-0.6234954595565796
1761841492044537600,6.86453759765625,8.077868461608887,-3.0028529167175293,-0.5105298161506653
1761841492054606600,6.874606689453125,8.266389846801758,-2.9791154861450195,-0.3225729465484619
1761841492064676600,6.884676513671875,8.1986722946167,-2.916130304336548,-0.09805247187614441
1761841492074745600,6.89474560546875,7.89020299911499,-2.786715030670166,0.16520819067955017
1761841492084815600,6.904815673828125,7.234892845153809,-2.464649200439453,0.49674510955810547
1761841492094885600,6.9148857421875,6.074830532073975,-2.21571946144104,0.756501317024231
1761841492104954400,6.924954345703125,4.339733123779297,-1.8618639707565308,0.8489391207695007
1761841492115024600,6.935024658203125,2.207695484161377,-1.0986778736114502,0.7474727034568787
1761841492125093400,6.94509326171875,-0.08602569252252579,-0.11468560248613358,0.5172916650772095
1761841492135163600,6.95516357421875,-2.2669155597686768,0.7790350317955017,0.22483234107494354
1761841492145232600,6.965232666015625,-4.067468166351318,1.4648584127426147,-0.06295663863420486
1761841492155302400,6.975302490234375,-5.429726600646973,1.9301823377609253,-0.3059954047203064
1761841492165372700,6.98537255859375,-6.390379428863525,2.150632381439209,-0.4797899127006531
1761841492175441400,6.99544140625,-7.016895771026611,2.209188461303711,-0.5768775939941406
1761841492185511700,7.00551171875,-7.354358196258545,2.128155469894409,-0.6331964731216431
1761841492195580400,7.015580322265625,-7.4283576011657715,1.9592740535736084,-0.6457101106643677
1761841492205650700,7.025650634765625,-7.22938871383667,1.7050331830978394,-0.6279774904251099
1761841492215720700,7.035720703125,-6.743278503417969,1.3297349214553833,-0.5297513604164124
1761841492225789400,7.04578955078125,-5.925633907318115,0.9379639625549316,-0.2770390212535858
1761841492235859700,7.055859619140625,-4.798580169677734,0.5797150135040283,0.07812973111867905
1761841492245928400,7.065928466796875,-3.333082675933838,0.13369067013263702,0.40009382367134094
1761841492255998700,7.075998779296875,-1.5329209566116333,-0.2509821653366089,0.6380850672721863
1761841492266067500,7.0860673828125,0.34707874059677124,-0.6400062441825867,0.776287853717804
1761841492276137500,7.096137451171875,2.1724815368652344,-0.863839328289032,0.8974840641021729
1761841492286207700,7.106207763671875,3.8512001037597656,-0.9042044281959534,0.9754487872123718
1761841492296276500,7.1162763671875,5.288700580596924,-1.0411449670791626,0.9909539818763733
1761841492306346800,7.1263466796875,6.576920986175537,-1.2417453527450562,0.9752998948097229
1761841492316415500,7.13641552734375,7.702786445617676,-1.5710442066192627,1.0004279613494873
1761841492326485800,7.14648583984375,8.661136627197266,-1.795825719833374,1.0512783527374268
1761841492336555500,7.156555419921875,9.398372650146484,-2.0701656341552734,1.1692545413970947
1761841492346624500,7.16662451171875,9.794659614562988,-2.528827428817749,1.401912808418274
1761841492356694500,7.176694580078125,9.73151683807373,-2.875154733657837,1.7169439792633057
1761841492366763500,7.186763427734375,9.062657356262207,-3.149665355682373,2.087937831878662
1761841492376833800,7.196833740234375,7.648393154144287,-3.221054792404175,2.4272353649139404
1761841492386903600,7.206903564453125,5.539398670196533,-2.8054707050323486,2.4254090785980225
1761841492396972500,7.21697265625,2.9891209602355957,-2.066169500350952,1.9941781759262085
1761841492407042600,7.22704248046875,0.3114100396633148,-0.9158440232276917,1.4669090509414673
1761841492417111600,7.237111572265625,-2.2452495098114014,-0.06054453179240227,0.85439133644104
1761841492427181600,7.247181640625,-4.353976726531982,0.9473443627357483,0.11076819896697998
1761841492437250600,7.25725048828125,-6.0447998046875,1.3884583711624146,-0.7893211245536804
1761841492447320600,7.267320556640625,-7.185367584228516,1.712471842765808,-1.6021608114242554
1761841492457390600,7.277390625,-8.019761085510254,1.9609920978546143,-2.2016448974609375
1761841492467459600,7.28745947265625,-8.62141227722168,2.270991802215576,-2.6077463626861572
1761841492477529600,7.297529541015625,-9.04586124420166,2.6684885025024414,-2.8509790897369385
1761841492487598600,7.3075986328125,-9.26856517791748,3.0299365520477295,-2.9119391441345215
1761841492497668600,7.317668701171875,-9.208280563354492,3.236279010772705,-2.838559865951538
1761841492507738600,7.327738525390625,-8.725578308105469,3.072685718536377,-2.671483039855957
1761841492517807400,7.337807373046875,-7.5717668533325195,2.919365644454956,-2.438835382461548
1761841492527877600,7.347877685546875,-5.797392845153809,2.3872780799865723,-2.197150945663452
1761841492537946400,7.3579462890625,-3.4413979053497314,1.5961248874664307,-1.8217297792434692
1761841492548016600,7.3680166015625,-0.8381726145744324,0.6646746397018433,-1.296301007270813
1761841492558085600,7.378085693359375,1.6862351894378662,-0.21658475697040558,-0.6682395339012146
1761841492568155600,7.38815576171875,3.9984347820281982,-0.6747027635574341,-0.017422406002879143
1761841492578225200,7.39822509765625,5.812257766723633,-1.0838415622711182,0.24269944429397583
1761841492588294100,7.408294189453125,7.219598770141602,-1.4440395832061768,0.28380072116851807
1761841492598364200,7.4183642578125,8.306735038757324,-1.776342749595642,0.3085113763809204
1761841492608433000,7.428432861328125,9.058629989624023,-2.0225510597229004,0.37490779161453247
1761841492618503200,7.438503173828125,9.512845039367676,-2.1326966285705566,0.4629678726196289
1761841492628573200,7.4485732421875,9.656930923461914,-2.252444267272949,0.6245784759521484
1761841492638642200,7.45864208984375,9.320501327514648,-2.317352533340454,0.8946653604507446
1761841492648712200,7.468712158203125,8.2840576171875,-2.1629679203033447,1.1700539588928223
1761841492658781000,7.478781005859375,6.355604648590088,-1.6877166032791138,1.2213478088378906
1761841492668851200,7.488851318359375,3.734455108642578,-0.7185496091842651,0.9675956964492798
1761841492678920000,7.498919921875,0.8947457075119019,0.7427873015403748,0.4711097776889801
1761841492688990200,7.508990234375,-1.827661395072937,2.3800621032714844,-0.23586007952690125
1761841492699060000,7.51906005859375,-4.222620964050293,3.535855293273926,-1.1190515756607056
1761841492709129200,7.529129150390625,-6.1155595779418945,3.973850727081299,-1.8597323894500732
1761841492719199200,7.53919921875,-7.384067058563232,4.101865291595459,-2.2817165851593018
1761841492729268000,7.54926806640625,-8.120888710021973,4.057338714599609,-2.464160442352295
1761841492739338200,7.559338134765625,-8.401424407958984,3.970407009124756,-2.3957343101501465
1761841492749408000,7.569407958984375,-8.27912712097168,3.6487443447113037,-2.109225273132324
1761841492759477200,7.579477294921875,-7.681512832641602,2.889786720275879,-1.76323401927948
1761841492769547000,7.589547119140625,-6.54573917388916,2.0180270671844482,-1.4753077030181885
1761841492779616000,7.599615966796875,-5.058628559112549,1.203067660331726,-1.228974461555481
1761841492789686000,7.60968603515625,-3.2963778972625732,0.7449853420257568,-0.8957971334457397
1761841492799756000,7.619756103515625,-1.5372456312179565,0.21178878843784332,-0.4681704342365265
1761841492809825000,7.629824951171875,0.05422275513410568,-0.041209254413843155,-0.02696368470788002
1761841492819895000,7.63989501953125,1.272615909576416,-0.1319681853055954,0.04102761670947075
1761841492829964300,7.64996435546875,2.111405849456787,-0.19578979909420013,-0.014937035739421844
1761841492840034000,7.660033935546875,2.738053560256958,-0.19810141623020172,-0.008451173081994057
1761841492850103000,7.67010302734375,3.278406858444214,-0.3128814101219177,0.04242999851703644
1761841492860173000,7.680173095703125,3.800734758377075,-0.6004128456115723,0.059513382613658905
1761841492870243000,7.6902431640625,4.302374839782715,-1.1543169021606445,0.062021154910326004
1761841492880312000,7.70031201171875,4.6587815284729,-1.8457573652267456,0.16206121444702148
1761841492890382000,7.710382080078125,4.763121604919434,-2.437962055206299,0.37594738602638245
1761841492900451000,7.720451171875,4.563220024108887,-2.8484554290771484,0.6206654906272888
1761841492910521000,7.73052099609375,4.0124993324279785,-3.0552210807800293,0.8923002481460571
1761841492920590000,7.740590087890625,3.1926698684692383,-3.1208817958831787,1.1404619216918945
1761841492930660000,7.75066015625,2.2515361309051514,-3.1222877502441406,1.4121965169906616
1761841492940730000,7.760730224609375,1.2397760152816772,-2.99531888961792,1.7157467603683472
1761841492950799000,7.770799072265625,0.06334267556667328,-2.6396772861480713,1.9195904731750488
1761841492960869000,7.780869140625,-1.334433913230896,-2.1590635776519775,1.8886061906814575
1761841492970937900,7.790937744140625,-2.785749673843384,-1.50037682056427,1.6638203859329224
1761841492981008100,7.801008056640625,-4.217977523803711,-0.8349969387054443,1.308964490890503
1761841492991078100,7.811078125,-5.594788551330566,-0.12354307621717453,0.8669410347938538
1761841493001147100,7.821147216796875,-6.788850784301758,0.6108675599098206,0.3764849901199341
1761841493011217200,7.831217041015625,-7.652600288391113,1.339714765548706,-0.1406891644001007
1761841493021286000,7.841285888671875,-8.04780387878418,2.0809638500213623,-0.6215804219245911
1761841493031356200,7.851356201171875,-7.765138149261475,2.3519651889801025,-0.9045771360397339
1761841493041426000,7.861426025390625,-6.4610772132873535,2.008697032928467,-0.785907506942749
1761841493051495200,7.8714951171875,-3.880674362182617,1.551192283630371,-0.7385605573654175
1761841493061565200,7.881565185546875,-0.6416944861412048,0.3874872326850891,-0.8800745606422424
1761841493071634200,7.89163427734375,2.7908005714416504,-0.9382019639015198,-0.5946067571640015
1761841493081704200,7.9017041015625,5.780025959014893,-2.0215771198272705,0.07758469879627228
1761841493091773000,7.91177294921875,7.971789836883545,-2.521476984024048,0.6225534677505493
1761841493101843200,7.92184326171875,9.182967185974121,-2.8208885192871094,0.9594167470932007
1761841493111913000,7.931912841796875,9.519685745239258,-2.7608327865600586,1.13619863986969
1761841493121982200,7.941982177734375,9.016304016113281,-2.402341365814209,1.145821213722229
1761841493132052000,7.952052001953125,7.601180553436279,-1.6334675550460815,1.0363469123840332
1761841493142121000,7.962120849609375,5.277923583984375,-0.3088442087173462,0.6836571097373962
1761841493152191200,7.972191162109375,2.319242477416992,1.4341185092926025,-0.1712125688791275
1761841493162260000,7.982260009765625,-0.7880074977874756,3.438450813293457,-1.2587615251541138
1761841493172330200,7.992330322265625,-3.50978946685791,5.415815830230713,-2.2626914978027344
1761841493182400000,8.00239990234375,-5.687033176422119,6.739879608154297,-2.8231794834136963
1761841493192469200,8.01246923828125,-7.151129245758057,7.3946967124938965,-2.9975717067718506
1761841493202539000,8.0225390625,-7.834245681762695,7.378542900085449,-2.9331905841827393
1761841493212608000,8.03260791015625,-7.6505961418151855,6.7436676025390625,-2.7464663982391357
1761841493222678000,8.042677978515625,-6.677565574645996,5.673976421356201,-2.3905537128448486
1761841493232748000,8.052748046875,-5.143182277679443,4.485738277435303,-1.9399265050888062
1761841493242817300,8.0628173828125,-3.405851125717163,3.346327781677246,-1.5726968050003052
1761841493252887000,8.072886962890625,-1.7463538646697998,2.417908191680908,-1.293027400970459
1761841493262956000,8.0829560546875,-0.45582711696624756,1.6437510251998901,-1.1528892517089844
1761841493273026000,8.093026123046876,0.34204229712486267,1.0578311681747437,-1.093462586402893
1761841493283095000,8.103094970703125,0.6837101578712463,0.6875982284545898,-1.1203421354293823
1761841493293165000,8.1131650390625,0.7644895911216736,0.775358259677887,-1.2878501415252686
1761841493303235000,8.123235107421875,0.7100167870521545,1.2272095680236816,-1.5710769891738892
1761841493313304000,8.133303955078125,0.4586682617664337,1.6161919832229614,-1.7954922914505005
1761841493323374000,8.1433740234375,0.10592536628246307,1.8818327188491821,-1.9674876928329468
1761841493333443000,8.153443115234374,-0.2519274652004242,2.253499746322632,-2.1524016857147217
1761841493343513000,8.16351318359375,-0.5909875631332397,2.5279757976531982,-2.443784236907959
1761841493353582000,8.17358203125,-0.8960791826248169,2.476621150970459,-2.624856948852539
1761841493363652000,8.183652099609375,-1.0787030458450317,2.338576555252075,-2.686643362045288
1761841493373722000,8.19372216796875,-1.1509480476379395,2.0458483695983887,-2.6423163414001465
1761841493383790800,8.203790771484375,-1.107866644859314,1.618543267250061,-2.4897408485412598
1761841493393861000,8.213861083984375,-0.942887544631958,1.2060527801513672,-2.268709897994995
1761841493403929900,8.223929931640624,-0.7054539918899536,0.8780860304832458,-2.0227653980255127
1761841493414000000,8.234000244140624,-0.476070374250412,0.5882663726806641,-1.7658462524414062
1761841493424069000,8.244069091796876,-0.33408498764038086,0.27893388271331787,-1.5439172983169556
1761841493434139100,8.25413916015625,-0.2650483548641205,0.20896296203136444,-1.5128488540649414
1761841493444209200,8.264209228515625,-0.30461040139198303,0.32367464900016785,-1.5819133520126343
1761841493454278000,8.27427783203125,-0.49024757742881775,0.48480525612831116,-1.5065618753433228
1761841493464348200,8.28434814453125,-0.7791414260864258,0.47752416133880615,-1.4244211912155151
1761841493474417000,8.2944169921875,-1.2003767490386963,0.6475154757499695,-1.1745779514312744
1761841493484487200,8.304487060546874,-1.5798158645629883,0.42832377552986145,-1.1586865186691284
1761841493494556000,8.314555908203126,-1.860745906829834,0.19750568270683289,-1.109566330909729
1761841493504626000,8.3246259765625,-2.0421836376190186,-0.41000157594680786,-1.1223756074905396
1761841493514696200,8.3346962890625,-2.2910830974578857,-1.2660216093063354,-1.1525983810424805
1761841493524765000,8.344764892578125,-2.3900504112243652,-1.90309739112854,-1.177519679069519
1761841493534835200,8.354835205078125,-2.3476905822753906,-2.6183125972747803,-1.445494532585144
1761841493544904000,8.364904052734374,-2.2204270362854004,-3.1364364624023438,-1.7117722034454346
1761841493554974000,8.374973876953124,-2.0500285625457764,-3.2487545013427734,-1.9672966003417969
1761841493565043000,8.38504296875,-1.7850996255874634,-3.359640121459961,-2.326664447784424
1761841493575113000,8.395113037109375,-1.5020231008529663,-3.359360933303833,-2.666560411453247
1761841493585187000,8.40518701171875,-1.2765809297561646,-3.078770160675049,-2.895453929901123
1761841493595256300,8.41525634765625,-1.0629289150238037,-2.6822712421417236,-2.9993233680725098
1761841493605326300,8.425326416015626,-0.8539804816246033,-2.2388391494750977,-2.9378092288970947
1761841493615395300,8.435395263671875,-0.6996257305145264,-1.803813099861145,-2.709923267364502
1761841493625465300,8.44546533203125,-0.6082527041435242,-1.4147289991378784,-2.3649985790252686
1761841493635535400,8.455535400390625,-0.5404401421546936,-1.1539777517318726,-1.9668941497802734
1761841493645604400,8.465604248046875,-0.4661025106906891,-1.04695725440979,-1.568908452987671
1761841493655674000,8.475674072265624,-0.3748343884944916,-1.0169674158096313,-1.1821664571762085
1761841493665743400,8.485743408203126,-0.2852797508239746,-0.9475462436676025,-0.7729709148406982
1761841493675813000,8.495813232421876,-0.19727776944637299,-0.8134451508522034,-0.33762770891189575
1761841493685882400,8.50588232421875,-0.13494275510311127,-0.6609543561935425,0.062268298119306564
1761841493695952400,8.515952392578125,-0.11242516338825226,-0.5489774942398071,0.36155325174331665
1761841493706022100,8.526022216796875,-0.12055419385433197,-0.5183023810386658,0.5451827645301819
1761841493716091400,8.53609130859375,-0.12326076626777649,-0.6007857322692871,0.6211938261985779
1761841493726161200,8.5461611328125,-0.07850874215364456,-0.7236014008522034,0.6275779604911804
1761841493736230400,8.55623046875,-0.0021335124038159847,-0.8029151558876038,0.6137596368789673
1761841493746300200,8.566300048828126,0.061204712837934494,-0.8024784326553345,0.622677743434906
1761841493756369400,8.576369384765625,0.0998251736164093,-0.753931999206543,0.6650483012199402
1761841493766439200,8.586439208984375,0.13683272898197174,-0.7790442705154419,0.7133417725563049
1761841493776509200,8.59650927734375,0.13783326745033264,-0.8394681215286255,0.7440006732940674
1761841493786578400,8.606578369140625,0.11164559423923492,-0.8703075051307678,0.7268052101135254
1761841493796648200,8.616648193359374,0.08563827723264694,-0.8387749791145325,0.6947712898254395
1761841493806717400,8.626717529296876,0.06593674421310425,-0.7274879217147827,0.6771408915519714
1761841493816787200,8.636787109375,0.0442177839577198,-0.6240771412849426,0.6729451417922974
1761841493826856400,8.6468564453125,0.035019759088754654,-0.5663778781890869,0.6906934976577759
1761841493836927500,8.656927490234375,0.03294115513563156,-0.5157351493835449,0.7379171848297119
1761841493846997200,8.666997314453125,0.007371611427515745,-0.4605238139629364,0.7901849150657654
1761841493857066500,8.67706640625,-0.016308672726154327,-0.4305103123188019,0.8071951866149902
1761841493867136300,8.68713623046875,-0.026643335819244385,-0.39050403237342834,0.7813473343849182
1761841493877206300,8.697206298828124,-0.022470759227871895,-0.3440462648868561,0.7318509221076965
1761841493887275300,8.707275146484376,0.00391344353556633,-0.313719242811203,0.6704213619232178
1761841493897345300,8.71734521484375,0.022963872179389,-0.2901913523674011,0.6196927428245544
1761841493907414300,8.727414306640625,0.002146208193153143,-0.22232656180858612,0.5958707332611084
1761841493917484300,8.737484375,-0.04066579416394234,-0.1263941377401352,0.5761925578117371
1761841493927554300,8.74755419921875,-0.05781761556863785,-0.07302945107221603,0.5237775444984436
1761841493937623300,8.757623291015625,-0.05111996456980705,-0.0691269263625145,0.45032384991645813
1761841493947693300,8.767693359375,-0.041915811598300934,-0.07693451642990112,0.3716905415058136
1761841493957762300,8.77776220703125,-0.04057513177394867,-0.04369257763028145,0.3010629117488861
1761841493967832300,8.787832275390626,-0.03510606661438942,-0.0007602926343679428,0.24139849841594696
1761841493977901300,8.7979013671875,-0.026580465957522392,0.025827981531620026,0.205280140042305
1761841493987971300,8.807971435546875,-0.019864771515130997,0.02693479135632515,0.19542883336544037
1761841493998041300,8.818041259765625,-0.008893887512385845,0.009931379929184914,0.19412066042423248
1761841494008110300,8.8281103515625,-0.0027758076321333647,-0.00977068580687046,0.19624054431915283
1761841494018180400,8.838180419921875,0.008549627847969532,-0.022075168788433075,0.1798402965068817
1761841494028249300,8.848249267578124,0.018536215648055077,-0.011198818683624268,0.15024858713150024
1761841494038319400,8.8583193359375,0.021501028910279274,0.011510172858834267,0.1107834056019783
1761841494048388400,8.868388427734375,0.026996461674571037,0.04656962305307388,0.0694625973701477
1761841494058458400,8.878458251953125,0.026101399213075638,0.09578651189804077,0.034481942653656006
1761841494068527000,8.888527099609375,0.01672227866947651,0.1320102959871292,0.019468901678919792
1761841494078597400,8.898597412109375,0.007824957370758057,0.1445121467113495,0.011169034987688065
1761841494088667400,8.90866748046875,-0.0015512334648519754,0.13924866914749146,0.00975276529788971
1761841494098736400,8.918736328125,-0.011625239625573158,0.11285258084535599,0.00026698410511016846
1761841494108806400,8.928806396484376,-0.015867121517658234,0.08404330164194107,-0.00970788486301899
1761841494118875400,8.93887548828125,-0.011895342729985714,0.05515122413635254,-0.011237441562116146
1761841494128945400,8.9489453125,-0.006216151639819145,0.03149170055985451,-0.014102470129728317
1761841494139014100,8.95901416015625,0.009989210404455662,0.019099190831184387,-0.023516900837421417
1761841494149084400,8.96908447265625,0.015198353677988052,0.0321742445230484,-0.037877462804317474
1761841494159154400,8.979154541015625,0.013600989244878292,0.038221217691898346,-0.043418969959020615
1761841494169223400,8.989223388671874,0.0006521675968542695,0.03233350068330765,-0.04463869705796242
1761841494179293400,8.99929345703125,-0.010261557064950466,0.039968542754650116,-0.025560708716511726
1761841494189362200,9.009362060546875,-0.012093279510736465,0.037685684859752655,0.0007814159616827965
1761841494199432400,9.019432373046875,-0.012390092946588993,0.009164460934698582,0.013629956170916557
1761841494209501200,9.029501220703125,-0.0014567510224878788,-0.002312697470188141,0.028589997440576553
1761841494219571500,9.039571533203125,0.00410339655354619,0.005343890283256769,0.03391711786389351
1761841494229641200,9.04964111328125,0.011048387736082077,0.01291605643928051,0.039368342608213425
1761841494239710200,9.059710205078124,0.015750426799058914,0.014618955552577972,0.042920444160699844
1761841494249780500,9.069780517578126,0.011982586234807968,0.014184326864778996,0.03617572411894798
1761841494259849200,9.07984912109375,0.007301307283341885,0.02133977971971035,0.03222408890724182
1761841494269919500,9.08991943359375,0.0011645850026980042,0.02283381298184395,0.029558802023530006
1761841494279988200,9.09998828125,-0.003193716751411557,0.033400245010852814,0.029556646943092346
1761841494290058500,9.11005859375,-0.015402179211378098,0.015374904498457909,0.040436457842588425
1761841494300128300,9.120128173828125,-0.03142870217561722,0.006033093202859163,0.05620628222823143
1761841494310197200,9.130197265625,-0.034792542457580566,0.008993729017674923,0.08858712762594223
1761841494320267300,9.140267333984376,-0.029964163899421692,0.012431264854967594,0.11892373859882355
1761841494330336300,9.150336181640625,-0.024255676195025444,0.018950682133436203,0.1434250921010971
1761841494340406500,9.160406494140625,-0.009713700041174889,0.023429369553923607,0.15165460109710693
1761841494350475300,9.170475341796875,0.006063665263354778,0.02230711281299591,0.1326042115688324
1761841494360545300,9.180545166015625,0.012835615314543247,0.026162039488554,0.09880203008651733
1761841494370614300,9.1906142578125,0.01113465428352356,0.049105703830718994,0.06860870867967606
1761841494380684300,9.200684326171874,0.0015314066549763083,0.06271474808454514,0.040207602083683014
1761841494390754300,9.21075439453125,-0.006040493026375771,0.05433138087391853,0.020612595602869987
1761841494400823300,9.2208232421875,-0.003855414455756545,0.05485004559159279,0.015337890014052391
1761841494410893300,9.230893310546875,-0.0018636365421116352,0.054357096552848816,0.023013651371002197
1761841494420962300,9.24096240234375,0.003092888742685318,0.047713618725538254,0.03738173842430115
1761841494431032300,9.2510322265625,0.00879418384283781,0.04897142946720123,0.055589769035577774
1761841494441101300,9.261101318359374,0.01434430293738842,0.04871201515197754,0.067093126475811
1761841494451171300,9.27117138671875,0.018113475292921066,0.039358727633953094,0.07834737747907639
1761841494461241300,9.281241455078124,0.021702053025364876,0.025719881057739258,0.08344227075576782
1761841494471310300,9.291310302734376,0.021617364138364792,0.017753034830093384,0.09255614131689072
1761841494481380400,9.30138037109375,0.010064817033708096,0.006632157601416111,0.09614813327789307
1761841494491449300,9.311449462890625,0.0008683895575813949,-0.00005743652582168579,0.07899551093578339
1761841494501519000,9.32151904296875,-0.0033536297269165516,0.0029209223575890064,0.05695915222167969
1761841494511588400,9.33158837890625,-0.007454099133610725,0.021723639219999313,0.03488287702202797
1761841494521658400,9.341658447265624,-0.008671261370182037,0.03486244007945061,0.01964467763900757
1761841494531727400,9.351727294921876,-0.018103379756212234,0.02590915933251381,0.006941664963960648
1761841494541797400,9.36179736328125,-0.017625965178012848,0.03941034525632858,0.00506084319204092
1761841494551867100,9.3718671875,-0.004362624138593674,0.038468651473522186,0.005334082990884781
1761841494561936400,9.381936279296875,0.0038308838848024607,0.03660291060805321,0.005474134348332882
1761841494572006100,9.392006103515625,-0.0002658567391335964,0.04188156500458717,0.0016812602989375591
1761841494582071000,9.402071044921875,-0.009941628202795982,0.0511152520775795,-0.001961303409188986
1761841494592140800,9.412140869140625,-0.01962008699774742,0.047855544835329056,-0.009017081931233406
1761841494602210000,9.4222099609375,-0.02158414199948311,0.0376245491206646,-0.016728565096855164
1761841494612279800,9.43227978515625,-0.0008032310288399458,0.0455317385494709,-0.02235262840986252
1761841494622350000,9.44235009765625,0.015925388783216476,0.08063054084777832,-0.010922041721642017
1761841494632418800,9.452418701171876,0.02454391121864319,0.08779656887054443,0.012886885553598404
1761841494642488800,9.46248876953125,0.025937173515558243,0.09198535978794098,0.048198651522397995
1761841494652558000,9.47255810546875,-0.002042529871687293,0.09205806255340576,0.09622102975845337
1761841494662627800,9.4826279296875,-0.02552652359008789,0.044052522629499435,0.1154322475194931
1761841494672697000,9.492697021484375,-0.014951644465327263,-0.0028380192816257477,0.0979885458946228
1761841494682766800,9.502766845703125,0.000540255568921566,-0.005849810317158699,0.06404373049736023
1761841494692836000,9.512836181640624,0.00896383449435234,0.005798589438199997,0.027098502963781357
1761841494702905900,9.52290576171875,0.006847395095974207,0.010079282335937023,0.00006052665412425995
1761841494712976000,9.532975830078126,0.007070035208016634,0.012357616797089577,-0.022063683718442917
1761841494723044900,9.543044921875,0.000009929412044584751,0.022448960691690445,-0.02698560431599617
1761841494733115000,9.553114990234375,-0.002285715425387025,0.039545390754938126,-0.02488064207136631
