time,seconds_elapsed,z,y,x
1761385021145721600,0.0807216796875,0.336079628303647,0.17140059582181275,0.0809377596842125
1761385021155790800,0.090790771484375,0.3019026334136724,0.12829027982652186,0.05433627808243036
1761385021165859600,0.100859619140625,0.23991876318752764,0.0826017839062959,-0.017773557099699973
1761385021175928800,0.1109287109375,0.2633551683545112,0.05280125053487718,-0.09654014675728977
1761385021185997800,0.120997802734375,0.18075813368856905,0.05136171925105154,-0.14911138792857526
1761385021196066600,0.131066650390625,0.03145955262482166,0.04604724623002111,-0.0658528936792165
1761385021206135800,0.1411357421875,-0.14986439825296402,0.07778853840567171,0.07704495349675416
1761385021216204500,0.15120458984375,-0.1474076527506113,0.08976933744810521,0.1872669310607016
1761385021226272800,0.161272705078125,-0.18365677773952482,0.0322618089184165,0.25116912906356154
1761385021236341800,0.171341796875,-0.14493512515723705,-0.004808642390742897,0.29457112148180603
1761385021246410800,0.18141064453125,-0.08116846316754818,-0.10233429305404423,0.311074147189036
1761385021256479700,0.191479736328125,-0.16779168460965155,-0.14519859839901328,0.32885164981149134
1761385021266548700,0.201548828125,-0.14609715467393397,-0.020763313500210642,0.29013657310046254
1761385021276617700,0.21161767578125,-0.040486908689141274,0.07700155274644493,0.18859065394513308
1761385021286686700,0.221686767578125,0.03186404177248478,0.05068981133885681,0.13308416303955017
1761385021296755700,0.231755615234375,-0.01220189444720745,-0.02156140507534146,0.18100845518782735
1761385021306824700,0.24182470703125,-0.07887012309730053,-0.06238587515577673,0.2767438614334911
1761385021316893700,0.251893798828125,-0.07128887418806552,-0.03266359465233981,0.3350716933701187
1761385021326961700,0.261961669921875,-0.048424131429195404,-0.02466024787351489,0.3543305936567485
1761385021337030700,0.27203076171875,-0.17171791814267634,-0.018825623435899615,0.30019677934385836
1761385021347100000,0.282099853515625,-0.18118600371181964,0.025251199503988027,0.2387470890596509
1761385021357168600,0.292168701171875,-0.13844459409415721,0.014898951511457561,0.20874511483199892
1761385021367238000,0.30223779296875,-0.15144260735511778,-0.043137204002216455,0.22819778412505984
1761385021377306600,0.312306640625,-0.22502689900398254,-0.09016235535368322,0.25370208160728214
1761385021387375900,0.3223759765625,-0.23797990407943725,-0.03540427166260779,0.2776085885040462
1761385021397444600,0.332444580078125,-0.11303250494003295,-0.008837605645880103,0.2839809730801731
1761385021407513600,0.342513671875,-0.04676116665303707,-0.026363325464352962,0.25111593757160006
1761385021417582800,0.352582763671875,-0.003808160111308098,-0.06879742269851268,0.21928017204552888
1761385021427651600,0.362651611328125,0.06802431943416595,-0.10577018578685819,0.15366400973163544
1761385021437719800,0.3727197265625,0.050727147674560547,-0.1353606566041708,0.09132840345837176
1761385021447788800,0.382788818359375,-0.00405073669552803,-0.1377208098642528,0.09025953211784363
1761385021457857800,0.39285791015625,-0.056526189342141146,-0.11893135372027754,0.06799677384011447
1761385021467926800,0.4029267578125,-0.06806406692266463,-0.10987250653915107,0.025771350920572877
1761385021477995500,0.41299560546875,-0.022469605961441992,-0.07557904566265643,-0.0057435120880603785
1761385021488064800,0.423064697265625,0.014492635732889175,-0.0772753281865269,-0.02953494123779237
1761385021498133800,0.4331337890625,0.015576339316368102,-0.14452961309626697,-0.029202348282560704
1761385021508202800,0.44320263671875,0.008019055804610252,-0.17223441629745065,-0.036635274762287735
1761385021518271700,0.453271728515625,-0.017540332865715026,-0.15459113451391457,-0.04398293411135673
1761385021528340700,0.4633408203125,-0.05130582434535026,-0.08892265749089419,-0.04497260273583233
1761385021538409700,0.47340966796875,-0.015247253492474555,-0.03625131694599986,-0.025401860021054743
1761385021548477700,0.483477783203125,-0.009463409394025802,-0.0486327326785773,-0.02070179257132113
1761385021558546700,0.493546630859375,0.027993922340869903,-0.06073131288178265,-0.01332666069343686
1761385021568615700,0.50361572265625,0.08556231421232223,-0.08655782805569469,-0.030800942585617302
1761385021578685000,0.513684814453125,0.15938684435784817,-0.08945771421566605,-0.14296543251946567
1761385021588753700,0.523753662109375,0.22267653648555277,-0.12142017486132681,-0.29858152616694567
1761385021598823000,0.533822998046875,0.2855424502432346,-0.08675174319259822,-0.42661593153625726
1761385021608891600,0.5438916015625,0.12643033117353916,-0.07568265216760336,-0.3079216014422476
1761385021618960600,0.553960693359375,-0.2298597259879112,-0.029820187919959423,-0.09455079957097769
1761385021629029600,0.564029541015625,-0.3223679138153791,0.04069010311104357,0.010521101753413677
1761385021639098600,0.5740986328125,-0.22016835305690763,0.0970453928656876,-0.0057266340184956785
1761385021649168000,0.58416796875,-0.13876491208970546,0.16049020248986778,-0.08861096119321882
1761385021659235800,0.59423583984375,-0.061352586585283274,0.17687508171014488,-0.1945012662284076
1761385021669304800,0.604304931640625,0.04679799153208732,0.1321264239232987,-0.32649040057286616
1761385021679373800,0.614373779296875,0.07938333331644534,0.044589375571906564,-0.3741558225892484
1761385021689442600,0.624442626953125,0.0491126982152462,0.028120398264750837,-0.36273828345276415
1761385021699511800,0.63451171875,-0.08768179058432579,0.01493869899995625,-0.36162666894905265
1761385021709580500,0.64458056640625,-0.15075930126607417,0.03890658069513738,-0.3964400620464235
1761385021719649800,0.65464990234375,-0.1899362964004278,-0.03210515705198049,-0.4747247134059667
1761385021729718800,0.66471875,-0.07494388956427574,-0.13432196120619774,-0.36591128746569157
1761385021739787800,0.674787841796875,-0.0765273593634367,-0.05007511350661516,-0.15939963077418506
1761385021749856800,0.684856689453125,-0.15409458316862581,0.02928293923810124,0.010337781075760721
1761385021759925500,0.694925537109375,-0.20500410167276858,0.029177433037012812,0.1822545827914029
1761385021769993500,0.704993408203125,-0.21475860296785831,0.11137480086088179,0.24543694208711384
1761385021780062700,0.715062744140625,-0.15594517947137354,0.2003628517381847,0.1327508028993383
1761385021790131500,0.72513134765625,-0.0828401957720518,0.10848214815929531,0.04346797032654285
1761385021800200400,0.735200439453125,-0.16589549559950828,0.04005991544872522,0.06963124317415058
1761385021810269700,0.745269775390625,-0.21758768891394137,0.10479249986112117,0.14251641011033206
1761385021820338400,0.75533837890625,-0.20292261922359464,0.1824865649163723,0.21044501408506183
1761385021830407700,0.76540771484375,-0.051859951096773146,0.2461401219204068,0.21175043412782252
1761385021840476400,0.775476318359375,0.18814941298365592,0.17452566903978586,0.1922187082491815
1761385021850545700,0.785545654296875,0.36402912698090073,0.022194734542816875,0.1772230183649808
1761385021860614700,0.79561474609375,0.6911486192375421,-0.05574716779366135,0.2146500645594671
1761385021870683600,0.80568359375,0.6007002865493297,-0.22565701360106466,0.5038351090887561
1761385021880751600,0.815751708984375,0.2874924152672291,-0.1620044795103371,0.5496704661337658
1761385021890820600,0.825820556640625,0.4363052586406469,0.01986658385619521,0.31303171099759636
1761385021900889600,0.8358896484375,0.4410194276809692,0.009279577259719372,0.14000486568082124
1761385021910958600,0.84595849609375,0.3132622318178415,-0.010767916121333838,0.059554487654753026
1761385021921027600,0.856027587890625,0.1667833843499422,-0.007961918789893389,0.11307108338475226
1761385021931096600,0.8660966796875,0.10453238762021064,0.08314064002335071,0.09816986685097218
1761385021941165600,0.87616552734375,0.16544307565689087,0.1440161106161773,0.0388850995156914
1761385021951234600,0.886234619140625,0.14445873981714247,0.16042057131975887,0.015351407986693084
1761385021961303600,0.896303466796875,0.01187163957953453,0.13890724316984415,0.11308902090024202
1761385021971372500,0.90637255859375,-0.015598551148176192,0.13355536074787377,0.18471143789160996
1761385021981441500,0.916441650390625,0.00710720165669918,0.06767214499562978,0.18248612652495502
1761385021991509800,0.926509765625,0.011073767200112342,0.035768209604173894,0.19003361929506063
1761385022001578500,0.93657861328125,-0.04302314916849136,-0.015575316403061151,0.20030129427667706
1761385022011647500,0.9466474609375,-0.10751520282328128,-0.05799129345864057,0.24557211277410387
1761385022021716500,0.956716552734375,-0.16348609637022019,-0.002904197008907795,0.2811144046679139
1761385022031785500,0.966785400390625,-0.14472995797395705,0.0801236302897334,0.2348344091279432
1761385022041854700,0.976854736328125,-0.12652210111021994,0.09257701527997851,0.13387608060222117
1761385022051923500,0.98692333984375,-0.07235621115863322,0.011685030966252088,0.08539283939693122
1761385022061992700,0.99699267578125,-0.017795184409618376,-0.025055092409998175,0.04774002162255347
1761385022072061400,1.0070615234375,0.014463994160294532,-0.06964271441623568,0.06683569417148828
1761385022082130700,1.017130615234375,0.012381927189230918,-0.07834668374508619,0.09042604779116808
1761385022092199700,1.02719970703125,0.05525017805695533,-0.06388181280195712,0.12443930348679423
1761385022102267400,1.037267333984375,0.039186932006478305,-0.0879883723154664,0.15774061152078211
1761385022112336600,1.047336669921875,-0.05303425557315349,-0.16702259993329643,0.1925461866378784
1761385022122405600,1.057405517578125,-0.18965514137148856,-0.17266162873357532,0.21501681551262736
1761385022132474600,1.067474609375,-0.27537995266914367,-0.14092238238453864,0.20075009749010203
1761385022142543600,1.077543701171875,-0.2697404854774475,-0.07212342531606554,0.14193375138416886
1761385022152612600,1.087612548828125,-0.28133564620316026,0.017659136939793825,0.048373570285737515
1761385022162681600,1.097681640625,-0.3118044342249632,0.045413113044947384,0.007992021667212247
1761385022172750600,1.10775048828125,-0.3050456076145172,0.07771905336603521,0.006417685022577643
1761385022182819600,1.117819580078125,-0.22549159390628337,0.0630403935417533,-0.012526157965511082
1761385022192888600,1.127888671875,-0.1457470260620117,0.001723170530796051,-0.020209625140205023
1761385022202957600,1.13795751953125,-0.020573416951298714,0.004685673598200083,-0.024260361835733053
1761385022213025500,1.148025634765625,0.12162731480598449,-0.0178344935066998,0.00012150748781859874
1761385022223094500,1.158094482421875,0.20080957259237764,-0.025608926900476215,0.03343063350208104
1761385022233163500,1.16816357421875,0.17955986381471156,-0.027776772458851337,0.03447385894469917
1761385022243232500,1.178232421875,0.15480419274270535,-0.03970350322648883,0.01191949730925262
1761385022253301500,1.188301513671875,0.15723054310679435,-0.03470730237439275,-0.0066390726882964365
1761385022263370500,1.19837060546875,0.10141337881684302,-0.020540683725476263,-0.01668846527673304
1761385022273439700,1.208439697265625,0.08273089017868042,0.04100318764820695,-0.03984064667485654
1761385022283508500,1.218508544921875,0.18524258562624454,0.11325915330275893,-0.07597564376480877
1761385022293577700,1.22857763671875,0.2063455794095993,0.08930033169686794,-0.084287545036152
1761385022303646500,1.238646484375,0.17060557298660278,0.049644028612971305,-0.08335837442725896
1761385022313715500,1.248715576171875,0.20196049619317052,-0.00011325111612677573,-0.06799582399204374
1761385022323784700,1.25878466796875,0.1387637430459261,-0.04616568497791886,-0.059154272823408245
1761385022333852400,1.268852294921875,0.08622691560089588,-0.07909720985144376,-0.05561243549808859
1761385022343921700,1.278921630859375,0.1021206503033638,-0.10106661120578646,-0.03709317459762096
1761385022353990700,1.28899072265625,0.0571557194173336,-0.05881619997546077,-0.032673166198283435
1761385022364059600,1.2990595703125,0.017217092260718346,-0.04153773291632533,-0.042980844396725296
1761385022374128600,1.309128662109375,-0.011329787787795066,-0.04528685631677508,-0.0963399480100721
1761385022384197400,1.319197265625,-0.007094926697015762,-0.03472381511777639,-0.1140488423757255
1761385022394266600,1.3292666015625,-0.002421089667081833,-0.07369447402507066,-0.09316577495336532
1761385022404335600,1.339335693359375,-0.04557692530453205,-0.04571194986104965,-0.10559526761136949
1761385022414404600,1.349404541015625,0.00010053776502609253,-0.05689940656870603,-0.10337123488634824
1761385022424473600,1.3594736328125,0.012855974441766739,-0.07369476628601551,-0.09694069038219749
1761385022434542600,1.36954248046875,0.02287935580611229,-0.07776245411634444,-0.08244761625789106
1761385022444611600,1.379611572265625,-0.006427402698993683,-0.09996960974931716,-0.06351816712133586
1761385022454679600,1.389679443359375,-0.02936521069407463,-0.07182882628366351,-0.05546002141535282
1761385022464748500,1.39974853515625,0.002422258710861206,-0.016621756716072557,-0.03183240452520549
1761385022474817500,1.409817626953125,-0.022008418190479277,0.0032061025649309156,0.02890270774886012
1761385022484886500,1.419886474609375,-0.07408814951777458,0.002169891384989023,0.06806121737845242
1761385022494955500,1.42995556640625,-0.06390402463376521,-0.03318067732900381,0.0878897342465818
1761385022505024800,1.440024658203125,-0.07516893049180508,-0.07364362062066793,0.06659056030400097
1761385022515093500,1.450093505859375,-0.06331774917840957,-0.08795520069822668,0.04480608706250787
1761385022525162500,1.46016259765625,-0.03927987098693848,-0.10316592157259583,0.03208002261072397
1761385022535231500,1.4702314453125,-0.01999357123672962,-0.05903159629181027,0.0010167027618736028
1761385022545300500,1.480300537109375,-0.0018868366599082945,0.0026712650358676907,-0.048619434805586934
1761385022555369700,1.49036962890625,0.02545125212073326,-0.01752002073004842,-0.07392207223586737
1761385022565437400,1.5004375,0.058415948611497875,-0.019366379249095917,-0.08159889047406613
1761385022575506700,1.510506591796875,0.0747580116033554,-0.034892741943895814,-0.06112308867834508
1761385022585575700,1.52057568359375,0.05449205316603183,-0.016300415807217358,-0.026350319852307437
1761385022595644400,1.53064453125,0.12024667410254478,0.026304507949203252,0.013633023228868842
1761385022605713700,1.540713623046875,0.15017185676693914,0.04039046257734299,0.054318230969086286
1761385022615782400,1.550782470703125,0.16870236971378325,-0.01707563796341419,0.0803140382952988
1761385022625851600,1.5608515625,0.13668635224997996,-0.08861834078207612,0.0893520618841052
1761385022635920600,1.570920654296875,0.06304594649970531,-0.10945669227987527,0.11990626316703855
1761385022645989600,1.58098974609375,-0.00828793587386608,-0.09810688461735843,0.15184402776286005
1761385022656058600,1.59105859375,-0.06153671098053455,-0.058311026932299136,0.16216807257421315
1761385022666127600,1.601127685546875,-0.06809329301714896,-0.07000409507453441,0.1637793071631342
1761385022676196600,1.611196533203125,-0.06242459973096847,-0.12069719434902071,0.198755562672019
1761385022686264600,1.6212646484375,-0.058719315472245216,-0.12773936794549226,0.24143822783976793
1761385022696333600,1.63133349609375,-0.0852022487282753,-0.078453358989954,0.2858198789451271
1761385022706402600,1.641402587890625,-0.11500175918638705,0.014946663110703228,0.3156790106359869
1761385022716471600,1.651471435546875,-0.0907049377977848,0.08261457032263278,0.3120483990486711
1761385022726540500,1.66154052734375,-0.13155132744908332,0.13483590207770466,0.2936399050462991
1761385022736609500,1.671609619140625,-0.126523854675889,0.19441461085826156,0.23818536352366207
1761385022746678500,1.681678466796875,-0.11582067435383796,0.18416925730630754,0.18875366248711942
1761385022756751600,1.691751708984375,-0.14908815318346022,0.17145532168373465,0.14135047160349787
1761385022766820600,1.701820556640625,-0.14033493788540363,0.18021935063675046,0.12097243109382688
1761385022776889600,1.7118896484375,-0.14379472295045853,0.1636732164401561,0.14475567693710326
1761385022786958300,1.721958251953125,-0.10301672236025333,0.1665159655854106,0.14728629139326513
1761385022797027600,1.732027587890625,-0.03604980302453041,0.14062398395985365,0.17243490730561314
1761385022807096600,1.7420966796875,0.0163519998639822,0.0872065742880106,0.17577932236269114
1761385022817164500,1.75216455078125,0.06855448078811169,-0.0009410802423954009,0.17038184723332522
1761385022827233500,1.762233642578125,0.009601941081881523,-0.05647935452573001,0.16079013528451322
1761385022837302800,1.772302734375,-0.02100362506210804,-0.05839227547496557,0.14590192436277866
1761385022847371500,1.78237158203125,-0.02944529019296169,-0.07122369999736547,0.10378025407865643
1761385022857440500,1.7924404296875,-0.05743921253383159,-0.11023783272020518,0.03146225603856146
1761385022867509500,1.802509521484375,-0.027640286597609517,-0.11389591683633625,-0.0734348732408136
1761385022877578500,1.81257861328125,0.011749474504590034,-0.11149652754440903,-0.15846198459789157
1761385022887647700,1.822647705078125,0.040341947260499,-0.15277297917604446,-0.23069763811677693
1761385022897716500,1.832716552734375,0.05965396597385406,-0.19287373809181152,-0.2569602796856314
1761385022907785700,1.84278564453125,0.0633516514480114,-0.20883155100643633,-0.27299071944504977
1761385022917854500,1.8528544921875,0.07228431496620177,-0.1827438276130706,-0.2784250925187021
1761385022927923700,1.862923828125,0.08465630528330803,-0.1640998443543911,-0.2885129904866218
1761385022937991700,1.87299169921875,0.0627326427668333,-0.15586568449437618,-0.3191979785423726
1761385022948060400,1.883060302734375,0.07723404632806778,-0.13265731592960656,-0.3505529748141765
1761385022958129700,1.893129638671875,0.08339607608914375,-0.11065291632711886,-0.33552696285694833
1761385022968198700,1.90319873046875,0.048314241313934324,-0.07519041167125105,-0.2921289890266955
1761385022978267600,1.913267578125,0.04649637823700904,-0.05816489645987749,-0.2231127359457314
1761385022988336600,1.923336669921875,0.009795417827367783,-0.068103010693565,-0.12982275009080768
1761385022998405400,1.9334052734375,-0.06054185472428798,-0.014195990873873233,-0.08753288363292813
1761385023008474600,1.943474609375,-0.08667758197784424,0.011286387037485838,-0.06778788032978773
1761385023018543400,1.95354345703125,-0.11136194137930869,0.009625541153177618,-0.06410590388141572
1761385023028612600,1.963612548828125,-0.14486089087724685,0.0484936895340681,-0.06606200638525188
1761385023038681600,1.973681640625,-0.1450678116261959,0.08659034208580851,-0.058273836727067825
1761385023048750600,1.98375048828125,-0.09927344417870045,0.07664674795940518,-0.039074630738422274
1761385023058819600,1.993819580078125,-0.06850830355882644,0.05879603397026658,-0.019923720870912074
1761385023068887600,2.003887451171875,-0.03525368421077728,0.0323826588191092,0.03278495600968599
1761385023078956500,2.01395654296875,-0.024341245052218435,0.035094109734892846,0.07415690390504896
1761385023089025500,2.024025634765625,-0.012243395501375197,0.05606514770165085,0.08497939975783228
1761385023099094500,2.034094482421875,0.038650925433635706,0.05124503406882286,0.07455320974625647
1761385023109163500,2.04416357421875,0.03085574151277542,0.010705737605318427,0.06049728493019938
1761385023119232800,2.054232666015625,0.024186346751451492,-0.04984546946920454,0.08022424111999571
1761385023129301500,2.064301513671875,0.03770107736289501,-0.1009932537086308,0.08906360033154487
1761385023139370800,2.074370849609375,0.05353811344206333,-0.16784071138314902,0.09257672301903366
1761385023149439500,2.084439453125,0.06091887134313583,-0.21407259346507487,0.06431158252134919
1761385023159508500,2.094508544921875,0.07990297327637672,-0.1903176969334483,0.04771488718129694
1761385023169577500,2.104577392578125,0.04417348824739456,-0.13704473723359406,0.020804303097724915
1761385023179646500,2.114646484375,-0.10190203911662102,-0.05113923560678959,-0.00033778058700263496
1761385023189714700,2.124714599609375,-0.14771335769891739,0.012393836822733283,-0.04985606392845511
1761385023199783700,2.13478369140625,-0.12184417242705821,0.03857106513045728,-0.09781257784590125
1761385023209852400,2.144852294921875,-0.15174363612830638,0.02366159222498536,-0.04357530315853655
1761385023219921700,2.154921630859375,0.04465396524071693,0.14119776525981723,-0.09879647431671619
1761385023229990400,2.164990478515625,0.11341712034344673,0.11499715607650578,-0.10198416444212198
1761385023240059600,2.1750595703125,0.10603168626725673,0.03149323569871485,-0.04461553292647004
1761385023250128400,2.18512841796875,0.09515665650963782,0.020973010728135705,0.034448066916316744
1761385023260197600,2.19519775390625,0.08255611813366413,0.05072846284881234,0.07705744765214621
1761385023270266600,2.2052666015625,0.06641746875941754,0.07217574002519249,0.10193199586346745
1761385023280335600,2.215335693359375,0.008825696012377739,0.0702152536071837,0.09457140396758913
1761385023290404600,2.225404541015625,-0.028128362375497817,0.09675042850710451,0.08026150439046323
1761385023300473300,2.235473388671875,-0.016495207726955414,0.10404233908094465,0.0706008188586682
1761385023310542600,2.24554248046875,-0.05997779110074043,0.10615312068983912,0.06448131306506694
1761385023320610600,2.255610595703125,-0.05885609359443188,0.09642119655273854,0.04065349742770195
1761385023330679600,2.265679443359375,-0.0004068272352218628,0.08803805667608976,0.038679274745285507
1761385023340748500,2.27574853515625,0.02397767243683338,0.0776486915435642,0.043142172438278795
1761385023350817800,2.28581787109375,0.008534604111313819,0.049378728740289805,0.052035892185568804
1761385023360886500,2.295886474609375,0.006324526846408844,0.06706964905783534,0.036803105609863995
1761385023370955500,2.30595556640625,0.0457400069117546,0.05028451847359538,0.029949805648997425
1761385023381024500,2.3160244140625,0.007862988460063934,0.015330913187935948,0.029174072036147115
1761385023391093500,2.326093505859375,-0.023152327528595924,0.008150646295025944,0.012829890152439474
1761385023401162800,2.336162841796875,-0.025379940450191495,0.0036062808636575937,-0.022063070987164972
1761385023411231500,2.3462314453125,-0.007758359041810035,-0.0015719254918396472,-0.056186728254705665
1761385023421300700,2.35630078125,0.022827333357930184,-0.008043459593504667,-0.05432283407896757
1761385023431369500,2.366369384765625,0.031002456507086752,-0.02762180109284818,-0.009044818655773997
1761385023441438700,2.376438720703125,0.0020347206979990005,-0.040043987227231265,0.01858202393837273
1761385023451506700,2.386506591796875,0.011052724412083626,-0.04391849057301879,0.014546850138157605
1761385023461575400,2.396575439453125,0.042942485147714614,-0.04894194475822151,-0.011610212164372205
1761385023471644700,2.406644775390625,-0.0037818566262722013,-0.0494900801602751,0.010499109117314219
1761385023481713400,2.41671337890625,-0.037350948750972744,-0.017856193881854415,0.030190555602312086
1761385023491782700,2.42678271484375,-0.036274259430170055,-0.003672624098137021,0.03311141148507595
1761385023501851600,2.4368515625,-0.03580956452786922,0.005349617399647831,0.061060252575203776
1761385023511920400,2.44692041015625,-0.06476385633349419,0.03662577628158033,0.09916428471580147
1761385023521989600,2.45698974609375,-0.08537935886085032,0.03448978716619312,0.09728782331943511
1761385023532058400,2.467058349609375,-0.04722878416478633,0.019535963662341237,0.05891176930442452
1761385023542127600,2.477127685546875,-0.0043920974791049954,-0.009746829445287585,-0.0016600421667098998
1761385023552196600,2.487196533203125,-0.017899813827872275,-0.018018983228132127,-0.04811258126199245
1761385023562265600,2.497265625,-0.00001578209102153778,-0.004551525824517012,-0.04584967783130705
1761385023572334600,2.50733447265625,-0.007001403194665908,-0.011080854528024792,-0.02344217732064426
1761385023582402600,2.517402587890625,-0.029532968476414678,-0.016698694409802557,-0.0048969782613217825
1761385023592471600,2.527471435546875,0.0075993690878152845,-0.03834741244241595,-0.021858342195302246
1761385023602540500,2.53754052734375,0.07018821946978569,-0.04660283428616822,-0.043865226015821095
1761385023612609500,2.547609619140625,0.11618249340355395,-0.06717164812758565,-0.044902240913361306
1761385023622678500,2.557678466796875,0.10525602571964263,-0.10581621688567101,-0.004756327681615948
1761385023632747800,2.567747802734375,0.06875204918682574,-0.09330014192275703,0.015566548574715853
1761385023642816500,2.57781640625,0.06261924552023411,-0.06513378562442958,0.031064196631684898
1761385023652885800,2.5878857421875,0.08216507298946381,-0.05647577432915568,0.05000117148756981
1761385023662954500,2.59795458984375,0.06381868443787098,-0.07269640289843082,0.04923953946530819
1761385023673023500,2.6080234375,0.07480243526697158,-0.03639547465704381,0.0787065300334245
1761385023683092500,2.618092529296875,0.0902519333332777,0.012563567366451023,0.09105221686549485
1761385023693161500,2.628161376953125,0.04161445141434669,0.030322730614617464,0.09484474101625383
1761385023703230700,2.638230712890625,-0.03625964638292789,0.02810834250077605,0.10025712145380675
1761385023713298400,2.64829833984375,-0.07062427279949188,0.03143354140073061,0.11152714187838136
1761385023723367400,2.658367431640625,-0.08651508489251136,0.034221710814535615,0.09281199307963252
1761385023733436700,2.668436767578125,-0.08063245659470558,0.03297390271052718,0.07416910579949616
1761385023743505400,2.67850537109375,-0.031197102296352384,0.04224113194532692,0.07844671005345881
1761385023753574700,2.68857470703125,0.02464519643485546,0.0651245063394308,0.10312434745319186
1761385023763639600,2.6986396484375,0.05591361040174961,0.04069244119860232,0.1254234191533178
1761385023773708300,2.708708251953125,0.06407879667878151,-0.02167487538717687,0.1368397892460227
1761385023783777500,2.718777587890625,0.04622749816775322,-0.046770738198980685,0.099215065054968
1761385023793846300,2.72884619140625,0.022849545189738273,-0.051180736660957335,0.029484818485751747
1761385023803915500,2.73891552734375,0.012361468923091888,-0.02718677067644894,-0.024823914002627134
1761385023813984500,2.748984619140625,-0.019867899030447004,0.021282442003488538,-0.044421471659094096
1761385023824053500,2.759053466796875,-0.06961480349600314,0.023742694637179373,-0.04021634811945259
1761385023834122500,2.76912255859375,-0.08557108204066753,0.04162373069934547,-0.03862717923186719
1761385023844190500,2.7791904296875,-0.04349368928968906,0.028833734165877103,-0.03385609237253666
1761385023854259500,2.789259521484375,-0.04301496586203575,0.0024484160654246806,0.0003207563869655132
1761385023864328400,2.799328369140625,-0.023214286848902702,0.01380509186014533,-0.011077785788103938
1761385023874397400,2.8093974609375,0.039945056897401805,-0.004177431815117597,-0.027867957873642442
1761385023884466400,2.819466552734375,0.05539864661693573,-0.010126695608347653,-0.03933108971752226
1761385023894535400,2.829535400390625,0.07087211008071899,-0.01596336587257683,-0.024325974417850373
1761385023904604400,2.8396044921875,0.055201078218221664,-0.029041823958605526,0.0049880175456404685
1761385023914673400,2.84967333984375,0.008277999001741409,-0.015862389716133473,0.03719619658067822
1761385023924742400,2.859742431640625,0.0018961890101432798,-0.02179294880889356,0.030271292688325045
1761385023934811400,2.869811279296875,-0.03741173902750015,-0.023605624254047868,0.00522876749895513
1761385023944880400,2.87988037109375,-0.08739479033648967,-0.020022285874560473,-0.035493703511729834
1761385023954949400,2.889949462890625,-0.08183364907801151,-0.006747793759778142,-0.05756240052208304
1761385023965018600,2.9000185546875,-0.07260229487419129,0.02484320322498679,-0.049430166666582225
1761385023975086300,2.91008642578125,-0.05233458287119865,0.02904825369939208,-0.03528583291471004
1761385023985155300,2.9201552734375,-0.020735914036631584,-0.017733517350256443,0.004179696837440133
1761385023995224600,2.930224609375,0.018676058897376058,-0.07313399059809744,0.02024191997461021
1761385024005293300,2.940293212890625,0.020521394503116606,-0.14706841085888445,0.05031155261099338
1761385024015362600,2.950362548828125,-0.034410219123959536,-0.1513813056219369,0.05165785265341401
1761385024025431300,2.960431396484375,-0.052235214149951935,-0.07323686645068228,0.05049231600537896
1761385024035500500,2.97050048828125,-0.06253799697756766,0.008571355925127864,0.03269618174768984
1761385024045569500,2.980569580078125,-0.09954466233551501,0.030816213219985365,0.006502294566109776
1761385024055638500,2.990638427734375,-0.09189210175573825,-0.011896993216499686,-0.01419474876485765
1761385024065707500,3.00070751953125,-0.07212532501220703,-0.04481098243333399,-0.011126374170184136
1761385024075776300,3.0107763671875,-0.08113046924471855,-0.09108005472049116,0.0022989245921373365
1761385024085845500,3.020845458984375,-0.08620002759397029,-0.07885404874533414,-0.021838468451052903
1761385024095914200,3.030914306640625,-0.042054011875391005,-0.043373570041358465,-0.05139006856270134
1761385024105982500,3.040982421875,-0.023834464573860167,-0.011607654881104826,-0.06626205900199711
1761385024116051500,3.051051513671875,0.002803366982936859,-0.015245719122514129,-0.06271181917451321
1761385024126120400,3.061120361328125,0.01301321083009243,-0.06040661097206175,-0.05727474268712103
1761385024136189400,3.071189453125,0.012854805397987366,-0.09248604906089604,-0.07060827151276171
1761385024146258400,3.081258544921875,-0.018245850786566733,-0.10104279193878173,-0.07506503172591328
1761385024156327400,3.091327392578125,-0.06121463941931724,-0.08420563890635967,-0.1129835512317717
1761385024166396400,3.101396484375,-0.0987087960332632,-0.04936616151966154,-0.16491444867290556
1761385024176465400,3.11146533203125,-0.1057803418546915,-0.018483824260905383,-0.21592750061675905
1761385024186534400,3.121534423828125,-0.0871755946278572,0.022294395525008438,-0.24434410534910855
1761385024196603600,3.131603759765625,-0.07061725853681564,0.011817571304738522,-0.2210861254889518
1761385024206672400,3.14167236328125,-0.08149111925065516,-0.0021061784990131856,-0.18993439670428633
1761385024216741600,3.15174169921875,0.003707622346282005,-0.014391367315500973,-0.14568652804642915
1761385024226810400,3.161810302734375,0.05745441010296344,-0.05201916024647653,-0.0903863003026694
1761385024236878300,3.17187841796875,0.031474750193953516,-0.09164565271399915,-0.012251140416413545
1761385024246947600,3.181947509765625,0.03013210341334343,-0.06995667573623358,0.028868367087841032
1761385024257016300,3.192016357421875,0.03365910849571228,-0.0556765867754817,0.06694273474253713
1761385024267085600,3.20208544921875,0.0038134208083152768,-0.02765292688347399,0.0833903770007193
1761385024277154600,3.212154541015625,-0.009365209716558456,0.01879252488389611,0.12115772453285753
1761385024287223300,3.222223388671875,-0.014243044885993003,0.04997859432958066,0.14856091443896294
1761385024297292500,3.23229248046875,-0.01455167244374752,0.05002710964642465,0.18362784390598536
1761385024307361300,3.242361328125,-0.0069838675379753105,0.055891836961358785,0.2016760532286018
1761385024317430500,3.252430419921875,0.0054752165406942365,0.0629162557054311,0.20281535945683715
1761385024327499300,3.262499267578125,0.03421206620335579,0.04565590882487595,0.20862981788925825
1761385024337568500,3.272568603515625,0.06034370180368423,0.0363981050055474,0.19308840375579892
1761385024347637500,3.282637451171875,0.07716682631075382,0.055895417157933114,0.1802135784830898
1761385024357706500,3.29270654296875,0.07654781762957573,0.0814285754084587,0.1544366746045649
1761385024367775500,3.302775390625,0.07753507510125636,0.08946787028349935,0.14022767811864614
1761385024377843500,3.312843505859375,0.043674306553602216,0.08954670767337083,0.13304865333475172
1761385024387912400,3.322912353515625,0.02845627915561199,0.07320493694245815,0.14314159280396996
1761385024397981400,3.3329814453125,0.008918634992837906,0.09234576380737125,0.15392594860345124
1761385024408050400,3.343050537109375,0.015743512576818466,0.06068323595635593,0.17189108275249598
1761385024418119400,3.353119384765625,0.005669862329959869,0.04184862549640238,0.1481975610192865
1761385024428188700,3.363188720703125,0.046342064458131785,0.013592837348952889,0.09546543019786477
1761385024438257400,3.37325732421875,0.12686463093757627,-0.045416620176285505,0.060058455121517175
1761385024448326400,3.383326416015625,0.20148527989685533,-0.11339907323010265,0.029432357646152374
1761385024458395400,3.3933955078125,0.2663864988744259,-0.1799489361975342,0.01796433043144643
1761385024468464400,3.40346435546875,0.3073760963886976,-0.22575747830085455,0.022254794166982172
1761385024478533600,3.41353369140625,0.29125732075870037,-0.18925518226847052,0.045108796336129305
1761385024488602400,3.423602294921875,0.20025661488473415,-0.15579451895430682,0.03455693411827087
1761385024498671600,3.433671630859375,0.09064122491180897,-0.11556187728717922,-0.007254501172900199
1761385024508739600,3.443739501953125,0.018791209709644315,-0.016926877142488955,-0.03507745086103677
1761385024518808300,3.453808349609375,-0.03124211048185825,0.04614982982166111,-0.03904438173063099
1761385024528877600,3.463877685546875,-0.11832768873870372,0.06862966491617262,-0.01200659107081592
1761385024538946300,3.4739462890625,-0.19392156664431093,0.09048179656639695,0.022135040244832635
1761385024549015600,3.484015625,-0.2067237650722265,0.1169166528970003,0.06103928285241127
1761385024559084300,3.494084228515625,-0.23047464301586149,0.14437084233798086,0.08681275266483425
1761385024569153500,3.504153564453125,-0.24072832600474356,0.12850837955661118,0.08229483684897422
1761385024579222500,3.514222412109375,-0.24495851092040538,0.08727540174052119,0.05559161190576851
1761385024589291300,3.524291259765625,-0.24005437226593493,0.052276642138883465,0.018085180332139135
1761385024599360500,3.534360595703125,-0.21565935119986532,0.0342850583743304,0.00667217124029994
1761385024609429200,3.54442919921875,-0.24065759885609148,0.038989875064417714,-0.01755954902283847
1761385024619498500,3.55449853515625,-0.2122878289401531,0.035451910196617246,-0.041217853312194346
1761385024629567500,3.5645673828125,-0.14811550875902174,0.04709887417480349,-0.08116875542849301
1761385024639635500,3.574635498046875,-0.07957564101815223,0.06896927213408052,-0.10993709620796144
1761385024649704400,3.584704345703125,0.008595978909730911,0.05117679113820195,-0.12296791575998067
1761385024659773400,3.5947734375,0.08768822032511234,0.022331585730239748,-0.12556458118967712
1761385024669842400,3.604842529296875,0.1369201610058546,-0.0033379853162914513,-0.13066782261282206
1761385024679911400,3.614911376953125,0.180452428740263,-0.0316657427214086,-0.13488039880655706
1761385024689980400,3.62498046875,0.18359423389732837,-0.06695625181123614,-0.12467895746156572
1761385024700049400,3.63504931640625,0.15773206288814542,-0.09246851340420544,-0.1422008048225194
1761385024710118700,3.64511865234375,0.09312778103053569,-0.1205040098644793,-0.15062873368896543
1761385024720187400,3.6551875,0.02574351306557655,-0.1353627754960209,-0.14202968603931365
1761385024730256600,3.665256591796875,-0.0398275679975748,-0.12900646527186035,-0.1097674387294799
1761385024740325400,3.675325439453125,-0.0751022949963808,-0.10508059608750045,-0.08901040883958339
1761385024750394400,3.685394287109375,-0.07639584193825721,-0.09258088773749769,-0.06899689079336821
1761385024760463600,3.695463623046875,-0.051858197531104086,-0.09939429407939314,-0.029363676324114203
1761385024770532600,3.70553271484375,-0.020516133806109428,-0.0827813782569021,0.009509878884255885
1761385024780600600,3.7156005859375,0.02274550029337406,-0.09252287393994629,0.03992737511023879
1761385024790669600,3.725669677734375,0.030711364606022834,-0.07036299151480198,0.073480758209154
1761385024800738600,3.735738525390625,0.06364040526151657,-0.030274069167301056,0.07927373546212911
1761385024810807800,3.745807861328125,0.041566520619392394,-0.025766820875927805,0.05889006892926991
1761385024820876500,3.75587646484375,0.04911503630280494,0.022360738759487866,0.06708594260551035
1761385024830945500,3.765945556640625,0.024250644159317016,0.0012883593101054428,0.10499540202207863
1761385024841014500,3.7760146484375,-0.036660043877363206,-0.003591667816415429,0.15234299026094375
1761385024851083500,3.78608349609375,-0.05195113651156425,0.034487960535287854,0.1609958139244467
1761385024861152800,3.79615283203125,-0.0529553451180458,0.04120265574306249,0.14585852361246943
1761385024871221500,3.806221435546875,-0.1112269168227911,0.028304887986183164,0.12514803627803922
1761385024881290800,3.816290771484375,-0.12326163800954817,0.04018244584985077,0.10610613974295556
1761385024891359500,3.826359375,-0.10227554860413074,0.08913630024157464,0.0894391556456685
1761385024901428700,3.8364287109375,-0.07000584864020347,0.0963649363208562,0.07811616292484104
1761385024911496700,3.84649658203125,-0.034405542948842044,0.0533509203068912,0.07466397664435208
1761385024921565400,3.8565654296875,0.007613397613167762,-0.008668313493579625,0.06745791772305965
1761385024931634700,3.866634765625,0.04330430419743061,-0.019219006667658686,0.053610009634494776
1761385024941703700,3.87670361328125,0.05524433283805847,-0.05408420301750302,0.012666808545216917
1761385024951772700,3.886772705078125,0.060277650830149646,-0.0778580234453082,-0.03271532483957708
1761385024961841700,3.896841552734375,0.08340133678615093,-0.06561433568298816,-0.05263517325296998
1761385024971910700,3.90691064453125,0.09306815979778767,-0.05725910672657191,-0.04784750058501958
1761385024981979600,3.916979736328125,0.12793079886436462,-0.07344210669919848,-0.051879532580077645
1761385024992048400,3.92704833984375,0.17324293575286864,-0.07257175360545516,-0.04723360647037625
1761385025002117600,3.93711767578125,0.17447686146199703,-0.0706642394836992,-0.054081864929944275
1761385025012186600,3.9471865234375,0.08846797252595424,-0.08195895595811307,-0.0679753657259047
1761385025022255600,3.957255615234375,0.03405599885880947,-0.03782894152626395,-0.08729929407276213
1761385025032324600,3.96732470703125,0.004535889863967895,0.04164411590024829,-0.08555230427496134
1761385025042392600,3.977392578125,-0.050721302455663676,0.08105309315957128,-0.050852454554662106
1761385025052461600,3.987461669921875,-0.10542436802387237,0.048943844454362985,-0.016899989135563374
1761385025062530600,3.997530517578125,-0.14867898786067962,0.008509615800529717,0.03949431745521724
1761385025072599600,4.007599609375,-0.1762029546022415,0.015888254809752107,0.05478489863276481
1761385025082668500,4.01766845703125,-0.1438952607154846,0.017261515924334524,0.05373429360128939
1761385025092737800,4.02773779296875,-0.14433949735164642,0.02125840354077518,0.06179441206865012
1761385025102806500,4.037806640625,-0.14885142181813715,0.029632775589078664,0.06770232093818486
1761385025112875800,4.047875732421875,-0.11562778213024139,0.027934885630011556,0.07601626803614199
1761385025122944500,4.057944580078125,-0.08907003007233143,0.004076894050091505,0.06889438026696443
1761385025133013800,4.068013671875,-0.07376666247844696,-0.03955832260213792,0.0948296895775944
1761385025143082500,4.07808251953125,-0.07387947520315646,-0.0326290347956121,0.08396927286721766
1761385025153151500,4.0881513671875,-0.024342998617887496,0.032507381177321076,0.04775229658223688
1761385025163220700,4.098220703125,0.011590484550595283,0.08710209100022911,0.005694777575507759
1761385025173288700,4.108288818359375,0.04749941779971122,0.07184680033177136,-0.02041091986596584
1761385025183357700,4.118357666015625,0.041896775487065316,0.03671111647747457,-0.018851488529518245
1761385025193426700,4.1284267578125,0.03898351838886738,0.015977613593637943,-0.008613368435949087
1761385025203495400,4.138495361328125,0.08388122925758361,-0.0063860477752983565,-0.010595847490057349
1761385025213564700,4.148564697265625,0.10707739592790604,-0.03154978819154203,-0.021438436282798647
1761385025223633400,4.15863330078125,0.12021861705183982,-0.05712817382328212,-0.021504048864915967
1761385025233702700,4.16870263671875,0.11628536925613879,-0.05860526063852012,-0.021712650114297866
1761385025243771600,4.178771728515625,0.10004968924820423,-0.032008345614001156,-0.01108421552889049
1761385025253840600,4.188840576171875,0.08129179728627205,-0.02677300224378705,-0.035361601564660665
1761385025263909600,4.19890966796875,0.03771335232257843,-0.054606034934520715,-0.0651001756157726
1761385025273978600,4.208978515625,-0.014109773895144461,-0.09021649669371545,-0.06762085319980979
1761385025284047600,4.219047607421875,-0.05355097292363643,-0.07444039702154695,-0.05586984432525932
1761385025294116600,4.22911669921875,-0.08227788571417331,-0.02996471095718443,-0.028328853383660316
1761385025304185600,4.239185546875,-0.10444997003376483,0.008782514457777143,0.009660174075141548
1761385025314253600,4.249253662109375,-0.13882687141001224,0.02862403693795204,0.03180091340839863
1761385025324322800,4.25932275390625,-0.13301380121707915,0.05135192850939929,0.05467471625655889
1761385025334391600,4.2693916015625,-0.07753332153558731,0.05779715912602842,0.07378529411368072
1761385025344460800,4.279460693359375,-0.09197919551730155,0.03717975690253079,0.08294774779975414
1761385025354529500,4.289529541015625,-0.07003799734413624,0.022604484387487172,0.07638480908758938
1761385025364598500,4.2995986328125,-0.03231996884644031,-0.024421762942522764,0.03684175711981952
1761385025374667500,4.30966748046875,-0.026065000104904174,-0.0312829539489001,0.03827098620533943
1761385025384736500,4.319736572265625,-0.034221418553590774,-0.006119359663128853,0.04206833266168832
1761385025394805800,4.3298056640625,-0.02925239796936512,0.011680354791134596,0.02673844238705933
1761385025404874500,4.33987451171875,0.02209726551771164,0.019852993722259998,0.020923399432748555
1761385025414943700,4.34994384765625,0.0906049845546484,0.002514174778014421,0.020095058849826455
1761385025425012500,4.360012451171875,0.14664602072834967,-0.015998217990249395,0.040638957445696
1761385025435080400,4.37008056640625,0.2059837603598833,-0.04053293978795409,0.04784180149659514
1761385025445149700,4.380149658203125,0.24884616600871085,-0.058214142429083585,0.05032572726681828
1761385025455218400,4.390218505859375,0.27864743003249165,-0.0548705310896039,0.06363368325978518
1761385025465287700,4.40028759765625,0.25962884130775926,-0.07548734879121184,0.07490596870668231
1761385025475356700,4.410356689453125,0.17959376608431338,-0.054461219636350866,0.07053776355981826
1761385025485425700,4.42042578125,0.10776362462639807,-0.053451604202389716,0.03731500065475702
1761385025495494700,4.43049462890625,0.010162497574090957,-0.05400010493062436,0.030569764178246257
1761385025505563400,4.4405634765625,-0.08116027986109256,-0.016733692657947538,0.03980126451253891
1761385025515632600,4.450632568359375,-0.16380641436576843,0.03757255561240017,0.05368117517456412
1761385025525701600,4.46070166015625,-0.18271043680012225,0.0886358764387667,0.05292758032828569
1761385025535770600,4.4707705078125,-0.2058791309416294,0.09214541892968117,0.05807254200130701
1761385025545839600,4.480839599609375,-0.2442904024004936,0.09449578144811094,0.04351246705539524
1761385025555908600,4.49090869140625,-0.231663560539484,0.10828136489018797,0.030621786626428366
1761385025565977600,4.5009775390625,-0.20088029974102972,0.1077050993721932,0.0267294553630054
1761385025576045600,4.511045654296875,-0.16887831080257892,0.08246639402359723,0.019157047347351908
1761385025586114600,4.521114501953125,-0.12873100933134554,0.018176658007875084,0.013657134756818413
1761385025596183600,4.53118359375,-0.06956745722293853,0.0022401801422238347,-0.004273147274553775
1761385025606252500,4.54125244140625,0.013152327039837836,-0.025898922822996974,-0.03360935106985271
1761385025616321500,4.551321533203125,0.021512743628025053,-0.06117737614884972,-0.08523797762878238
1761385025626390800,4.561390869140625,0.06080898122787475,-0.06735438428334892,-0.13887626350969076
1761385025636459500,4.57145947265625,0.10190788433551788,-0.06161481771804392,-0.18451222552508115
1761385025646528800,4.58152880859375,0.08892389959990978,-0.06764584151059388,-0.21746194364242255
1761385025656597500,4.591597412109375,0.10696049154996871,-0.04092515397593379,-0.21883586234413085
1761385025666666500,4.60166650390625,0.13360709093511103,0.008282382915914058,-0.2137587782755494
1761385025676735700,4.61173583984375,0.11189970151782035,0.011297127627208829,-0.18890585737414656
1761385025686804500,4.621804443359375,0.08048048090338707,-0.02425809681341052,-0.14404036827459932
1761385025696872700,4.631872802734375,0.051266076856851577,-0.07009528048932552,-0.08758242186307906
1761385025706941700,4.641941650390625,0.0011865794360637664,-0.09784991418160498,-0.02796279655024409
1761385025717010400,4.652010498046875,-0.016246201401948927,-0.1119384991582483,0.01900989396162331
1761385025727079700,4.66207958984375,-0.024638766694068906,-0.08698277546949684,0.03628178514949977
1761385025737148400,4.6721484375,-0.02979424976110458,-0.0363339537281543,0.061414034448936575
1761385025747217700,4.6822177734375,-0.06070201372206211,-0.032757994937524196,0.07678082266785204
1761385025757290000,4.6922900390625,-0.10452712692320346,-0.06108399877697229,0.08917663225196301
1761385025767359000,4.70235888671875,-0.12544833439886569,-0.0821077167790383,0.09881430223435163
1761385025777428000,4.712427978515625,-0.11454933924376964,-0.08713665085695683,0.11174012704193591
1761385025787497000,4.7224970703125,-0.0975847604393959,-0.07242547700256109,0.1274770637474954
1761385025797566000,4.73256591796875,-0.07919745535552501,-0.07328662387654185,0.1412204885482788
1761385025807635000,4.742635009765625,-0.07671674445569515,-0.05944397648498415,0.16274609165787696
1761385025817704000,4.752703857421875,-0.06316986514031887,-0.03123831108957529,0.20383454643674193
1761385025827773200,4.762773193359375,-0.04900631523132324,0.001241670624166727,0.20852847640663383
1761385025837841200,4.772841064453125,-0.01950607998073101,0.010972717978432774,0.1957723821427673
1761385025847910000,4.782909912109375,-0.03027881840765476,-0.012279855054244398,0.1721483454491943
1761385025857979100,4.792979248046875,-0.05618599760234356,-0.007820172231644391,0.13948730808012186
1761385025868048000,4.8030478515625,-0.03632160570323467,-0.0025024112749844787,0.11325666908472776
1761385025878117000,4.8131171875,-0.02014554692804813,0.019819895170256493,0.08974551818110048
1761385025888185900,4.823185791015625,0.010554127240180969,0.06633607408627867,0.05051788883805275
1761385025898254800,4.8332548828125,0.06845160493552685,0.1026877826668322,0.019157777999714017
1761385025908324000,4.843323974609375,0.07573883933424949,0.10966931211724877,0.0053889264967292546
1761385025918392800,4.853392822265625,0.05245733246803284,0.11726444342136383,0.008189955392107366
1761385025928462000,4.863462158203125,0.05711421836316585,0.18408559761084614,-0.02105177505277097
1761385025938530800,4.87353076171875,0.07204407646954059,0.20795995580367743,-0.057319531676918264
1761385025948600000,4.88360009765625,0.05386310761272907,0.18668796212896704,-0.08177760804183781
1761385025958669000,4.8936689453125,0.09192658854722977,0.16517594915330408,-0.07982428201697767
1761385025968736800,4.90373681640625,0.09138824388682841,0.1668941512480378,-0.07665222785212099
1761385025978806000,4.913805908203125,0.11848784773647784,0.1320252285711467,-0.07442687995284795
1761385025988875000,4.923875,0.1272819795668125,0.08082133023031056,-0.0822973210670054
1761385025998944000,4.933944091796875,0.13129355329573153,0.03856974995620548,-0.08236636771522463
1761385026009013000,4.944012939453125,0.11437456719875334,0.025163594285771248,-0.10105060991905629
1761385026019081000,4.9540810546875,0.06469137561917304,0.026404241996631026,-0.09801080383174121
1761385026029150000,4.96414990234375,0.016156185030937194,0.01478431215584278,-0.07033259637653827
1761385026039219000,4.974218994140625,-0.04130874646604061,0.00360416197180748,-0.06027480128593742
1761385026049288000,4.984287841796875,-0.07552198171317577,-0.02233954984098673,-0.040553105793148275
1761385026059357000,4.99435693359375,-0.13487901056706905,-0.06484715070277453,0.0007892506815493106
1761385026069426200,5.00442626953125,-0.18557284049391745,-0.11103577816486358,0.029165888729691503
1761385026079495000,5.014494873046875,-0.17537001090943813,-0.1077921200685203,0.02402472644895315
1761385026089564200,5.024564208984375,-0.12065408585965633,-0.08951784690506756,-0.013322276779264211
1761385026099633000,5.0346328125,-0.11208324139118193,-0.0811943282611668,-0.020446502636000514
1761385026109702000,5.044701904296875,-0.11717267348468303,-0.06850136236138642,0.033065818777680396
1761385026119771000,5.05477099609375,-0.10464987652003764,-0.052666006782650945,0.06835055571384728
1761385026129839900,5.06483984375,-0.05637655173838138,-0.07260083356946706,0.07565057652890682
1761385026139909000,5.0749091796875,-0.05754442647397518,-0.09273395940735936,0.09344634546041489
1761385026149977000,5.08497705078125,-0.05218669883310795,-0.09977898254804313,0.061837082166597244
1761385026160046000,5.095046142578125,-0.00931494083404541,-0.1145153639089316,0.03778736740685999
1761385026170115000,5.105114990234375,-0.0027279636591672897,-0.1091247569117695,0.0006437777962535619
1761385026180183800,5.115183837890625,0.022049919244647026,-0.10775010755769908,-0.02189779742285609
1761385026190253000,5.125253173828125,0.035460020437836644,-0.09800824654847383,-0.037078196224197744
1761385026200321800,5.13532177734375,0.055450669065117836,-0.10527633785530924,-0.05230060753636062
1761385026210391000,5.14539111328125,0.06178045660853385,-0.11424209992550313,-0.0396128292683512
1761385026220460000,5.1554599609375,0.0789542942494154,-0.08893522471152246,-0.03336706674657762
1761385026230529000,5.165529052734375,0.08099486016631126,-0.08207308385707437,-0.02712736863940954
1761385026240598000,5.175597900390625,0.06220774210989475,-0.07402670165412127,-0.03247223679870367
1761385026250667000,5.1856669921875,0.016421557968854902,-0.06633183630257844,-0.021698402393236754
1761385026260736000,5.195736083984375,-0.05650573107600212,-0.03710523036159575,0.011177227574586867
1761385026270805000,5.205804931640625,-0.10350830526947974,-0.011445961513370274,0.03622888591848314
1761385026280873000,5.215873046875,-0.10592471876144409,-0.01818250322677195,0.03583352992534637
1761385026290942000,5.22594189453125,-0.08681377557814121,-0.03740903561376035,0.013165405717119574
1761385026301011200,5.23601123046875,-0.04280219989418983,-0.0658441258508712,-0.010117781649529933
1761385026311080000,5.246079833984375,0.0015144962161779403,-0.060974912379309534,-0.03075805329196155
1761385026321149000,5.25614892578125,0.06360358038246632,-0.05333221560642123,-0.042054961723461744
1761385026331218000,5.266218017578125,0.07682254291772841,-0.0783892807777971,-0.04347863785102963
1761385026341287000,5.276286865234375,0.05847790793180466,-0.07658113537728786,-0.06253361306339501
1761385026351356000,5.28635595703125,0.0638303748756647,-0.02869133002050221,-0.07818396746404468
1761385026361425000,5.2964248046875,0.03947451677620411,0.0301163943875581,-0.06227919991090893
1761385026371494100,5.306494140625,0.022027707412838934,0.07484284034259617,-0.04565642028152942
1761385026381563000,5.31656298828125,0.001617372068762779,0.0950200975831598,-0.032100042485445734
1761385026391632100,5.326632080078125,0.0017336919248104093,0.0910877265702933,-0.007376666247844696
1761385026401700900,5.336700927734375,-0.006724339818954468,0.07454020413421095,0.034309389097988606
1761385026411768800,5.346768798828125,0.009034370326995849,0.08154087667651475,0.06826119692996144
1761385026421838000,5.356838134765625,-0.0008989946663379669,0.08938158023953437,0.1084353864081204
1761385026431906800,5.36690673828125,-0.010315642309188843,0.10398644417524337,0.15194354261457918
1761385026441976000,5.37697607421875,-0.010540098714828491,0.13057590654566884,0.16256167500168084
1761385026452045000,5.387045166015625,-0.018286182796955108,0.1261125704612583,0.15478132332377134
1761385026462114000,5.397114013671875,-0.005005845463275909,0.12484591152630746,0.14582688636519014
1761385026472183000,5.40718310546875,0.02092646817266941,0.11531418613642454,0.13575688938014208
1761385026482251800,5.417251708984375,-0.003361585387587547,0.061094008714333174,0.11637326673530042
1761385026492321000,5.427321044921875,-0.010129764348268509,0.031062735326960682,0.08332162261344492
1761385026502390000,5.43739013671875,0.018373861080408095,0.0017770196098834275,0.0818038384616375
1761385026512459000,5.447458984375,-0.009007482320070266,0.032662571739032864,0.08243205336257815
1761385026522528000,5.457528076171875,0.008752630776166915,0.08099617534056305,0.05856580541096627
1761385026532597000,5.467596923828125,0.023861352580785748,0.05289462790675461,0.0536149050053209
1761385026542665000,5.4776650390625,0.009217910200357437,0.016509674643725155,0.033773455590382216
1761385026552734000,5.48773388671875,0.05235387209355831,0.01654744937084615,0.04059701800011098
1761385026562803000,5.497802978515625,0.09492518584132194,0.007160685409605502,0.04661291728876531
1761385026572872000,5.507871826171875,0.06279635565280914,-0.049426659535244104,0.027071912125125525
1761385026582941000,5.51794091796875,0.03318155411183834,-0.08184110173210501,-0.006474968167766928
1761385026593010000,5.528010009765625,0.021009470281004906,-0.05649374837726354,-0.04319843267016112
1761385026603079200,5.5380791015625,-0.013213117316365241,-0.04156038313955068,-0.04450016291849315
1761385026613148000,5.54814794921875,-0.04763151974678039,-0.04612856783792376,-0.03544474980346858
1761385026623217000,5.558216796875,-0.05931552779972553,-0.08824607340358197,-0.02320434997677803
1761385026633286000,5.568285888671875,-0.08023439718782902,-0.10419935627356171,-0.01326543202549219
1761385026643355000,5.57835498046875,-0.09248422242999076,-0.1229775603711605,-0.008798442679271101
1761385026653424000,5.588424072265625,-0.08890461037755013,-0.13090981467515228,-0.021980434205010533
1761385026663492900,5.598492919921875,-0.12934241922795772,-0.12394319053292274,-0.03447663542367518
1761385026673561000,5.60856103515625,-0.1275613810300827,-0.09831950445473193,-0.0329598741851747
1761385026683630000,5.618630126953125,-0.09414543364048003,-0.08011610457040369,-0.03563347730860114
1761385026693698800,5.62869873046875,-0.09579963058829306,-0.08922346706837415,-0.01750949933603406
1761385026703768000,5.63876806640625,-0.070588616964221,-0.11523410663753747,-0.02259732399433851
1761385026713836800,5.6488369140625,-0.053176294392347334,-0.13081022675819695,-0.0239001502212137
1761385026723906000,5.658906005859375,-0.03549859888255596,-0.1355261493641883,-0.024774668033421036
1761385026733975000,5.66897509765625,-0.000018704700469970702,-0.09285575915612279,-0.05190810108743608
1761385026744044000,5.6790439453125,0.04935702836513519,-0.07322532214336097,-0.05798354854360222
1761385026754113000,5.689113037109375,0.09849486102163792,-0.06209843651652336,-0.06812354202494025
1761385026764179000,5.699178955078125,0.11507891607582568,-0.05320179415978491,-0.04126761073805391
1761385026774248000,5.709248046875,0.09231003490686417,-0.01785034866295755,-0.0029700287867337463
1761385026784317000,5.71931689453125,0.08147299907207489,0.021123086723312735,0.02485036361813545
1761385026794386000,5.729385986328125,0.044396775609254834,0.02767506565004587,0.043312049112468956
1761385026804454000,5.739453857421875,-0.010125088173151015,0.05858955161273479,0.06348755278736352
1761385026814523000,5.74952294921875,-0.012360299879312515,0.07217011400200427,0.06830569365881382
1761385026824592000,5.759591796875,-0.023396657678484915,0.0761777422081679,0.0993433676097542
1761385026834661000,5.7696611328125,-0.05030512287020683,0.06887815978452563,0.10890453828983009
1761385026844729900,5.779729736328125,-0.027440964633226393,0.052624651858955616,0.09882862302064895
1761385026854799000,5.789799072265625,-0.053522915872931474,0.05385134410969913,0.09059417089968919
1761385026864867800,5.799867919921875,-0.07284370241463184,0.0579111408945173,0.07473331555351614
1761385026874937000,5.80993701171875,-0.039052491971850394,0.07827705257497727,0.04820033261068165
1761385026885005800,5.820005859375,0.0034428339302539825,0.08360022035911678,0.015550108896568417
1761385026895074800,5.83007470703125,-0.006985036581754684,0.06215783855356276,0.0061808805920183655
1761385026905144000,5.84014404296875,0.0430085361212492,0.06704056909382343,-0.006092836982384324
1761385026915212800,5.850212890625,0.06214870539903641,0.0704961163751781,-0.024213307823613285
1761385026925282000,5.860281982421875,0.06694763011336326,0.05567454094886779,-0.017379881606996057
1761385026935350000,5.87035009765625,0.058953124228119845,0.02890446131452918,-0.020478943600878118
1761385026945418800,5.880418701171875,0.05986264028847217,0.013430705589801072,-0.038879619622975585
1761385026955488000,5.890488037109375,0.07355448103249072,-0.02178315806724131,-0.04521941710375249
1761385026965556700,5.900556640625,0.050911856591701506,-0.04529708544984459,-0.04681969190724194
1761385026975626000,5.9106259765625,0.020252514433860776,-0.04408997468240559,-0.03031615474335849
1761385026985695000,5.920695068359375,0.020323826104402542,-0.03388181133568287,-0.027640578858554362
1761385026995764000,5.930763916015625,0.0157768303245306,-0.026151874670758843,-0.02968757451623678
1761385027005833000,5.9408330078125,-0.022888708156347273,-0.05430215661711991,-0.03471270920187235
1761385027015902000,5.95090185546875,-0.049782560300827026,-0.065703694466874,-0.0497884785849601
1761385027025971000,5.960970947265625,-0.04686404250562191,-0.059016910179331895,-0.027856632762029765
1761385027036040000,5.9710400390625,-0.07328618548512458,-0.03893704889863729,0.005611117880046367
1761385027046109000,5.98110888671875,-0.0848836842983961,-0.017010244577005503,0.02654065479263663
1761385027056178000,5.991177978515625,-0.03103694329857826,0.0018812106367200611,0.046208428141102195
1761385027066246100,6.00124609375,-0.0187613990932703,0.024828809373453258,0.042841728186979885
1761385027076315000,6.01131494140625,-0.03313011618554592,0.01795066723227501,0.04115180233865976
1761385027086384000,6.021384033203125,-0.036630817782878876,0.025727804039791226,0.028272812347486614
1761385027096452900,6.031452880859375,-0.045159576675295826,0.03718742875233293,0.005201952557265758
1761385027106521900,6.04152197265625,-0.044915831047296524,0.031567250782996416,0.0010568155765533446
1761385027116591000,6.051591064453125,-0.048774260041117665,0.031328254395350814,0.02032915986664593
1761385027126659800,6.061659912109375,-0.040886721661686894,0.06071991470493376,0.054484015990048644
1761385027136729000,6.07172900390625,-0.01587795261144638,0.06647950114496051,0.05355674507729709
1761385027146797800,6.0817978515625,0.025005261918902396,0.05264605997316539,0.052879357272386546
1761385027156867000,6.0918671875,0.02417640987932682,0.030653204677999018,0.041379546679928894
1761385027166935800,6.101935791015625,0.04315525111556053,0.012715469992533325,0.02668985400497913
1761385027177005000,6.112005126953125,0.05273264227807521,-0.0021801935832947493,-0.003010579992830753
1761385027187074000,6.122073974609375,0.04873977324962616,-0.017381342911720273,-0.021837810863927005
1761385027197141800,6.132141845703125,0.048291444960236546,0.0023874065931886435,-0.004553060194477439
1761385027207211000,6.1422109375,0.044676177072525025,-0.00646269320808351,-0.006802811882644891
1761385027217280000,6.152280029296875,0.013162263911962508,-0.02749013753719628,-0.02630355810113251
1761385027227349000,6.162348876953125,-0.018145897543430326,-0.053703606202080846,-0.05664433582909405
1761385027237418000,6.17241796875,-0.016354337951540947,-0.04625197502188384,-0.09160970461778342
1761385027247486700,6.18248681640625,-0.05701601868569851,-0.034099107348173854,-0.050013738708198065
1761385027257556000,6.192555908203125,-0.1060416231393814,-0.006300999840348959,-0.0037508039008826016
1761385027267625000,6.202625,-0.0779652832120657,-0.01630326535142958,0.02965579113848507
1761385027277694000,6.21269384765625,-0.10855857439637183,-0.05270158955268561,0.04627301780991256
1761385027287763000,6.222762939453125,-0.108651513376832,-0.06119082015231252,0.05599836607575416
1761385027297832000,6.23283203125,-0.09844868379235266,-0.05431720805577933,0.06622932577617466
1761385027307901000,6.24290087890625,-0.06967500925064087,-0.038447365685552355,0.03788680919334292
1761385027317970000,6.252969970703125,-0.039783144333958624,-0.03263824101537466,-0.005665989872440696
1761385027328038000,6.263037841796875,-0.00881517461836338,-0.028226562052965164,-0.03365947382189333
1761385027338107000,6.27310693359375,0.039464579904079436,-0.011389409020543098,-0.04245177902132272
1761385027348176100,6.283176025390625,0.07256020929813385,-0.008354059912636876,-0.05203033922761678
1761385027358244900,6.293244873046875,0.13362462659180163,-0.046190234897285694,-0.04812675591781735
1761385027368314000,6.303314208984375,0.15340952351391315,-0.06405665791220963,-0.020539003225043415
1761385027378382800,6.3133828125,0.12973346437215805,-0.05948160508163273,0.006423603306710719
1761385027388452000,6.3234521484375,0.12595160774588585,-0.05878339368440211,-0.011985621348023414
1761385027398520800,6.333520751953125,0.13571546139121055,-0.036950551256537435,-0.048886853570118544
1761385027408589800,6.34358984375,0.12300503289997577,-0.02821830568127334,-0.07937880327180027
1761385027418659000,6.3536591796875,0.08111877880692482,-0.014250278344377875,-0.07776574205197394
1761385027428727800,6.363727783203125,0.027874095353484153,-0.021812822553142906,-0.041809681725502014
1761385027438797000,6.373797119140625,-0.0336713834553957,-0.009504398991540073,-0.040752793083712456
1761385027448865800,6.38386572265625,-0.033466800794005394,0.042617198716104025,-0.029689693408086894
1761385027458933800,6.393933837890625,-0.03259410961270332,0.07481164148673415,-0.008946618978306651
1761385027469003000,6.4040029296875,-0.05659691649079322,0.05572327546142041,0.032883521013334395
1761385027479071700,6.41407177734375,-0.07949088534414768,0.05590126237682998,0.04215082331337035
1761385027489141000,6.42414111328125,-0.06232698457539081,0.0009513093754649162,0.03125402011536062
1761385027499210000,6.4342099609375,-0.08710662104487418,-0.04175079114511609,0.05990377601645887
1761385027509279000,6.444279052734375,-0.110686234074831,-0.03340579132176935,0.05681465089470148
1761385027519348000,6.454347900390625,-0.10942834296822547,0.000028860768303275108,0.060220075424015515
1761385027529417000,6.4644169921875,-0.08828326360881328,0.03889152925647795,0.04030300348959863
1761385027539486000,6.47448583984375,-0.05786942064464092,0.027061098470166325,0.037770197076350445
1761385027549555000,6.484554931640625,-0.049989481049776074,0.025160306350141763,0.04589695103913545
1761385027559624000,6.4946240234375,-0.08199497711956501,0.0162649061024189,0.0415321068931371
1761385027569693000,6.50469287109375,-0.0813373899936676,0.02749488677754998,0.0491883207347244
1761385027579762000,6.514761962890625,-0.07436404384970664,0.016466200828179716,0.0670789283428341
1761385027589830000,6.524829833984375,-0.10127192451953887,-0.005557780257612466,0.06007292203828692
1761385027599899100,6.534899169921875,-0.08240706505179404,-0.02352057631909847,0.05108779768049717
1761385027609967900,6.5449677734375,-0.06459960568249225,-0.026295374794676897,0.034425855084508655
1761385027620036900,6.555036865234375,-0.0538180994272232,-0.024089827574416994,-0.003535407584533095
1761385027630105900,6.56510595703125,-0.0454962612837553,-0.042146804725378746,0.012993483216315507
1761385027640174800,6.5751748046875,-0.03523673307597637,-0.04735284893587231,0.004133738803863525
1761385027650244000,6.585244140625,-0.02264087087512016,-0.07069383090436458,0.019724325841292738
1761385027660312800,6.595312744140625,0.027423428976535796,-0.05034487035870552,0.013127338729053735
1761385027670382000,6.605382080078125,0.062492404270172115,-0.015693901281431315,0.006274184898659586
1761385027680450800,6.615450927734375,0.03520809150338173,-0.03181735308654606,-0.004614873384311795
1761385027690520000,6.62552001953125,-0.015410335099697112,-0.0366579980507493,-0.011634396757557987
1761385027700589000,6.635589111328125,-0.051637248256802555,-0.010501520270109177,0.008681830562278628
1761385027710657800,6.64565771484375,-0.0587198999941349,0.0006526186898350715,0.020399813950061796
1761385027720726000,6.65572607421875,-0.07738602201938628,-0.022759309623017906,0.032785102140158416
1761385027730795000,6.665794921875,-0.062060442593693727,-0.012424231960996984,0.03135207366235554
1761385027740864000,6.675864013671875,-0.009679097971320152,-0.011869447622448206,0.047755803713575004
1761385027750933000,6.68593310546875,0.03508943355977535,-0.024430165444687006,0.05305895162299275
1761385027761001500,6.69600146484375,0.09302899683117866,-0.07454889889732003,0.04049998736642301
1761385027771070500,6.706070556640625,0.1465191794782877,-0.13665515339411793,0.017252455835044384
1761385027781139500,6.716139404296875,0.19679215364456176,-0.1629982397880405,0.004779416296258569
1761385027791208400,6.72620849609375,0.17877894257009028,-0.1905864308722317,-0.06677176208980382
1761385027801277400,6.73627734375,0.15693594407439232,-0.23835531326308845,-0.07546564841605723
1761385027811346400,6.746346435546875,0.09957038129866122,-0.21351729766987262,-0.051143546455726024
1761385027821415400,6.75641552734375,-0.013174538871645927,-0.18234642579331992,-0.042591114426776766
1761385027831484700,6.766484619140625,-0.08901742310225963,-0.12663695966154337,0.008192074283957481
1761385027841553400,6.776553466796875,-0.1294610771715641,-0.03054426441080868,0.0421876481924206
1761385027851621400,6.786621337890625,-0.21109598880708216,0.044295287996158,0.056551031522452826
1761385027861690600,6.796690673828125,-0.26146307099759575,0.023692498819902538,0.08404496845193207
1761385027871759400,6.80675927734375,-0.26774258965849873,0.06057780282050371,0.05103957462459802
1761385027881828600,6.81682861328125,-0.15728957981765268,0.0944078109037131,-0.07053272205851972
1761385027891897300,6.8268974609375,-0.11515841105282305,0.12344970792755484,-0.10342800657488405
1761385027901966300,6.83696630859375,-0.1149824699640274,0.13018303477056323,-0.07637611432448028
1761385027912035600,6.84703564453125,-0.07931260616779327,0.09746792912669479,-0.03997260249145329
1761385027922104300,6.857104248046875,-0.0266477684289217,0.09266184401921927,-0.037684491554275154
1761385027932173600,6.867173583984375,-0.024635844084620474,0.11263539538122713,-0.05560483671352267
1761385027942242300,6.8772421875,0.03181318836808204,0.15397658281214535,-0.09572335048168897
1761385027952311600,6.8873115234375,0.09403437448143959,0.15459771038517356,-0.1217947803273797
1761385027962380300,6.89738037109375,0.09751987850964068,0.1723414568684995,-0.06888115545921027
1761385027972449500,6.907449462890625,0.10320143127739428,0.16253756347373127,-0.0426804732106626
1761385027982517500,6.917517578125,0.1464355928480625,0.1307532358739525,-0.01574402403347194
1761385027992586500,6.92758642578125,0.13954115715920926,0.10062390893958509,0.00659757163412869
1761385028002655500,6.937655517578125,0.10503683001101016,0.05011939103975892,0.03160612148866057
1761385028012724500,6.947724365234375,0.08108663010299205,0.002883957938477397,0.05720357714705169
1761385028022793500,6.95779345703125,0.039786651465296745,-0.021606194065138695,0.06269932501912116
1761385028032862500,6.967862548828125,0.03352934463620186,0.0007733955252915621,0.045949411878734824
1761385028042931500,6.977931396484375,-0.019471008667349816,0.005304463083669543,0.0514937481328845
1761385028053000400,6.98800048828125,-0.06441606580913066,0.003307517112791538,0.03767703890018165
1761385028063069400,6.9980693359375,-0.056010056513547894,0.013193681963533162,0.031019407641887663
1761385028073138400,7.008138427734375,-0.07527297538816928,-0.02416040859259665,0.04508936098329722
1761385028083207400,7.01820751953125,-0.08883739036023616,-0.024786066210269925,0.07524141120612621
1761385028093276400,7.0282763671875,-0.06309504633843899,-0.021036942809820176,0.08168554584421217
1761385028103344400,7.038344482421875,-0.05556348178982734,-0.03501965625919402,0.08891045559644699
1761385028113413400,7.048413330078125,-0.057548518127202984,-0.05475326138548553,0.1374858320645988
1761385028123482400,7.058482421875,-0.0613777210265398,-0.07637647965066134,0.11815518171600997
1761385028133551400,7.06855126953125,-0.034027357286214824,-0.0626266251090914,0.11504947078563273
1761385028143620600,7.07862060546875,-0.02695873407423496,-0.03653451780155301,0.12024024436175823
1761385028153689300,7.088689453125,-0.034792496439814566,-0.015803060744330286,0.10644450485184788
1761385028163758600,7.098758544921875,-0.030471126109361646,-0.062307987613976,0.11356602729484438
1761385028173827300,7.108827392578125,-0.03301847250461578,0.005373655862361193,0.08784099973402917
1761385028183896600,7.118896484375,0.022246903121471404,0.03628500001989305,0.019554010775685308
1761385028193965300,7.12896533203125,0.03969137439727783,0.01939509388692677,0.025643486757203935
1761385028204034300,7.139034423828125,-0.006240355694293975,0.016085896273702383,0.024826032894477247
1761385028214103600,7.149103515625,0.04179039250314236,0.0011579378634691238,0.054960912786796684
1761385028224172300,7.15917236328125,0.051992637565732,0.000003872457519173622,0.08368219955414533
1761385028234240500,7.169240478515625,0.07761340103447437,-0.005314399955794215,0.08634645032733679
1761385028244309500,7.1793095703125,0.0804091692328453,-0.015609510933607816,0.06413987921625375
1761385028254378500,7.18937841796875,0.03755027071535587,-0.023752339248359202,0.023669848596677184
1761385028264447500,7.199447509765625,0.03300502850115299,-0.032971637688204644,-0.01581497037783265
1761385028274516200,7.20951611328125,0.0627805735617876,-0.04396751734651625,-0.04831351066157222
1761385028284585500,7.21958544921875,0.007333996149897575,-0.07810118455141782,-0.023342297142744065
1761385028294654500,7.229654541015625,-0.016578794357180595,0.027366511157527564,-0.0357189636349678
1761385028304723500,7.239723388671875,0.001599251890182495,0.033878669530525804,-0.0019978958189487456
1761385028314792400,7.24979248046875,-0.051419806113839145,0.02918349745161831,0.017326836245507002
1761385028324861400,7.259861328125,-0.07426935130357742,0.04931750007234514,0.025211013624072073
1761385028334930400,7.269930419921875,-0.030692075383663177,0.04091843197420239,0.019084931959211824
1761385028344999400,7.27999951171875,-0.03431844918727875,0.012613617053255439,0.06135375562906265
1761385028355068400,7.290068359375,0.028628713113069533,0.026174524893984197,0.035540099936723704
1761385028365136400,7.300136474609375,0.10887129360735416,0.02058649562858045,-0.01568177245222032
1761385028375205600,7.31020556640625,0.07071721177995205,0.0179897571336478,-0.03274944630488753
1761385028385274400,7.3202744140625,0.03231704623699188,0.03220416044704616,-0.05378412409238517
1761385028395343600,7.330343505859375,0.05651332986056804,0.015607611237466335,-0.0287635184738785
1761385028405412400,7.340412353515625,-0.0003454524368047714,-0.015638883158564567,0.014937310760468244
1761385028415481300,7.3504814453125,-0.03865969326198101,-0.03513129994012415,0.03282704158574343
1761385028425550300,7.36055029296875,-0.02797346407473087,-0.029087928122654556,0.03188742264807224
1761385028435619300,7.370619384765625,0.02306055759191513,0.004632482106238603,0.0168698131930083
1761385028445688600,7.3806884765625,0.046837154498696326,0.006026128421723842,0.004460121214017272
1761385028455757300,7.39075732421875,0.039008068308234216,-0.006257306829094886,-0.0010964169345796108
1761385028465826600,7.40082666015625,-0.0070364745080471035,-0.023271569994091985,0.02394296644963324
1761385028475895300,7.410895263671875,-0.045938159832358355,-0.04327164403684437,0.05708053528927266
1761385028485963300,7.42096337890625,-0.05368132130503654,-0.06324461087696254,0.06103387602493167
1761385028496032500,7.431032470703125,-0.07911562229096888,-0.05197459045238793,-0.0016249708533287047
1761385028506101200,7.441101318359375,-0.09593640871047973,-0.03006656389646232,-0.0477537578869611
1761385028516170500,7.45117041015625,-0.07092880870401859,-0.023573256354406474,-0.07140892037115991
1761385028526239500,7.461239501953125,-0.046854105633497234,-0.024295871540531516,-0.08811587115265429
1761385028536308500,7.47130859375,0.005558218649029731,-0.019565189756825564,-0.0849294962015003
1761385028546377500,7.48137744140625,0.04211304858624935,-0.05012377495393157,-0.054302010486647484
1761385028556446500,7.491446533203125,0.006028174248337745,-0.07978694568127394,-0.012129852124303578
1761385028566515500,7.501515380859375,-0.04848667527139187,-0.07260163728706538,0.0367113356731832
1761385028576584400,7.51158447265625,-0.15547990004718304,-0.04596249055601656,0.05570975839272141
1761385028586653400,7.5216533203125,-0.23393267451524732,-0.015510726734250782,-0.00334675314463675
1761385028596722400,7.531722412109375,-0.23262100739479064,0.009193798672407865,-0.035601255539432164
1761385028606791400,7.54179150390625,-0.2100304054021835,0.007699833787605166,-0.048727206028997896
1761385028616859400,7.551859375,-0.15660802729427814,-0.021086627170443534,-0.04526128348410129
1761385028626928400,7.561928466796875,-0.123696522295475,-0.052810237558931106,-0.027112536396458744
1761385028636997400,7.571997314453125,-0.08828092552125454,-0.06101619423776865,-0.0047279053047299385
1761385028647066400,7.58206640625,-0.0019639935493469237,-0.06166450207866728,-0.007027998940646648
1761385028657135400,7.59213525390625,0.06134557232260704,-0.06630567894801496,-0.0381162340350449
1761385028667204400,7.602204345703125,0.12182137607336044,-0.11027589970827102,-0.0661222121398896
1761385028677273600,7.612273681640625,0.14003507815599442,-0.1366858407933265,-0.08966419657319784
1761385028687342300,7.62234228515625,0.11829320194721221,-0.11783895537368952,-0.0850017577201128
1761385028697411600,7.63241162109375,0.13526654857993126,-0.09209719587378204,-0.05877440666034817
1761385028707480300,7.642480224609375,0.1543091027021408,-0.08374993102811276,-0.038250820200145245
1761385028717549600,7.652549560546875,0.15668986035883425,-0.08260923656038939,-0.01153510110154748
1761385028727618600,7.66261865234375,0.16541735669374466,-0.06224230196662247,0.027459742398932573
1761385028737687300,7.672687255859375,0.1134223810404539,-0.005141381476446986,0.04730367603190243
1761385028747755500,7.682755615234375,0.07622516154646873,0.041973932376503945,0.02655292975232005
1761385028757824500,7.692824462890625,0.018771920487284658,0.03784187407307327,0.06282477802969515
1761385028767893500,7.7028935546875,-0.08940028494000435,0.052925607566908,0.08452296122722328
1761385028777962500,7.71296240234375,-0.1431809749662876,0.051474166649579996,0.12036891224272549
1761385028788031500,7.723031494140625,-0.18385259257256983,0.031035408928617832,0.11873173949494957
1761385028798100500,7.7331005859375,-0.14847265163362025,0.0481081973478198,0.08246712467595935
1761385028808169700,7.743169677734375,-0.05852116255164146,0.04319514473453164,0.018204641993343828
1761385028818238500,7.753238525390625,0.023018472015857695,0.04716689790971577,-0.03141651720069349
1761385028828307500,7.763307373046875,0.04872808281183243,0.04380472800023853,-0.06565013764873147
1761385028838376400,7.77337646484375,0.029988895550370216,0.00908420081809163,-0.08514869191013276
1761385028848445400,7.783445556640625,0.039267596027255054,0.008438304129987955,-0.09480448207110166
1761385028858514400,7.793514404296875,0.050072483158111566,0.05568900786563754,-0.09407909040600061
1761385028868583400,7.80358349609375,0.054178749433159826,0.06980068145692347,-0.05199928650222718
1761385028878651400,7.8136513671875,0.023119594302773473,0.01791274637468159,0.007524258024990558
1761385028888720600,7.823720703125,-0.007139934882521629,-0.019201909402385354,0.04384199127070605
1761385028898789400,7.833789306640625,0.008268646651506423,-0.06200652044937014,0.05703954569175839
1761385028908858600,7.843858642578125,0.011578209590911865,-0.07329743753150104,0.06505531356073915
1761385028918927400,7.85392724609375,-0.0032902737170457837,-0.035621640740334984,0.06364961148127914
1761385028928996600,7.86399658203125,0.015579261925816535,-0.020581892518699168,0.0829961169861257
1761385028939065300,7.8740654296875,-0.00504500842988491,-0.015272826325148344,0.06954188439026475
1761385028949134600,7.884134521484375,-0.01817979981303215,-0.048385991375893354,0.0471758849337697
1761385028959203600,7.89420361328125,-0.028674305820465085,-0.05126242359504103,0.07794314444549381
1761385028969272300,7.904272216796875,-0.06237433084845542,-0.024913638112694023,0.09535049858130513
1761385028979341600,7.914341552734375,-0.0891670607060194,-0.012668269849941134,0.08210157929919659
1761385028989410300,7.924410400390625,-0.03694295247197151,-0.017349632599204776,0.07510726343244314
1761385028999478500,7.934478515625,0.026506898653507232,-0.014243848603591323,0.007142857491970062
1761385029009547500,7.944547607421875,0.06861176393330097,-0.00010287585258483886,-0.061197103762626645
1761385029019616500,7.954616455078125,0.017449147450923918,0.01544920580536127,-0.08728300052508711
1761385029029685500,7.964685546875,-0.0336667072802782,0.04288556732870638,-0.0524260605469346
1761385029039754500,7.97475439453125,-0.022227613899111747,0.069346507948637,0.009046279960498213
1761385029049823500,7.984823486328125,-0.035275896042585374,0.08165843864157796,0.041542555221915245
1761385029059892500,7.994892578125,0.009946224474906921,0.025638810582086443,0.06963913421966135
1761385029069961500,8.00496142578125,0.05997545301318168,-0.0047086891476064915,0.06272672448270022
1761385029080030500,8.015030517578126,0.10064473253190517,-0.007144611057639121,-0.0020912731908261776
1761385029090099500,8.025099365234375,0.10542378350198268,-0.030085195531696078,-0.039194823051989076
1761385029100168400,8.03516845703125,0.031878654819726945,-0.0055481356464326375,-0.03963014572933316
1761385029110237700,8.04523779296875,0.028696517652273178,0.040111134179309005,-0.041793753504008054
1761385029120306400,8.055306396484376,0.04012275155186653,0.050590734878554935,-0.060471712097525596
1761385029130374400,8.06537451171875,0.0944517231106758,0.03302709420248866,-0.06956029682978987
1761385029140443600,8.075443603515625,0.10840367609560489,0.010522416927665472,-0.09050817311666905
1761385029150512400,8.085512451171875,0.08724632177650928,0.0036840222749859094,-0.11415427551157772
1761385029160581600,8.09558154296875,0.05289806197285652,0.05837707790583372,-0.13564926428720353
1761385029170650400,8.105650390625,0.0006166705936193465,0.08457659111060202,-0.13631174678392707
1761385029180719400,8.11571923828125,-0.09162263716459274,0.05066891468130052,-0.10718823589123785
1761385029190788600,8.12578857421875,-0.10909224288165568,-0.012038155252858996,-0.06150375855900347
1761385029200857300,8.135857421875,-0.05291735119521618,-0.07819258916191757,-0.0065971332427114246
1761385029210926600,8.145926513671874,-0.03102466833889484,-0.1458050398595631,0.03590893324911594
1761385029220995300,8.155995361328126,-0.03015723785459995,-0.13164222060292957,0.03681238489486277
1761385029231064600,8.166064697265625,0.01878945614397526,-0.07395517078787088,0.04085983365476131
1761385029241133600,8.176133544921875,-0.01730827767550945,-0.0370745429623872,0.06469568646810948
1761385029251202600,8.18620263671875,-0.10220540597736835,-0.02333835161998868,0.07739347467347979
1761385029261270500,8.1962705078125,-0.1238403146803379,-0.03145670308060944,0.09995821157246827
1761385029271339500,8.206339599609375,-0.08104922070205212,-0.024411241548508406,0.1075442827872932
1761385029281408500,8.216408447265625,-0.05229951155781746,-0.026396350951120254,0.05661109114661812
1761385029291477500,8.2264775390625,0.004423077139258384,-0.07560783336572349,0.04568535411506891
1761385029301546500,8.23654638671875,0.010869769060611724,-0.12466894752420485,0.06936506651863455
1761385029311615500,8.246615478515626,-0.011412205374240874,-0.10267843031659722,0.1153423893176019
1761385029321684500,8.2566845703125,-0.03614391104876995,-0.04064480266459286,0.15856851371228695
1761385029331753500,8.26675341796875,-0.05781447558701038,-0.04497421017102897,0.14113909387513995
1761385029341822500,8.276822509765625,-0.09927987391948699,-0.09579086275994778,0.10288162473849952
1761385029351891500,8.286891357421876,-0.056903790482878684,-0.09704590432234107,0.05573160489834845
1761385029361960400,8.29696044921875,-0.02587386144697666,-0.07028714979961515,0.062333122055232525
1761385029372029400,8.307029541015625,-0.0472737923502922,-0.0503244851578027,0.05247888671271503
1761385029382097400,8.317097412109375,-0.021886837637424467,0.008042948136851191,0.022752952947467563
1761385029392166400,8.32716650390625,0.03417641036808491,0.07176701309382916,-0.012984715387970209
1761385029402235400,8.3372353515625,0.016363105779886245,0.09079451577737926,-0.04901464466825127
1761385029412304400,8.347304443359375,-0.0051315176695585244,0.08562076640129089,-0.05771035762540996
1761385029422373600,8.35737353515625,-0.0018143559455871582,0.05057751007080078,-0.033716756967082616
1761385029432442400,8.3674423828125,-0.021230419555306433,0.031120676059275865,0.009195040781423448
1761385029442511600,8.37751171875,-0.02823065370619297,0.06847009044028818,0.0635305882114917
1761385029452580400,8.387580322265626,-0.0033037177205085754,0.09752681970708071,0.07398249718621373
1761385029462649600,8.397649658203125,0.0067430445194244385,0.07511610432602464,0.03779394327811897
1761385029472718600,8.407718505859375,0.04754968668222427,0.05488982031196356,0.013953779615834355
1761385029482787300,8.417787353515624,0.07666472200751304,0.029686332407221197,0.009573884031176566
1761385029492856600,8.427856689453124,0.06741057144999504,0.016672829316183923,-0.027619024613872167
1761385029502925300,8.43792529296875,0.0467903927475214,0.0034928105518221854,-0.03995316713862121
1761385029512993500,8.44799365234375,0.07114625084698199,0.03153933986276388,-0.03240275175906718
1761385029523062500,8.4580625,0.04754442598521709,0.04469049785882234,-0.04288198713213205
1761385029533131500,8.468131591796874,0.03620879297852516,0.038679274745285507,-0.03947334773242473
1761385029543200500,8.478200439453126,0.05705050547719001,0.010660071832686663,-0.024105974991619584
1761385029553269500,8.48826953125,0.033519992285966874,-0.043678398206830026,-0.0025223580844700336
1761385029563338500,8.49833837890625,0.05918225680887699,-0.08307700020261108,0.009721768069267273
1761385029573407500,8.508407470703125,0.093968323507905,-0.0964060720488429,0.01989493316784501
1761385029583476500,8.5184765625,0.06682312695086003,-0.09198949771560729,0.03801452722623944
1761385029593545500,8.52854541015625,0.01857669017612934,-0.10025682919286191,0.03192928902842104
1761385029603614500,8.538614501953125,-0.042912674531340594,-0.09421893726810812,0.037230902567878366
1761385029613683500,8.548683349609375,-0.08321370525956154,-0.020331790215149522,0.07139291908442974
1761385029623752700,8.558752685546875,-0.04376958362162113,0.029120953609421848,0.019153905542194843
1761385029633820400,8.5688203125,-0.0530558828830719,-0.031512378790602084,0.025945246182754636
1761385029643889400,8.578889404296875,-0.08963234013020992,-0.06968991455882788,0.03433744614869356
1761385029653958700,8.588958740234375,-0.061949383434653275,-0.115557639503479,0.010734233047440648
1761385029664027400,8.59902734375,-0.00670505059659481,-0.1439971136547625,-0.037478885979577894
1761385029674096600,8.6090966796875,0.05077040229439735,-0.14564926477596163,-0.12554061579219997
1761385029684165400,8.619165283203126,0.061928340646624565,-0.14727116688936948,-0.19334230545163153
1761385029694234400,8.629234375,0.036490532529354094,-0.14345540799349546,-0.1908150519963354
1761385029704303600,8.6393037109375,0.025440146204829213,-0.05751370254214853,-0.1830847500052303
1761385029714372400,8.649372314453124,0.00838905816078186,-0.00924958398025483,-0.1496193374507129
1761385029724441600,8.659441650390624,-0.10914134272038936,0.010285210638307035,-0.1229167700946331
1761385029734510300,8.66951025390625,-0.09816051450073718,0.05809226961508393,-0.13012830890864133
1761385029744579600,8.67957958984375,-0.026830139258503912,0.04982278271336108,-0.1459692174453288
1761385029754648300,8.6896484375,0.021895605465769765,0.04360920542813837,-0.12113266315683721
1761385029764716800,8.699716796875,0.0575999560534954,0.060964902441948646,-0.051256943702325225
1761385029774785800,8.709785888671876,0.10183248101174831,0.06394278574157505,0.040778219785913825
1761385029784854800,8.719854736328125,0.1560831266373396,0.06719809774309396,0.08390431787222623
1761385029794923800,8.729923828125,0.12030454176962375,0.021408150742389262,0.11367372545301914
1761385029804993000,8.739992919921875,0.009613046997785568,0.021837993527017534,0.10891396370530128
1761385029815061800,8.750061767578124,-0.04522153599560261,0.057894372422806914,0.06130984342209994
1761385029825130800,8.760130859375,-0.11288754351139067,0.08531747260577976,0.039917219042405486
1761385029835199700,8.77019970703125,-0.14400631987452506,0.08196147670876235,0.03416004375517368
1761385029845268700,8.780268798828125,-0.21428221762776373,0.02758406289834529,0.07158698035180568
1761385029855338000,8.790337890625,-0.22844635205864905,-0.006916136064007878,0.12480170705839991
1761385029865406700,8.80040673828125,-0.16815350365936754,-0.015369820426218211,0.1573895330607891
1761385029875476000,8.81047607421875,-0.13209960898160933,-0.02258771591577679,0.17196100618354976
1761385029885544000,8.8205439453125,-0.09007365415692328,-0.07416516027674079,0.1400897309526801
1761385029895612700,8.83061279296875,0.03934066126346588,-0.11655527223870157,0.0924574805535376
1761385029905682000,8.840681884765624,0.08620178115963935,-0.10997103501018136,0.05041150585412979
1761385029915750700,8.850750732421876,0.16953940505981444,-0.09689148094560951,0.009069441640377044
1761385029925820000,8.86081982421875,0.1848468643069267,-0.052529520921409126,0.009902312267944215
1761385029935888600,8.870888671875,0.1070218663483858,-0.027948329633474347,-0.020738982776552436
1761385029945958000,8.8809580078125,-0.017100187882781028,-0.020525230428017675,0.013538622943684457
1761385029956027000,8.89102685546875,-0.12679448831081389,0.019529935780353842,0.03253061592243612
1761385029966096000,8.901095947265626,-0.1616378381550312,0.02394526800457388,0.043759354488551616
1761385029976164900,8.911164794921875,-0.1929682114422321,-0.005706175752356648,0.07695464486479758
1761385029986233600,8.921233642578125,-0.18889058673977852,-0.02016417856328189,0.08007211929820478
1761385029996302800,8.931302734375,-0.15812661516368387,-0.020723237218149004,0.07510032223500311
1761385030006370800,8.941370849609376,-0.13175298750102518,-0.00116959176864475,0.05891045413017273
1761385030016439800,8.951439697265625,-0.062434536603093144,0.00989559026621282,0.04519165231399238
1761385030026508800,8.9615087890625,0.010961538997292518,-0.009873561097495258,0.0037505116399377584
1761385030036577800,8.971577880859375,0.08661211552619934,-0.03501395717076957,-0.009722133395448326
1761385030046646800,8.981646728515624,0.1464835236430168,-0.029723120753653347,-0.05240194901898503
1761385030056715800,8.9917158203125,0.2521820324331522,-0.05915865673758089,-0.0728089233621955
1761385030066784800,9.00178466796875,0.2729068405538797,-0.09894611192047595,-0.08486315296702086
1761385030076853800,9.011853759765625,0.20058628523051739,-0.12640727909151464,-0.08437646542862057
1761385030086923000,9.021923095703125,0.09028466655910014,-0.1334407944574952,-0.05579093387015164
1761385030096991700,9.03199169921875,-0.04149930060207844,-0.09048775138314813,-0.02130202348679304
1761385030107061000,9.04206103515625,-0.09716858085393905,-0.04563161463383585,-0.022160540012270212
1761385030117129700,9.052129638671875,-0.11213701740503311,-0.026649229733645915,-0.02079144361615181
1761385030127199000,9.062198974609375,-0.07387421450614928,0.020579408300668,0.010168415858224034
1761385030137267000,9.072266845703124,-0.04187222556769848,0.0666015566220507,0.04287606884799897
1761385030147335700,9.082335693359376,0.03075286566019058,0.06018230069689452,0.03807159117572009
1761385030157405000,9.092405029296875,0.08640168764591216,-0.00021762480605393646,0.046017581744119525
1761385030167474000,9.102473876953125,0.08561492118239403,-0.016925927294418216,0.06306224004738033
1761385030177543000,9.11254296875,0.09063245708346367,0.03776731099952012,0.07079334575608372
1761385030187612000,9.12261181640625,0.09850304432809352,0.05468867171667516,0.05504259972088039
1761385030197680600,9.1326806640625,0.06389525680541992,0.05772661464046686,0.02800437066964805
1761385030207750000,9.14275,0.030810148805379866,0.06415807246007024,-0.004560658979043364
1761385030217818600,9.152818603515625,0.007417582780122756,0.06674045363608748,-0.015011398909986018
1761385030227887900,9.162887939453125,-0.00258241770863533,0.03773417591489851,-0.012523089225590228
1761385030237956900,9.172956787109374,-0.06967734733819961,-0.004575856548175216,0.031995924523845316
1761385030248025900,9.18302587890625,-0.07802022826969623,0.016240831107087433,0.06766746882051229
1761385030258093800,9.19309375,-0.03774959267973899,0.005525631553679704,0.08079210413582623
1761385030268162800,9.203162841796875,0.000003507131338119507,0.00597264466881752,0.08307327387556433
1761385030278231800,9.213231689453124,0.002420505145192146,0.023425664577260613,0.08494549748823046
1761385030288300800,9.22330078125,-0.054042555832862854,-0.02516293669864535,0.10010003119595348
1761385030298369800,9.233369873046875,-0.08015782482028007,-0.015725867322273553,0.0865592162951827
1761385030308438800,9.243438720703125,0.0700526103913784,0.02059690742474049,-0.021376550027728078
1761385030318508000,9.253508056640625,0.0703267511576414,-0.04616049734614789,-0.039063378692045805
1761385030328576800,9.26357666015625,0.03918108678758144,-0.039717458686605096,-0.029044235111400484
1761385030338646000,9.27364599609375,0.09697802671790122,-0.0494536206074059,0.028027313153818248
1761385030348714800,9.28371484375,0.0040296939074993135,-0.07447302064951508,-0.006457943967729807
1761385030358783700,9.29378369140625,0.06799918499290943,-0.012821852976456284,-0.06048201429583132
1761385030368852700,9.303852783203125,-0.0022825579792261123,0.02750979208573699,-0.08997026684768497
1761385030378920700,9.313920654296876,-0.13678279836177826,0.0240088712926954,-0.0759400609947741
1761385030388990000,9.323989990234375,-0.1543430049717426,0.00667622636090964,-0.06141513042747974
1761385030399059000,9.334058837890625,-0.16394085440039632,-0.049425782752409574,-0.0448825863648206
1761385030409127700,9.344127685546875,-0.11609247703254222,-0.055800870742276305,-0.08047777748964727
1761385030419197000,9.354197021484374,-0.006970423534512519,-0.09539897736553102,-0.07783895341865718
1761385030429265700,9.364265625,0.056662382942438125,-0.040532830190099775,-0.08659078047722578
1761385030439335000,9.3743349609375,-0.0544587354183197,-0.018438596879690884,-0.02640826058462262
1761385030449403600,9.384403564453125,-0.2737017903238535,-0.024778978882357475,-0.007785247048735618
1761385030459473000,9.394472900390625,-0.23554712397456168,0.005743475555442273,0.04884980949535966
1761385030469542000,9.4045419921875,-0.14726970558464525,-0.009883205708675086,-0.015026085022464393
1761385030479611000,9.41461083984375,-0.010864508363604544,-0.08404124212488531,0.011889467497169971
1761385030489680000,9.424679931640625,0.08613105401098728,-0.07797664485629648,0.030064591135084626
1761385030499748600,9.43474853515625,0.178428813958168,-0.054533517687581474,0.00724924047589302
1761385030509816800,9.44481689453125,0.2421732641160488,-0.06964921722225845,-0.02720262583270669
1761385030519885800,9.4548857421875,0.11872399457991123,-0.07244860214982181,-0.017755802247300743
1761385030529954800,9.464954833984375,-0.027885785791277883,-0.05048826088476926,-0.006942585679516196
1761385030540023800,9.47502392578125,-0.05463993720412254,-0.04236464872714132,-0.01737732432372868
1761385030550093000,9.485093017578125,-0.13729367049336433,-0.003462890337593853,-0.05285078876502811
1761385030560161800,9.495161865234374,-0.19012568149268627,0.0232790957134217,-0.0791352037742734
1761385030570230800,9.505230712890626,-0.19380875391960142,0.07759710748679935,-0.05338774518594146
