time,seconds_elapsed,z,y,x
1761385021128102700,0.0631025390625,-0.02431332878768444,-0.8700882792472839,0.222115620970726
1761385021138171600,0.073171630859375,-0.0002814961189869791,-0.7534596920013428,0.13401558995246887
1761385021148241000,0.083240966796875,0.018263159319758415,-0.6294125318527222,0.034210436046123505
1761385021158308900,0.093308837890625,0.0265426617115736,-0.5277476906776428,-0.06247403100132942
1761385021168377600,0.103377685546875,0.022605443373322487,-0.41195613145828247,-0.13810434937477112
1761385021178446800,0.11344677734375,0.0005446164286695421,-0.2988506257534027,-0.18302547931671143
1761385021188515600,0.123515625,-0.03675934672355652,-0.20986907184123993,-0.21250827610492706
1761385021198584800,0.133584716796875,-0.07773793488740921,-0.18708732724189758,-0.2160409539937973
1761385021208653600,0.143653564453125,-0.09695690870285034,-0.19857993721961975,-0.19729629158973694
1761385021218722800,0.153722900390625,-0.08814956247806549,-0.23143242299556732,-0.16479720175266266
1761385021228791800,0.163791748046875,-0.060148291289806366,-0.28612202405929565,-0.13897040486335754
1761385021238860800,0.17386083984375,-0.026727750897407532,-0.3465813994407654,-0.13035108149051666
1761385021248929800,0.1839296875,0.0011528824688866735,-0.4241539537906647,-0.13573066890239716
1761385021258998500,0.19399853515625,0.0011254518758505583,-0.4672265648841858,-0.13685931265354156
1761385021269066800,0.204066650390625,-0.008141549304127693,-0.43625134229660034,-0.12336987257003784
1761385021279135700,0.2141357421875,-0.012583702802658081,-0.3482123017311096,-0.11558464914560318
1761385021289204700,0.224204833984375,-0.007385211996734142,-0.257589191198349,-0.12941604852676392
1761385021299273700,0.234273681640625,0.0022085595410317183,-0.21055138111114502,-0.15455229580402374
1761385021309342700,0.2443427734375,0.01335894875228405,-0.18961574137210846,-0.18084222078323364
1761385021319411700,0.25441162109375,0.027094468474388123,-0.17767119407653809,-0.19883346557617188
1761385021329480700,0.264480712890625,0.036369990557432175,-0.17660965025424957,-0.1978273242712021
1761385021339549700,0.2745498046875,0.04820587858557701,-0.17207881808280945,-0.17331692576408386
1761385021349618700,0.28461865234375,0.061707038432359695,-0.14277872443199158,-0.1240050345659256
1761385021359687700,0.294687744140625,0.07468435913324356,-0.12185347080230713,-0.07021237909793854
1761385021369756700,0.304756591796875,0.0752611979842186,-0.12147743254899979,-0.030108368024230003
1761385021379824600,0.31482470703125,0.06780141592025757,-0.14554627239704132,-0.003739344421774149
1761385021389894000,0.324893798828125,0.061528608202934265,-0.1437361240386963,0.005363872740417719
1761385021399962600,0.334962646484375,0.07394106686115265,-0.11088843643665314,-0.0011952266795560718
1761385021410031900,0.345031982421875,0.09251422435045242,-0.07546519488096237,-0.023249397054314613
1761385021420100600,0.3551005859375,0.11187806725502014,-0.023146864026784897,-0.03996632620692253
1761385021430169900,0.365169921875,0.1247326135635376,0.0193670392036438,-0.06476754695177078
1761385021440238600,0.375238525390625,0.11996155977249146,0.048411473631858826,-0.0851452574133873
1761385021450307800,0.385307861328125,0.10759570449590683,0.05305735766887665,-0.09490041434764862
1761385021460376800,0.395376953125,0.0901796966791153,0.05198543518781662,-0.08884891122579575
1761385021470445600,0.405445556640625,0.07441458106040955,0.06090010330080986,-0.06747278571128845
1761385021480514800,0.415514892578125,0.07022835314273834,0.079666867852211,-0.04694141075015068
1761385021490582800,0.425582763671875,0.07961546629667282,0.09987200051546097,-0.02640976943075657
1761385021500651800,0.43565185546875,0.09884349256753922,0.11573512107133865,-0.010958109050989151
1761385021510720800,0.445720703125,0.11131960153579712,0.13064908981323242,0.00512711750343442
1761385021520789500,0.45578955078125,0.1132514551281929,0.1334182471036911,0.02694692835211754
1761385021530858800,0.465858642578125,0.10825137048959732,0.15047712624073029,0.05567551404237747
1761385021540927700,0.475927734375,0.11165675520896912,0.16321049630641937,0.09146546572446823
1761385021550996700,0.485996826171875,0.11067617684602737,0.1646810919046402,0.13200144469738007
1761385021561065700,0.496065673828125,0.10306753218173981,0.15752704441547394,0.16991393268108368
1761385021571134700,0.506134765625,0.09121699631214142,0.1605641096830368,0.2086096704006195
1761385021581203700,0.51620361328125,0.08862441033124924,0.17412066459655762,0.2496740072965622
1761385021591272700,0.526272705078125,0.08468399196863174,0.19890537858009338,0.2879177927970886
1761385021601340700,0.536340576171875,0.06305326521396637,0.21611258387565613,0.31407591700553894
1761385021611409700,0.54640966796875,0.021098893135786057,0.16190500557422638,0.32940611243247986
1761385021621479000,0.55647900390625,-0.015974706038832664,0.07236474752426147,0.3345891833305359
1761385021631547600,0.566547607421875,-0.039151132106781006,0.034641332924366,0.3526374101638794
1761385021641617000,0.576616943359375,-0.03681021183729172,0.05209489166736603,0.3724164366722107
1761385021651685600,0.586685546875,-0.02894430048763752,0.1274772584438324,0.38227972388267517
1761385021661755000,0.5967548828125,0.00583631731569767,0.23624423146247864,0.3719983398914337
1761385021671823600,0.60682373046875,0.057364754378795624,0.35342252254486084,0.3613201081752777
1761385021681892600,0.616892578125,0.09836145490407944,0.45459040999412537,0.3544454276561737
1761385021691961900,0.6269619140625,0.11937912553548813,0.5196037888526917,0.34674757719039917
1761385021702030600,0.637030517578125,0.11813835799694061,0.5607224106788635,0.3522685766220093
1761385021712098800,0.647098876953125,0.12605194747447968,0.5695814490318298,0.36557185649871826
1761385021722167800,0.657167724609375,0.14689064025878906,0.582350492477417,0.39367592334747314
1761385021732236500,0.667236572265625,0.1382518857717514,0.5875540375709534,0.41261258721351624
1761385021742305800,0.677305908203125,0.10574560612440109,0.527420699596405,0.4107697010040283
1761385021752374500,0.68737451171875,0.06042659282684326,0.43688809871673584,0.38629576563835144
1761385021762443500,0.697443603515625,-0.008391886949539185,0.350422739982605,0.35436633229255676
1761385021772512800,0.7075126953125,-0.06329081952571869,0.27649471163749695,0.34463515877723694
1761385021782581500,0.71758154296875,-0.09611108899116516,0.24064110219478607,0.36157044768333435
1761385021792650500,0.727650390625,-0.11119549721479416,0.19757752120494843,0.39804109930992126
1761385021802719500,0.737719482421875,-0.1296413540840149,0.12568442523479462,0.4404247999191284
1761385021812788500,0.74778857421875,-0.160307377576828,0.04607774689793587,0.4818422794342041
1761385021822856700,0.757856689453125,-0.19421207904815674,-0.016821324825286865,0.5074730515480042
1761385021832925400,0.767925537109375,-0.2161506712436676,-0.049547046422958374,0.4958513081073761
1761385021842994400,0.777994384765625,-0.21026988327503204,-0.0529945082962513,0.43552830815315247
1761385021853063700,0.788063720703125,-0.19299182295799255,-0.014078800566494465,0.3251805007457733
1761385021863132400,0.79813232421875,-0.18099534511566162,0.016996027901768684,0.19027860462665558
1761385021873201700,0.80820166015625,-0.19048179686069489,-0.05651494115591049,0.025677133351564407
1761385021883270400,0.8182705078125,-0.1988462507724762,-0.08976849913597107,-0.11813382804393768
1761385021893339600,0.828339599609375,-0.17920809984207153,-0.038187600672245026,-0.2155141830444336
1761385021903408600,0.83840869140625,-0.14345143735408783,0.024938372895121574,-0.2671763002872467
1761385021913477600,0.8484775390625,-0.11861772835254669,0.043367449194192886,-0.2986189126968384
1761385021923546600,0.858546630859375,-0.12915799021720886,0.026735739782452583,-0.3136511445045471
1761385021933614600,0.868614501953125,-0.1492435485124588,-0.012292352505028248,-0.29819947481155396
1761385021943683600,0.87868359375,-0.15565244853496552,-0.05649922788143158,-0.2538711428642273
1761385021953752600,0.888752685546875,-0.13207601010799408,-0.11226075887680054,-0.1967301070690155
1761385021963821600,0.898821533203125,-0.09009979665279388,-0.18090187013149261,-0.13966256380081177
1761385021973890600,0.908890625,-0.03442908078432083,-0.23602664470672607,-0.09731882810592651
1761385021983959600,0.91895947265625,0.024292822927236557,-0.27689844369888306,-0.07013887166976929
1761385021994028500,0.929028564453125,0.07961972802877426,-0.318257600069046,-0.04742131009697914
1761385022004097500,0.93909765625,0.10908840596675873,-0.36416196823120117,-0.027092603966593742
1761385022014166500,0.94916650390625,0.10738904029130936,-0.40244224667549133,-0.0026429209392517805
1761385022024235500,0.959235595703125,0.0838826522231102,-0.41613781452178955,0.030178675428032875
1761385022034304500,0.969304443359375,0.06305752694606781,-0.40390220284461975,0.05642252787947655
1761385022044372500,0.97937255859375,0.05549921095371246,-0.3594750761985779,0.06788397580385208
1761385022054441500,0.98944140625,0.06254460662603378,-0.2983536720275879,0.05717141181230545
1761385022064510500,0.999510498046875,0.07495733350515366,-0.23250514268875122,0.02443556860089302
1761385022074579500,1.009579345703125,0.08526775985956192,-0.16091671586036682,-0.007497064769268036
1761385022084648700,1.019648681640625,0.08615192770957947,-0.08391354233026505,-0.03602937236428261
1761385022094717400,1.029717529296875,0.08410368859767914,-0.029617013409733772,-0.06503599137067795
1761385022104786700,1.03978662109375,0.09041405469179153,-0.016320116817951202,-0.09503649920225143
1761385022114855400,1.04985546875,0.100457102060318,-0.04120283201336861,-0.11630956828594208
1761385022124924700,1.059924560546875,0.11019334942102432,-0.08131429553031921,-0.11738494783639908
1761385022134993700,1.06999365234375,0.11039548367261887,-0.1012967899441719,-0.10379244387149811
1761385022145062700,1.080062744140625,0.11335132271051407,-0.10941623896360397,-0.06450069695711136
1761385022155130600,1.090130615234375,0.1163143590092659,-0.10644468665122986,0.002141714096069336
1761385022165199600,1.10019970703125,0.12632597982883453,-0.11069508641958237,0.07326808571815491
1761385022175268600,1.1102685546875,0.1245935931801796,-0.1245879977941513,0.12360928952693939
1761385022185337600,1.120337646484375,0.11083996295928955,-0.13181981444358826,0.15066327154636383
1761385022195406600,1.130406494140625,0.09336323291063309,-0.13060727715492249,0.15236742794513702
1761385022205475600,1.1404755859375,0.08226904273033142,-0.11008229851722717,0.13405367732048035
1761385022215544600,1.150544677734375,0.0756625384092331,-0.08411461114883423,0.0972226932644844
1761385022225613600,1.160613525390625,0.07437063753604889,-0.06624879688024521,0.0471360869705677
1761385022235682600,1.1706826171875,0.07549981772899628,-0.0598665289580822,0.013568272814154625
1761385022245751600,1.18075146484375,0.07399193197488785,-0.05537963658571243,-0.005835252348333597
1761385022255820500,1.190820556640625,0.07184676080942154,-0.057322412729263306,-0.00917245913296938
1761385022265888500,1.200888427734375,0.0646468997001648,-0.06720460206270218,-0.003644536016508937
1761385022275957500,1.21095751953125,0.05326109007000923,-0.04561462253332138,-0.0009622001089155674
1761385022286026500,1.221026611328125,0.05425924435257912,-0.013729660771787167,-0.004801413044333458
1761385022296095500,1.231095458984375,0.07132264971733093,0.008587096817791462,-0.012211925350129604
1761385022306164500,1.24116455078125,0.10715121775865555,0.029024727642536163,-0.0198605228215456
1761385022316233700,1.251233642578125,0.1379365622997284,0.027939222753047943,-0.02847105637192726
1761385022326302500,1.261302490234375,0.16109435260295868,-0.0057279267348349094,-0.02936774305999279
1761385022336371700,1.271371826171875,0.16920819878578186,-0.049675676971673965,-0.02419375255703926
1761385022346440400,1.2814404296875,0.16204243898391724,-0.09772123396396637,-0.02454688772559166
1761385022356509700,1.291509765625,0.13975444436073303,-0.12338797748088837,-0.02394661121070385
1761385022366578700,1.30157861328125,0.11035607010126114,-0.1274314522743225,-0.0161222442984581
1761385022376647400,1.3116474609375,0.08225439488887787,-0.11787363886833191,-0.012593822553753853
1761385022386715600,1.321715576171875,0.06792338937520981,-0.09279225766658783,-0.005570267792791128
1761385022396784600,1.33178466796875,0.05080698803067207,-0.07722581177949905,-0.011522432789206505
1761385022406853600,1.341853515625,0.03713272139430046,-0.0584406740963459,-0.017790181562304497
1761385022416922600,1.351922607421875,0.020207000896334648,-0.04223320633172989,-0.022849388420581818
1761385022426991400,1.361991455078125,-0.002356897573918104,-0.019042933359742165,-0.03548901900649071
1761385022437060600,1.372060546875,-0.021092768758535385,0.001960885478183627,-0.04754328355193138
1761385022447129600,1.382129638671875,-0.03442694991827011,0.016082562506198883,-0.05414286255836487
1761385022457198600,1.392198486328125,-0.04121987521648407,0.04001106694340706,-0.05758287012577057
1761385022467267600,1.402267578125,-0.04150163754820824,0.06118106469511986,-0.058506451547145844
1761385022477336600,1.412336669921875,-0.03591645509004593,0.06601656973361969,-0.06616251170635223
1761385022487405600,1.422405517578125,-0.015785355120897293,0.06802459061145782,-0.07391470670700073
1761385022497474600,1.432474609375,0.019246133044362068,0.05604010075330734,-0.07141053676605225
1761385022507542500,1.44254248046875,0.05597139149904251,0.02647634781897068,-0.06088465452194214
1761385022517611500,1.452611572265625,0.0816035196185112,-0.014781609177589417,-0.04187847301363945
1761385022527680500,1.462680419921875,0.08552368730306625,-0.0559985525906086,-0.023271501064300537
1761385022537749500,1.47274951171875,0.06589379906654358,-0.08635326474905014,-0.007682687137275934
1761385022547818800,1.48281884765625,0.03906617686152458,-0.09417763352394104,0.0031880701426416636
1761385022557887500,1.492887451171875,0.011454521678388119,-0.08927688002586365,0.009341570548713207
1761385022567956700,1.502956787109375,-0.009796970523893833,-0.07009333372116089,0.0008114652009680867
1761385022578025500,1.513025390625,-0.02267521806061268,-0.05337134748697281,-0.010233462788164616
1761385022588094500,1.523094482421875,-0.028600485995411873,-0.026872893795371056,-0.0231106448918581
1761385022598163700,1.533163818359375,-0.030951524153351784,-0.0014274542918428779,-0.04271310940384865
1761385022608232400,1.543232421875,-0.015246330760419369,0.01822907105088234,-0.06993940472602844
1761385022618301700,1.5533017578125,0.014821290038526058,0.02461692877113819,-0.1007644310593605
1761385022628369700,1.56336962890625,0.04915662854909897,0.014726747758686543,-0.12775476276874542
1761385022638438400,1.5734384765625,0.07383374124765396,-0.009388175792992115,-0.1394689530134201
1761385022648507600,1.583507568359375,0.09538750350475311,-0.034204307943582535,-0.1391855925321579
1761385022658576400,1.593576416015625,0.11503710597753525,-0.058883022516965866,-0.12411369383335114
1761385022668645600,1.603645751953125,0.12697924673557281,-0.08311618864536285,-0.1126389279961586
1761385022678714600,1.613714599609375,0.13417591154575348,-0.10730382055044174,-0.11212147772312164
1761385022688783600,1.62378369140625,0.12805835902690887,-0.12474992126226425,-0.12770123779773712
1761385022698852600,1.6338525390625,0.11161148548126221,-0.13515356183052063,-0.15575923025608063
1761385022708921600,1.643921630859375,0.09252060949802399,-0.11228553205728531,-0.17752471566200256
1761385022718990600,1.653990478515625,0.08204799890518188,-0.07209309935569763,-0.19666779041290283
1761385022729059600,1.6640595703125,0.074092335999012,-0.018323879688978195,-0.21545346081256866
1761385022739128600,1.674128662109375,0.07846737653017044,0.038358572870492935,-0.2242051362991333
1761385022749196500,1.684196533203125,0.09217973053455353,0.08715806901454926,-0.2225814163684845
1761385022759269400,1.694269287109375,0.104426808655262,0.1254095882177353,-0.2104128897190094
1761385022769338600,1.704338623046875,0.1111086755990982,0.15646737813949585,-0.18524335324764252
1761385022779407600,1.71440771484375,0.10911104083061218,0.17300346493721008,-0.15878406167030334
1761385022789476600,1.7244765625,0.10576211661100388,0.17647597193717957,-0.1325732171535492
1761385022799545600,1.734545654296875,0.1180933490395546,0.16563236713409424,-0.11904276907444
1761385022809614600,1.744614501953125,0.13790087401866913,0.13571149110794067,-0.10697305202484131
1761385022819683600,1.75468359375,0.17239786684513092,0.07965115457773209,-0.09688233584165573
1761385022829752600,1.764752685546875,0.21135911345481873,0.011590875685214996,-0.08122987300157547
1761385022839821600,1.774821533203125,0.25145432353019714,-0.05034705996513367,-0.0510336235165596
1761385022849890600,1.784890625,0.2893764078617096,-0.10353224724531174,-0.0184120312333107
1761385022859959600,1.79495947265625,0.3185276389122009,-0.144335076212883,0.0147445909678936
1761385022870027500,1.805027587890625,0.33408689498901367,-0.1696247160434723,0.041730668395757675
1761385022880096800,1.8150966796875,0.32827961444854736,-0.17450256645679474,0.06708289682865143
1761385022890165500,1.82516552734375,0.3048003911972046,-0.17906323075294495,0.08578867465257645
1761385022900234500,1.835234375,0.26939553022384644,-0.18621808290481567,0.10248136520385742
1761385022910303500,1.845303466796875,0.21938295662403107,-0.1854172646999359,0.1029929593205452
1761385022920372500,1.85537255859375,0.16334019601345062,-0.1702079474925995,0.09453529119491577
1761385022930441700,1.865441650390625,0.10374423861503601,-0.14058427512645721,0.07611154764890671
1761385022940510500,1.875510498046875,0.04464976117014885,-0.0917389765381813,0.05221686512231827
1761385022950579700,1.885579833984375,-0.0018887137994170189,-0.027363980188965797,0.02804521657526493
1761385022960648400,1.8956484375,-0.0390603169798851,0.027575168758630753,-0.0009542105835862458
1761385022970717700,1.9057177734375,-0.06241890415549278,0.07436744123697281,-0.034389663487672806
1761385022980786700,1.91578662109375,-0.06896521896123886,0.10867933928966522,-0.06487113982439041
1761385022990855400,1.92585546875,-0.06326472014188766,0.11779481172561646,-0.09404341131448746
1761385023000923600,1.935923583984375,-0.05085252970457077,0.1182510107755661,-0.10596051812171936
1761385023010992600,1.94599267578125,-0.03394119068980217,0.11784221231937408,-0.10010875761508942
1761385023021061600,1.9560615234375,-0.01871136948466301,0.10336554050445557,-0.08014676719903946
1761385023031130600,1.966130615234375,-0.014225008897483349,0.08754396438598633,-0.04658880829811096
1761385023041199600,1.97619970703125,-0.014790398068726063,0.07060758769512177,-0.017231184989213943
1761385023051268600,1.9862685546875,-0.0115586519241333,0.04754994064569473,0.012752813287079334
1761385023061337300,1.99633740234375,-0.006717557553201914,0.012685701251029968,0.02990463562309742
1761385023071406600,2.006406494140625,-0.002835467690601945,-0.025610821321606636,0.035233888775110245
1761385023081475600,2.0164755859375,0.009404420852661133,-0.0508008636534214,0.03592604398727417
1761385023091544600,2.026544677734375,0.026431873440742493,-0.0513252392411232,0.03413639962673187
1761385023101613600,2.036613525390625,0.052196625620126724,-0.046968840062618256,0.02864602580666542
1761385023111682600,2.0466826171875,0.0849820002913475,-0.04631743207573891,0.01824052259325981
1761385023121751600,2.05675146484375,0.11842598021030426,-0.060513146221637726,0.007696002721786499
1761385023131819500,2.066819580078125,0.14794819056987762,-0.08142295479774475,-0.004466121084988117
1761385023141888500,2.076888427734375,0.16741801798343658,-0.11733727902173996,-0.02094496227800846
1761385023151957500,2.08695751953125,0.15807512402534485,-0.1448107212781906,-0.028852419927716255
1761385023162026800,2.09702685546875,0.12944799661636353,-0.16571547091007233,-0.03057974763214588
1761385023172095500,2.107095458984375,0.07907963544130325,-0.1936618834733963,-0.02743987925350666
1761385023182164700,2.117164794921875,0.025678997859358788,-0.20293021202087402,-0.011493138037621975
1761385023192233500,2.1272333984375,-0.017793377861380577,-0.17422160506248474,0.01655660569667816
1761385023202302500,2.137302490234375,-0.04839656129479408,-0.1557547152042389,0.030055103823542595
1761385023212371700,2.147371826171875,-0.06901954859495163,-0.08829550445079803,0.037942323833703995
1761385023222440400,2.1574404296875,-0.08015955239534378,0.00119629199616611,0.02737969346344471
1761385023232509700,2.167509765625,-0.07026910036802292,0.0657033771276474,0.004069043789058924
1761385023242578400,2.177578369140625,-0.049310293048620224,0.09463809430599213,-0.0317656509578228
1761385023252646700,2.187646728515625,-0.0344378687441349,0.10365582257509232,-0.06621124595403671
1761385023262715600,2.197715576171875,-0.017558753490447998,0.09311902523040771,-0.08854930847883224
1761385023272784400,2.207784423828125,-0.0014266553334891796,0.07404173910617828,-0.08962096273899078
1761385023282853600,2.217853515625,0.01691240444779396,0.04908552020788193,-0.07544202357530594
1761385023292922600,2.227922607421875,0.031249266117811203,0.03207830712199211,-0.047449275851249695
1761385023302991600,2.23799169921875,0.040822263807058334,0.007105580065399408,-0.017238374799489975
1761385023313060600,2.248060546875,0.046006105840206146,-0.022297581657767296,0.010732805356383324
1761385023323129600,2.258129638671875,0.0548267625272274,-0.043894752860069275,0.040402814745903015
1761385023333198600,2.268198486328125,0.06234593316912651,-0.06004496291279793,0.048173919320106506
1761385023343267600,2.278267578125,0.06783204525709152,-0.07126060128211975,0.04716005548834801
1761385023353336600,2.288336669921875,0.05654609948396683,-0.0676267147064209,0.037949513643980026
1761385023363405600,2.298405517578125,0.05385870486497879,-0.04342390596866608,0.02485901117324829
1761385023373474600,2.308474609375,0.04697496443986893,-0.005960953421890736,0.010670754127204418
1761385023383542500,2.31854248046875,0.03428686782717705,0.019027752801775932,-0.002359827049076557
1761385023393611800,2.32861181640625,0.03153395652770996,0.044860947877168655,-0.01594354584813118
1761385023403680500,2.338680419921875,0.03181225806474686,0.06412305682897568,-0.023747406899929047
1761385023413749500,2.34874951171875,0.03344983607530594,0.07476265728473663,-0.02869822457432747
1761385023423818500,2.358818603515625,0.03320828825235367,0.07171812653541565,-0.02159876935184002
1761385023433887500,2.368887451171875,0.023904267698526382,0.05137663707137108,-0.021136976778507233
1761385023443956700,2.378956787109375,0.012161058373749256,0.021498633548617363,-0.012569054961204529
1761385023454025500,2.389025390625,-0.0034794199746102095,0.014127003960311413,-0.006675479467958212
1761385023464094700,2.3990947265625,-0.018487663939595222,0.003084206720814109,0.002365419641137123
1761385023474163500,2.40916357421875,-0.03069905750453472,-0.007185208611190319,0.008482434786856174
1761385023484232700,2.419232666015625,-0.030822094529867172,-0.006098372396081686,0.011816179379820824
1761385023494301400,2.429301513671875,-0.02666489966213703,-0.004749215207993984,0.019481556490063667
1761385023504370400,2.439370361328125,-0.017132380977272987,-0.012949354015290737,0.021570805460214615
1761385023514438700,2.449438720703125,-0.005076251458376646,-0.023356987163424492,0.01446922030299902
1761385023524507600,2.459507568359375,0.01721387356519699,-0.01992257498204708,0.011751198209822178
1761385023534576600,2.46957666015625,0.04032665118575096,-0.006334062200039625,0.006549245677888393
1761385023544645600,2.479645751953125,0.05769791826605797,0.00749014038592577,0.009647566825151443
1761385023554714600,2.489714599609375,0.053709566593170166,0.013205816969275475,0.01570546068251133
1761385023564783600,2.49978369140625,0.03567517176270485,0.00501206936314702,0.023071497678756714
1761385023574852400,2.509852294921875,0.014917963184416294,-0.018192319199442863,0.02901007980108261
1761385023584921600,2.519921630859375,-0.00038695731200277805,-0.03223676607012749,0.035955335944890976
1761385023594990600,2.529990478515625,-0.0068211546167731285,-0.030184799805283546,0.04117193818092346
1761385023605059600,2.5400595703125,-0.014168549329042435,-0.02329493686556816,0.035894885659217834
1761385023615128600,2.550128662109375,-0.01691639982163906,-0.008282165043056011,0.025586586445569992
1761385023625197600,2.560197509765625,-0.019944146275520325,-0.0027316042687743902,0.011480621062219143
1761385023635266600,2.5702666015625,-0.03014991246163845,-0.005303951445966959,-0.0035811527632176876
1761385023645334500,2.58033447265625,-0.03490818291902542,-0.004009388852864504,-0.011915781535208225
1761385023655403500,2.590403564453125,-0.03771861642599106,-0.012546950951218605,-0.018365956842899323
1761385023665472500,2.600472412109375,-0.036669597029685974,-0.017526529729366302,-0.022888803854584694
1761385023675541800,2.610541748046875,-0.044554419815540314,-0.009195095859467983,-0.023860592395067215
1761385023685610500,2.620610595703125,-0.05398014560341835,0.007524229120463133,-0.025615081191062927
1761385023695679700,2.6306796875,-0.053773216903209686,0.014436730183660984,-0.018372349441051483
1761385023705748500,2.64074853515625,-0.04424922168254852,0.009777529165148735,-0.007412376347929239
1761385023715817500,2.6508173828125,-0.03575959429144859,0.000636495475191623,0.010775416158139706
1761385023725886500,2.660886474609375,-0.027588218450546265,-0.007523962762206793,0.025956498458981514
1761385023735955500,2.67095556640625,-0.02412184700369835,-0.010233462788164616,0.03906803950667381
1761385023746024700,2.681024658203125,-0.026869164779782295,-0.0003736414946615696,0.04433843493461609
1761385023756089300,2.69108935546875,-0.02021978422999382,0.011502725072205067,0.032709743827581406
1761385023766158300,2.701158447265625,-0.0020663465838879347,0.010873686522245407,0.008828112855553627
1761385023776226600,2.7112265625,0.025742648169398308,0.0014114753575995564,-0.020496485754847527
1761385023786295300,2.72129541015625,0.05905426666140556,-0.015342471189796925,-0.03790424019098282
1761385023796364500,2.731364501953125,0.07504654675722122,-0.024329574778676033,-0.03937510401010513
1761385023806433500,2.74143359375,0.06729142367839813,-0.028740035369992256,-0.030980819836258888
1761385023816502300,2.751502197265625,0.044500354677438736,-0.03849918767809868,-0.008563927374780178
1761385023826571500,2.761571533203125,0.022701051086187363,-0.036200881004333496,0.014458567835390568
1761385023836640300,2.77164013671875,0.005361475981771946,-0.02112099714577198,0.036023516207933426
1761385023846709500,2.78170947265625,0.0019433086272329092,-0.003266633255407214,0.04014555364847183
1761385023856778500,2.791778564453125,0.0020389161072671413,0.003437075763940811,0.02527206763625145
1761385023866847500,2.801847412109375,0.010816428810358047,0.026686204597353935,0.005374791566282511
1761385023876916500,2.81191650390625,0.02004002034664154,0.03978256508708,-0.017107347026467323
1761385023886985500,2.8219853515625,0.03326527774333954,0.04252588748931885,-0.03365596383810043
1761385023897054500,2.832054443359375,0.03357819840312004,0.0308133065700531,-0.04556375741958618
1761385023907122400,2.842122314453125,0.027411118149757385,0.014915033243596554,-0.055386826395988464
1761385023917191400,2.85219140625,0.02070607803761959,-0.0023901870008558035,-0.05327494069933891
1761385023927260400,2.862260498046875,0.02112232893705368,-0.00672208471223712,-0.043661195784807205
1761385023937329400,2.872329345703125,0.018762502819299698,-0.011564244516193867,-0.031860195100307465
1761385023947398400,2.8823984375,0.013214072212576866,-0.008595884777605534,-0.018366755917668343
1761385023957467600,2.892467529296875,0.005067196674644947,0.0029401297215372324,-0.00004314320904086344
1761385023967536400,2.902536376953125,-0.011954131536185741,0.018205102533102036,0.019832827150821686
1761385023977605400,2.91260546875,-0.021519938483834267,0.019032280892133713,0.028059331700205803
1761385023987674400,2.92267431640625,-0.016150740906596184,0.014765896834433079,0.02455487847328186
1761385023997743400,2.932743408203125,0.0006615291931666434,0.0023363912478089333,0.012195945717394352
1761385024007812600,2.9428125,0.018796591088175774,-0.017551297321915627,-0.004264520015567541
1761385024017881300,2.95288134765625,0.027167173102498055,-0.031739555299282074,-0.011264106258749962
1761385024027950600,2.96295068359375,0.02340465784072876,-0.02474103309214115,-0.013187707401812077
1761385024038019300,2.973019287109375,0.014302772469818592,-0.008978847414255142,-0.005088502075523138
1761385024048087300,2.98308740234375,0.013247895054519176,0.005471464246511459,0.006786533165723085
1761385024058156500,2.993156494140625,0.021251492202281952,0.020296482369303703,0.015430089086294174
1761385024068225300,3.003225341796875,0.02756158635020256,0.008588427677750587,0.018459700047969818
1761385024078294500,3.01329443359375,0.024658475071191788,-0.003871171036735177,0.02695225551724434
1761385024088363500,3.023363525390625,0.015023157931864262,-0.015268168412148952,0.03416942059993744
1761385024098432500,3.0334326171875,-0.0007584682898595929,-0.015675632283091545,0.04042278975248337
1761385024108501500,3.04350146484375,-0.014718758873641491,-0.013461479917168617,0.04198100417852402
1761385024118570200,3.0535703125,-0.015667643398046494,-0.020024839788675308,0.032522521913051605
1761385024128639500,3.063639404296875,-0.0015254586469382048,-0.03274436295032501,0.023272832855582237
1761385024138708500,3.07370849609375,0.013887319713830948,-0.05252446234226227,0.007050452753901482
1761385024148777500,3.083777587890625,0.02942233718931675,-0.07969482988119125,0.005138036794960499
1761385024158846500,3.093846435546875,0.03501870483160019,-0.10214661061763763,0.00011478224041638896
1761385024168914400,3.10391455078125,0.02877066098153591,-0.10713337361812592,0.006013950332999229
1761385024178983400,3.1139833984375,0.010688863694667816,-0.08623022586107254,0.023664049804210663
1761385024189052400,3.124052490234375,-0.012721920385956764,-0.04911135509610176,0.04074982553720474
1761385024199121400,3.134121337890625,-0.03695988282561302,-0.01727752387523651,0.04785221070051193
1761385024209190400,3.1441904296875,-0.059843093156814575,0.005646434146910906,0.04345346614718437
1761385024219259400,3.15425927734375,-0.0749453455209732,0.023018766194581985,0.033185649663209915
1761385024229328400,3.164328369140625,-0.07030265778303146,0.016925720497965813,0.009260343387722969
1761385024239397600,3.174397705078125,-0.05843774229288101,0.006132461130619049,-0.01145931612700224
1761385024249466400,3.18446630859375,-0.03891490772366524,-0.0044261738657951355,-0.021461348980665207
1761385024259535600,3.19453564453125,-0.026696326211094856,-0.012061722576618195,-0.01966717839241028
1761385024269604400,3.204604248046875,-0.02370799332857132,-0.02419694885611534,-0.005876797717064619
1761385024279673300,3.21467333984375,-0.02064455859363079,-0.03316008299589157,0.008301605470478535
1761385024289742600,3.22474267578125,-0.01907515712082386,-0.04140309989452362,0.02111673727631569
1761385024299811300,3.234811279296875,-0.015381619334220886,-0.04586416110396385,0.026196183636784554
1761385024309879600,3.244879638671875,-0.009959423914551735,-0.04056287184357643,0.024037159979343414
1761385024319948500,3.254948486328125,0.0027419906109571457,-0.027224164456129074,0.020009661093354225
1761385024330017300,3.265017333984375,0.016043948009610176,-0.012060923501849174,0.009196694009006023
1761385024340086500,3.27508642578125,0.02154390700161457,-0.004811266902834177,-0.002939597237855196
1761385024350155300,3.2851552734375,0.017621338367462158,-0.001377653214149177,-0.01932522840797901
1761385024360224500,3.295224609375,0.01134080532938242,0.004349474795162678,-0.0268356092274189
1761385024370293500,3.30529345703125,0.007541006896644831,0.0037087181117385626,-0.030295588076114655
1761385024380362500,3.315362548828125,0.017647171393036842,0.006598514039069414,-0.02287176065146923
1761385024390431500,3.325431396484375,0.036744698882102966,-0.00040293627534992993,-0.015192801132798195
1761385024400500500,3.33550048828125,0.05416683107614517,0.0005542038124985993,-0.008469118736684322
1761385024410569500,3.345569580078125,0.0740494579076767,-0.00734313391149044,0.000011451592399680521
1761385024420638500,3.355638427734375,0.08947395533323288,-0.004116980824619532,0.011067564599215984
1761385024430707500,3.36570751953125,0.10045523196458817,0.003275954397395253,0.027850806713104248
1761385024440775400,3.375775390625,0.10281479358673096,0.006327138282358646,0.04800587520003319
1761385024450844400,3.385844482421875,0.10130025446414948,-0.01708497665822506,0.054617706686258316
1761385024460913400,3.395913330078125,0.08836954087018967,-0.06034643203020096,0.046601057052612305
1761385024470982700,3.405982666015625,0.06364741921424866,-0.10798585414886475,0.03795856609940529
1761385024481051400,3.416051513671875,0.031810395419597626,-0.15061187744140625,0.018702847883105278
1761385024491120400,3.426120361328125,-0.0059987702406942844,-0.1626530885696411,0.002019741339609027
1761385024501189400,3.436189453125,-0.049735598266124725,-0.13751259446144104,-0.010399910621345043
1761385024511258400,3.44625830078125,-0.07924981415271759,-0.07120759785175323,-0.022490128874778748
1761385024521327600,3.45632763671875,-0.09717369079589844,-0.0022277343086898327,-0.038050711154937744
1761385024531396400,3.466396240234375,-0.09612306952476501,0.05656048282980919,-0.06249986216425896
1761385024541465600,3.476465576171875,-0.08097394555807114,0.10439964383840561,-0.0841020941734314
1761385024551534300,3.486534423828125,-0.056228384375572205,0.1309654712677002,-0.10562070459127426
1761385024561603600,3.496603515625,-0.01828792691230774,0.14388659596443176,-0.10819757729768753
1761385024571671600,3.506671630859375,0.02485235221683979,0.13057318329811096,-0.09266069531440735
1761385024581740300,3.516740234375,0.0641116052865982,0.10101582854986191,-0.06400055438280106
1761385024591809500,3.5268095703125,0.08515270799398422,0.05137583985924721,-0.02335326001048088
1761385024601878500,3.53687841796875,0.08787605911493301,-0.024541562423110008,0.019938021898269653
1761385024611947500,3.546947509765625,0.06991969794034958,-0.08972615748643875,0.06522054970264435
1761385024622016500,3.5570166015625,0.049136120826005936,-0.12573689222335815,0.1053762212395668
1761385024632085500,3.56708544921875,0.025660090148448944,-0.1357612907886505,0.12383938580751419
1761385024642154500,3.577154541015625,0.006626477465033531,-0.10620207339525223,0.11798948794603348
1761385024652223200,3.58722314453125,-0.0012170645641162992,-0.05643850937485695,0.0888342633843422
1761385024662292500,3.59729248046875,0.0018218684708699584,-0.0017741979099810123,0.03941984474658966
1761385024672361500,3.607361572265625,0.013036173768341541,0.04802291840314865,-0.014090253040194511
1761385024682430500,3.617430419921875,0.020086092874407768,0.07364226132631302,-0.06378057599067688
1761385024692499500,3.62749951171875,0.026251576840877533,0.08556549996137619,-0.09634064882993698
1761385024702567400,3.6375673828125,0.02707742340862751,0.07242146879434586,-0.1101565957069397
1761385024712636400,3.647636474609375,0.01938328519463539,0.04735073819756508,-0.09445486962795258
1761385024722705400,3.657705322265625,-0.0044261738657951355,0.01878540590405464,-0.05970833823084831
1761385024732774400,3.6677744140625,-0.022247781977057457,-0.009286442771553993,-0.011600730009377003
1761385024742843400,3.677843505859375,-0.03780730068683624,-0.04192854091525078,0.02937360107898712
1761385024752912600,3.68791259765625,-0.05451463907957077,-0.061520084738731384,0.06671751290559769
1761385024762981600,3.697981689453125,-0.05920739844441414,-0.0734715536236763,0.08526243269443512
1761385024773050600,3.708050537109375,-0.05459773167967796,-0.07022809237241745,0.08445602655410767
1761385024783119600,3.71811962890625,-0.050160106271505356,-0.061221279203891754,0.06706878542900085
1761385024793188600,3.728188720703125,-0.049388587474823,-0.041007086634635925,0.04055408388376236
1761385024803257600,3.738257568359375,-0.05217292159795761,-0.010029731318354607,0.009760218672454357
1761385024813326600,3.74832666015625,-0.05958849564194679,0.03545253351330757,-0.0157089214771986
1761385024823395800,3.758395751953125,-0.06623281538486481,0.0661473274230957,-0.03756868094205856
1761385024833463600,3.768463623046875,-0.06434330344200134,0.07172585278749466,-0.054003581404685974
1761385024843532500,3.778532470703125,-0.058284077793359756,0.06754176318645477,-0.0636916309595108
1761385024853601800,3.788601806640625,-0.0438111312687397,0.05771203339099884,-0.05685555934906006
1761385024863670500,3.79867041015625,-0.02592427469789982,0.0391806922852993,-0.04253973811864853
1761385024873739800,3.80873974609375,-0.009052883833646774,0.01560958568006754,-0.022155901417136192
1761385024883808500,3.81880859375,0.004307929426431656,0.00287461606785655,0.004797950852662325
1761385024893877500,3.82887744140625,0.013541908003389835,-0.004111654590815306,0.022165223956108093
1761385024903946800,3.83894677734375,0.02797304466366768,-0.011801531538367271,0.03347913175821304
1761385024914015500,3.849015380859375,0.049071673303842545,-0.018063155934214592,0.03487782180309296
1761385024924084700,3.859084716796875,0.07022009789943695,-0.01991751603782177,0.02593732438981533
1761385024934153500,3.869153564453125,0.08329196274280548,-0.03895032778382301,0.017367005348205566
1761385024944222700,3.87922265625,0.087812140583992,-0.050510577857494354,0.02027357928454876
1761385024954291500,3.88929150390625,0.08376440405845642,-0.06729888170957565,0.02351997420191765
1761385024964360700,3.899360595703125,0.07005338370800018,-0.07580821216106415,0.024766067042946815
1761385024974428700,3.9094287109375,0.057790596038103104,-0.08881162852048874,0.02468217723071575
1761385024984497700,3.91949755859375,0.05291274935007095,-0.09628631919622421,0.017286045476794243
1761385024994566700,3.929566650390625,0.05811283737421036,-0.10567449778318405,0.008873652666807175
1761385025004635600,3.9396357421875,0.06701019406318665,-0.1292027235031128,-0.0009076052810996771
1761385025014704600,3.94970458984375,0.06064177677035332,-0.14735670387744904,-0.005318332463502884
1761385025024773600,3.959773681640625,0.023418240249156952,-0.1342259794473648,-0.0070371367037296295
1761385025034842600,3.969842529296875,-0.021918615326285362,-0.09344952553510666,-0.0038746329955756664
1761385025044911600,3.97991162109375,-0.0549873523414135,-0.04074583202600479,-0.0070304786786437035
1761385025054980600,3.989980712890625,-0.06675320118665695,0.007733553647994995,-0.019357185810804367
1761385025065049600,4.000049560546875,-0.05206426605582237,0.045701175928115845,-0.04211176559329033
1761385025075118600,4.01011865234375,-0.03814418986439705,0.07791716605424881,-0.05295589193701744
1761385025085187600,4.0201875,-0.027951739728450775,0.09689165651798248,-0.05507203936576843
1761385025095256600,4.030256591796875,-0.02377403900027275,0.09570122510194778,-0.0471629835665226
1761385025105324500,4.040324462890625,-0.023551398888230324,0.07762448489665985,-0.03260001912713051
1761385025115393500,4.0503935546875,-0.018979815766215324,0.04729561135172844,-0.014568023383617401
1761385025125462500,4.060462646484375,0.001094559207558632,0.009518669918179512,0.0046578687615692616
1761385025135531800,4.07053173828125,0.02250530943274498,-0.03441549837589264,0.015127287246286869
1761385025145600500,4.0806005859375,0.032944101840257645,-0.061593588441610336,0.030040455982089043
1761385025155669800,4.090669677734375,0.03190839663147926,-0.06583067774772644,0.04284413531422615
1761385025165738500,4.100738525390625,0.02009754441678524,-0.0491022989153862,0.052570268511772156
1761385025175807700,4.110807861328125,0.012672917917370796,-0.030059099197387695,0.05386749282479286
1761385025185876500,4.12087646484375,0.005997705273330212,-0.019103653728961945,0.04140070453286171
1761385025195945500,4.130945556640625,0.005042961798608303,-0.0026256104465574026,0.021469872444868088
1761385025206014700,4.1410146484375,0.009471000172197819,0.01781654730439186,0.0011619371362030506
1761385025216083500,4.15108349609375,0.017673801630735397,0.02684199996292591,-0.023809991776943207
1761385025226152700,4.161152587890625,0.019028285518288612,0.021251758560538292,-0.039792418479919434
1761385025236220700,4.171220703125,0.013223127461969852,0.011779693886637688,-0.05323952063918114
1761385025246289700,4.18128955078125,0.007570834364742041,-0.0043718451634049416,-0.06034296751022339
1761385025256358700,4.191358642578125,0.010808705352246761,-0.018803248181939125,-0.057191383093595505
1761385025266427400,4.201427490234375,0.009979929774999619,-0.036853622645139694,-0.04344175010919571
1761385025276496600,4.21149658203125,-0.00138058268930763,-0.05199289321899414,-0.02630031295120716
1761385025286565600,4.221565673828125,-0.02191115729510784,-0.05963483452796936,-0.006986802909523249
1761385025296634600,4.231634521484375,-0.04141934588551521,-0.051666922867298126,0.002948385663330555
1761385025306703600,4.24170361328125,-0.050280746072530746,-0.04174691438674927,0.009489641524851322
1761385025316772600,4.251772705078125,-0.042575955390930176,-0.02130768448114395,0.013118465431034565
1761385025326841600,4.261841552734375,-0.02803056873381138,-0.0008442220860160887,0.006424077320843935
1761385025336910800,4.271910888671875,-0.005289304070174694,0.018382735550403595,0.002335592173039913
1761385025346979600,4.2819794921875,0.01895078830420971,0.02732137031853199,-0.007940481416881084
1761385025357048600,4.292048583984375,0.03684509918093681,0.035356923937797546,-0.012295016087591648
1761385025367117600,4.30211767578125,0.0472806952893734,0.02738155610859394,-0.007642739452421665
1761385025377185500,4.312185546875,0.041961297392845154,0.0015933692920953035,0.0046882289461791515
1761385025387254800,4.3222548828125,0.025185247883200645,-0.01720934733748436,0.01690814271569252
1761385025397323500,4.332323486328125,0.010222277604043484,-0.020668793469667435,0.03560806065797806
1761385025407392500,4.342392578125,0.007528223562985659,-0.01136823557317257,0.049677539616823196
1761385025417461800,4.352461669921875,0.00990269798785448,0.00010412959818495438,0.0581945963203907
1761385025427530500,4.362530517578125,0.01600133627653122,0.007954062893986702,0.04995051398873329
1761385025437599700,4.372599853515625,0.01919286884367466,0.01161431148648262,0.03698571398854256
1761385025447668500,4.38266845703125,0.01774863712489605,0.00777776213362813,0.0220927856862545
1761385025457737700,4.39273779296875,0.011358382180333138,0.00023968449386302382,-0.0017755294684320688
1761385025467806500,4.402806396484375,0.001383512164466083,-0.02155269682407379,-0.022283202037215233
1761385025477875700,4.412875732421875,-0.0046301716938614845,-0.03599422052502632,-0.038301315158605576
1761385025487944700,4.42294482421875,-0.00926140882074833,-0.04284067451953888,-0.04921867698431015
1761385025498013400,4.433013427734375,-0.017041034996509552,-0.043303266167640686,-0.04691744223237038
1761385025508081700,4.44308154296875,-0.028483573347330093,-0.033660490065813065,-0.034383006393909454
1761385025518150700,4.453150634765625,-0.040765807032585144,-0.01407560519874096,-0.02479962259531021
1761385025528219600,4.4632197265625,-0.04619332775473595,0.01155705377459526,-0.017361946403980255
1761385025538288600,4.47328857421875,-0.038115695118904114,0.03635933995246887,-0.009138903580605984
1761385025548357600,4.483357666015625,-0.028549885377287865,0.05326562002301216,-0.001526257605291903
1761385025558426600,4.493426513671875,-0.00896659679710865,0.06775907427072525,0.005306880921125412
1761385025568495600,4.50349560546875,0.01924799755215645,0.0731051042675972,0.01702958345413208
1761385025578564600,4.513564697265625,0.05192578211426735,0.06246897205710411,0.022580675780773163
1761385025588633600,4.523633544921875,0.08003118634223938,0.039632897824048996,0.030128873884677887
1761385025598702600,4.53370263671875,0.09967172890901566,0.012254801578819752,0.03803606703877449
1761385025608771600,4.543771484375,0.10181983560323715,-0.021378790959715843,0.0437629260122776
1761385025618840600,4.553840576171875,0.08997942507266998,-0.05657299980521202,0.048348356038331985
1761385025628908500,4.563908447265625,0.06458884477615356,-0.07499141991138458,0.0451405793428421
1761385025638977500,4.5739775390625,0.03822195529937744,-0.08218914270401001,0.03633883222937584
1761385025649046800,4.584046875,0.013855095021426678,-0.06999213248491287,0.020352143794298172
1761385025659115500,4.594115478515625,-0.008820655755698681,-0.037587590515613556,0.004225637763738632
1761385025669184800,4.604184814453125,-0.03136271610856056,-0.001790975802578032,-0.018266355618834496
1761385025679253500,4.61425341796875,-0.044381044805049896,0.029938723891973495,-0.03340722620487213
1761385025689322800,4.62432275390625,-0.047991495579481125,0.04813983291387558,-0.04873425140976906
1761385025699391500,4.6343916015625,-0.04531848058104515,0.04627269133925438,-0.06325539946556091
1761385025709460500,4.64446044921875,-0.03759211674332619,0.04002944007515907,-0.0676935613155365
1761385025719529700,4.65452978515625,-0.03485118970274925,0.02942926064133644,-0.057922154664993286
1761385025729598500,4.664598388671875,-0.034449320286512375,0.014711301773786545,-0.03633510321378708
1761385025739667700,4.674667724609375,-0.047147538512945175,-0.0007960188668221235,-0.01363298762589693
1761385025749736400,4.684736328125,-0.05110499635338783,-0.029529662802815437,0.010041981004178524
1761385025759809000,4.69480908203125,-0.05338120087981224,-0.05319957062602043,0.026161029934883118
1761385025769877000,4.704876953125,-0.052442170679569244,-0.06331745535135269,0.04711371660232544
1761385025779946000,4.714946044921875,-0.04995424300432205,-0.049063149839639664,0.0613592304289341
1761385025790015000,4.725014892578125,-0.04459409788250923,-0.02605343796312809,0.06500163674354553
1761385025800084000,4.735083984375,-0.0429818220436573,-0.00788402184844017,0.05812322348356247
1761385025810153000,4.745153076171875,-0.04174797981977463,-0.0009933591354638338,0.04517919570207596
1761385025820222000,4.755221923828125,-0.046070024371147156,0.012301407754421234,0.029442576691508293
1761385025830291000,4.765291015625,-0.046601589769124985,0.03243836760520935,0.01200126949697733
1761385025840360000,4.77535986328125,-0.039017971605062485,0.05330529808998108,0.0023148194886744022
1761385025850429200,4.78542919921875,-0.02436126582324505,0.06937374919652939,0.003096990054473281
1761385025860498000,4.795497802734375,-0.010515491478145123,0.07290376722812653,0.004120443016290665
1761385025870567200,4.805567138671875,-0.001526257605291903,0.06355846673250198,0.010782074183225632
1761385025880636000,4.815635986328125,-0.0012279836228117347,0.04211309924721718,0.02118917554616928
1761385025890705000,4.825704833984375,-0.003734284546226263,0.019717246294021606,0.02570536360144615
1761385025900773000,4.835773193359375,-0.0017691379180178046,-0.009828662499785423,0.03117815963923931
1761385025910841900,4.845841796875,0.008645686320960522,-0.0412619523704052,0.032945167273283005
1761385025920911000,4.8559111328125,0.023392673581838608,-0.06459763646125793,0.03397873789072037
1761385025930979800,4.865979736328125,0.03696254640817642,-0.06492626667022705,0.037579599767923355
1761385025941049000,4.876049072265625,0.04548759013414383,-0.05609362944960594,0.0419546402990818
1761385025951118000,4.8861181640625,0.043051328510046005,-0.04568333178758621,0.041315749287605286
1761385025961185000,4.89618505859375,0.03629995137453079,-0.036201149225234985,0.03141731023788452
1761385025971253800,4.906253662109375,0.021857628598809242,-0.037282656878232956,0.009060073643922806
1761385025981323000,4.916322998046875,0.011021758429706097,-0.04162440821528435,-0.015965383499860764
1761385025991392000,4.92639208984375,-0.0014895059866830707,-0.03995300829410553,-0.0414062961935997
1761385026001461000,4.9364609375,-0.009273659437894821,-0.026607375591993332,-0.06295206397771835
1761385026011530000,4.946530029296875,-0.018854647874832153,-0.012015383690595627,-0.07494854182004929
1761385026021599000,4.956598876953125,-0.020110594108700752,0.010964767076075077,-0.07887031137943268
1761385026031668000,4.96666796875,-0.015388543717563152,0.03443280979990959,-0.070718914270401
1761385026041737000,4.976737060546875,-0.01107422262430191,0.03506637364625931,-0.051959868520498276
1761385026051805000,4.986804931640625,-0.005875465925782919,0.011167699471116066,-0.03951838240027428
1761385026061874000,4.9968740234375,-0.011078483425080776,-0.017968347296118736,-0.02112073078751564
1761385026071943200,5.006943115234375,-0.01774544082581997,-0.034202445298433304,-0.00006151902198325843
1761385026082012000,5.017011962890625,-0.03190919756889343,-0.03344237804412842,0.009030246175825596
1761385026092081200,5.0270810546875,-0.03881876915693283,-0.025304557755589485,0.0137802604585886
1761385026102150000,5.03714990234375,-0.03910958394408226,-0.010851316154003143,0.011351990513503551
1761385026112219100,5.04721923828125,-0.026860643178224564,0.013964018784463406,-0.0007677893154323101
1761385026122287900,5.057287841796875,-0.0018064221367239952,0.03640301525592804,-0.014376276172697544
1761385026132356900,5.06735693359375,0.02660391293466091,0.03448207676410675,-0.028477180749177933
1761385026142426000,5.077426025390625,0.050689540803432465,0.03207244724035263,-0.028131769970059395
1761385026152494800,5.087494873046875,0.05437562242150307,0.02047145366668701,-0.023557789623737335
1761385026162564000,5.097564208984375,0.043409526348114014,0.013499297201633453,-0.010697385296225548
1761385026172632800,5.1076328125,0.025839053094387054,0.0011211908422410488,-0.0004577973741106689
1761385026182700800,5.11770068359375,0.004605138208717108,-0.007711715530604124,0.008394017815589905
1761385026192770000,5.12777001953125,-0.005309544038027525,-0.012475844472646713,0.0033129723742604256
1761385026202838800,5.1378388671875,-0.00851306039839983,-0.013592241331934929,-0.005917544011026621
1761385026212908000,5.147907958984375,-0.0011257182341068983,-0.006974818650633097,-0.015690013766288757
1761385026222977000,5.15797705078125,0.011805260553956032,-0.0008551410282962024,-0.021328724920749664
1761385026233046000,5.1680458984375,0.027166107669472694,0.003204315435141325,-0.025189243257045746
1761385026243115000,5.178114990234375,0.029347501695156097,-0.00811997801065445,-0.022114090621471405
1761385026253184000,5.18818408203125,0.02593279629945755,-0.023920511826872826,-0.0062491074204444885
1761385026263253000,5.1982529296875,0.025135712698101997,-0.033784329891204834,0.014392787590622902
1761385026273322000,5.208322021484375,0.03170999139547348,-0.036546025425195694,0.03303065523505211
1761385026283391000,5.218390869140625,0.038729287683963776,-0.03093261644244194,0.04711371660232544
1761385026293460000,5.2284599609375,0.04195943474769592,-0.021796641871333122,0.04952653869986534
1761385026303529000,5.238529052734375,0.03050624392926693,-0.01118953712284565,0.045646846294403076
1761385026313597000,5.248596923828125,0.012937103398144245,-0.01601571775972843,0.03056083805859089
1761385026323666200,5.258666259765625,0.0016737966798245907,-0.026215357705950737,0.010269681923091412
1761385026333735000,5.26873486328125,-0.011610050685703754,-0.02793229930102825,-0.004099936690181494
1761385026343804000,5.278803955078125,-0.02425873465836048,-0.019766513258218765,-0.008437693119049072
1761385026353873000,5.288872802734375,-0.03650448098778725,0.0023971113841980696,-0.009125321172177792
1761385026363942000,5.29894189453125,-0.04267475754022598,0.023806795477867126,-0.011108310893177986
1761385026374011100,5.30901123046875,-0.04703914746642113,0.03497263044118881,-0.004804342519491911
1761385026384080000,5.319079833984375,-0.05477802827954292,0.030474020168185234,-0.0025414545089006424
1761385026394149000,5.329149169921875,-0.06585757434368134,0.015752065926790237,0.0011787151452153921
1761385026404217900,5.3392177734375,-0.07574083656072617,0.0041582598350942135,0.0019710054621100426
1761385026414287000,5.349287109375,-0.07752568274736404,-0.011354386806488037,0.0033992587123066187
1761385026424356000,5.359356201171875,-0.0648980364203453,-0.013481720350682735,-0.001335841603577137
1761385026434424800,5.3694248046875,-0.040652886033058167,-0.004776113200932741,-0.010611631907522678
1761385026444493000,5.3794931640625,-0.014943529851734638,0.008599347434937954,-0.01865890622138977
1761385026454562000,5.38956201171875,0.0057220677845180035,0.0210629403591156,-0.027820445597171783
1761385026464631000,5.399631103515625,0.02244432270526886,0.027040937915444374,-0.03711621090769768
1761385026474700000,5.409699951171875,0.029956568032503128,0.014858574606478214,-0.045108355581760406
1761385026484768800,5.419768798828125,0.03505998104810715,0.002935868687927723,-0.04683195427060127
1761385026494838000,5.429838134765625,0.032154738903045654,-0.017115337774157524,-0.04224226251244545
1761385026504907000,5.439906982421875,0.027707794681191444,-0.023743944242596626,-0.0384637676179409
1761385026514976000,5.44997607421875,0.03243890032172203,-0.013217268511652946,-0.03460032120347023
1761385026525045000,5.460044921875,0.04947727173566818,-0.0001323590986430645,-0.02911980263888836
1761385026535114000,5.470114013671875,0.06276271492242813,0.001181644620373845,-0.02797277830541134
1761385026545183000,5.480182861328125,0.07204622775316238,-0.006016879808157682,-0.03134380653500557
1761385026555252000,5.490251953125,0.07990016043186188,-0.030762173235416412,-0.03581259399652481
1761385026565321000,5.500321044921875,0.08736446499824524,-0.06444636732339859,-0.03893435001373291
1761385026575389000,5.510388916015625,0.08484271913766861,-0.07998964190483093,-0.03465358540415764
1761385026585458000,5.5204580078125,0.06641843914985657,-0.08274388313293457,-0.023131685331463814
1761385026595529000,5.530529052734375,0.03964328393340111,-0.06790528446435928,-0.012603675946593285
1761385026605597000,5.540596923828125,0.014223410747945309,-0.04685592278838158,-0.011591142043471336
1761385026615666000,5.550666015625,0.0015334481140598655,-0.022097311913967133,-0.018569422885775566
1761385026625735200,5.560735107421875,-0.004936701618134975,-0.002490854589268565,-0.027937358245253563
1761385026635804000,5.570803955078125,-0.0006540723843500018,0.020387297496199608,-0.041663557291030884
1761385026645873200,5.580873046875,0.005630721338093281,0.032533708959817886,-0.04309367388486862
1761385026655942000,5.59094189453125,0.012856409884989262,0.03699743375182152,-0.03675534948706627
1761385026666011100,5.60101123046875,0.011202320456504822,0.04340100288391113,-0.021618476137518883
1761385026676079900,5.611079833984375,0.007821437902748585,0.039558593183755875,-0.0033015208318829536
1761385026686148900,5.62114892578125,0.007220095954835415,0.02780233696103096,0.017531588673591614
1761385026696218000,5.631218017578125,0.007674963679164648,0.006399842444807291,0.03267752006649971
1761385026706286800,5.641286865234375,0.013287309557199478,-0.020324978977441788,0.044387705624103546
1761385026716356000,5.651356201171875,0.006347111891955137,-0.035410720854997635,0.050401922315359116
1761385026726424800,5.6614248046875,0.001091629732400179,-0.035957735031843185,0.05016303434967995
1761385026736492800,5.671492919921875,-0.005911152344197035,-0.028615932911634445,0.04755420237779617
1761385026746562000,5.68156201171875,-0.018555041402578354,-0.021460816264152527,0.03731674700975418
1761385026756630800,5.691630859375,-0.031138477846980095,-0.016036223620176315,0.023026488721370697
1761385026766697000,5.701697021484375,-0.03864459693431854,-0.009395898319780827,0.0010239854454994202
1761385026776766000,5.711765869140625,-0.04087100178003311,0.007507184520363808,-0.011683288030326366
1761385026786835000,5.7218349609375,-0.03521684184670448,0.01763651706278324,-0.025654496625065804
1761385026796904000,5.731904052734375,-0.023135945200920105,0.03507303074002266,-0.03275554999709129
1761385026806973000,5.741972900390625,-0.003920173272490501,0.04586416110396385,-0.03814179450273514
1761385026817042000,5.7520419921875,0.019419770687818527,0.03605653718113899,-0.03743232786655426
1761385026827111000,5.76211083984375,0.04030880704522133,0.02219505049288273,-0.023261645808815956
1761385026837180000,5.772179931640625,0.0501803457736969,-0.0028487835079431534,-0.007062437012791634
1761385026847249200,5.782249267578125,0.046420495957136154,-0.03524400666356087,0.016158197075128555
1761385026857318000,5.79231787109375,0.03248124569654465,-0.053943924605846405,0.02690591663122177
1761385026867385900,5.8023857421875,0.018747322261333466,-0.05812295898795128,0.03801422566175461
1761385026877455000,5.812455078125,0.019297797232866287,-0.053341519087553024,0.030773891136050224
1761385026887523800,5.82252392578125,0.027117904275655746,-0.029952039942145348,0.023693611845374107
1761385026897593000,5.832593017578125,0.036608077585697174,-0.002576608443632722,0.006372411735355854
1761385026907661800,5.842661865234375,0.040224120020866394,0.017795775085687637,-0.0037020600866526365
1761385026917731000,5.85273095703125,0.040523458272218704,0.01936677284538746,-0.013880661688745022
1761385026927800000,5.862800048828125,0.03635161742568016,0.004249073565006256,-0.022465361282229424
1761385026937868800,5.872868896484375,0.02792910300195217,-0.00424161646515131,-0.02383129671216011
1761385026947938000,5.88293798828125,0.021992649883031845,-0.013538445346057415,-0.0245458222925663
1761385026958006800,5.8930068359375,0.017107080668210983,-0.017240505665540695,-0.01799897477030754
1761385026968076000,5.903075927734375,0.00817910023033619,-0.01852255128324032,-0.012794891372323036
1761385026978144800,5.913144775390625,0.0015443670563399792,-0.018491126596927643,-0.0009901633020490408
1761385026988214000,5.923214111328125,-0.00088949577184394,-0.02201581932604313,0.009260876104235649
1761385026998282000,5.933281982421875,-0.005257346201688051,-0.029193304479122162,0.01787886582314968
1761385027008351000,5.94335107421875,-0.015680693089962006,-0.030736340209841728,0.022762836888432503
1761385027018420000,5.953419921875,-0.031918782740831375,-0.025790851563215256,0.0275631844997406
1761385027028489000,5.963489013671875,-0.04682955518364906,-0.01606685109436512,0.024105336517095566
1761385027038558000,5.973557861328125,-0.0554099939763546,0.0013760552974417806,0.01293683797121048
1761385027048627000,5.983626953125,-0.0529060922563076,0.025533322244882584,0.0038802255876362324
1761385027058696000,5.993696044921875,-0.03880785033106804,0.04294480383396149,-0.008841427974402905
1761385027068765000,6.003764892578125,-0.02652961201965809,0.047440219670534134,-0.026759974658489227
1761385027078834200,6.013834228515625,-0.016577377915382385,0.04709933325648308,-0.026923226192593575
1761385027088903000,6.02390283203125,-0.008469385094940662,0.03843500837683678,-0.018688200041651726
1761385027098972000,6.033971923828125,-0.008041947148740292,0.018092451617121696,-0.0033859428949654102
1761385027109041000,6.044041015625,-0.007640076335519552,-0.006621417589485645,0.008327971212565899
1761385027119110000,6.05410986328125,-0.003102049930021167,-0.025194834917783737,0.021521270275115967
1761385027129178000,6.06417822265625,0.008415322750806808,-0.026700586080551147,0.027350664138793945
1761385027139246800,6.074246826171875,0.02370346523821354,-0.03037921153008938,0.024991901591420174
1761385027149315800,6.08431591796875,0.038532476872205734,-0.034752387553453445,0.02100648172199726
1761385027159385000,6.094385009765625,0.052919406443834305,-0.033317212015390396,0.01495258416980505
1761385027169453800,6.104453857421875,0.05163256824016571,-0.03280428424477577,0.00768907880410552
1761385027179523000,6.114523193359375,0.038351383060216904,-0.033243175595998764,0.0037414750549942255
1761385027189591800,6.124591796875,0.017358217388391495,-0.03304263949394226,-0.0033159018494188786
1761385027199661000,6.1346611328125,0.0030013825744390488,-0.03353425860404968,-0.014731275849044323
1761385027209729800,6.144729736328125,0.0014333132421597838,-0.033914823085069656,-0.021791581064462662
1761385027219799000,6.154799072265625,0.005008340813219547,-0.017765149474143982,-0.028789570555090904
1761385027229868000,6.164867919921875,0.0009209210984408855,0.00013662016135640442,-0.029078522697091103
1761385027239936800,6.174936767578125,-0.006431800313293934,0.010387127287685871,-0.024816665798425674
1761385027250005000,6.1850048828125,-0.01495418231934309,0.01601012609899044,-0.02009940892457962
1761385027260074000,6.195073974609375,-0.016385365277528763,0.018757175654172897,-0.014034858904778957
1761385027270143000,6.20514306640625,-0.005804093088954687,0.007002782076597214,-0.006641923915594816
1761385027280212000,6.2152119140625,0.004423776641488075,-0.003059173235669732,0.0034882084000855684
1761385027290281000,6.225281005859375,0.011355185881257057,-0.010704576037824154,0.010902981273829937
1761385027300350000,6.235349853515625,0.01655447483062744,-0.012573315761983395,0.019891683012247086
1761385027310419000,6.2454189453125,0.015408783219754696,-0.01386787835508585,0.03073767200112343
1761385027320488000,6.255488037109375,0.001588575541973114,-0.007272826507687569,0.03976738452911377
1761385027330557000,6.265556884765625,-0.018079401925206184,-0.003325489116832614,0.034929756075143814
1761385027340626000,6.2756259765625,-0.03133821487426758,0.003920705523341894,0.025195633992552757
1761385027350695000,6.28569482421875,-0.03675801306962967,0.010134659707546234,0.002290584845468402
1761385027360764000,6.295763916015625,-0.04066567122936249,0.002302569104358554,-0.029577599838376045
1761385027370833000,6.3058330078125,-0.04362737014889717,-0.000749679864384234,-0.056044358760118484
1761385027380902100,6.315902099609375,-0.05276467651128769,0.011378355324268341,-0.07582472264766693
1761385027390970000,6.32597021484375,-0.06525223702192307,0.025977272540330887,-0.08712318539619446
1761385027401038800,6.336038818359375,-0.0781608447432518,0.038900259882211685,-0.0922982394695282
1761385027411108000,6.346108154296875,-0.08891522139310837,0.03978283330798149,-0.10098733752965927
1761385027421176800,6.3561767578125,-0.09600535780191422,0.030590666458010674,-0.10872194916009903
1761385027431246000,6.36624609375,-0.09707967936992645,0.038907986134290695,-0.10768278688192368
1761385027441314800,6.376314697265625,-0.10126430541276932,0.05943749472498894,-0.10207097232341766
1761385027451383800,6.3863837890625,-0.1093083843588829,0.06081807613372803,-0.0933656319975853
1761385027461453000,6.396453125,-0.1119808629155159,0.05476977303624153,-0.08631305396556854
1761385027471521800,6.406521728515625,-0.09508177638053894,0.04349474608898163,-0.07364998757839203
1761385027481591000,6.416591064453125,-0.07517491281032562,0.02321637235581875,-0.06097094342112541
1761385027491659800,6.42665966796875,-0.05943669378757477,-0.010276073589920998,-0.05228956788778305
1761385027501729000,6.43672900390625,-0.052075184881687164,-0.028986111283302307,-0.03823234140872955
1761385027511798000,6.446798095703125,-0.0489230677485466,-0.036007001996040344,-0.023026488721370697
1761385027521865700,6.45686572265625,-0.049964629113674164,-0.024779116734862328,-0.003981958609074354
1761385027531935000,6.46693505859375,-0.04735340178012848,-0.013095029629766941,0.009793775156140327
1761385027542004000,6.47700390625,-0.04234585911035538,-0.013032444752752781,0.020001403987407684
1761385027552073000,6.487072998046875,-0.04139750823378563,-0.021350296214222908,0.020627247169613838
1761385027562142000,6.497141845703125,-0.04525962471961975,-0.028596756979823112,0.029104089364409447
1761385027572211000,6.5072109375,-0.041184186935424805,-0.034516431391239166,0.035119105130434036
1761385027582280000,6.517280029296875,-0.02894003875553608,-0.032166991382837296,0.04550569877028465
1761385027592349000,6.527348876953125,-0.019167568534612656,-0.025417208671569824,0.053834468126297
1761385027602418000,6.53741796875,-0.021279456093907356,-0.025375131517648697,0.062125422060489655
1761385027612487000,6.54748681640625,-0.026979686692357063,-0.018738534301519394,0.06595877557992935
1761385027622556000,6.557555908203125,-0.031087610870599747,-0.015029815956950188,0.06282743066549301
1761385027632625000,6.567625,-0.039795614778995514,-0.014486264437437057,0.05293405428528786
1761385027642694000,6.57769384765625,-0.04193546622991562,-0.004667456261813641,0.037348438054323196
1761385027652761900,6.587761962890625,-0.04165077209472656,0.013757890090346336,0.01594088412821293
1761385027662830800,6.597830810546875,-0.036257073283195496,0.030427414923906326,-0.0011584750609472394
1761385027672899800,6.60789990234375,-0.026041187345981598,0.03315236046910286,-0.008227303624153137
1761385027682968800,6.61796875,-0.02375992387533188,0.03281387314200401,-0.0009560748003423214
1761385027693038000,6.6280380859375,-0.024406539276242256,0.025350630283355713,0.016592558473348618
1761385027703106800,6.63810693359375,-0.025976207107305527,0.01070750504732132,0.04259007051587105
1761385027713176000,6.648176025390625,-0.02370026893913746,0.0024985778145492077,0.06448870897293091
1761385027723244800,6.658244873046875,-0.0242568701505661,0.0029198897536844015,0.0764247328042984
1761385027733314000,6.66831396484375,-0.021677331998944283,0.005577724426984787,0.08234547078609467
1761385027743383000,6.678383056640625,-0.016951287165284157,0.0067756143398582935,0.08601424098014832
1761385027753452000,6.6884521484375,-0.014610634185373783,0.008016647771000862,0.07626254856586456
1761385027763520500,6.6985205078125,-0.022578014060854912,0.017355553805828094,0.055321045219898224
1761385027773589200,6.70858935546875,-0.035652268677949905,0.02702203020453453,0.023239541798830032
1761385027783657500,6.718657470703125,-0.04872972145676613,0.03290548548102379,-0.005302620120346546
1761385027793726500,6.7287265625,-0.06997988373041153,0.031092405319213867,-0.020242154598236084
1761385027803795500,6.73879541015625,-0.08465469628572464,0.024658741429448128,-0.02365845814347267
1761385027813864400,6.748864501953125,-0.09573185443878174,0.019478360190987587,-0.010184726677834988
1761385027823933400,6.758933349609375,-0.11480088531970978,0.023303192108869553,0.011027883738279343
1761385027834002400,6.76900244140625,-0.12089819461107254,0.005781722720712423,0.028930984437465668
1761385027844071400,6.779071533203125,-0.1223008781671524,-0.023212911561131477,0.04355839639902115
1761385027854140400,6.789140380859375,-0.12126544117927551,-0.05733812600374222,0.05595274642109871
1761385027864209400,6.79920947265625,-0.10648330301046371,-0.0411708727478981,0.0708073303103447
1761385027874278700,6.809278564453125,-0.08948966860771179,0.0041579934768378735,0.08357132226228714
1761385027884347400,6.819347412109375,-0.07454667240381241,0.0361553393304348,0.0816277489066124
1761385027894416400,6.82941650390625,-0.05675702169537544,0.05416017398238182,0.06510123610496521
1761385027904485400,6.8394853515625,-0.042459577322006226,0.05772082135081291,0.04932200908660889
1761385027914553300,6.84955322265625,-0.03917243704199791,0.05383340269327164,0.036072783172130585
1761385027924622600,6.85962255859375,-0.0385814793407917,0.04434855654835701,0.022059230133891106
1761385027934691300,6.86969140625,-0.03814205899834633,0.04821600019931793,0.016692427918314934
1761385027944760600,6.879760498046875,-0.032513733953237534,0.05329597741365433,0.010610566474497318
1761385027954829600,6.88982958984375,-0.02358921617269516,0.045575741678476334,0.004260525107383728
1761385027964898300,6.899898193359375,-0.006755374372005463,0.036556944251060486,-0.0009052084642462432
1761385027974967600,6.909967529296875,0.010674215853214264,0.02478470839560032,-0.0013166668359190226
1761385027985036300,6.920036376953125,0.0297821294516325,-0.006103432737290859,0.0007795072160661221
1761385027995105500,6.93010546875,0.0446377769112587,-0.04465348646044731,0.004125769250094891
1761385028005174300,6.94017431640625,0.050395261496305466,-0.08250632882118225,0.002240251051262021
1761385028015243500,6.950243408203125,0.048590973019599915,-0.11321603506803513,0.00911280419677496
1761385028025312500,6.9603125,0.03871037811040878,-0.1237855926156044,0.014725150540471077
1761385028035380500,6.97038037109375,0.02714080736041069,-0.1191604807972908,0.015674034133553505
1761385028045449500,6.980449462890625,0.013981861993670464,-0.08755461871623993,0.017786720767617226
1761385028055518500,6.9905185546875,0.00720678037032485,-0.05013773590326309,0.017477527260780334
1761385028065587500,7.00058740234375,-0.0008455536444671452,-0.02364327758550644,0.013480122201144695
1761385028075656400,7.010656494140625,-0.0067630973644554615,-0.0005928196478635073,0.0023036343045532703
1761385028085725400,7.020725341796875,-0.01269582100212574,0.017255952581763268,-0.012395682744681835
1761385028095794400,7.03079443359375,-0.018082598224282265,0.018137458711862564,-0.02226162888109684
1761385028105863400,7.040863525390625,-0.02068929933011532,0.004823251161724329,-0.02473623864352703
1761385028115932400,7.050932373046875,-0.010628409683704376,-0.0023912524338811636,-0.018632007762789726
1761385028126001400,7.06100146484375,0.002216548891738057,-0.012009791098535061,-0.001561677665449679
1761385028136070400,7.0710703125,0.00572952488437295,-0.033480994403362274,0.010752513073384762
1761385028146139400,7.081139404296875,0.0008362325606867671,-0.07556986063718796,0.024921327829360962
1761385028156208600,7.091208740234375,-0.018264491111040115,-0.11376891285181046,0.036018986254930496
1761385028166276400,7.1012763671875,-0.03404345363378525,-0.12118314951658249,0.048714008182287216
1761385028176345300,7.111345458984375,-0.043530698865652084,-0.10992623120546341,0.05320623144507408
1761385028186414600,7.12141455078125,-0.04851160943508148,-0.109022356569767,0.04874037578701973
1761385028196483300,7.1314833984375,-0.04903465509414673,-0.10572509467601776,0.03472122922539711
1761385028206552600,7.141552490234375,-0.04382577911019325,-0.0968967154622078,0.013676930218935013
1761385028216621300,7.151621337890625,-0.03610287606716156,-0.08438625186681747,-0.007671768311411142
1761385028226690600,7.161690673828125,-0.02303847298026085,-0.07413707673549652,-0.0331486314535141
1761385028236759600,7.171759521484375,-0.013799968175590038,-0.07523776590824127,-0.05572637915611267
1761385028246828500,7.18182861328125,-0.007510646712034941,-0.07641913741827011,-0.07054021209478378
1761385028256897500,7.1918974609375,-0.013188772834837437,-0.06315473467111588,-0.0779387429356575
1761385028266966300,7.20196630859375,-0.01732146553695202,-0.05781269818544388,-0.08427253365516663
1761385028277035500,7.212035400390625,-0.035600870847702026,-0.05789898708462715,-0.08577855676412582
1761385028287104300,7.222104248046875,-0.04557414352893829,-0.03021303005516529,-0.07353253662586212
1761385028297172500,7.23217236328125,-0.04928206279873848,-0.008134359493851662,-0.05706088989973068
1761385028307241500,7.242241455078125,-0.04845301806926727,-0.010600713081657887,-0.04418130964040756
1761385028317310200,7.252310302734375,-0.046066295355558395,-0.005756688769906759,-0.021792646497488022
1761385028327379500,7.26237939453125,-0.048295360058546066,-0.0194285586476326,-0.004853344522416592
1761385028337448400,7.272448486328125,-0.053535930812358856,-0.039750609546899796,0.006915962789207697
1761385028347517400,7.282517333984375,-0.05892803147435188,-0.031381625682115555,0.014875618740916252
1761385028357586400,7.29258642578125,-0.06389828771352768,-0.020267721265554428,0.01643010601401329
1761385028367655400,7.302655517578125,-0.07730783522129059,-0.013543771579861641,0.020259466022253036
1761385028377724400,7.312724365234375,-0.08724808692932129,0.007924501784145832,0.022347383201122284
1761385028387793700,7.322793701171875,-0.08295586705207825,0.019402991980314255,0.024103738367557526
1761385028397862400,7.3328623046875,-0.07332268357276917,0.008110657334327698,0.023863520473241806
1761385028407931400,7.342931396484375,-0.060561347752809525,0.0006167881074361503,0.021133247762918472
1761385028418000400,7.35300048828125,-0.0571085587143898,0.010427074506878853,0.01206997875124216
1761385028428068400,7.363068359375,-0.056585781276226044,0.026521887630224228,0.0032120386604219675
1761385028438137600,7.3731376953125,-0.0584220290184021,0.03452415391802788,-0.009192166849970818
1761385028448206300,7.383206298828125,-0.05079766735434532,0.03317553177475929,-0.008796154521405697
1761385028458275600,7.393275634765625,-0.0362810418009758,0.01900777965784073,-0.010612696409225464
1761385028468344600,7.403344482421875,-0.01552569679915905,-0.002348109148442745,-0.003287938656285405
1761385028478413300,7.413413330078125,-0.002910568844527006,-0.028149345889687538,0.015982428565621376
1761385028488482600,7.423482666015625,0.005513542331755161,-0.04988553375005722,0.03176645189523697
1761385028498551300,7.43355126953125,0.007564442697912455,-0.06313316524028778,0.04177940636873245
1761385028508620500,7.44362060546875,0.0005097290268167853,-0.07270323485136032,0.04026646167039871
1761385028518689300,7.453689208984375,-0.004719654098153114,-0.06992928683757782,0.03891996666789055
1761385028528758500,7.463758544921875,-0.007654990069568157,-0.05842895433306694,0.029652167111635208
1761385028538827500,7.47382763671875,-0.006992395501583815,-0.052679456770420074,0.01769670471549034
1761385028548895200,7.483895263671875,-0.005537510849535465,-0.05127117782831192,0.006595584563910961
1761385028558964500,7.493964599609375,0.0029883331153541803,-0.055745821446180344,0.00020373181905597448
1761385028569033500,7.504033447265625,0.007418235298246145,-0.0622045174241066,0.004730839282274246
1761385028579102500,7.5141025390625,0.010183927603065968,-0.051714591681957245,0.020365459844470024
1761385028589171500,7.52417138671875,0.021858694031834602,-0.03125033155083656,0.04236423596739769
1761385028599240400,7.534240478515625,0.030485471710562706,-0.013774667866528034,0.06407139450311661
1761385028609309400,7.544309326171875,0.037337783724069595,-0.010457434691488743,0.07680317014455795
1761385028619378400,7.55437841796875,0.04247875139117241,-0.01738698035478592,0.08184852451086044
1761385028629447400,7.564447509765625,0.03887549415230751,-0.029333921149373055,0.08043944835662842
1761385028639516400,7.574516357421875,0.03182024881243706,-0.037979606539011,0.06952501833438873
1761385028649585400,7.58458544921875,0.026634540408849716,-0.043423108756542206,0.06196083873510361
1761385028659654400,7.594654296875,0.022099176421761513,-0.04212241992354393,0.05545686557888985
1761385028669723400,7.604723388671875,0.010215353220701218,-0.04891188070178032,0.04740187153220177
1761385028679791400,7.614791259765625,-0.018917765468358994,-0.05501211807131767,0.04748496040701866
1761385028689860400,7.6248603515625,-0.05703079700469971,-0.054177749902009964,0.03946671634912491
1761385028699929600,7.6349296875,-0.09103776514530182,-0.04970124363899231,0.022394787520170212
1761385028709998300,7.644998291015625,-0.10754749923944473,-0.0412217378616333,-0.0011699266033247113
1761385028720067600,7.655067626953125,-0.11646828800439835,-0.027821777388453484,-0.025044366717338562
1761385028730136300,7.66513623046875,-0.1096348837018013,-0.012051869183778763,-0.051475707441568375
1761385028740205600,7.67520556640625,-0.09868529438972473,0.003486344125121832,-0.0536951869726181
1761385028750274300,7.6852744140625,-0.0777408704161644,0.0029023129027336836,-0.04502047225832939
1761385028760343600,7.695343505859375,-0.055425975471735,-0.015428757295012474,-0.025792447850108147
1761385028770412500,7.70541259765625,-0.031126759946346283,-0.04982774332165718,0.003846669802442193
1761385028780481500,7.7154814453125,-0.009461145848035812,-0.08751094341278076,0.033487919718027115
1761385028790550500,7.725550537109375,0.005678658373653889,-0.11202240735292435,0.05409279465675354
1761385028800619500,7.73561962890625,0.0100774010643363,-0.11860254406929016,0.05679670348763466
1761385028810687500,7.7456875,0.007110107224434614,-0.1059994027018547,0.051066912710666656
1761385028820756500,7.755756591796875,-0.0017960357945412397,-0.08623901754617691,0.03596599027514458
1761385028830825500,7.765825439453125,-0.01401781477034092,-0.05267386510968208,0.015294001437723637
1761385028840894500,7.77589453125,-0.03725842386484146,-0.010614560917019844,0.006931142881512642
1761385028850963700,7.785963623046875,-0.056587111204862595,0.036020319908857346,-0.002207494108006358
1761385028861032400,7.796032470703125,-0.06739821285009384,0.06136428937315941,-0.019298329949378967
1761385028871101400,7.806101318359375,-0.060685984790325165,0.05344298481941223,-0.03130466118454933
1761385028881170400,7.81617041015625,-0.041618816554546356,0.044503550976514816,-0.036258939653635025
1761385028891239400,7.826239501953125,-0.013629792258143425,0.039557527750730515,-0.031122766435146332
1761385028901308400,7.836308349609375,-0.007457117084413767,0.030598655343055725,-0.033188048750162125
1761385028911377400,7.84637744140625,-0.012086223810911179,0.025544507429003716,-0.028911009430885315
1761385028921446700,7.85644677734375,-0.019229087978601456,0.02101180888712406,-0.03160346671938896
1761385028931514600,7.8665146484375,-0.026743197813630104,0.006690925918519497,-0.03509300574660301
1761385028941583400,7.876583251953125,-0.028599420562386513,-0.002528405049815774,-0.02712962217628956
1761385028951652600,7.886652587890625,-0.03785470500588417,-0.01384231261909008,-0.021749237552285194
1761385028961721300,7.896721435546875,-0.05818607285618782,-0.03322799503803253,-0.02213406376540661
1761385028971790600,7.90679052734375,-0.0799449011683464,-0.04350513219833374,-0.03356808051466942
1761385028981859300,7.916859375,-0.08516789227724075,-0.031188013032078743,-0.04160283878445625
1761385028991928600,7.926928466796875,-0.08067620545625687,0.0012428972404450178,-0.0519324392080307
1761385029001997600,7.93699755859375,-0.06973566859960556,0.03754710778594017,-0.04342896491289139
1761385029012066600,7.947066650390625,-0.055514391511678696,0.06593480706214905,-0.033477265387773514
1761385029022135600,7.957135498046875,-0.053700778633356094,0.07287687063217163,-0.021351894363760948
1761385029032204300,7.967204345703125,-0.05235588178038597,0.0563889741897583,-0.013109143823385239
1761385029042273500,7.9772734375,-0.0469784289598465,0.031736623495817184,-0.012235893867909908
1761385029052342500,7.987342529296875,-0.03412787616252899,0.007604656275361776,-0.017068199813365936
1761385029062410500,7.997410400390625,-0.013585050590336323,-0.015795208513736725,-0.02858823537826538
1761385029072479500,8.0074794921875,0.0017092167399823666,-0.029938990250229836,-0.03760170191526413
1761385029082548500,8.017548583984375,0.0044051348231732845,-0.04565829783678055,-0.046664971858263016
1761385029092617500,8.027617431640625,-0.009070460684597492,-0.06480163335800171,-0.05922736972570419
1761385029102686500,8.0376865234375,-0.03455504775047302,-0.06490176916122437,-0.06781259924173355
1761385029112755500,8.04775537109375,-0.0563381053507328,-0.0516916885972023,-0.0893208235502243
1761385029122824400,8.057824462890625,-0.07006829977035522,-0.02214232087135315,-0.11586268991231918
1761385029132893400,8.0678935546875,-0.07449633628129959,0.007668572477996349,-0.14361682534217834
1761385029142962400,8.07796240234375,-0.06712470948696136,0.052569203078746796,-0.15602634847164154
1761385029153031700,8.08803173828125,-0.05264430120587349,0.09672041982412338,-0.14537744224071503
1761385029163100400,8.098100341796876,-0.03496863692998886,0.11838869750499725,-0.11557400226593018
1761385029173169400,8.10816943359375,-0.014625548385083675,0.1081584244966507,-0.0886334627866745
1761385029183238400,8.11823828125,0.004542553797364235,0.07325157523155212,-0.06015228480100632
1761385029193306400,8.128306396484374,0.01293257623910904,0.02394820936024189,-0.04415973648428917
1761385029203375600,8.138375732421874,0.008265119977295399,-0.0340714156627655,-0.03244742006063461
1761385029213444400,8.1484443359375,-0.007571100722998381,-0.0681857094168663,-0.02750352956354618
1761385029223513600,8.158513671875,-0.02490535005927086,-0.08068845421075821,-0.015630358830094337
1761385029233582600,8.16858251953125,-0.035650670528411865,-0.09365751594305038,-0.0075852153822779655
1761385029243651300,8.1786513671875,-0.03605760261416435,-0.10332798957824707,-0.005124720744788647
1761385029253720600,8.188720458984376,-0.03193582966923714,-0.08519558608531952,-0.004830441437661648
1761385029263789300,8.198789306640625,-0.022791065275669098,-0.04729747399687767,-0.00794420950114727
1761385029273858600,8.208858642578125,-0.010508567094802856,0.0070485882461071014,-0.01396029070019722
1761385029283927600,8.218927490234375,0.00902491994202137,0.04914730414748192,-0.02431119792163372
1761385029293996500,8.22899658203125,0.020248811691999435,0.054424092173576355,-0.02562600187957287
1761385029304065500,8.2390654296875,0.023498134687542915,0.03868667408823967,-0.025410551577806473
1761385029314133500,8.249133544921875,0.028371186926960945,0.0030075078830122948,-0.014729944057762623
1761385029324202500,8.259202392578125,0.0410986989736557,-0.039853405207395554,0.0017662084428593516
1761385029334271500,8.269271484375,0.05613996833562851,-0.059242818504571915,0.023378826677799225
1761385029344340500,8.279340576171874,0.06535157561302185,-0.06908399611711502,0.044133108109235764
1761385029354409500,8.289409423828126,0.05450025945901871,-0.07474028319120407,0.05182165279984474
1761385029364478500,8.299478515625,0.03206206113100052,-0.07974889129400253,0.04393257200717926
1761385029374547500,8.30954736328125,0.005022189114242792,-0.0551077276468277,0.0325707271695137
1761385029384616400,8.319616455078124,-0.01119406521320343,-0.018984077498316765,0.026196716353297234
1761385029394685400,8.329685546875,-0.01576617918908596,0.011146927252411842,0.02484649419784546
1761385029404754400,8.33975439453125,-0.007336742244660854,0.033546775579452515,0.027275828644633293
1761385029414823400,8.349823486328125,0.0009278453071601689,0.04177354648709297,0.030991205945611
1761385029424892400,8.359892333984375,0.0054847802966833115,0.031615715473890305,0.03178376331925392
1761385029434961700,8.369961669921874,0.0017989652696996927,0.0136612169444561,0.027750404551625252
1761385029445029400,8.380029296875,0.00732449209317565,-0.0017893778858706355,0.02110874652862549
1761385029455098400,8.390098388671875,0.01804158464074135,-0.0024671524297446012,0.012980779632925987
1761385029465167600,8.400167724609375,0.0329880453646183,-0.002042910782620311,0.0027893949300050735
1761385029475236400,8.410236328125,0.0422276146709919,-0.004846154246479273,-0.004890362732112408
1761385029485305600,8.4203056640625,0.044496893882751465,-0.010848652571439743,-0.005287706386297941
1761385029495374300,8.430374267578125,0.02647528238594532,-0.015158446505665779,-0.009438775479793549
1761385029505443600,8.440443603515625,0.0036171053070575,-0.01902162842452526,-0.018862636759877205
1761385029515512600,8.4505126953125,-0.008566856384277344,-0.01812014728784561,-0.021013405174016953
1761385029525581600,8.46058154296875,-0.014258031733334064,-0.0010423612548038363,-0.019414177164435387
1761385029535650600,8.470650634765626,-0.009473662823438644,0.011889682151377201,-0.018148111179471016
1761385029545719300,8.48071923828125,-0.004034156445413828,0.019781427457928658,-0.032580047845840454
1761385029555788500,8.49078857421875,0.00036192359402775764,0.035953741520643234,-0.05023041367530823
1761385029565856500,8.5008564453125,-0.0028868666850030422,0.042447857558727264,-0.06552627682685852
1761385029575925500,8.510925537109374,-0.008919725194573402,0.03406156226992607,-0.07980002462863922
1761385029585994500,8.520994384765626,-0.018076738342642784,0.021026454865932465,-0.09447483718395233
1761385029596063500,8.5310634765625,-0.03247511759400368,-0.01227211207151413,-0.10081715881824493
1761385029606132500,8.541132568359375,-0.04089736565947533,-0.013681457377970219,-0.09635715931653976
1761385029616201500,8.551201416015624,-0.04193173721432686,-0.008813465014100075,-0.08910031616687775
1761385029626270500,8.5612705078125,-0.041961830109357834,-0.01655474118888378,-0.0896151065826416
1761385029636339500,8.57133935546875,-0.04814249649643898,-0.032409340143203735,-0.10753684490919113
1761385029646408400,8.581408447265625,-0.0578467883169651,-0.0399591326713562,-0.13610510528087616
1761385029656477400,8.5914775390625,-0.0733538419008255,-0.01950685679912567,-0.1641940027475357
1761385029666546700,8.601546630859374,-0.08645419776439667,0.019049856811761856,-0.19162802398204803
1761385029676615400,8.611615478515626,-0.09662853926420212,0.058092065155506134,-0.21569740772247314
1761385029686684400,8.621684326171875,-0.10911663621664047,0.08916422724723816,-0.23648791015148163
1761385029696752600,8.631752685546875,-0.12243856489658356,0.11909762769937515,-0.23771162331104279
1761385029706821400,8.6418212890625,-0.13326138257980347,0.11532632261514664,-0.23435337841510773
1761385029716890600,8.651890625,-0.1390383094549179,0.10563135147094727,-0.21994461119174957
1761385029726959400,8.66195947265625,-0.14165060222148895,0.11253053694963455,-0.20399974286556244
1761385029737028600,8.672028564453125,-0.14295129477977753,0.1346835047006607,-0.18977633118629456
1761385029747097600,8.68209765625,-0.13246643543243408,0.14366263151168823,-0.18477943539619446
1761385029757166300,8.692166259765624,-0.12406069785356522,0.14458701014518738,-0.19813305139541626
1761385029767235800,8.70223583984375,-0.11212893575429916,0.1355501115322113,-0.2233782261610031
1761385029777304800,8.712304931640626,-0.08859271556138992,0.12566551566123962,-0.2607780694961548
1761385029787373800,8.722373779296875,-0.06125323846936226,0.10494346171617508,-0.29464974999427795
1761385029797442800,8.73244287109375,-0.03647012636065483,0.10136950016021729,-0.2997262477874756
1761385029807511800,8.74251171875,-0.00917485635727644,0.10554240643978119,-0.26254135370254517
1761385029817580800,8.752580810546876,0.01853107288479805,0.10371201485395432,-0.18809214234352112
1761385029827648800,8.762648681640625,0.04795660823583603,0.07580821216106415,-0.09614863991737366
1761385029837717800,8.7727177734375,0.05704011768102646,0.017553959041833878,-0.006886401679366827
1761385029847787000,8.782787109375,0.054134074598550797,-0.052144959568977356,0.07755870372056961
1761385029857855700,8.792855712890624,0.04014874994754791,-0.1125667616724968,0.14666986465454102
1761385029867925000,8.802925048828126,0.0326162651181221,-0.1745358556509018,0.18125741183757782
1761385029877993700,8.81299365234375,0.031327031552791595,-0.18860852718353271,0.19005222618579865
1761385029888062700,8.823062744140625,0.023925039917230606,-0.18296343088150024,0.15625298023223877
1761385029898132000,8.833132080078125,0.01209927350282669,-0.13379055261611938,0.08919086307287216
1761385029908200700,8.84320068359375,0.002650910522788763,-0.062436480075120926,0.01932656019926071
1761385029918270000,8.85327001953125,0.006803844124078751,0.0093892402946949,-0.030652983114123344
1761385029928338700,8.863338623046875,0.01926450803875923,0.052559349685907364,-0.049972087144851685
1761385029938408000,8.873407958984375,0.02677755244076252,0.059665460139513016,-0.03965446725487709
1761385029948476000,8.883475830078124,0.0319635272026062,0.04388090595602989,0.001538241864182055
1761385029958544600,8.893544677734376,0.04487026855349541,0.014216220006346703,0.04975397512316704
1761385029968612900,8.90361279296875,0.05519268289208412,-0.03230680525302887,0.10142782330513
1761385029978681900,8.913681884765625,0.062494270503520966,-0.08188235014677048,0.14844246208667755
1761385029988750800,8.923750732421874,0.05958237126469612,-0.1228814497590065,0.17622323334217072
1761385029998819800,8.93381982421875,0.054303452372550964,-0.14421948790550232,0.1887161135673523
1761385030008888800,8.943888916015625,0.0491049624979496,-0.13396020233631134,0.18305982649326324
1761385030018957800,8.953957763671875,0.04471474140882492,-0.1024443507194519,0.1567177027463913
1761385030029026800,8.96402685546875,0.03996818885207176,-0.06506288796663284,0.10630539804697037
1761385030039095000,8.974094970703124,0.04066993296146393,-0.002380866091698408,0.04042678326368332
1761385030049163800,8.984163818359375,0.037347372621297836,0.05567604675889015,-0.029091838747262955
1761385030059232800,8.994232666015625,0.032458074390888214,0.09892045706510544,-0.08886648714542389
1761385030069301800,9.0043017578125,0.028599953278899193,0.11801078915596008,-0.12003666162490845
1761385030079370800,9.014370849609374,0.01804238371551037,0.10327312350273132,-0.12036103010177612
1761385030089439700,9.024439697265626,0.00552259711548686,0.06865788996219635,-0.09208571910858154
1761385030099508700,9.0345087890625,-0.0034698324743658304,0.027539482340216637,-0.04661304131150246
1761385030109578000,9.044577880859375,-0.010762366466224194,-0.008711466565728188,0.008518652990460396
1761385030119646700,9.054646728515625,-0.01804717816412449,-0.040161002427339554,0.04717603325843811
1761385030129716000,9.064716064453124,-0.019530557096004486,-0.06336326152086258,0.06803524494171143
1761385030139784700,9.07478466796875,-0.011464908719062805,-0.07278046011924744,0.07104727625846863
1761385030149853700,9.084853759765625,0.0006846986943855882,-0.07672140747308731,0.050395794212818146
1761385030159922000,9.094921875,0.01197037659585476,-0.06942221522331238,0.02129410393536091
1761385030169990700,9.10499072265625,0.020543623715639114,-0.04729294776916504,-0.010372479446232319
1761385030180060000,9.115059814453126,0.02455674111843109,-0.017103087157011032,-0.03929414227604866
1761385030190129000,9.12512890625,0.01703064888715744,0.018029600381851196,-0.06113579124212265
1761385030200198000,9.135197998046875,0.0037348170299082994,0.057011086493730545,-0.06557075679302216
1761385030210267000,9.145266845703125,-0.00851572398096323,0.07730890065431595,-0.05801563337445259
1761385030220335600,9.155335693359374,-0.013941115699708462,0.06776200234889984,-0.04742211103439331
1761385030230404900,9.16540478515625,-0.009609750472009182,0.03756122291088104,-0.036076243966817856
1761385030240473900,9.175473876953125,-0.0007459514308720827,0.0062584285624325275,-0.022657908499240875
1761385030250542800,9.18554296875,0.01486336812376976,-0.02267841435968876,-0.01161857321858406
1761385030260611800,9.19561181640625,0.02665291540324688,-0.045751508325338364,0.0030687605030834675
1761385030270680800,9.205680908203124,0.04273547977209091,-0.0776042491197586,0.005593969952315092
1761385030280749800,9.215749755859376,0.037694115191698074,-0.12876063585281372,0.013762683607637882
1761385030290817800,9.22581787109375,0.032348886132240295,-0.11966754496097565,0.009889648295938969
1761385030300886800,9.23588671875,0.0310420710593462,-0.07176420092582703,-0.0035510589368641376
1761385030310955800,9.245955810546874,0.01786554977297783,-0.04338609054684639,-0.03995434194803238
1761385030321024800,9.256024658203126,0.009769540280103683,-0.013860953971743584,-0.08045569062232971
1761385030331093800,9.26609375,0.009326123632490635,-0.00293347192928195,-0.12743332982063293
1761385030341163000,9.2761630859375,0.009621202014386654,0.03573456034064293,-0.16273511946201324
1761385030351231700,9.286231689453125,0.013424728997051716,0.08560384809970856,-0.17170225083827972
1761385030361300700,9.29630078125,0.020249877125024796,0.10795655846595764,-0.15149231255054474
1761385030371369700,9.30636962890625,0.025119202211499214,0.09462397545576096,-0.11921107769012451
1761385030381438700,9.316438720703125,0.02696530520915985,0.0637880340218544,-0.07694111764431
1761385030391508000,9.326508056640625,0.02979225106537342,0.022544190287590027,-0.05409625917673111
1761385030401576700,9.33657666015625,0.028292890638113022,0.014359764754772186,-0.046791739761829376
1761385030411645000,9.34664501953125,0.01913348026573658,0.03337712958455086,-0.05198570340871811
1761385030421714000,9.3567138671875,0.008504272438585758,0.049969956278800964,-0.03431376442313194
1761385030431782700,9.36678271484375,0.006779609248042107,-0.011725897900760174,0.002811499172821641
1761385030441852000,9.376851806640625,-0.0209438968449831,-0.07186567038297653,0.07043581455945969
1761385030451920600,9.386920654296874,-0.029528331011533737,-0.12076183408498764,0.13312290608882904
1761385030461990000,9.396989990234376,-0.01775209978222847,-0.13151487708091736,0.16851630806922913
1761385030472059000,9.407058837890625,0.003319630166515708,-0.12196824699640274,0.15110217034816742
1761385030482128000,9.4171279296875,0.014948856085538864,-0.08328770101070404,0.08999114483594894
1761385030492196900,9.42719677734375,0.02255644090473652,-0.017493506893515587,0.006588127929717302
1761385030502265900,9.437265869140624,0.01666526310145855,0.04327849671244621,-0.06734921038150787
1761385030512334800,9.4473349609375,0.007996940053999424,0.0674954205751419,-0.11718574166297913
1761385030522403800,9.45740380859375,0.009183111600577831,0.11003835499286652,-0.14381469786167145
1761385030532471800,9.467471923828125,0.0062669506296515465,0.1466464251279831,-0.14643098413944244
1761385030542540800,9.477540771484374,-0.0012423646403476596,0.17228654026985168,-0.1331852227449417
1761385030552610000,9.487610107421874,-0.022553512826561928,0.17107906937599182,-0.10284169018268585
1761385030562678800,9.4976787109375,-0.04354747757315636,0.1417592614889145,-0.048830654472112656
1761385030572747800,9.507747802734375,-0.04327929764986038,0.0986568033695221,0.02514450065791607
