time,seconds_elapsed,z,y,x
1761838635044206300,0.070206298828125,0.0400795079767704,-1.9986217021942139,-0.01973801851272583
1761838635054276400,0.0802763671875,0.014221812598407269,-2.172466516494751,0.0027236149180680513
1761838635064345300,0.090345458984375,-0.037339650094509125,-2.2443113327026367,0.06834416836500168
1761838635074415000,0.1004150390625,-0.10071808844804764,-2.193758487701416,0.20333634316921234
1761838635084484400,0.110484375,-0.15362924337387085,-2.0262844562530518,0.3816267251968384
1761838635094554000,0.12055419921875,-0.1761404126882553,-1.7459050416946411,0.5842378735542297
1761838635104624400,0.130624267578125,-0.15606097877025604,-1.4519639015197754,0.7873454689979553
1761838635114693400,0.140693359375,-0.1080995723605156,-1.1916673183441162,0.9649873375892639
1761838635124763100,0.15076318359375,-0.05836370587348938,-0.9860617518424988,1.071904182434082
1761838635134833400,0.16083349609375,-0.03191186115145683,-0.8336189389228821,1.0999164581298828
1761838635144902100,0.170902099609375,-0.02183951810002327,-0.7482558488845825,1.0627485513687134
1761838635154972400,0.180972412109375,-0.003632551757618785,-0.7134525775909424,0.9749308228492737
1761838635165042400,0.19104248046875,0.040346622467041016,-0.7256826162338257,0.8569072484970093
1761838635175111200,0.201111083984375,0.10230293869972229,-0.7438347339630127,0.727600634098053
1761838635185181400,0.211181396484375,0.15419356524944305,-0.7351184487342834,0.5970921516418457
1761838635195251200,0.221251220703125,0.189184308052063,-0.6830422282218933,0.4692652225494385
1761838635205320400,0.231320556640625,0.21000942587852478,-0.5945339202880859,0.3569040596485138
1761838635215390200,0.24139013671875,0.20776118338108063,-0.49223074316978455,0.2552458643913269
1761838635225460200,0.251460205078125,0.16827422380447388,-0.4052351117134094,0.1493103951215744
1761838635235529200,0.261529296875,0.10625720024108887,-0.3610133230686188,0.03560592979192734
1761838635245599200,0.27159912109375,0.030532876029610634,-0.31528791785240173,-0.06697770208120346
1761838635255669200,0.281669189453125,-0.035943351686000824,-0.26755768060684204,-0.1555592268705368
1761838635265738200,0.29173828125,-0.11893144994974136,-0.2789759635925293,-0.22940468788146973
1761838635275808300,0.301808349609375,-0.23354271054267883,-0.3394092321395874,-0.2820098400115967
1761838635285877200,0.311877197265625,-0.33620864152908325,-0.4139433801174164,-0.2949986159801483
1761838635295947300,0.321947265625,-0.4399310350418091,-0.5423277020454407,-0.2775578498840332
1761838635306017300,0.332017333984375,-0.5732067823410034,-0.6672033667564392,-0.20314672589302063
1761838635316086300,0.342086181640625,-0.748363733291626,-0.6526736617088318,-0.04261190816760063
1761838635326156300,0.35215625,-0.9424557089805603,-0.5051076412200928,0.20918864011764526
1761838635336226300,0.362226318359375,-0.9938786625862122,-0.3152082860469818,0.4570857882499695
1761838635346295300,0.37229541015625,-0.9365668892860413,0.11301496624946594,0.6503588557243347
1761838635356365300,0.382365234375,-0.8098510503768921,0.47249510884284973,0.7288342118263245
1761838635366435300,0.392435302734375,-0.6035013198852539,0.7129964232444763,0.6738463044166565
1761838635376504000,0.402504150390625,-0.3401663601398468,0.9447177648544312,0.4959634244441986
1761838635386574300,0.41257421875,-0.012800483964383602,1.2167679071426392,0.2253766655921936
1761838635396644400,0.422644287109375,0.32539406418800354,1.6248390674591064,-0.012956544756889343
1761838635406713300,0.43271337890625,0.6230084300041199,2.093221426010132,-0.20248892903327942
1761838635416783400,0.442783447265625,0.8538203835487366,2.506282329559326,-0.338844358921051
1761838635426852400,0.452852294921875,1.0142204761505127,2.8043994903564453,-0.46063604950904846
1761838635436922400,0.46292236328125,1.0998159646987915,3.0452182292938232,-0.5620651841163635
1761838635446992400,0.472992431640625,1.052554965019226,3.23333477973938,-0.6070427894592285
1761838635457061400,0.483061279296875,0.9200382828712463,3.1982815265655518,-0.60737144947052
1761838635467131400,0.49313134765625,0.7659879922866821,2.9726617336273193,-0.5575516819953918
1761838635477201200,0.503201171875,0.7264688014984131,2.799351215362549,-0.4571249485015869
1761838635487270400,0.5132705078125,0.8054025173187256,2.618912935256958,-0.31550976634025574
1761838635497340200,0.523340087890625,0.9506323933601379,2.2824995517730713,-0.16652026772499084
1761838635507410200,0.53341015625,1.1155563592910767,1.7377853393554688,0.010046775452792645
1761838635517479200,0.543479248046875,1.2493431568145752,1.1473891735076904,0.2617011070251465
1761838635527549200,0.553549072265625,1.2871142625808716,0.6544316411018372,0.5825033783912659
1761838635537619500,0.563619384765625,1.2577500343322754,0.3097299039363861,0.9204073548316956
1761838635547688200,0.573688232421875,1.1725016832351685,0.17256112396717072,1.2788907289505005
1761838635557758200,0.58375830078125,1.0081838369369507,0.1953955888748169,1.5805938243865967
1761838635567827200,0.5938271484375,0.8232728242874146,0.347924143075943,1.7927556037902832
1761838635577897200,0.603897216796875,0.692039430141449,0.6029266119003296,1.8807501792907715
1761838635587967500,0.613967529296875,0.6095309853553772,0.8740782141685486,1.7987003326416016
1761838635598036200,0.6240361328125,0.559781551361084,1.0962580442428589,1.5491218566894531
1761838635608106500,0.6341064453125,0.5212123394012451,1.2366071939468384,1.1749770641326904
1761838635618176300,0.64417626953125,0.5116025805473328,1.3009003400802612,0.7410192489624023
1761838635628245200,0.654245361328125,0.5390405654907227,1.318393349647522,0.30670082569122314
1761838635638315300,0.664315185546875,0.5870246291160583,1.3061505556106567,-0.09987866133451462
1761838635648385300,0.67438525390625,0.5972245335578918,1.2734304666519165,-0.44263893365859985
1761838635658454300,0.684454345703125,0.5151416659355164,1.2873404026031494,-0.7355421781539917
1761838635668524300,0.694524169921875,0.3701426386833191,1.3267316818237305,-0.9471796154975891
1761838635678594300,0.70459423828125,0.19603049755096436,1.4332294464111328,-1.0928915739059448
1761838635688663300,0.714663330078125,-0.013428190723061562,1.595073938369751,-1.2302742004394531
1761838635698733300,0.7247333984375,-0.23990048468112946,1.7472089529037476,-1.371659755706787
1761838635708802300,0.73480224609375,-0.47535401582717896,1.691318154335022,-1.4862263202667236
1761838635718872300,0.744872314453125,-0.7843843102455139,1.2730979919433594,-1.5831440687179565
1761838635728942300,0.7549423828125,-1.0325584411621094,0.8270950317382812,-1.6039646863937378
1761838635739011300,0.76501123046875,-1.2047696113586426,0.4322241246700287,-1.5718836784362793
1761838635749081300,0.775081298828125,-1.327720046043396,0.11573991179466248,-1.495379090309143
1761838635759151000,0.785151123046875,-1.4094278812408447,-0.06516887992620468,-1.3713839054107666
1761838635769220400,0.795220458984375,-1.4252511262893677,-0.11271163076162338,-1.159697413444519
1761838635779290000,0.8052900390625,-1.4015671014785767,-0.14205247163772583,-0.8558193445205688
1761838635789360400,0.8153603515625,-1.3709298372268677,-0.16907131671905518,-0.5232389569282532
1761838635799429000,0.82542919921875,-1.3663278818130493,-0.1939345896244049,-0.20301702618598938
1761838635809499100,0.8354990234375,-1.3958194255828857,-0.24333782494068146,0.09091313183307648
1761838635819569400,0.8455693359375,-1.4198006391525269,-0.38218626379966736,0.3984834551811218
1761838635829638100,0.85563818359375,-1.4318243265151978,-0.4699810743331909,0.7046905159950256
1761838635839708400,0.86570849609375,-1.4104814529418945,-0.49837490916252136,1.0230070352554321
1761838635849777200,0.875777099609375,-1.2777609825134277,-0.687703013420105,1.334920883178711
1761838635859847400,0.885847412109375,-1.0497267246246338,-1.0321826934814453,1.594401240348816
1761838635869917400,0.89591748046875,-0.8628284931182861,-1.2634656429290771,1.7780938148498535
1761838635879986200,0.905986083984375,-0.8026306629180908,-1.1119738817214966,1.901687741279602
1761838635890056400,0.916056396484375,-0.8515377640724182,-0.47675323486328125,1.8803045749664307
1761838635900126200,0.926126220703125,-0.913801908493042,0.08715567737817764,1.6334264278411865
1761838635910195500,0.936195556640625,-1.002643346786499,-0.14684855937957764,1.0372636318206787
1761838635920265200,0.94626513671875,-1.2257553339004517,-1.7100239992141724,-0.013846573419868946
1761838635930335200,0.956335205078125,-1.4280298948287964,-3.249458074569702,-1.1244704723358154
1761838635940404200,0.966404296875,-1.4006823301315308,-3.8022239208221436,-2.1602303981781006
1761838635950474200,0.97647412109375,-1.0875036716461182,-3.669265031814575,-3.0121877193450928
1761838635960543500,0.98654345703125,-0.5696930289268494,-3.3165946006774902,-3.45792818069458
1761838635970613200,0.99661328125,-0.1306445598602295,-3.0508880615234375,-3.3926923274993896
1761838635980683300,1.006683349609375,0.019579559564590454,-3.031766176223755,-2.9527366161346436
1761838635990753000,1.0167529296875,-0.13421852886676788,-3.120748281478882,-2.2395546436309814
1761838636000823000,1.026822998046875,-0.4583688974380493,-3.256901264190674,-1.3755488395690918
1761838636010893000,1.03689306640625,-0.796044647693634,-3.378500461578369,-0.5252275466918945
1761838636020962000,1.046962158203125,-1.0476438999176025,-3.469348430633545,0.2022542953491211
1761838636031032000,1.057031982421875,-1.1505646705627441,-3.620640277862549,0.7504790425300598
1761838636041101800,1.067101806640625,-1.0530437231063843,-3.778817653656006,1.1595994234085083
1761838636051171000,1.077171142578125,-0.8575282692909241,-3.843036413192749,1.4147814512252808
1761838636061241000,1.087240966796875,-0.5369278788566589,-3.6828360557556152,1.6301871538162231
1761838636071310000,1.09731005859375,-0.07797389477491379,-3.332785129547119,1.9224685430526733
1761838636081380000,1.107380126953125,0.35841938853263855,-2.9841678142547607,2.0961804389953613
1761838636091449900,1.117449951171875,0.6023990511894226,-2.581193447113037,2.0405352115631104
1761838636101519000,1.12751904296875,0.7079252004623413,-2.1630194187164307,1.7786624431610107
1761838636111588900,1.1375888671875,0.797990620136261,-1.7740939855575562,1.380117416381836
1761838636121659100,1.1476591796875,0.9075056910514832,-1.4250154495239258,0.9345338344573975
1761838636131728000,1.157727783203125,1.025360107421875,-1.1832246780395508,0.5420989394187927
1761838636141798100,1.167798095703125,1.118757724761963,-0.9497202634811401,0.28045350313186646
1761838636151868200,1.1778681640625,1.171854019165039,-0.7327194809913635,0.1776600033044815
1761838636161937000,1.18793701171875,1.1816480159759521,-0.5336652398109436,0.2090376317501068
1761838636172007200,1.198007080078125,1.0767616033554077,-0.3396502435207367,0.28634628653526306
1761838636182077000,1.208076904296875,0.8215076923370361,-0.15215571224689484,0.332865834236145
1761838636192146200,1.218146240234375,0.5175057053565979,0.013909956440329552,0.352291464805603
1761838636202216200,1.22821630859375,0.2550850212574005,0.2557734549045563,0.43493786454200745
1761838636212285000,1.238284912109375,0.027874242514371872,0.5702970623970032,0.5693398714065552
1761838636222355200,1.248355224609375,-0.12411502003669739,1.0309120416641235,0.7705110907554626
1761838636232425000,1.258425048828125,-0.1849786341190338,1.6038908958435059,1.0105711221694946
1761838636242494200,1.268494140625,-0.1617388278245926,2.17755389213562,1.2204316854476929
1761838636252564000,1.27856396484375,-0.05531385540962219,2.653684377670288,1.3420078754425049
1761838636262634000,1.288634033203125,0.14383412897586823,3.0275182723999023,1.3466931581497192
1761838636272703000,1.298702880859375,0.41008979082107544,3.276594877243042,1.2112730741500854
1761838636282773000,1.30877294921875,0.7405577301979065,3.381711483001709,0.936512291431427
1761838636292842200,1.31884228515625,1.0989422798156738,3.3149843215942383,0.5502487421035767
1761838636302912000,1.328912109375,1.4388667345046997,2.9896602630615234,0.11489862203598022
1761838636312982000,1.33898193359375,1.7303372621536255,2.382312774658203,-0.20288227498531342
1761838636323051000,1.349051025390625,1.8914859294891357,1.7494611740112305,-0.2258847951889038
1761838636333121000,1.35912109375,1.8557997941970825,1.1672320365905762,0.05889660492539406
1761838636343191000,1.36919091796875,1.7287355661392212,0.7142600417137146,0.46678927540779114
1761838636353260000,1.379260009765625,1.4628751277923584,0.3873767554759979,0.9178142547607422
1761838636363330000,1.389330078125,1.1878139972686768,0.43278923630714417,1.450792908668518
1761838636373400000,1.399400146484375,0.94434654712677,0.771151065826416,1.934565782546997
1761838636383469000,1.409468994140625,0.7323642373085022,1.2121700048446655,2.159940242767334
1761838636393539000,1.4195390625,0.5667473077774048,1.5638878345489502,2.010502338409424
1761838636403608000,1.429608154296875,0.4332427680492401,1.7160427570343018,1.5073946714401245
1761838636413677800,1.439677734375,0.3229335844516754,1.7059565782546997,0.7995629906654358
1761838636423748000,1.449748046875,0.22553139925003052,1.6557223796844482,0.04211496189236641
1761838636433817000,1.459817138671875,0.13287842273712158,1.6540757417678833,-0.6349247694015503
1761838636443887000,1.46988720703125,0.07112450897693634,1.776853084564209,-1.1420689821243286
1761838636453957000,1.47995703125,0.04352297633886337,1.9176865816116333,-1.4695117473602295
1761838636464025900,1.49002587890625,0.026037460193037987,2.0875649452209473,-1.6392337083816528
1761838636474096000,1.50009619140625,0.0013158678775653243,2.331777334213257,-1.6900379657745361
1761838636484164900,1.510164794921875,-0.04375387355685234,2.5642013549804688,-1.6643645763397217
1761838636494235100,1.520235107421875,-0.07983145117759705,2.69695782661438,-1.591861367225647
1761838636504305200,1.53030517578125,-0.09464315325021744,2.663851737976074,-1.4988787174224854
1761838636514374100,1.5403740234375,-0.10150425136089325,2.467054605484009,-1.4075496196746826
1761838636524444200,1.550444091796875,-0.1097472682595253,2.133845329284668,-1.289866328239441
1761838636534514000,1.560513916015625,-0.1198853924870491,1.794643759727478,-1.1454710960388184
1761838636544583200,1.570583251953125,-0.12562929093837738,1.4518646001815796,-0.9601486325263977
1761838636554653000,1.58065283203125,-0.1164373978972435,1.1070516109466553,-0.7573047280311584
1761838636564723000,1.590722900390625,-0.12726421654224396,0.8008117079734802,-0.5546035766601562
1761838636574792200,1.600792236328125,-0.1838071197271347,0.5152244567871094,-0.3569581210613251
1761838636584862000,1.610862060546875,-0.21225793659687042,0.2282499521970749,-0.15722131729125977
1761838636594931200,1.62093115234375,-0.2178409844636917,-0.025255288928747177,0.06112753599882126
1761838636605001000,1.6310009765625,-0.1608714461326599,-0.1455036699771881,0.30163416266441345
1761838636615071000,1.641071044921875,-0.03061809577047825,-0.13255511224269867,0.5521385073661804
1761838636625140000,1.651139892578125,0.1519881933927536,-0.044735245406627655,0.7776188254356384
1761838636635210000,1.6612099609375,0.37711983919143677,-0.09099116176366806,0.9562974572181702
1761838636645280000,1.671280029296875,0.5878097414970398,-0.5001807808876038,1.0825337171554565
1761838636655349000,1.681348876953125,0.8021268248558044,-1.2308701276779175,1.1707069873809814
1761838636665419000,1.6914189453125,1.0803501605987549,-2.175675630569458,1.2514958381652832
1761838636675488000,1.701488037109375,1.3991934061050415,-3.0257887840270996,1.2783753871917725
1761838636685558000,1.71155810546875,1.6704531908035278,-3.7847373485565186,1.08512544631958
1761838636695628000,1.7216279296875,1.757739543914795,-4.852696895599365,0.5295080542564392
1761838636705697000,1.731697021484375,1.6623928546905518,-5.849358558654785,-0.18896140158176422
1761838636715767000,1.74176708984375,1.4720665216445923,-5.928689956665039,-0.6767616868019104
1761838636725837000,1.751837158203125,1.2892930507659912,-4.783491134643555,-0.8015462160110474
1761838636735906000,1.761906005859375,1.1955065727233887,-2.9018211364746094,-0.7341645359992981
1761838636745976000,1.77197607421875,1.1940256357192993,-0.9686611890792847,-0.6930229663848877
1761838636756046000,1.782046142578125,1.2090208530426025,0.610741138458252,-0.755314290523529
1761838636766115000,1.792114990234375,1.3054498434066772,1.4650171995162964,-0.9488478302955627
1761838636776185000,1.80218505859375,1.4409890174865723,1.7248321771621704,-1.1740134954452515
1761838636786253800,1.81225390625,1.627431869506836,1.7996816635131836,-1.280885100364685
1761838636796324000,1.822323974609375,1.830285668373108,1.8445924520492554,-1.2183607816696167
1761838636806394000,1.83239404296875,2.0314879417419434,1.8856171369552612,-1.0078892707824707
1761838636816463000,1.842463134765625,2.217682361602783,1.8873140811920166,-0.6880271434783936
1761838636826533000,1.852533203125,2.3744404315948486,1.8364980220794678,-0.30103600025177
1761838636836603000,1.862602783203125,2.4790961742401123,1.720383882522583,0.09424421191215515
1761838636846672100,1.872672119140625,2.482883930206299,1.5672191381454468,0.45725491642951965
1761838636856742100,1.8827421875,2.374962329864502,1.3439950942993164,0.75263512134552
1761838636866811100,1.89281103515625,2.2113959789276123,1.0111628770828247,0.9888253211975098
1761838636876881200,1.902881103515625,1.9984993934631348,0.6142138838768005,1.1883925199508667
1761838636886951000,1.912950927734375,1.7486611604690552,0.23882083594799042,1.364781379699707
1761838636897020200,1.923020263671875,1.5111734867095947,-0.10819011926651001,1.4961273670196533
1761838636907090000,1.93308984375,1.331101655960083,-0.45877158641815186,1.5545576810836792
1761838636917160000,1.943159912109375,1.2437686920166016,-0.7446560263633728,1.549023151397705
1761838636927229000,1.95322900390625,1.2603646516799927,-0.9558508396148682,1.5317459106445312
1761838636937299000,1.963298828125,1.3203526735305786,-1.0853105783462524,1.5744504928588867
1761838636947368200,1.9733681640625,1.398941993713379,-1.1101768016815186,1.7527294158935547
1761838636957438000,1.98343798828125,1.4915560483932495,-1.018449306488037,2.0893232822418213
1761838636967508000,1.993508056640625,1.5399340391159058,-0.7203992009162903,2.522758722305298
1761838636977577000,2.003576904296875,1.4924434423446655,-0.050870902836322784,2.9541196823120117
1761838636987647000,2.01364697265625,1.3645576238632202,0.9593678116798401,3.2280118465423584
1761838636997716700,2.023716796875,1.23872971534729,2.0133516788482666,3.2536001205444336
1761838637007785500,2.033785400390625,1.19315505027771,3.043503522872925,3.0539495944976807
1761838637017855700,2.043855712890625,1.2378356456756592,4.00671911239624,2.6707077026367188
1761838637027924500,2.053924560546875,1.4432069063186646,4.75515079498291,2.1179392337799072
1761838637037994500,2.063994384765625,1.9227756261825562,4.91658878326416,1.3889418840408325
1761838637048064800,2.074064697265625,2.6170644760131836,4.449090480804443,0.6153249740600586
1761838637058133500,2.084133544921875,3.326219081878662,3.698458194732666,0.06705173850059509
1761838637068203800,2.094203857421875,3.7609474658966064,3.0113604068756104,-0.10362892597913742
1761838637078273500,2.1042734375,3.806103229522705,2.3285953998565674,0.1088242158293724
1761838637088342800,2.1143427734375,3.4420294761657715,1.6271981000900269,0.6156059503555298
1761838637098412500,2.12441259765625,2.763216257095337,1.0986828804016113,1.2370615005493164
1761838637108481500,2.1344814453125,1.9945869445800781,0.9018036127090454,1.7891606092453003
1761838637118551800,2.1445517578125,1.3789925575256348,1.1708108186721802,2.1586203575134277
1761838637128621600,2.15462158203125,1.0252022743225098,1.835121750831604,2.2638051509857178
1761838637138690800,2.16469091796875,0.9696471095085144,2.61728572845459,2.031134843826294
1761838637148760600,2.174760498046875,1.1708475351333618,3.335521936416626,1.4765167236328125
1761838637158830600,2.18483056640625,1.5691217184066772,4.018463134765625,0.7187930345535278
1761838637168899600,2.194899658203125,2.0617806911468506,4.713558673858643,-0.11178858578205109
1761838637178969600,2.204969482421875,2.5392162799835205,5.313246250152588,-0.9098271727561951
1761838637189038600,2.21503857421875,2.9180448055267334,5.715789318084717,-1.5762557983398438
1761838637199108600,2.225108642578125,3.1562798023223877,5.878715991973877,-2.0645852088928223
1761838637209178600,2.2351787109375,3.283874750137329,5.8401875495910645,-2.3778605461120605
1761838637219247600,2.24524755859375,3.338432550430298,5.647895812988281,-2.5378029346466064
1761838637229317600,2.255317626953125,3.3094067573547363,5.214205265045166,-2.5804457664489746
1761838637239387400,2.265387451171875,3.239760160446167,4.572220325469971,-2.5075597763061523
1761838637249456600,2.27545654296875,3.1542716026306152,3.867644786834717,-2.3360543251037598
1761838637259526700,2.285526611328125,3.067479372024536,3.1845364570617676,-2.067081928253174
1761838637269595600,2.295595703125,2.9675488471984863,2.560962677001953,-1.7325865030288696
1761838637279665700,2.305665771484375,2.8390557765960693,2.070849657058716,-1.374258279800415
1761838637289735700,2.315735595703125,2.640312910079956,1.8381233215332031,-1.0287994146347046
1761838637299804700,2.3258046875,2.390096664428711,1.80741286277771,-0.7756672501564026
1761838637309874400,2.33587451171875,2.1383166313171387,1.8803848028182983,-0.6723940968513489
1761838637319943700,2.345943603515625,1.9420350790023804,1.9865492582321167,-0.7472483515739441
1761838637330013400,2.356013427734375,1.8326513767242432,2.09438419342041,-0.9774991273880005
1761838637340083700,2.366083740234375,1.8240658044815063,2.1792593002319336,-1.3176466226577759
1761838637350152700,2.376152587890625,1.9007459878921509,2.1817076206207275,-1.7022451162338257
1761838637360222500,2.386222412109375,2.018738031387329,2.1425716876983643,-2.0568630695343018
1761838637370292700,2.396292724609375,2.174555540084839,2.1391615867614746,-2.3301429748535156
1761838637380361500,2.406361572265625,2.3657994270324707,2.1218178272247314,-2.478440999984741
1761838637390431700,2.416431640625,2.6034560203552246,2.062340021133423,-2.4453814029693604
1761838637400500500,2.42650048828125,2.8333749771118164,1.9006495475769043,-2.193861961364746
1761838637410570500,2.436570556640625,3.0090363025665283,1.715973973274231,-1.7344344854354858
1761838637420640800,2.446640869140625,3.060743808746338,1.6283663511276245,-1.102817177772522
1761838637430709500,2.45670947265625,2.9061098098754883,1.5721491575241089,-0.37675419449806213
1761838637440779800,2.46677978515625,2.6294138431549072,1.1613941192626953,0.26295438408851624
1761838637450849500,2.476849609375,2.3543262481689453,0.39919933676719666,0.7585631012916565
1761838637460918800,2.486918701171875,2.0030083656311035,-0.43869853019714355,1.0152662992477417
1761838637470988500,2.496988525390625,1.5551774501800537,-1.3369503021240234,0.8600199222564697
1761838637481057500,2.5070576171875,1.0435361862182617,-2.5115396976470947,0.16217239201068878
1761838637491127800,2.5171279296875,0.6115355491638184,-3.7105295658111572,-0.9138187170028687
1761838637501197600,2.527197509765625,0.28613242506980896,-3.993075370788574,-2.0557243824005127
1761838637511266800,2.537266845703125,0.08401127904653549,-3.230393648147583,-2.9402594566345215
1761838637521336600,2.547336669921875,0.15554457902908325,-1.8419077396392822,-3.4121501445770264
1761838637531405600,2.557405517578125,0.5604369640350342,-0.32753366231918335,-3.3999316692352295
1761838637541475600,2.5674755859375,1.117324948310852,0.7428168654441833,-2.943742513656616
1761838637551545600,2.577545654296875,1.6384270191192627,0.835936427116394,-2.1956262588500977
1761838637561614600,2.587614501953125,1.9926003217697144,0.18131759762763977,-1.2437596321105957
1761838637571684600,2.5976845703125,2.167598247528076,-0.7045373916625977,-0.15485882759094238
1761838637581754600,2.607754638671875,2.162022352218628,-1.4899898767471313,0.8964011073112488
1761838637591823600,2.61782373046875,2.0368216037750244,-2.091838836669922,1.7108484506607056
1761838637601893600,2.6278935546875,1.8493802547454834,-2.317389726638794,2.134939670562744
1761838637611962600,2.637962646484375,1.6435003280639648,-2.1364405155181885,2.1326146125793457
1761838637622032600,2.64803271484375,1.4881246089935303,-1.645809292793274,1.7784874439239502
1761838637632102700,2.6581025390625,1.3682751655578613,-1.03901207447052,1.1872156858444214
1761838637642171600,2.668171630859375,1.2621245384216309,-0.5108299851417542,0.5229985117912292
1761838637652241700,2.67824169921875,1.1509751081466675,-0.11232733726501465,-0.042520828545093536
1761838637662310700,2.688310546875,1.0380381345748901,0.21350908279418945,-0.40309658646583557
1761838637672380700,2.698380615234375,0.9513333439826965,0.42149263620376587,-0.5549106001853943
1761838637682450400,2.708450439453125,0.9094045162200928,0.5415365099906921,-0.5272555351257324
1761838637692519700,2.718519775390625,0.8576816916465759,0.5003163814544678,-0.3647814393043518
1761838637702589400,2.72858935546875,0.7672396302223206,0.244588702917099,-0.11962520331144333
1761838637712659700,2.73865966796875,0.7497815489768982,-0.04634353145956993,0.1838875412940979
1761838637722728700,2.748728759765625,0.8195657134056091,-0.1882530003786087,0.5010188817977905
1761838637732798500,2.758798583984375,0.9415709972381592,-0.17276965081691742,0.7899079322814941
1761838637742867700,2.76886767578125,1.0474992990493774,0.00660384027287364,1.0036423206329346
1761838637752937500,2.7789375,1.1146637201309204,0.24600258469581604,1.12518310546875
1761838637763007700,2.7890078125,1.1589953899383545,0.4200116693973541,1.140721321105957
1761838637773076500,2.799076416015625,1.2299729585647583,0.5010012984275818,1.02461576461792
1761838637783146500,2.809146484375,1.2906503677368164,0.6015958189964294,0.8143384456634521
1761838637793215500,2.819215576171875,1.3401657342910767,0.7410174012184143,0.6024032831192017
1761838637803285500,2.829285400390625,1.3809558153152466,0.9643274545669556,0.4431193768978119
1761838637813355800,2.839355712890625,1.3980772495269775,1.2474215030670166,0.3350062072277069
1761838637823424500,2.849424560546875,1.4034345149993896,1.4667527675628662,0.25356754660606384
1761838637833494800,2.859494873046875,1.4532110691070557,1.6294652223587036,0.17850342392921448
1761838637843564500,2.869564453125,1.5991754531860352,1.850905179977417,0.1256580650806427
1761838637853633500,2.879633544921875,1.8295964002609253,2.0565569400787354,0.09992659837007523
1761838637863703800,2.889703857421875,2.0943236351013184,2.114201068878174,0.14024099707603455
1761838637873772500,2.8997724609375,2.3368735313415527,1.9684076309204102,0.25422483682632446
1761838637883842800,2.9098427734375,2.4242682456970215,1.6411279439926147,0.40253838896751404
1761838637893912600,2.91991259765625,2.2597405910491943,1.285723090171814,0.5512769818305969
1761838637903981600,2.929981689453125,1.8336305618286133,1.0285109281539917,0.691815197467804
1761838637914051600,2.940051513671875,1.3422837257385254,0.9777710437774658,0.820841908454895
1761838637924120600,2.95012060546875,0.9582096338272095,1.2559562921524048,0.924561083316803
1761838637934190600,2.960190673828125,0.8002524971961975,1.846619963645935,0.9780933260917664
1761838637944260600,2.970260498046875,0.8969103097915649,2.5586719512939453,0.9621151685714722
1761838637954329900,2.980329833984375,1.1262084245681763,3.171137809753418,0.8657872676849365
1761838637964399600,2.990399658203125,1.3294281959533691,3.5211117267608643,0.688140869140625
1761838637974468600,3.000468505859375,1.4130711555480957,3.654120445251465,0.500900387763977
1761838637984538600,3.01053857421875,1.3866297006607056,3.6460328102111816,0.39456409215927124
1761838637994608400,3.0206083984375,1.2684375047683716,3.5800511837005615,0.37453019618988037
1761838638004677400,3.030677490234375,1.0609897375106812,3.4478108882904053,0.3913102447986603
1761838638014747400,3.040747314453125,0.8157272934913635,3.2642881870269775,0.43170133233070374
1761838638024816400,3.05081640625,0.5562072992324829,3.171508550643921,0.47073689103126526
1761838638034886400,3.060886474609375,0.3088957965373993,3.2342050075531006,0.4259377121925354
1761838638044956200,3.0709560546875,0.08619800209999084,3.372138738632202,0.26662078499794006
1761838638055025400,3.081025390625,-0.09170834720134735,3.4200918674468994,0.02147972583770752
1761838638065095200,3.09109521484375,-0.21708624064922333,3.417126178741455,-0.2490795999765396
1761838638075164400,3.101164306640625,-0.29816803336143494,3.4332220554351807,-0.49845293164253235
1761838638085234400,3.111234375,-0.31765493750572205,3.4826295375823975,-0.6710470914840698
1761838638095304200,3.12130419921875,-0.26333948969841003,3.509489059448242,-0.766832709312439
1761838638105373400,3.13137353515625,-0.14215821027755737,3.4548892974853516,-0.7632193565368652
1761838638115443200,3.141443115234375,0.00944782979786396,3.3072075843811035,-0.6408833265304565
1761838638125513200,3.15151318359375,0.14967525005340576,3.0486748218536377,-0.4181751310825348
1761838638135582200,3.161582275390625,0.1734365075826645,2.647792339324951,-0.12995587289333344
1761838638145652200,3.17165234375,0.07752248644828796,2.0669217109680176,0.17037546634674072
1761838638155721200,3.18172119140625,-0.09756037592887878,1.4616581201553345,0.4484020173549652
1761838638165791200,3.191791259765625,-0.2641163468360901,0.8549013137817383,0.6590953469276428
1761838638175861200,3.201861328125,-0.36666855216026306,0.2460198849439621,0.7439625859260559
1761838638185930200,3.21193017578125,-0.385170578956604,-0.2500327527523041,0.6972352862358093
1761838638196000300,3.222000244140625,-0.3201761543750763,-0.5692376494407654,0.6039788126945496
1761838638206069200,3.2320693359375,-0.19556736946105957,-0.7292648553848267,0.5302177667617798
1761838638216139300,3.24213916015625,-0.0682419016957283,-0.8294793367385864,0.46953046321868896
1761838638226209300,3.252209228515625,0.0054698665626347065,-1.0469040870666504,0.41651251912117004
1761838638236278300,3.2622783203125,0.014723818749189377,-1.3870069980621338,0.41518333554267883
1761838638246348300,3.272348388671875,-0.058816179633140564,-1.6811643838882446,0.46566569805145264
1761838638256417300,3.282417236328125,-0.1858239322900772,-1.9506021738052368,0.4724524915218353
1761838638266487300,3.2924873046875,-0.35253727436065674,-2.293328046798706,0.34132349491119385
1761838638276557300,3.302557373046875,-0.5475477576255798,-2.6495580673217773,0.06197495386004448
1761838638286626300,3.312626220703125,-0.7629293203353882,-3.0474941730499268,-0.36318540573120117
1761838638296696000,3.322696044921875,-0.9751465320587158,-3.4836182594299316,-0.852679431438446
1761838638306765300,3.332765380859375,-1.1771824359893799,-3.814364433288574,-1.323778748512268
1761838638316835300,3.34283544921875,-1.3319581747055054,-3.8991754055023193,-1.6745309829711914
1761838638326905300,3.3529052734375,-1.3709063529968262,-3.5892364978790283,-1.7896552085876465
1761838638336974300,3.362974365234375,-1.2804644107818604,-3.131249189376831,-1.722369909286499
1761838638347044400,3.37304443359375,-1.1476408243179321,-3.037519931793213,-1.5808616876602173
1761838638357113300,3.38311328125,-1.0614089965820312,-3.2813305854797363,-1.2829123735427856
1761838638367183000,3.39318310546875,-0.9897001385688782,-3.43654203414917,-0.8240454196929932
1761838638377253400,3.40325341796875,-0.8403897881507874,-3.498906135559082,-0.334137499332428
1761838638387322000,3.413322021484375,-0.6443230509757996,-3.5127787590026855,0.10104911774396896
1761838638397392400,3.423392333984375,-0.48508918285369873,-3.427704095840454,0.4046151340007782
1761838638407461000,3.433461181640625,-0.3713147044181824,-3.207536220550537,0.5101943016052246
1761838638417531100,3.44353125,-0.35526329278945923,-2.9837398529052734,0.4160294234752655
1761838638427601400,3.453601318359375,-0.4054308533668518,-2.6393167972564697,0.24489444494247437
1761838638437670100,3.463670166015625,-0.46186402440071106,-2.0745928287506104,0.08123333752155304
1761838638447740400,3.473740478515625,-0.5118611454963684,-1.3891010284423828,-0.07498449832201004
1761838638457809200,3.48380908203125,-0.54251629114151,-0.7607274055480957,-0.24124909937381744
1761838638467879200,3.493879150390625,-0.5496042966842651,-0.2330295294523239,-0.41293004155158997
1761838638477949400,3.503949462890625,-0.5425764322280884,0.19218914210796356,-0.579953134059906
1761838638488018200,3.51401806640625,-0.5226954221725464,0.4782360792160034,-0.7562509179115295
1761838638498088400,3.52408837890625,-0.4844830632209778,0.5701931715011597,-0.9211594462394714
1761838638508157200,3.5341572265625,-0.41905584931373596,0.5317525863647461,-1.0444108247756958
1761838638518227500,3.5442275390625,-0.3427344560623169,0.4503088593482971,-1.1140391826629639
1761838638528297200,3.554297119140625,-0.30026715993881226,0.24724414944648743,-1.136662483215332
1761838638538366200,3.5643662109375,-0.302420049905777,-0.10474105924367905,-1.085200309753418
1761838638548436500,3.5744365234375,-0.3044925332069397,-0.46720901131629944,-0.9416346549987793
1761838638558505200,3.584505126953125,-0.27596020698547363,-0.668491780757904,-0.7015078067779541
1761838638568575500,3.594575439453125,-0.20084655284881592,-0.7084373235702515,-0.405120849609375
1761838638578645200,3.604645263671875,-0.10992570221424103,-0.5690272450447083,-0.11197313666343689
1761838638588714200,3.61471435546875,-0.0018807243322953582,-0.2941056489944458,0.1498028039932251
1761838638598784300,3.6247841796875,0.12201724946498871,0.05390637367963791,0.3805723786354065
1761838638608853200,3.634853271484375,0.2763194739818573,0.43905991315841675,0.5681553483009338
1761838638618923300,3.64492333984375,0.4796012341976166,0.8584004640579224,0.7481216192245483
1761838638628993300,3.6549931640625,0.7464528679847717,1.2816294431686401,0.8951622247695923
1761838638639062300,3.665062255859375,1.0609456300735474,1.6658703088760376,0.9808033108711243
1761838638649132300,3.67513232421875,1.41416335105896,2.0047030448913574,0.9391024708747864
1761838638659201300,3.685201171875,1.7794911861419678,2.1649208068847656,0.7481940388679504
1761838638669271300,3.695271240234375,2.08908748626709,2.027683973312378,0.42879530787467957
1761838638679341300,3.70534130859375,2.2510085105895996,1.7081472873687744,0.07129814475774765
1761838638689410300,3.715410400390625,2.238647222518921,1.4107986688613892,-0.17018131911754608
1761838638699480300,3.725480224609375,2.1301488876342773,1.2313703298568726,-0.1657724529504776
1761838638709549300,3.73554931640625,1.9031521081924438,1.139749526977539,0.0019196064677089453
1761838638719619300,3.745619384765625,1.638034701347351,1.0353946685791016,0.26055195927619934
1761838638729689300,3.755689453125,1.400510549545288,0.9635282158851624,0.5787379145622253
1761838638739758300,3.76575830078125,1.1981308460235596,0.9384366869926453,0.8999654650688171
1761838638749828400,3.775828369140625,1.022948980331421,0.9159758687019348,1.1376047134399414
1761838638759897300,3.7858974609375,0.8609480261802673,0.8509050011634827,1.2470557689666748
1761838638769967400,3.79596728515625,0.695837140083313,0.7378165125846863,1.1898330450057983
1761838638780037400,3.806037353515625,0.5481808185577393,0.7022840976715088,1.0192370414733887
1761838638790106400,3.8161064453125,0.4570154845714569,0.8507143259048462,0.8057793378829956
1761838638800176400,3.82617626953125,0.4301609694957733,1.1125680208206177,0.5840359926223755
1761838638810245400,3.836245361328125,0.41774559020996094,1.36592435836792,0.3752383291721344
1761838638820315400,3.8463154296875,0.35089489817619324,1.6153925657272339,0.19113880395889282
1761838638830385200,3.85638525390625,0.21152263879776,1.8130582571029663,0.01774757169187069
1761838638840454400,3.866454345703125,0.042395394295454025,1.8762880563735962,-0.1553855985403061
1761838638850524200,3.876524169921875,-0.12211046367883682,1.831093668937683,-0.3235604763031006
1761838638860593400,3.886593505859375,-0.2541811466217041,1.7544708251953125,-0.4631660580635071
1761838638870663200,3.8966630859375,-0.32175034284591675,1.6776237487792969,-0.5719748139381409
1761838638880733200,3.906733154296875,-0.32448887825012207,1.5983525514602661,-0.6427273154258728
1761838638890802400,3.916802490234375,-0.3024440109729767,1.5105444192886353,-0.6597534418106079
1761838638900872200,3.9268720703125,-0.30534180998802185,1.4239349365234375,-0.6346278190612793
1761838638910941400,3.93694140625,-0.36209508776664734,1.2592676877975464,-0.5842615962028503
1761838638921011200,3.94701123046875,-0.4711512625217438,1.0387343168258667,-0.5214879512786865
1761838638931081200,3.957081298828125,-0.6145505309104919,0.8411839008331299,-0.44282031059265137
1761838638941150200,3.967150146484375,-0.7457964420318604,0.6870058178901672,-0.3615906834602356
1761838638951220200,3.97722021484375,-0.8201580047607422,0.5666434168815613,-0.2700791656970978
1761838638961289200,3.987289306640625,-0.8330445289611816,0.4366905093193054,-0.1745307892560959
1761838638971359200,3.997359130859375,-0.8164016008377075,0.3024754524230957,-0.06967441737651825
1761838638981428500,4.007428466796875,-0.7729920744895935,0.1912011206150055,0.07204622775316238
1761838638991498200,4.017498291015625,-0.6898572444915771,0.06625545024871826,0.277798056602478
1761838639001567000,4.02756689453125,-0.5532301664352417,-0.07583510875701904,0.5555487275123596
1761838639011635700,4.0376357421875,-0.4253888428211212,-0.2543952763080597,0.9064667820930481
1761838639021706000,4.0477060546875,-0.369069904088974,-0.502105176448822,1.2730135917663574
1761838639031774700,4.057774658203125,-0.3651558756828308,-0.8472556471824646,1.6303317546844482
1761838639041844700,4.0678447265625,-0.4398852288722992,-1.3308316469192505,1.9205740690231323
1761838639051915000,4.0779150390625,-0.6364246606826782,-1.9696235656738281,2.1255924701690674
1761838639061983700,4.087983642578125,-0.9062297940254211,-2.5295112133026123,2.226738452911377
1761838639072054000,4.098053955078125,-1.299340009689331,-3.0894057750701904,2.1021835803985596
1761838639082122800,4.108122802734375,-1.7591902017593384,-3.708871841430664,1.6519473791122437
1761838639092192800,4.11819287109375,-2.1681878566741943,-4.039690017700195,0.9426522254943848
1761838639102261800,4.12826171875,-2.3661906719207764,-3.6897854804992676,0.15345826745033264
1761838639112331800,4.138331787109375,-2.2520244121551514,-2.667151927947998,-0.5746888518333435
1761838639122402000,4.148402099609375,-1.7564979791641235,-1.4376622438430786,-1.1752068996429443
1761838639132470800,4.158470703125,-1.0334234237670898,-0.7919801473617554,-1.6469930410385132
1761838639142541000,4.168541015625,-0.3817092776298523,-0.9824651479721069,-1.8275537490844727
1761838639152609800,4.17860986328125,0.10399457812309265,-1.4347857236862183,-1.591779112815857
1761838639162679800,4.1886796875,0.3721945881843567,-2.0136117935180664,-1.0263921022415161
1761838639172749800,4.198749755859375,0.41722971200942993,-2.7520408630371094,-0.3358520269393921
1761838639182818800,4.20881884765625,0.3018477261066437,-3.3899919986724854,0.3752143681049347
1761838639192889000,4.21888916015625,0.07511872053146362,-3.5393362045288086,0.9785652160644531
1761838639202957800,4.228957763671875,-0.17225246131420135,-3.3302807807922363,1.3121227025985718
1761838639213027800,4.23902783203125,-0.4103182852268219,-2.925719976425171,1.3133727312088013
1761838639223097900,4.249097900390625,-0.6414910554885864,-2.367278814315796,1.024322271347046
1761838639233166800,4.259166748046875,-0.7999776601791382,-1.712368369102478,0.5315017104148865
1761838639243236900,4.26923681640625,-0.8853420615196228,-0.9962595105171204,-0.04427771642804146
1761838639253305900,4.279305908203125,-0.9401192665100098,-0.3236084282398224,-0.6023593544960022
1761838639263376000,4.2893759765625,-0.9923548102378845,0.13163578510284424,-1.073777437210083
1761838639273444900,4.29944482421875,-1.0444531440734863,0.32036975026130676,-1.4104505777359009
1761838639283515000,4.309514892578125,-1.0804744958877563,0.31061726808547974,-1.5618566274642944
1761838639293585000,4.3195849609375,-1.0895655155181885,0.2519073486328125,-1.5078204870224
1761838639303654000,4.32965380859375,-1.0723532438278198,0.2687891125679016,-1.276482105255127
1761838639313724000,4.339723876953125,-1.0265942811965942,0.35748490691185,-0.9384667873382568
1761838639323793000,4.34979296875,-0.9548599123954773,0.4709331691265106,-0.5614033937454224
1761838639333862700,4.359862548828125,-0.8489893674850464,0.5539327263832092,-0.18483269214630127
1761838639343933000,4.369932861328125,-0.7215749621391296,0.6092755794525146,0.1480613648891449
1761838639354001700,4.380001708984375,-0.5503835082054138,0.6496205925941467,0.42890235781669617
1761838639364072000,4.390072021484375,-0.3363085091114044,0.7301133275032043,0.6612389087677002
1761838639374141000,4.400140869140625,-0.0781073197722435,0.9249305129051208,0.863293468952179
1761838639384211000,4.4102109375,0.19241392612457275,1.1761741638183594,1.023482322692871
1761838639394281000,4.420281005859375,0.41795384883880615,1.421579122543335,1.1068992614746094
1761838639404349700,4.430349609375,0.5819821953773499,1.6291618347167969,1.1157516241073608
1761838639414420000,4.440419921875,0.7191424369812012,1.9140689373016357,1.0788289308547974
1761838639424488700,4.45048876953125,0.8307976126670837,2.254271984100342,0.9550987482070923
1761838639434559000,4.46055908203125,0.9299033880233765,2.419182300567627,0.6710183024406433
1761838639444629000,4.47062890625,0.9861624240875244,2.451820135116577,0.204482302069664
1761838639454697700,4.48069775390625,0.9791761636734009,2.4368748664855957,-0.35691577196121216
1761838639464768000,4.49076806640625,0.9515690207481384,2.494492769241333,-0.8079673647880554
1761838639474836700,4.500836669921875,0.9039037823677063,2.5720183849334717,-1.0630172491073608
1761838639484907000,4.510906982421875,0.8481131792068481,2.49307918548584,-1.144751787185669
1761838639494975700,4.520975830078125,0.8727464079856873,2.3488104343414307,-1.051287055015564
1761838639505046000,4.5310458984375,0.900570809841156,2.229719877243042,-0.8432382941246033
1761838639515116000,4.541115966796875,0.8711058497428894,2.009552478790283,-0.6073054075241089
1761838639525184800,4.551184814453125,0.7285404801368713,1.5540114641189575,-0.38747769594192505
1761838639535255000,4.561255126953125,0.4849192798137665,1.1123334169387817,-0.10229068249464035
1761838639545323800,4.57132373046875,0.199530690908432,0.9108468890190125,0.21542656421661377
1761838639555394000,4.58139404296875,-0.07192612439393997,0.8213830590248108,0.44892480969429016
1761838639565463800,4.5914638671875,-0.28222396969795227,0.7669917345046997,0.524954080581665
1761838639575532800,4.60153271484375,-0.44186821579933167,0.7902991771697998,0.4131457507610321
1761838639585602800,4.611602783203125,-0.5508221387863159,0.8602920770645142,0.14356514811515808
1761838639595671800,4.621671875,-0.5881361961364746,0.9222779870033264,-0.2061704844236374
1761838639605742000,4.6317421875,-0.557091236114502,0.9846017956733704,-0.5513390302658081
1761838639615810800,4.641810791015625,-0.4930688142776489,1.0854322910308838,-0.8255205154418945
1761838639625880800,4.651880859375,-0.4271007180213928,1.2001111507415771,-0.9921987652778625
1761838639635950800,4.661950927734375,-0.3820360600948334,1.2686116695404053,-1.0650298595428467
1761838639646019800,4.672019775390625,-0.3609328866004944,1.251452088356018,-1.0620057582855225
1761838639656089900,4.68208984375,-0.35633307695388794,1.1587533950805664,-1.0131889581680298
1761838639666158800,4.692158935546875,-0.37835368514060974,1.0571342706680298,-0.9396218061447144
1761838639676228900,4.702228759765625,-0.4386042654514313,0.9509112238883972,-0.8683100938796997
1761838639686299000,4.712298828125,-0.4948166608810425,0.8124508261680603,-0.811806857585907
1761838639696367900,4.722367919921875,-0.526313841342926,0.6273429989814758,-0.7633389234542847
1761838639706438000,4.73243798828125,-0.5517510175704956,0.3345004916191101,-0.7282531261444092
1761838639716507000,4.7425068359375,-0.5825507640838623,-0.06599339842796326,-0.6404678821563721
1761838639726577000,4.752576904296875,-0.5747122764587402,-0.34968581795692444,-0.45772626996040344
1761838639736647000,4.76264697265625,-0.5253833532333374,-0.49513331055641174,-0.1855885088443756
1761838639746716000,4.7727158203125,-0.43501245975494385,-0.5826432108879089,0.1424735188484192
1761838639756786000,4.782785888671875,-0.33669599890708923,-0.6268916130065918,0.4730447828769684
1761838639766854700,4.792854736328125,-0.24241876602172852,-0.6814523339271545,0.7680186629295349
1761838639776925000,4.802925048828125,-0.13586488366127014,-0.8071737885475159,1.0225979089736938
1761838639786994000,4.812993896484375,-0.0062552327290177345,-0.9594306945800781,1.2570596933364868
1761838639797064000,4.82306396484375,0.16262193024158478,-1.0633602142333984,1.4521682262420654
1761838639807134000,4.833134033203125,0.31725412607192993,-1.184720516204834,1.5405569076538086
1761838639817202700,4.84320263671875,0.3796069920063019,-1.438706398010254,1.4805231094360352
1761838639827273000,4.85327294921875,0.23242418467998505,-1.9133243560791016,1.2906684875488281
1761838639837341700,4.863341796875,-0.2250131368637085,-2.57289981842041,0.9799311757087708
1761838639847412000,4.873411865234375,-0.8920846581459045,-3.12446928024292,0.5962849855422974
1761838639857482000,4.88348193359375,-1.5737359523773193,-3.334214448928833,0.18805725872516632
1761838639867551000,4.893551025390625,-2.104604482650757,-3.038426637649536,-0.184404194355011
1761838639877621000,4.90362109375,-2.379584550857544,-2.3169384002685547,-0.4421379864215851
1761838639887689700,4.913689697265625,-2.2564306259155273,-1.3336724042892456,-0.5369382500648499
1761838639897760000,4.923760009765625,-1.706683874130249,-0.38867050409317017,-0.4919665455818176
1761838639907828700,4.933828857421875,-1.0964500904083252,-0.11571967601776123,-0.43213704228401184
1761838639917899000,4.94389892578125,-0.7431439161300659,-0.6203298568725586,-0.31966426968574524
1761838639927969000,4.953968994140625,-0.695099949836731,-1.6063345670700073,-0.11241788417100906
1761838639938037800,4.964037841796875,-0.9088937044143677,-2.732884645462036,0.18587559461593628
1761838639948108000,4.97410791015625,-1.2588062286376953,-3.5320725440979004,0.5389851927757263
1761838639958176800,4.9841767578125,-1.5914983749389648,-3.8021161556243896,0.8266169428825378
1761838639968247000,4.9942470703125,-1.8476347923278809,-3.754411220550537,0.9205778241157532
1761838639978316800,5.00431689453125,-2.062577247619629,-3.535773754119873,0.852451741695404
1761838639988385800,5.0143857421875,-2.2266998291015625,-3.036827802658081,0.723482072353363
1761838639998456000,5.0244560546875,-2.317960500717163,-2.291736602783203,0.6086050271987915
1761838640008524800,5.03452490234375,-2.2924304008483887,-1.4043048620224,0.5397388339042664
1761838640018595000,5.044594970703125,-2.188514232635498,-0.5708065032958984,0.48223960399627686
1761838640028664800,5.054664794921875,-2.057541847229004,0.06233767792582512,0.41510531306266785
1761838640038734000,5.064734130859375,-1.9360626935958862,0.41873493790626526,0.3465861678123474
1761838640048803800,5.074803955078125,-1.8273063898086548,0.5372293591499329,0.2826484739780426
1761838640058872800,5.084872802734375,-1.7477729320526123,0.4640448987483978,0.23520053923130035
1761838640068943000,5.094943115234375,-1.7194150686264038,0.25935620069503784,0.21679915487766266
1761838640079011800,5.10501171875,-1.7478917837142944,-0.04044302925467491,0.21401694416999817
1761838640089082000,5.11508203125,-1.8122174739837646,-0.4068721532821655,0.2424296885728836
1761838640099152000,5.12515185546875,-1.874502420425415,-0.7571138143539429,0.3084760904312134
1761838640109220900,5.135220947265625,-1.9015406370162964,-0.9127651453018188,0.401265412569046
1761838640119291000,5.145290771484375,-1.8834946155548096,-0.8293765187263489,0.49727874994277954
1761838640129360000,5.15535986328125,-1.839850902557373,-0.5386115312576294,0.5682397484779358
1761838640139430000,5.165429931640625,-1.8023810386657715,-0.14601978659629822,0.6001065969467163
1761838640149500000,5.1755,-1.7514880895614624,0.24197295308113098,0.6117845773696899
1761838640159569200,5.185569091796875,-1.686660885810852,0.5637797713279724,0.6187913417816162
1761838640169639000,5.195638916015625,-1.5899639129638672,0.8513369560241699,0.6604618430137634
1761838640179708000,5.2057080078125,-1.4622917175292969,0.9543525576591492,0.6880812048912048
1761838640189778000,5.21577783203125,-1.3576829433441162,0.6982517838478088,0.635171115398407
1761838640199847000,5.225846923828125,-1.2676992416381836,0.17375421524047852,0.5188466310501099
1761838640209917000,5.2359169921875,-1.1304939985275269,-0.2951749265193939,0.383297860622406
1761838640219987000,5.245987060546875,-1.0230016708374023,-0.680308997631073,0.24907587468624115
1761838640230056000,5.256055908203125,-1.06830632686615,-1.1836693286895752,0.14058268070220947
1761838640240126000,5.2661259765625,-1.2952570915222168,-1.7636464834213257,0.10076496005058289
1761838640250195000,5.27619482421875,-1.5744789838790894,-2.12796688079834,0.1876782923936844
1761838640260265000,5.286264892578125,-1.7778760194778442,-2.2158615589141846,0.33857274055480957
1761838640270334000,5.296333984375,-2.0237748622894287,-2.0168802738189697,0.46396660804748535
1761838640280404000,5.306404052734375,-2.255112886428833,-1.2911138534545898,0.6514110565185547
1761838640290474000,5.316473876953125,-2.337641477584839,-0.4017421007156372,0.8664109706878662
1761838640300542700,5.326542724609375,-2.33551287651062,0.0893743559718132,0.8786415457725525
1761838640310613000,5.336613037109375,-2.3377814292907715,0.1568114459514618,0.6615180373191833
1761838640320681700,5.346681640625,-2.3654608726501465,-0.0248467605561018,0.30793678760528564
1761838640330752000,5.356751953125,-2.3846232891082764,-0.18398554623126984,-0.07828442007303238
1761838640340822000,5.366822021484375,-2.36376953125,-0.22291696071624756,-0.41208314895629883
1761838640350890800,5.376890869140625,-2.300344228744507,-0.2144148200750351,-0.6532752513885498
1761838640360961000,5.3869609375,-2.2116105556488037,-0.2798430919647217,-0.8022500872612
1761838640371029800,5.39702978515625,-2.106243848800659,-0.4057355225086212,-0.8243101239204407
1761838640381100000,5.40710009765625,-2.0190374851226807,-0.49882498383522034,-0.7200034260749817
1761838640391168800,5.417168701171875,-1.9786173105239868,-0.5131706595420837,-0.5127911567687988
1761838640401239000,5.427239013671875,-1.994282603263855,-0.4386436641216278,-0.27465125918388367
1761838640411309000,5.43730908203125,-2.04646372795105,-0.35631871223449707,-0.07153143733739853
1761838640421377800,5.447377685546875,-2.1019818782806396,-0.2757253348827362,0.08480756729841232
1761838640431448000,5.457447998046875,-2.1632838249206543,-0.22529304027557373,0.18933530151844025
1761838640441516800,5.467516845703125,-2.231710910797119,-0.240345761179924,0.24813230335712433
1761838640451587000,5.477587158203125,-2.318786144256592,-0.3446785509586334,0.2863643765449524
1761838640461656800,5.48765673828125,-2.4240100383758545,-0.48701491951942444,0.3293866813182831
1761838640471725800,5.497725830078125,-2.539543628692627,-0.5229675769805908,0.4022071063518524
1761838640481796000,5.507796142578125,-2.6514575481414795,-0.46033963561058044,0.47881293296813965
1761838640491864800,5.51786474609375,-2.7303271293640137,-0.426935613155365,0.5270547270774841
1761838640501935000,5.52793505859375,-2.7322826385498047,-0.4619481861591339,0.5473206043243408
1761838640512003800,5.53800390625,-2.6671741008758545,-0.5929269790649414,0.5597314834594727
1761838640522074000,5.54807421875,-2.5132431983947754,-0.7806491851806641,0.59878009557724
1761838640532143900,5.558143798828125,-2.312075138092041,-0.9484661817550659,0.7037892937660217
1761838640542212900,5.568212890625,-2.103253126144409,-1.0206093788146973,0.8502996563911438
1761838640552283000,5.578282958984375,-1.9846323728561401,-1.233883023262024,0.9493303894996643
1761838640562351900,5.588351806640625,-2.0403995513916016,-1.7173417806625366,0.9614117741584778
1761838640572422100,5.598422119140625,-2.271657943725586,-2.277158260345459,0.9714532494544983
1761838640582492000,5.608491943359375,-2.673734664916992,-2.7620697021484375,0.9994771480560303
1761838640592561000,5.618560791015625,-3.229372501373291,-3.130373954772949,0.9648352861404419
1761838640602631000,5.628630859375,-3.7671515941619873,-3.3529510498046875,0.7783735394477844
1761838640612700000,5.638699951171875,-3.912337303161621,-3.2497432231903076,0.6001468300819397
1761838640622770000,5.64877001953125,-3.568507671356201,-2.474097728729248,0.6198068261146545
1761838640632839000,5.6588388671875,-3.0579726696014404,-1.3987414836883545,0.5538038015365601
1761838640642909000,5.668908935546875,-2.6714627742767334,-0.9954504370689392,0.13616742193698883
1761838640652979000,5.67897900390625,-2.474850654602051,-1.1213138103485107,-0.3891666531562805
1761838640663048000,5.6890478515625,-2.3929755687713623,-1.3334516286849976,-0.7536322474479675
1761838640673118000,5.699117919921875,-2.3671305179595947,-1.4734060764312744,-0.8538382053375244
1761838640683187000,5.70918701171875,-2.385103702545166,-1.4554736614227295,-0.690085232257843
1761838640693257000,5.719257080078125,-2.441072702407837,-1.2159799337387085,-0.3787238597869873
1761838640703327000,5.729326904296875,-2.448251247406006,-0.834295392036438,-0.06577847898006439
1761838640713395700,5.739395751953125,-2.3170809745788574,-0.508529543876648,0.12054318934679031
1761838640723466000,5.749466064453125,-2.137152671813965,-0.47593778371810913,0.17413078248500824
1761838640733534700,5.75953466796875,-1.9821984767913818,-0.5718451142311096,0.23024864494800568
1761838640743605000,5.76960498046875,-1.8400230407714844,-0.4482068121433258,0.41036543250083923
1761838640753673700,5.779673828125,-1.731208086013794,-0.23214934766292572,0.6676830053329468
1761838640763744000,5.789743896484375,-1.6653398275375366,-0.06011020764708519,0.9214217662811279
1761838640773814000,5.79981396484375,-1.6380879878997803,0.031155522912740707,1.0820589065551758
1761838640783882800,5.8098828125,-1.639063835144043,-0.003739610780030489,1.129215121269226
1761838640793953000,5.819953125,-1.663588523864746,-0.1178416833281517,1.0572201013565063
1761838640804021800,5.830021728515625,-1.6966344118118286,-0.28438085317611694,0.8899842500686646
1761838640814092000,5.840092041015625,-1.7372342348098755,-0.45754358172416687,0.6720952987670898
1761838640824162000,5.850162109375,-1.7698441743850708,-0.5873734951019287,0.4382157027721405
1761838640834230800,5.860230712890625,-1.7739100456237793,-0.6455007195472717,0.22461499273777008
1761838640844301000,5.870301025390625,-1.7516963481903076,-0.6667279601097107,0.05744624882936478
1761838640854369800,5.880369873046875,-1.7404433488845825,-0.6909928321838379,-0.04713661968708038
1761838640864440000,5.890440185546875,-1.7530572414398193,-0.7072389125823975,-0.0754777118563652
1761838640874508800,5.9005087890625,-1.778050422668457,-0.6730037331581116,-0.014039918780326843
1761838640884578800,5.910578857421875,-1.7961335182189941,-0.5791035890579224,0.1246069073677063
1761838640894649000,5.920649169921875,-1.8008731603622437,-0.427041620016098,0.29435572028160095
1761838640904717800,5.9307177734375,-1.786358118057251,-0.25736814737319946,0.46773019433021545
1761838640914788000,5.9407880859375,-1.7453947067260742,-0.12430544197559357,0.630020260810852
1761838640924856800,5.95085693359375,-1.6770719289779663,-0.09932765364646912,0.7609295845031738
1761838640934927000,5.960927001953125,-1.577040672302246,-0.16675303876399994,0.8594290018081665
1761838640944995800,5.970995849609375,-1.4145363569259644,-0.23125532269477844,0.9748879075050354
1761838640955065900,5.98106591796875,-1.2023568153381348,-0.222378209233284,1.1247085332870483
1761838640965136000,5.991135986328125,-1.0048795938491821,-0.3021310865879059,1.2564713954925537
1761838640975204900,6.001204833984375,-0.9256964325904846,-0.7726799845695496,1.2524830102920532
1761838640985275000,6.01127490234375,-1.028856873512268,-1.7401049137115479,1.041329026222229
1761838640995344000,6.02134375,-1.2125446796417236,-2.7073543071746826,0.7849387526512146
1761838641005413600,6.03141357421875,-1.405493140220642,-3.1484808921813965,0.6882116794586182
1761838641015482600,6.041482666015625,-1.6341931819915771,-2.9463043212890625,0.7239017486572266
1761838641025552400,6.051552490234375,-1.864712119102478,-2.158838987350464,0.7889201641082764
1761838641035622700,6.06162255859375,-2.0203757286071777,-1.0918481349945068,0.7840673923492432
1761838641045691600,6.071691650390625,-2.042559862136841,-0.25696679949760437,0.6223099231719971
1761838641055761700,6.08176171875,-1.937331199645996,0.0013560815714299679,0.2927546501159668
1761838641065830700,6.09183056640625,-1.7574650049209595,-0.15296238660812378,-0.09439095109701157
1761838641075900700,6.101900634765625,-1.5235002040863037,-0.4892205595970154,-0.39362001419067383
1761838641085970700,6.111970703125,-1.2938048839569092,-0.898254930973053,-0.5187819004058838
1761838641096039400,6.122039306640625,-1.1419214010238647,-1.255647897720337,-0.45551106333732605
1761838641106109700,6.132109619140625,-1.0743486881256104,-1.38233482837677,-0.22553911805152893
1761838641116178400,6.142178466796875,-1.0268629789352417,-1.365160346031189,0.0799824520945549
1761838641126248700,6.152248779296875,-0.9820142984390259,-1.2797490358352661,0.37673982977867126
1761838641136317700,6.162317626953125,-0.9724290370941162,-1.1935062408447266,0.5892078876495361
1761838641146387500,6.172387451171875,-1.0092967748641968,-1.196060299873352,0.6483867764472961
1761838641156457700,6.182457763671875,-1.0779626369476318,-1.2333877086639404,0.5588028430938721
1761838641166526500,6.1925263671875,-1.152819037437439,-1.2477288246154785,0.35168373584747314
1761838641176596700,6.2025966796875,-1.2320462465286255,-1.1686216592788696,0.06835296005010605
1761838641186665500,6.21266552734375,-1.300012469291687,-0.9784477949142456,-0.2536724805831909
1761838641196735700,6.22273583984375,-1.3535404205322266,-0.7025783658027649,-0.5761709213256836
1761838641206804500,6.232804443359375,-1.40049147605896,-0.40392136573791504,-0.8702201247215271
1761838641216874500,6.24287451171875,-1.4442474842071533,-0.10236258804798126,-1.1091647148132324
1761838641226944800,6.25294482421875,-1.4951657056808472,0.21824871003627777,-1.2957223653793335
1761838641237013500,6.263013427734375,-1.5745428800582886,0.4833131432533264,-1.4288676977157593
1761838641247083800,6.273083740234375,-1.6890134811401367,0.6777449250221252,-1.5184435844421387
1761838641257152500,6.283152587890625,-1.8001751899719238,0.7383451461791992,-1.55667245388031
1761838641267222500,6.293222412109375,-1.908793568611145,0.6563000679016113,-1.5674740076065063
1761838641277292800,6.303292724609375,-2.0024187564849854,0.4487479627132416,-1.559069037437439
1761838641287361500,6.313361572265625,-2.0793380737304688,0.11462192237377167,-1.53558349609375
1761838641297431800,6.323431884765625,-2.144551992416382,-0.3148956298828125,-1.505780816078186
1761838641307500500,6.33350048828125,-2.181838274002075,-0.703098475933075,-1.447354793548584
1761838641317570600,6.343570556640625,-2.179537296295166,-0.969386637210846,-1.348059058189392
1761838641327639600,6.3536396484375,-2.1182730197906494,-1.050303339958191,-1.167364478111267
1761838641337709600,6.36370947265625,-1.9909480810165405,-0.912452757358551,-0.900638997554779
1761838641347779600,6.373779541015625,-1.8055307865142822,-0.6703498363494873,-0.5923117995262146
1761838641357848600,6.3838486328125,-1.6083719730377197,-0.47305357456207275,-0.3322834074497223
1761838641367918800,6.3939189453125,-1.4919917583465576,-0.4343426525592804,-0.16916079819202423
1761838641377987600,6.403987548828125,-1.5236090421676636,-0.5147836804389954,-0.07656428217887878
1761838641388057600,6.4140576171875,-1.678750991821289,-0.5560033321380615,-0.00938897393643856
1761838641398126600,6.424126708984375,-1.882591724395752,-0.5223340392112732,0.03344450891017914
1761838641408196600,6.434196533203125,-2.0543675422668457,-0.5205294489860535,0.016619989648461342
1761838641418266600,6.4442666015625,-2.151782989501953,-0.6821351647377014,-0.06214939057826996
1761838641428335600,6.454335693359375,-2.2337141036987305,-0.9600088596343994,-0.20531560480594635
1761838641438405600,6.464405517578125,-2.324658155441284,-1.2457058429718018,-0.3661116659641266
1761838641448474600,6.474474609375,-2.382321357727051,-1.4927116632461548,-0.5169837474822998
1761838641458544600,6.484544677734375,-2.3689725399017334,-1.7335165739059448,-0.7335448265075684
1761838641468613600,6.494613525390625,-2.198662281036377,-2.0006160736083984,-0.9767641425132751
1761838641478683600,6.50468359375,-1.917312741279602,-2.2142879962921143,-1.10679030418396
1761838641488753700,6.514753662109375,-1.7012523412704468,-2.2453176975250244,-1.025044322013855
1761838641498822700,6.52482275390625,-1.598815679550171,-2.099022626876831,-0.7058892250061035
1761838641508892400,6.534892333984375,-1.5357387065887451,-1.7574410438537598,-0.22193479537963867
1761838641518961700,6.544961669921875,-1.4278508424758911,-1.3118646144866943,0.2668681740760803
1761838641529031400,6.555031494140625,-1.2376543283462524,-0.8874302506446838,0.6297313570976257
1761838641539100700,6.5651005859375,-1.021010398864746,-0.5265666246414185,0.8048187494277954
1761838641549170700,6.575170654296875,-0.820853590965271,-0.23310835659503937,0.8268084526062012
1761838641559240700,6.58524072265625,-0.659084677696228,-0.03573695942759514,0.761886715888977
1761838641569309700,6.595309814453125,-0.5306745171546936,0.08591330796480179,0.6755995154380798
1761838641579379500,6.60537939453125,-0.3983263373374939,0.24234206974506378,0.6376183032989502
1761838641589448700,6.61544873046875,-0.2371952384710312,0.4728165566921234,0.6541644930839539
1761838641599518500,6.6255185546875,-0.03584827855229378,0.7203158140182495,0.6927601099014282
1761838641609587700,6.635587646484375,0.1881302297115326,0.9423789978027344,0.7198559045791626
1761838641619657500,6.645657470703125,0.4000198543071747,1.1142141819000244,0.7155817747116089
1761838641629727500,6.6557275390625,0.561500072479248,1.2277201414108276,0.674246072769165
1761838641639796700,6.665796630859375,0.6628658771514893,1.2510558366775513,0.5880113244056702
1761838641649866500,6.675866455078125,0.7096349596977234,1.154068112373352,0.46876081824302673
1761838641659935700,6.685935791015625,0.7167690396308899,0.9410117268562317,0.35739487409591675
1761838641670005500,6.696005615234375,0.7164151072502136,0.6774756908416748,0.287027508020401
1761838641680074800,6.70607470703125,0.7314579486846924,0.48874279856681824,0.30749788880348206
1761838641690144500,6.71614453125,0.7865284085273743,0.3964530825614929,0.41712239384651184
1761838641700214500,6.726214599609375,0.9036137461662292,0.3907070457935333,0.6201255917549133
1761838641710283500,6.736283447265625,1.0799968242645264,0.5084925293922424,0.8841438889503479
1761838641720353500,6.746353515625,1.302560567855835,0.7529826760292053,1.177678108215332
1761838641730422800,6.7564228515625,1.5400909185409546,1.0183712244033813,1.4477124214172363
1761838641740492500,6.766492431640625,1.7590993642807007,1.2013623714447021,1.6588222980499268
1761838641750561800,6.776561767578125,1.9709818363189697,1.2242645025253296,1.774224042892456
1761838641760631600,6.786631591796875,2.1580989360809326,1.1011155843734741,1.8137602806091309
1761838641770701600,6.79670166015625,2.2913808822631836,0.800818920135498,1.8141189813613892
1761838641780770600,6.8067705078125,2.3465354442596436,0.38077691197395325,1.8283535242080688
1761838641790840600,6.816840576171875,2.2997448444366455,-0.13446646928787231,1.9104771614074707
1761838641800909600,6.82690966796875,2.173798084259033,-0.5817875266075134,2.128070592880249
1761838641810979600,6.8369794921875,1.9146093130111694,-0.8157800436019897,2.449708938598633
1761838641821048800,6.847048828125,1.51174795627594,-0.7886922359466553,2.78816819190979
1761838641831118600,6.85711865234375,1.0970913171768188,-0.4732770025730133,3.078673839569092
1761838641841188600,6.867188720703125,0.7683616280555725,-0.0034671693574637175,3.2666120529174805
1761838641851257600,6.877257568359375,0.5693889260292053,0.49571120738983154,3.297231912612915
1761838641861327600,6.88732763671875,0.5149405598640442,1.040221929550171,3.1634199619293213
1761838641871396600,6.897396728515625,0.5931389927864075,1.6284220218658447,2.873847246170044
1761838641881466600,6.907466552734375,0.7226466536521912,2.2121026515960693,2.4353930950164795
1761838641891535600,6.91753564453125,0.8389769792556763,2.6800034046173096,1.9026399850845337
1761838641901605600,6.927605712890625,0.9055429697036743,2.9661006927490234,1.337147831916809
1761838641911675600,6.937675537109375,0.9437361359596252,3.1144497394561768,0.7987056970596313
1761838641921744600,6.94774462890625,0.9872630834579468,3.0944347381591797,0.326999694108963
1761838641931814700,6.957814697265625,1.0126259326934814,2.892426013946533,-0.061052702367305756
1761838641941883600,6.967883544921875,0.9792179465293884,2.565384864807129,-0.3339047431945801
1761838641951953700,6.97795361328125,0.8766188621520996,2.1990530490875244,-0.49127572774887085
1761838641962022700,6.988022705078125,0.7254557013511658,1.8897833824157715,-0.5636929273605347
1761838641972092700,6.9980927734375,0.5602819323539734,1.6033869981765747,-0.6080300211906433
1761838641982162700,7.00816259765625,0.3869016468524933,1.2808218002319336,-0.6537306904792786
1761838641992231700,7.018231689453125,0.23391182720661163,1.0313674211502075,-0.6759518384933472
1761838642002301200,7.02830126953125,0.11039707809686661,0.9234958291053772,-0.680454671382904
1761838642012370400,7.038370361328125,0.021818213164806366,0.875760555267334,-0.6952221989631653
1761838642022440200,7.048440185546875,-0.0482436940073967,0.8101910948753357,-0.7484004497528076
1761838642032509400,7.058509521484375,-0.11515828222036362,0.7100245952606201,-0.8337526321411133
1761838642042579200,7.0685791015625,-0.17649540305137634,0.5872238278388977,-0.9381312727928162
1761838642052649200,7.078649169921875,-0.25448501110076904,0.4303998649120331,-1.0443090200424194
1761838642062718500,7.088718505859375,-0.3360336720943451,0.21842022240161896,-1.1248891353607178
1761838642072788200,7.098788330078125,-0.388570100069046,-0.023416908457875252,-1.1567341089248657
1761838642082857500,7.108857421875,-0.4028068482875824,-0.17598994076251984,-1.1172059774398804
1761838642092927200,7.11892724609375,-0.3939046859741211,-0.2275034636259079,-1.01114821434021
1761838642102996200,7.128996337890625,-0.36071425676345825,-0.2231007218360901,-0.8609480261802673
1761838642113066200,7.139066162109375,-0.3082486391067505,-0.19772931933403015,-0.6754082441329956
1761838642123136300,7.14913623046875,-0.2640444338321686,-0.19653941690921783,-0.4769495129585266
1761838642133205200,7.159205322265625,-0.2518269121646881,-0.25073128938674927,-0.28667864203453064
1761838642143275300,7.169275146484375,-0.23658829927444458,-0.3906348645687103,-0.09984537214040756
1761838642153344500,7.179344482421875,-0.18957552313804626,-0.5671427845954895,0.07804287225008011
1761838642163414300,7.189414306640625,-0.08638682216405869,-0.7569385766983032,0.274959921836853
1761838642173483300,7.199483154296875,0.009749033488333225,-1.0212801694869995,0.47074195742607117
1761838642183553300,7.20955322265625,-0.06239733099937439,-1.4872404336929321,0.606711208820343
1761838642193622300,7.219622314453125,-0.439526230096817,-2.1326210498809814,0.657060444355011
1761838642203692300,7.2296923828125,-1.030408501625061,-2.7973222732543945,0.6251240372657776
1761838642213762300,7.23976220703125,-1.5538763999938965,-3.3525612354278564,0.5226954221725464
1761838642223831300,7.249831298828125,-1.8430558443069458,-3.570591688156128,0.43025949597358704
1761838642233901300,7.2599013671875,-1.9010483026504517,-3.2758939266204834,0.4305149018764496
1761838642243970300,7.26997021484375,-1.735851526260376,-2.4785497188568115,0.5279751420021057
1761838642254040300,7.280040283203125,-1.4111144542694092,-1.5406395196914673,0.5965736508369446
1761838642264109300,7.290109375,-1.0978926420211792,-1.107386827468872,0.4713835120201111
1761838642274179300,7.300179443359375,-0.856415331363678,-1.3221266269683838,0.2721439003944397
1761838642284249300,7.310249267578125,-0.7362215518951416,-1.9159190654754639,0.14920572936534882
1761838642294318000,7.320318115234375,-0.7719206809997559,-2.4484524726867676,0.0927584320306778
1761838642304388400,7.330388427734375,-0.8515430688858032,-2.6758952140808105,0.02918052300810814
1761838642314457000,7.34045703125,-0.8906039595603943,-2.653219699859619,-0.06301545351743698
1761838642324527400,7.35052734375,-0.9192829728126526,-2.340731620788574,-0.15985438227653503
1761838642334596400,7.360596435546875,-0.9416777491569519,-1.8040971755981445,-0.2777104377746582
1761838642344666400,7.370666259765625,-0.9771585464477539,-1.237155795097351,-0.4417180120944977
1761838642354736400,7.380736328125,-1.0157206058502197,-0.6932402849197388,-0.642951250076294
1761838642364805000,7.39080517578125,-1.0386261940002441,-0.1521032452583313,-0.8599323034286499
1761838642374875400,7.40087548828125,-1.0381464958190918,0.3096050024032593,-1.0764694213867188
1761838642384944000,7.410944091796875,-1.0070797204971313,0.6378262639045715,-1.2689683437347412
1761838642395014400,7.421014404296875,-0.9299601316452026,0.8507667779922485,-1.4201053380966187
1761838642405083100,7.431083251953125,-0.8101892471313477,0.9468112587928772,-1.5201016664505005
1761838642415153200,7.441153076171875,-0.664531409740448,0.857830822467804,-1.5726094245910645
1761838642425222400,7.451222412109375,-0.5188154578208923,0.5077114105224609,-1.5497807264328003
1761838642435292200,7.461292236328125,-0.36613911390304565,0.107107013463974,-1.3710975646972656
1761838642445362400,7.471362548828125,-0.19214095175266266,-0.08624221384525299,-1.0089654922485352
1761838642455431200,7.48143115234375,-0.0057351174764335155,-0.0904121845960617,-0.5285788774490356
1761838642465501200,7.491501220703125,0.173960343003273,-0.0002263686910737306,-0.006135124247521162
1761838642475570200,7.501570068359375,0.32316821813583374,0.11123570799827576,0.48560744524002075
1761838642485640200,7.51164013671875,0.41774770617485046,0.19670426845550537,0.8985955715179443
1761838642495709200,7.521709228515625,0.4760163426399231,0.3863793909549713,1.2050387859344482
1761838642505779200,7.531779296875,0.5321776270866394,0.7131599187850952,1.4002258777618408
1761838642515849500,7.541849365234375,0.6287965774536133,1.1802607774734497,1.4768085479736328
1761838642525918200,7.551918212890625,0.7862237095832825,1.6712480783462524,1.4247496128082275
1761838642535988200,7.56198828125,0.9992020726203918,2.1081838607788086,1.2649564743041992
1761838642546057200,7.57205712890625,1.2696633338928223,2.463820219039917,1.0344843864440918
1761838642556127200,7.582127197265625,1.5331966876983643,2.715404748916626,0.7450251579284668
1761838642566196200,7.5921962890625,1.7549693584442139,2.8278005123138428,0.3987521827220917
1761838642576266200,7.602266357421875,1.9672954082489014,2.644394874572754,0.048652756959199905
1761838642586335200,7.612335205078125,2.093987464904785,1.9589499235153198,-0.267751008272171
1761838642596405200,7.6224052734375,2.0487916469573975,0.9881643056869507,-0.3933504819869995
1761838642606475300,7.632475341796875,1.7760357856750488,0.14995060861110687,-0.24156735837459564
1761838642616544300,7.642544189453125,1.3352810144424438,-0.4101523756980896,0.12587803602218628
1761838642626614300,7.6526142578125,0.9076441526412964,-0.6848297119140625,0.5639459490776062
1761838642636683300,7.662683349609375,0.6320842504501343,-0.7133175730705261,0.9923998117446899
1761838642646753300,7.672753173828125,0.5450412034988403,-0.42791271209716797,1.3681737184524536
1761838642656822300,7.682822265625,0.5983707308769226,0.10904845595359802,1.5847957134246826
1761838642666892300,7.692892333984375,0.6889962553977966,0.6417056918144226,1.5566610097885132
1761838642676961300,7.702961181640625,0.7124909162521362,0.9855376482009888,1.2670819759368896
1761838642687031300,7.71303125,0.6382481455802917,1.1980278491973877,0.8287174105644226
1761838642697101300,7.723101318359375,0.5357025861740112,1.4083058834075928,0.3619408905506134
1761838642707170300,7.73317041015625,0.4673251211643219,1.691839337348938,-0.06196190416812897
1761838642717240300,7.743240234375,0.4416607618331909,2.048281192779541,-0.39864087104797363
1761838642727309300,7.753309326171875,0.42500802874565125,2.3704864978790283,-0.6583158373832703
1761838642737379300,7.76337939453125,0.4192047119140625,2.598021984100342,-0.8547242283821106
1761838642747448300,7.7734482421875,0.40661463141441345,2.705514430999756,-1.011897087097168
1761838642757518300,7.783518310546875,0.42007264494895935,2.67765212059021,-1.1435906887054443
1761838642767587000,7.793587158203125,0.4666196405887604,2.543311357498169,-1.2528090476989746
1761838642777657300,7.8036572265625,0.5417397022247314,2.3294754028320312,-1.3018969297409058
1761838642787727400,7.813727294921875,0.6299382448196411,2.0864410400390625,-1.290289282798767
1761838642797796400,7.82379638671875,0.707131564617157,1.862694501876831,-1.2053242921829224
1761838642807866400,7.833866455078125,0.7581918239593506,1.6454044580459595,-1.0744009017944336
1761838642817935000,7.84393505859375,0.784227192401886,1.4454487562179565,-0.9421760439872742
1761838642828005400,7.85400537109375,0.7554692625999451,1.32989501953125,-0.8411767482757568
1761838642838074000,7.86407421875,0.6753666996955872,1.078230619430542,-0.7786941528320312
1761838642848144400,7.874144287109375,0.5858554840087891,0.7908536195755005,-0.7213795185089111
1761838642858214400,7.88421435546875,0.49656715989112854,0.5366804599761963,-0.6756445169448853
1761838642868283400,7.894283447265625,0.42087480425834656,0.2795376479625702,-0.6371945738792419
1761838642878353400,7.904353515625,0.3614269196987152,-0.047571513801813126,-0.6113238334655762
1761838642888422100,7.914422119140625,0.32489100098609924,-0.38721615076065063,-0.5492048263549805
1761838642898492400,7.924492431640625,0.28410443663597107,-0.646744430065155,-0.41949528455734253
1761838642908561200,7.93456103515625,0.21383719146251678,-0.769594669342041,-0.23999474942684174
1761838642918631400,7.94463134765625,0.11375266313552856,-0.7599103450775146,-0.05360304191708565
1761838642928700200,7.9547001953125,0.029262548312544823,-0.7084155082702637,0.12862668931484222
1761838642938770200,7.964770263671875,-0.025723472237586975,-0.6840829849243164,0.29655948281288147
1761838642948840400,7.97484033203125,-0.004868258256465197,-0.6641694903373718,0.451892614364624
1761838642958909200,7.9849091796875,0.11033263057470322,-0.5858328342437744,0.6298397183418274
1761838642968979500,7.9949794921875,0.23822401463985443,-0.47423893213272095,0.8081908226013184
1761838642979048200,8.005048095703126,0.26018285751342773,-0.5034546256065369,0.9181732535362244
1761838642989118500,8.015118408203126,0.10418365895748138,-0.7920951843261719,0.9029466509819031
1761838642999187200,8.025187255859375,-0.20442824065685272,-1.2425832748413086,0.774824857711792
1761838643009258000,8.035258056640625,-0.5901386737823486,-1.8255271911621094,0.5156359076499939
1761838643019327200,8.0453271484375,-0.8636325001716614,-2.5081002712249756,0.17844083905220032
1761838643029397000,8.05539697265625,-0.8092869520187378,-2.921743869781494,-0.07098336517810822
1761838643039467000,8.065467041015625,-0.5547769069671631,-2.6415278911590576,-0.16051724553108215
1761838643049536300,8.075536376953124,-0.3776998817920685,-1.9066717624664307,-0.2668604552745819
1761838643059606000,8.08560595703125,-0.36477023363113403,-1.380630612373352,-0.5232581496238708
1761838643069675300,8.09567529296875,-0.41415828466415405,-1.2323071956634521,-0.8530959486961365
1761838643079745000,8.1057451171875,-0.48249953985214233,-1.2987836599349976,-1.1557258367538452
1761838643089814300,8.115814208984375,-0.5048184394836426,-1.3723710775375366,-1.3158127069473267
1761838643099884000,8.125884033203125,-0.4500883221626282,-1.333413004875183,-1.3035086393356323
1761838643109953300,8.135953369140625,-0.3599592447280884,-1.129431128501892,-1.172479510307312
1761838643120023000,8.14602294921875,-0.2745513916015625,-0.8070254325866699,-0.9769284129142761
1761838643130093000,8.156093017578126,-0.190435990691185,-0.4595329761505127,-0.7859609127044678
1761838643140162300,8.166162353515626,-0.05676181614398956,-0.11389461159706116,-0.6272112131118774
1761838643150232000,8.176232177734375,0.10298071056604385,0.19859804213047028,-0.5171225070953369
1761838643160301300,8.18630126953125,0.24371865391731262,0.4595489501953125,-0.43945860862731934
1761838643170371000,8.19637109375,0.3378222584724426,0.6899930834770203,-0.37491288781166077
1761838643180440000,8.206440185546874,0.37849536538124084,0.8746643662452698,-0.3023902177810669
1761838643190510000,8.216510009765624,0.37791159749031067,0.9354127049446106,-0.23529161512851715
1761838643200579000,8.2265791015625,0.35458818078041077,0.8589847683906555,-0.15110695362091064
1761838643210649000,8.236649169921876,0.32184407114982605,0.6939377784729004,-0.040109068155288696
1761838643220719000,8.246718994140625,0.26510411500930786,0.5129506587982178,0.08349249511957169
1761838643230788400,8.256788330078125,0.19528427720069885,0.38912084698677063,0.19570691883563995
1761838643240858000,8.266858154296875,0.13286803662776947,0.3002237379550934,0.2775959372520447
1761838643250927000,8.276927001953124,0.12425457686185837,0.20698566734790802,0.323118656873703
1761838643260997000,8.2869970703125,0.17933672666549683,0.032884977757930756,0.3612769842147827
1761838643271066000,8.297066162109376,0.26507800817489624,-0.14069373905658722,0.4241504669189453
1761838643281136000,8.30713623046875,0.379903644323349,-0.17682324349880219,0.504642903804779
1761838643291205000,8.317205078125,0.511285126209259,-0.08962894976139069,0.5835002064704895
1761838643301275100,8.327275146484375,0.6744860410690308,0.06961663067340851,0.6295678019523621
1761838643311344000,8.33734423828125,0.8517984747886658,0.30546990036964417,0.6589531302452087
1761838643321414100,8.3474140625,1.0254791975021362,0.6138173341751099,0.6944112777709961
1761838643331484200,8.357484130859374,1.17087984085083,0.8711583614349365,0.7186505794525146
1761838643341553200,8.36755322265625,1.2388572692871094,0.952122688293457,0.7060348987579346
1761838643351623200,8.377623046875,1.2283852100372314,0.8263397216796875,0.6568798422813416
1761838643361692200,8.387692138671875,1.1582111120224,0.5701563954353333,0.5884616374969482
1761838643371762000,8.397761962890625,1.0677337646484375,0.21902315318584442,0.494631290435791
1761838643381831200,8.4078310546875,0.9808582067489624,-0.20352143049240112,0.3671913146972656
1761838643391901000,8.41790087890625,0.9201618432998657,-0.556427001953125,0.24165897071361542
1761838643401970200,8.42797021484375,0.8898776769638062,-0.6795681118965149,0.13659539818763733
1761838643412040200,8.438040283203126,0.8868291974067688,-0.5279858112335205,0.06380853801965714
1761838643422110200,8.448110107421876,0.9141630530357361,-0.16069434583187103,0.004609399009495974
1761838643432179200,8.45817919921875,0.9745854139328003,0.22685684263706207,-0.06662270426750183
1761838643442249000,8.4682490234375,1.053163766860962,0.46759942173957825,-0.1705232709646225
1761838643452318200,8.478318115234375,1.1135544776916504,0.5911916494369507,-0.29530835151672363
1761838643462388000,8.488387939453125,1.155867576599121,0.6868926286697388,-0.427494615316391
1761838643472457200,8.498457275390624,1.1622424125671387,0.7692543268203735,-0.5598790049552917
1761838643482527000,8.50852685546875,1.1421467065811157,0.766668438911438,-0.7089787721633911
1761838643492596200,8.51859619140625,1.0870602130889893,0.7189408540725708,-0.8569943308830261
1761838643502666200,8.528666259765625,1.0158315896987915,0.715339183807373,-0.9786211252212524
1761838643512735200,8.5387353515625,0.9599409103393555,0.7898703813552856,-1.0714828968048096
1761838643522805200,8.54880517578125,0.941882312297821,0.9000336527824402,-1.131677269935608
1761838643532875000,8.558875,0.9760125875473022,1.010570764541626,-1.1481773853302002
1761838643542944300,8.5689443359375,1.0725561380386353,1.1308146715164185,-1.1201529502868652
1761838643553014000,8.579013916015626,1.224697232246399,1.2652961015701294,-1.0275498628616333
1761838643563083300,8.589083251953125,1.4125784635543823,1.396690011024475,-0.883389949798584
1761838643573153000,8.599153076171875,1.5986841917037964,1.5168933868408203,-0.6960238218307495
1761838643583222300,8.60922216796875,1.7301851511001587,1.6219902038574219,-0.5026053190231323
1761838643593293300,8.619293212890625,1.7721965312957764,1.6846648454666138,-0.3311299979686737
1761838643603362000,8.629362060546875,1.7352806329727173,1.6747288703918457,-0.2174377739429474
1761838643613432000,8.63943212890625,1.6432700157165527,1.5899289846420288,-0.1633865237236023
1761838643623501000,8.6495009765625,1.5203685760498047,1.4558806419372559,-0.16194602847099304
1761838643633571000,8.659571044921876,1.3996202945709229,1.3170894384384155,-0.19925078749656677
1761838643643640000,8.66964013671875,1.2948576211929321,1.2092550992965698,-0.25080424547195435
1761838643653710000,8.6797099609375,1.2210124731063843,1.106207013130188,-0.3210075795650482
1761838643663779000,8.689779052734375,1.1761590242385864,0.9834305644035339,-0.390098512172699
1761838643673849000,8.69984912109375,1.174319863319397,0.8050339221954346,-0.4445870518684387
1761838643683918000,8.70991796875,1.2036129236221313,0.5918254852294922,-0.4724026918411255
1761838643693988000,8.719988037109376,1.2419273853302002,0.4321626126766205,-0.4528934359550476
1761838643704058000,8.73005810546875,1.298427700996399,0.45543408393859863,-0.3568819463253021
1761838643714127000,8.740127197265625,1.3901466131210327,0.6401994228363037,-0.1823684722185135
1761838643724197000,8.750197021484375,1.5319123268127441,0.863888680934906,0.04517253860831261
1761838643734266000,8.76026611328125,1.68503737449646,0.9304125905036926,0.2679917812347412
1761838643744336100,8.770336181640625,1.8148643970489502,0.5760958194732666,0.3975659906864166
1761838643754405000,8.780405029296874,1.8928779363632202,-0.3076110780239105,0.39136990904808044
1761838643764475100,8.79047509765625,1.926206111907959,-1.554183006286621,0.3056944012641907
1761838643774544100,8.800544189453126,1.8941469192504883,-2.8684258460998535,0.2209310531616211
1761838643784614100,8.8106142578125,1.7393109798431396,-4.128994464874268,0.19288742542266846
1761838643794683100,8.82068310546875,1.399684190750122,-5.283574104309082,0.18713979423046112
1761838643804753200,8.830753173828125,0.9247257113456726,-6.0128607749938965,0.21724656224250793
1761838643814823200,8.8408232421875,0.4212055504322052,-5.971863269805908,0.2928449213504791
1761838643824892200,8.85089208984375,-0.0010135991033166647,-5.111044406890869,0.3640679717063904
1761838643834962200,8.860962158203124,-0.22107379138469696,-3.885988712310791,0.33780840039253235
1761838643845031000,8.871031005859376,-0.19822227954864502,-2.7983155250549316,0.1239033043384552
1761838643855101200,8.88110107421875,0.05371755734086037,-2.0055525302886963,-0.28787359595298767
1761838643865170000,8.891169921875,0.4473460912704468,-1.3689055442810059,-0.8186352252960205
1761838643875240200,8.901240234375,0.9073288440704346,-0.7587175369262695,-1.3399546146392822
1761838643885309200,8.91130908203125,1.4026474952697754,-0.12822800874710083,-1.721852421760559
1761838643895379000,8.92137890625,1.8472257852554321,0.5342274308204651,-1.8929959535598755
1761838643905449200,8.93144921875,2.1883468627929688,1.1473329067230225,-1.8567396402359009
1761838643915518000,8.94151806640625,2.4182040691375732,1.5940443277359009,-1.6689167022705078
1761838643925588200,8.951588134765625,2.530163049697876,1.847154974937439,-1.3666977882385254
1761838643935657000,8.961656982421875,2.531506299972534,1.9035332202911377,-0.9785519242286682
1761838643945727200,8.971727294921875,2.464475631713867,1.842682123184204,-0.5384019613265991
1761838643955796000,8.9817958984375,2.3663036823272705,1.7573763132095337,-0.08420542627573013
1761838643965866000,8.991865966796874,2.322385311126709,1.6965118646621704,0.32972702383995056
1761838643975935200,9.001935302734376,2.352473497390747,1.6839995384216309,0.6841849684715271
1761838643986005000,9.0120048828125,2.424316167831421,1.699202537536621,0.9580322504043579
1761838643996074200,9.02207421875,2.5031754970550537,1.749452829360962,1.1306698322296143
1761838644006147800,9.03214794921875,2.550013303756714,1.8356647491455078,1.2243901491165161
1761838644016217600,9.042217529296876,2.5892415046691895,1.9594221115112305,1.2973573207855225
1761838644026286800,9.052286865234375,2.6369121074676514,2.0469164848327637,1.3347065448760986
1761838644036356600,9.062356689453125,2.7219133377075195,2.1101601123809814,1.3394386768341064
1761838644046425900,9.07242578125,2.813255786895752,2.172999858856201,1.2814934253692627
1761838644056495600,9.08249560546875,2.9682178497314453,2.245342254638672,1.2675586938858032
1761838644066564900,9.09256494140625,3.1850688457489014,2.304370164871216,1.2930434942245483
1761838644076634600,9.102634521484376,3.3666322231292725,2.359457492828369,1.3447504043579102
1761838644086703900,9.112703857421875,3.502401351928711,2.4393231868743896,1.4243427515029907
1761838644096773600,9.122773681640625,3.6694047451019287,2.4561309814453125,1.5476305484771729
1761838644106843000,9.1328427734375,3.8168466091156006,2.166750431060791,1.6293070316314697
1761838644116913000,9.142912841796875,3.902933120727539,1.5648683309555054,1.596321702003479
1761838644126981600,9.152981689453124,3.9978201389312744,1.04131281375885,1.4664701223373413
1761838644137052000,9.163052001953124,4.09810733795166,0.8950306177139282,1.2479015588760376
1761838644147121700,9.17312158203125,4.089371204376221,0.3996083736419678,0.9227826595306396
1761838644157191000,9.18319091796875,3.9567692279815674,-0.10813445597887039,0.5427098870277405
1761838644167260700,9.1932607421875,3.7022788524627686,-0.7313416004180908,0.16681188344955444
1761838644177329700,9.20332958984375,3.3286304473876953,-1.205946922302246,-0.11650903522968292
1761838644187399700,9.213399658203125,2.8444581031799316,-1.3700040578842163,-0.2595865726470947
1761838644197468700,9.22346875,2.269249439239502,-1.1499601602554321,-0.26912254095077515
1761838644207539000,9.2335390625,1.68831205368042,-0.5838293433189392,-0.18288566172122955
1761838644217607700,9.243607666015626,1.200577735900879,0.16150180995464325,-0.052377186715602875
1761838644227677700,9.253677734375,0.9051722288131714,0.9452447891235352,0.09762722253799438
1761838644237746700,9.26374658203125,0.825920820236206,1.613590121269226,0.23315149545669556
1761838644247816700,9.273816650390625,0.9094734787940979,2.1606059074401855,0.3495348393917084
1761838644257886700,9.28388671875,1.081397294998169,2.559530258178711,0.43058866262435913
1761838644267955700,9.293955810546874,1.2729768753051758,2.745710849761963,0.4568117558956146
1761838644278025700,9.304025634765624,1.4301867485046387,2.7433505058288574,0.41881003975868225
1761838644288094700,9.3140947265625,1.5432909727096558,2.6351304054260254,0.338651567697525
1761838644298164700,9.324164794921876,1.6336069107055664,2.4700193405151367,0.23899073898792267
1761838644308233700,9.334233642578125,1.7047892808914185,2.276691436767578,0.1274988353252411
1761838644318303700,9.3443037109375,1.753610372543335,2.101827621459961,0.012561331503093243
1761838644328372700,9.354372802734375,1.7708569765090942,1.966404914855957,-0.11881107091903687
1761838644338442800,9.36444287109375,1.7756106853485107,1.880420207977295,-0.2571345865726471
1761838644348511700,9.37451171875,1.796864628791809,1.8491506576538086,-0.4057629406452179
1761838644358581800,9.384581787109376,1.868240237236023,1.8566254377365112,-0.5624423027038574
1761838644368650800,9.394650634765625,1.969861388206482,1.8720967769622803,-0.7377134561538696
1761838644378720800,9.404720703125,2.0567867755889893,1.8785467147827148,-0.9155758619308472
1761838644388790800,9.414790771484375,2.086575746536255,1.8986636400222778,-1.0759775638580322
1761838644398859800,9.42485986328125,2.0770347118377686,1.905199646949768,-1.2034300565719604
1761838644408929800,9.4349296875,2.061373233795166,1.835354208946228,-1.2791301012039185
1761838644418998800,9.444998779296874,2.073427438735962,1.6587342023849487,-1.2933095693588257
1761838644429068800,9.45506884765625,2.1450557708740234,1.476259469985962,-1.2130813598632812
1761838644439137800,9.4651376953125,2.2443459033966064,1.3413496017456055,-1.045068383216858
1761838644449207800,9.475207763671875,2.320134401321411,1.2551946640014648,-0.821296215057373
1761838644459276800,9.48527685546875,2.347440481185913,1.151454210281372,-0.563749372959137
1761838644469346800,9.495346923828125,2.3494067192077637,0.8939762711524963,-0.289825439453125
1761838644479415600,9.50541552734375,2.3581433296203613,0.47786325216293335,-0.01194161456078291
1761838644489485800,9.51548583984375,2.408057928085327,-0.03560939431190491,0.27878955006599426
1761838644499555800,9.525555908203126,2.505553960800171,-0.6192491054534912,0.6079943180084229
1761838644509624800,9.535624755859375,2.5809268951416016,-1.1963974237442017,0.9443739652633667
1761838644519694800,9.54569482421875,2.545315980911255,-1.654675006866455,1.2698249816894531
1761838644529763600,9.555763671875,2.372424602508545,-1.7827624082565308,1.569641351699829
1761838644539833900,9.565833740234375,2.032726287841797,-1.6021898984909058,1.7459022998809814
1761838644549902600,9.575902587890624,1.5366746187210083,-1.412086844444275,1.6597442626953125
1761838644559972900,9.585972900390624,1.0152297019958496,-1.3663134574890137,1.2890397310256958
1761838644570041600,9.59604150390625,0.6175335049629211,-1.3179012537002563,0.7333072423934937
1761838644580111600,9.606111572265625,0.374856173992157,-1.1429136991500854,0.1344323754310608
1761838644590180600,9.6161806640625,0.3006051182746887,-0.7090626358985901,-0.37397491931915283
1761838644600250600,9.626250732421875,0.33606404066085815,-0.04902186989784241,-0.7577827572822571
1761838644610321000,9.63632080078125,0.4155082404613495,0.6717458963394165,-1.0053049325942993
1761838644620389600,9.6463896484375,0.4979914128780365,1.3067572116851807,-1.1581634283065796
1761838644630460000,9.6564599609375,0.5269836783409119,1.5804651975631714,-1.2744176387786865
1761838644640528600,9.666528564453126,0.497763454914093,1.3998637199401855,-1.3715362548828125
1761838644650598700,9.6765986328125,0.48060497641563416,0.8439642786979675,-1.4280551671981812
1761838644660667600,9.686667724609375,0.519584596157074,0.23822002112865448,-1.3929115533828735
1761838644670737700,9.696737548828125,0.6306980848312378,-0.11726297438144684,-1.2471625804901123
1761838644680806700,9.706806640625,0.7732719779014587,-0.19641025364398956,-1.022740125656128
1761838644690876700,9.716876708984374,0.8765043616294861,-0.13851846754550934,-0.7756600379943848
1761838644700946000,9.72694580078125,0.8886995315551758,-0.03868827223777771,-0.5388730764389038
1761838644711015700,9.737015625,0.8257977962493896,0.11321444064378738,-0.27461424469947815
1761838644721085000,9.7470849609375,0.7101420164108276,0.32898667454719543,0.0213063545525074
1761838644731154700,9.75715478515625,0.5911825895309448,0.5911802053451538,0.3149837851524353
1761838644741224700,9.767224609375,0.5007951855659485,0.8235495090484619,0.5508386492729187
1761838644751293700,9.777293701171875,0.4775140881538391,0.9528430700302124,0.7067946791648865
1761838644761363700,9.78736376953125,0.5076602697372437,0.9846001863479614,0.7768664360046387
1761838644771432700,9.7974326171875,0.5746771097183228,0.9290362596511841,0.7612653970718384
1761838644781502700,9.807502685546876,0.6745789647102356,0.7940720915794373,0.6697455644607544
1761838644791572000,9.817572021484375,0.8001640439033508,0.5770689249038696,0.5484356880187988
1761838644801641700,9.827641845703125,0.9191804528236389,0.3607030510902405,0.4449702799320221
1761838644811710700,9.837710693359375,1.010535717010498,0.23190300166606903,0.38033562898635864
1761838644821780700,9.84778076171875,1.0801349878311157,0.22750133275985718,0.34834787249565125
1761838644831849700,9.857849609375,1.1436327695846558,0.3146306276321411,0.35044243931770325
1761838644841919700,9.867919677734376,1.185381293296814,0.4339389204978943,0.3889930248260498
1761838644851989800,9.87798974609375,1.2112832069396973,0.5957536697387695,0.4462296962738037
1761838644862058800,9.888058837890625,1.235004186630249,0.7607266306877136,0.5363041758537292
1761838644872128800,9.898128662109375,1.2579838037490845,0.8824930191040039,0.6625640988349915
1761838644882197800,9.90819775390625,1.3066370487213135,0.9621673226356506,0.8249256014823914
1761838644892267800,9.918267822265625,1.346907615661621,0.9852004647254944,0.9771329760551453
1761838644902336800,9.928336669921874,1.3628545999526978,0.9384148716926575,1.0451653003692627
1761838644912406800,9.93840673828125,1.3845915794372559,0.7897306084632874,1.0283831357955933
1761838644922475800,9.948475830078126,1.4369429349899292,0.6310580968856812,0.9444557428359985
1761838644932545500,9.958545654296875,1.5183112621307373,0.6603766083717346,0.8480692505836487
1761838644942614800,9.96861474609375,1.6077854633331299,0.9318603277206421,0.731486439704895
1761838644952684500,9.9786845703125,1.6899656057357788,1.3026798963546753,0.5748528838157654
1761838644962754800,9.9887548828125,1.7592484951019287,1.580048680305481,0.34179940819740295
1761838644972823800,9.99882373046875,1.8052074909210205,1.7034529447555542,0.05439639464020729
1761838644982893800,10.008893798828124,1.8295838832855225,1.7322877645492554,-0.24803803861141205
1761838644992962800,10.018962890625,1.843592643737793,1.7202755212783813,-0.5314713716506958
1761838645003029000,10.029029052734375,1.8330798149108887,1.7109293937683105,-0.7839752435684204
1761838645013098000,10.039097900390624,1.800983190536499,1.7767417430877686,-0.9726465940475464
1761838645023168000,10.04916796875,1.7296065092086792,1.8637890815734863,-1.0797948837280273
1761838645033237000,10.059237060546875,1.6201084852218628,1.8997619152069092,-1.1087855100631714
1761838645043307000,10.06930712890625,1.3493560552597046,1.829593539237976,-0.8442497849464417
1761838645053376000,10.0793759765625,0.9044033885002136,1.1742784976959229,-0.6216307878494263
1761838645063446000,10.089446044921875,0.6232955455780029,0.42751219868659973,-0.450544536113739
1761838645073516000,10.09951611328125,0.5267745852470398,-0.07929988205432892,-0.32833126187324524
1761838645083585000,10.1095849609375,0.4781378209590912,-0.19452421367168427,-0.27167704701423645
1761838645093655000,10.119655029296876,0.4264732897281647,-0.015368569642305374,-0.2681656777858734
1761838645103724000,10.12972412109375,0.33916953206062317,0.17980597913265228,-0.2929626405239105
1761838645113794000,10.1397939453125,0.2699665129184723,0.24646170437335968,-0.36362773180007935
1761838645123863000,10.149863037109375,0.26002413034439087,0.28324687480926514,-0.4569012224674225
1761838645133933000,10.15993310546875,0.2695648968219757,0.2801171541213989,-0.5393428206443787
1761838645144002000,10.170001953125,0.30811893939971924,0.23721733689308167,-0.5985898971557617
1761838645154072000,10.180072021484374,0.33401820063591003,0.09014560282230377,-0.6265153288841248
1761838645164141000,10.19014111328125,0.3320026993751526,-0.13527393341064453,-0.6133006811141968
1761838645174211000,10.200211181640626,0.3003385365009308,-0.31121382117271423,-0.512711226940155
1761838645184281000,10.210281005859375,0.21913021802902222,-0.39262744784355164,-0.3533194363117218
1761838645194350000,10.22035009765625,0.08471568673849106,-0.3900766670703888,-0.1961173117160797
1761838645204420000,10.230420166015625,-0.04324760660529137,-0.324534147977829,-0.03587597608566284
1761838645214489000,10.240489013671874,-0.15124225616455078,-0.19473619759082794,0.12107449024915695
1761838645224559000,10.25055908203125,-0.20922060310840607,0.011423096992075443,0.24211382865905762
1761838645234627800,10.2606279296875,-0.21124033629894257,0.19522754848003387,0.30853065848350525
1761838645244698000,10.270697998046876,-0.13983166217803955,0.2650100886821747,0.34114107489585876
1761838645254766800,10.280766845703125,-0.01920352131128311,0.17592228949069977,0.3766460716724396
1761838645264837000,10.290837158203125,0.08844757080078125,-0.0236443430185318,0.41386136412620544
1761838645274905900,10.30090576171875,0.14993490278720856,-0.17209427058696747,0.4766821265220642
1761838645284976000,10.31097607421875,0.15693102777004242,-0.24152660369873047,0.5461203455924988
1761838645295046100,10.321046142578124,0.0846291333436966,-0.33731597661972046,0.5783576369285583
1761838645305115000,10.331114990234376,-0.06046174466609955,-0.4870245158672333,0.5669949650764465
1761838645315185200,10.34118505859375,-0.2663573920726776,-0.6688219904899597,0.5221439003944397
1761838645325254000,10.35125390625,-0.5023393034934998,-0.8145134449005127,0.4494289457798004
1761838645335324200,10.36132421875,-0.707866370677948,-0.8346165418624878,0.357597291469574
1761838645345393000,10.371392822265625,-0.8143064975738525,-0.7248767614364624,0.26210537552833557
1761838645355463000,10.381462890625,-0.8104372024536133,-0.5188647508621216,0.1984177529811859
1761838645365532000,10.391531982421874,-0.7099119424819946,-0.24854989349842072,0.17512761056423187
1761838645375602000,10.401601806640626,-0.5717934370040894,-0.035596609115600586,0.15157034993171692
1761838645385671200,10.411671142578125,-0.45098742842674255,0.04507746174931526,0.10169892758131027
1761838645395741000,10.421740966796875,-0.35974591970443726,-0.04270671680569649,0.035902075469493866
1761838645405811000,10.43181103515625,-0.32702338695526123,-0.3102017939090729,-0.025306688621640205
1761838645415880000,10.4418798828125,-0.3231375813484192,-0.6033521890640259,-0.06806933134794235
1761838645425950000,10.451949951171875,-0.31628793478012085,-0.7656449675559998,-0.07855020463466644
1761838645436019000,10.46201904296875,-0.2969866693019867,-0.7630212306976318,-0.051775846630334854
1761838645446089000,10.4720888671875,-0.2675291895866394,-0.6284639239311218,0.00740252248942852
1761838645456158000,10.482157958984375,-0.26688042283058167,-0.42934125661849976,0.06596037745475769
1761838645466228000,10.49222802734375,-0.2813693583011627,-0.18146300315856934,0.12430650740861893
1761838645476297200,10.502297119140625,-0.31308066844940186,0.06432466208934784,0.17704561352729797
1761838645486367000,10.512366943359375,-0.36163172125816345,0.29891958832740784,0.20726370811462402
1761838645496436200,10.522436279296874,-0.39048251509666443,0.5120233297348022,0.23491691052913666
1761838645506506000,10.532506103515624,-0.3760724365711212,0.6232550740242004,0.2314172387123108
1761838645516576000,10.542575927734376,-0.3314724862575531,0.5926414728164673,0.19258329272270203
1761838645526645000,10.55264501953125,-0.25762540102005005,0.4950992166996002,0.10818372666835785
1761838645536715000,10.562715087890625,-0.1616746485233307,0.41374629735946655,0.013593306764960289
1761838645546784000,10.572783935546875,-0.08000615239143372,0.33494338393211365,-0.09007103741168976
1761838645556854000,10.58285400390625,-0.015687616541981697,0.32991185784339905,-0.1627524346113205
1761838645566923300,10.59292333984375,0.036864273250103,0.40370699763298035,-0.19539692997932434
1761838645576993000,10.602992919921874,0.02281237207353115,0.5581125617027283,-0.0915653333067894
1761838645587062000,10.61306201171875,-0.06004176661372185,0.3222486078739166,-0.05668005719780922
1761838645597132000,10.623132080078125,-0.049248505383729935,0.21459752321243286,-0.056822534650564194
1761838645607202000,10.6332021484375,-0.011158378794789314,0.34663039445877075,-0.03924380987882614
1761838645617271000,10.64327099609375,-0.00999271310865879,0.5656916499137878,0.011088604107499123
1761838645627341000,10.653341064453125,0.019722571596503258,0.687850832939148,0.08135930448770523
1761838645637410000,10.66341015625,0.08476602286100388,0.635325014591217,0.16389599442481995
1761838645647480000,10.67347998046875,0.1176038607954979,0.39789703488349915,0.3539828360080719
