time,seconds_elapsed,z,y,x
1761383479394043400,0.06904345703125,0.9836372137069702,0.4016856551170349,-0.12606339156627655
1761383479404113400,0.079113525390625,1.2369989156723022,0.4488704800605774,-0.20522639155387878
1761383479414182400,0.089182373046875,1.4545857906341553,0.5942489504814148,-0.340527206659317
1761383479424252400,0.09925244140625,1.5780062675476074,0.7584666609764099,-0.4950866997241974
1761383479434321400,0.1093212890625,1.6369010210037231,0.8467134237289429,-0.5971960425376892
1761383479444391400,0.119391357421875,1.6464903354644775,0.8915493488311768,-0.6217067241668701
1761383479454460700,0.129460693359375,1.6232198476791382,0.9825785756111145,-0.5224519968032837
1761383479464530400,0.139530517578125,1.5691065788269043,1.0489070415496826,-0.3237261474132538
1761383479474599700,0.149599609375,1.4817841053009033,1.1006964445114136,-0.06843870878219604
1761383479484669400,0.15966943359375,1.2941479682922363,1.2584277391433716,0.23141857981681824
1761383479494738700,0.16973876953125,1.2031421661376953,1.2009921073913574,0.5529486536979675
1761383479504808400,0.179808349609375,1.0687187910079956,0.9634858965873718,0.8031561374664307
1761383479514877400,0.18987744140625,0.9414993524551392,0.756747841835022,0.9371999502182007
1761383479524947500,0.199947509765625,0.9170706868171692,0.5680325627326965,0.8549460768699646
1761383479535016400,0.210016357421875,0.9241893291473389,0.4786403477191925,0.5686690211296082
1761383479545086700,0.220086669921875,0.8893482685089111,0.625832200050354,0.2970393896102905
1761383479555155500,0.230155517578125,0.8619179725646973,0.7398200035095215,0.14532257616519928
1761383479565225700,0.240225830078125,0.8531867861747742,0.7187613248825073,0.12696459889411926
1761383479575294500,0.25029443359375,0.8238832354545593,0.7124152779579163,0.2411028891801834
1761383479585364500,0.260364501953125,0.7804995179176331,0.8530632257461548,0.4550652503967285
1761383479595433500,0.27043359375,0.7571278810501099,0.8388336896896362,0.6676768660545349
1761383479605503500,0.28050341796875,0.7539986968040466,0.8073593974113464,0.7871217727661133
1761383479615572500,0.290572509765625,0.7597130537033081,0.9412535429000854,0.8750569224357605
1761383479625642500,0.300642578125,0.7693265080451965,1.0561814308166504,0.9049887657165527
1761383479635711500,0.31071142578125,0.794543445110321,0.9988737106323242,0.7615814805030823
1761383479645781500,0.320781494140625,0.866417646408081,1.133227825164795,0.6028413772583008
1761383479655850500,0.3308505859375,0.9709270000457764,1.2158409357070923,0.49389147758483887
1761383479665920500,0.34092041015625,1.0716596841812134,1.2434624433517456,0.5365137457847595
1761383479675989500,0.350989501953125,1.159986138343811,0.9491375684738159,0.7240959405899048
1761383479686059500,0.3610595703125,1.418972134590149,-0.5853337645530701,1.458255410194397
1761383479696128500,0.37112841796875,1.9504985809326172,-1.663067102432251,2.1464169025421143
1761383479706198500,0.381198486328125,2.289891004562378,-1.692056655883789,2.4720935821533203
1761383479716267500,0.391267578125,2.407670021057129,-1.7464687824249268,2.4856033325195312
1761383479726340400,0.40134033203125,2.4539811611175537,-1.8238160610198975,2.1625211238861084
1761383479736409300,0.411409423828125,2.4995691776275635,-1.773871660232544,1.6649571657180786
1761383479746479400,0.421479248046875,2.519951105117798,-1.6851627826690674,1.1322416067123413
1761383479756548400,0.43154833984375,2.6342830657958984,-1.7123271226882935,0.6617787480354309
1761383479766618400,0.441618408203125,2.848818063735962,-1.8056772947311401,0.30855968594551086
1761383479776687400,0.451687255859375,3.141037940979004,-1.9858789443969727,0.07027602940797806
1761383479786757000,0.461757080078125,3.4019064903259277,-2.363720417022705,0.0026021746452897787
1761383479796826400,0.471826416015625,3.488314151763916,-2.8906261920928955,0.1776307076215744
1761383479806896400,0.481896484375,3.311662435531616,-3.2660655975341797,0.5059002041816711
1761383479816965400,0.49196533203125,3.092292547225952,-3.456087350845337,0.6741174459457397
1761383479827035400,0.502035400390625,2.8037848472595215,-3.318701982498169,0.6948991417884827
1761383479837105200,0.512105224609375,2.4944863319396973,-2.8527345657348633,0.5432947278022766
1761383479847174400,0.52217431640625,2.1194610595703125,-2.1043214797973633,0.301413893699646
1761383479857244200,0.532244140625,1.6859556436538696,-1.3309520483016968,0.03106098063290119
1761383479867313400,0.5423134765625,1.1273679733276367,-0.7175413370132446,-0.24813205003738403
1761383479877383200,0.552383056640625,0.4139915704727173,-0.1940315216779709,-0.5506588816642761
1761383479887452400,0.562452392578125,-0.3083663582801819,0.3544403612613678,-0.7924922704696655
1761383479897522400,0.5725224609375,-0.9144392013549805,0.9301289916038513,-0.9304794669151306
1761383479907591400,0.58259130859375,-1.360594391822815,1.2858567237854004,-0.9891784191131592
1761383479917661400,0.592661376953125,-1.5833957195281982,1.3992807865142822,-1.0186673402786255
1761383479927730400,0.60273046875,-1.6136881113052368,1.328941822052002,-0.9996193647384644
1761383479937800400,0.612800537109375,-1.4971202611923218,1.16245436668396,-0.9304488301277161
1761383479947869200,0.622869140625,-1.2603697776794434,0.9375426769256592,-0.793803870677948
1761383479957939500,0.632939453125,-0.9569376707077026,0.7466955184936523,-0.6237251162528992
1761383479968008200,0.64300830078125,-0.6834057569503784,0.5646173357963562,-0.4140956997871399
1761383479978078500,0.653078369140625,-0.49252474308013916,0.3846621811389923,-0.24501188099384308
1761383479988147200,0.663147216796875,-0.3741019666194916,0.2677462100982666,-0.16026663780212402
1761383479998217500,0.673217529296875,-0.34378159046173096,0.1915140450000763,-0.15345560014247894
1761383480008286200,0.6832861328125,-0.37511077523231506,0.15222549438476562,-0.18910813331604004
1761383480018356200,0.693356201171875,-0.3900867700576782,0.13548113405704498,-0.2371518313884735
1761383480028425500,0.703425537109375,-0.38579457998275757,0.11514842510223389,-0.2455650269985199
1761383480038495200,0.7134951171875,-0.34095627069473267,0.05025438219308853,-0.20265856385231018
1761383480048564500,0.723564453125,-0.2767418622970581,-0.006704507861286402,-0.12602290511131287
1761383480058634200,0.73363427734375,-0.19572529196739197,-0.05439799278974533,-0.05571785569190979
1761383480068703500,0.743703369140625,-0.1303473562002182,-0.10798852145671844,-0.008202802389860153
1761383480078773200,0.753773193359375,-0.09729539602994919,-0.17086069285869598,-0.0021819279063493013
1761383480088842500,0.763842529296875,-0.10021022707223892,-0.21965938806533813,-0.007722101639956236
1761383480098912300,0.773912353515625,-0.1304807811975479,-0.27130207419395447,-0.004373176954686642
1761383480108981200,0.783981201171875,-0.15687616169452667,-0.2955498993396759,0.001032241270877421
1761383480119051500,0.794051513671875,-0.16783533990383148,-0.350050151348114,0.017716679722070694
1761383480129120300,0.804120361328125,-0.16472743451595306,-0.3992097079753876,0.020420320332050323
1761383480139190500,0.8141904296875,-0.15381433069705963,-0.37650519609451294,0.021048294380307198
1761383480149259300,0.82425927734375,-0.14650101959705353,-0.344221830368042,0.060078252106904984
1761383480159329500,0.83432958984375,-0.1278892606496811,-0.299693763256073,0.12468919903039932
1761383480169398300,0.844398193359375,-0.09328600764274597,-0.2802649438381195,0.19014251232147217
1761383480179468300,0.85446826171875,-0.07853502035140991,-0.30490079522132874,0.23328624665737152
1761383480189537300,0.864537353515625,-0.07541432976722717,-0.3178408145904541,0.23670761287212372
1761383480199607300,0.874607177734375,-0.08472607284784317,-0.3205963969230652,0.22333215177059174
1761383480209676300,0.88467626953125,-0.0838959664106369,-0.3046533763408661,0.2114134430885315
1761383480219746300,0.894746337890625,-0.08460010588169098,-0.25909653306007385,0.20739154517650604
1761383480229815300,0.904815185546875,-0.10193568468093872,-0.21568728983402252,0.23483088612556458
1761383480239885300,0.91488525390625,-0.13985083997249603,-0.20339520275592804,0.26521623134613037
1761383480249954600,0.92495458984375,-0.1727917492389679,-0.22692635655403137,0.28040555119514465
1761383480260024300,0.9350244140625,-0.17806001007556915,-0.2691188156604767,0.2861984670162201
1761383480270094300,0.94509423828125,-0.1408950686454773,-0.32410484552383423,0.294463574886322
1761383480280163300,0.955163330078125,-0.08501023054122925,-0.3537748456001282,0.29893824458122253
1761383480290233300,0.9652333984375,-0.020144948735833168,-0.37251365184783936,0.30079710483551025
1761383480300302300,0.97530224609375,0.021094100549817085,-0.4141327440738678,0.28910237550735474
1761383480310372400,0.985372314453125,0.036493562161922455,-0.4480172097682953,0.2650638818740845
1761383480320441300,0.99544140625,0.03660621494054794,-0.4420408010482788,0.22491513192653656
1761383480330511400,1.005511474609375,0.023852601647377014,-0.3710758090019226,0.17061488330364227
1761383480340580400,1.015580322265625,0.009998838417232037,-0.26781919598579407,0.12231366336345673
1761383480350650400,1.025650390625,0.010035057552158833,-0.16369253396987915,0.07325130701065063
1761383480360719400,1.03571923828125,0.005664277356117964,-0.11362243443727493,0.03518142178654671
1761383480370789400,1.045789306640625,-0.005688512232154608,-0.09938810765743256,0.01461862400174141
1761383480380858400,1.0558583984375,-0.04167793691158295,-0.08327518403530121,0.02147546410560608
1761383480390928400,1.065928466796875,-0.09249237924814224,-0.046238336712121964,0.05590374395251274
1761383480400997400,1.075997314453125,-0.1549735963344574,-0.030342726036906242,0.11476413160562515
1761383480411067100,1.086067138671875,-0.2014894336462021,-0.03045511059463024,0.18395306169986725
1761383480421136400,1.096136474609375,-0.2170577496290207,-0.04842052981257439,0.2408810555934906
1761383480431206400,1.106206298828125,-0.20073549449443817,-0.10386301577091217,0.2741367518901825
1761383480441275400,1.116275390625,-0.16516126692295074,-0.1714516431093216,0.272909015417099
1761383480451345400,1.126345458984375,-0.11299792677164078,-0.22582407295703888,0.2335459142923355
1761383480461414400,1.136414306640625,-0.06879530847072601,-0.2728389799594879,0.1721922755241394
1761383480471484400,1.146484375,-0.035716719925403595,-0.29081985354423523,0.11546028405427933
1761383480481553400,1.156553466796875,-0.01441116351634264,-0.2927975058555603,0.08772079646587372
1761383480491623400,1.16662353515625,-0.01059192419052124,-0.26702582836151123,0.09097198396921158
1761383480501692400,1.1766923828125,-0.00672315014526248,-0.2100760042667389,0.11194810271263123
1761383480511762400,1.186762451171875,0.0019283948931843042,-0.23430012166500092,0.14940732717514038
1761383480521831200,1.1968310546875,0.020310331135988235,-0.22504909336566925,0.1569880247116089
1761383480531901400,1.2069013671875,-0.010966897010803223,-0.21875470876693726,0.1862841248512268
1761383480541970200,1.21697021484375,-0.07670995593070984,-0.15177488327026367,0.22735485434532166
1761383480552040400,1.22704052734375,-0.1516057699918747,-0.05006369948387146,0.26925650238990784
1761383480562109200,1.237109130859375,-0.2198585867881775,0.03855458274483681,0.3039393723011017
1761383480572179200,1.24717919921875,-0.2711995542049408,0.07005471736192703,0.32284730672836304
1761383480582248400,1.25724853515625,-0.2837531566619873,0.05221420153975487,0.31808823347091675
1761383480592318200,1.267318115234375,-0.23974467813968658,0.0031909996178001165,0.2934071123600006
1761383480602387500,1.277387451171875,-0.12883387506008148,-0.10370349138975143,0.2849459946155548
1761383480612457200,1.287457275390625,-0.0010634001810103655,-0.3077879250049591,0.3013784885406494
1761383480622526500,1.2975263671875,0.10757040232419968,-0.5158649682998657,0.3363463282585144
1761383480632596200,1.30759619140625,0.1613960862159729,-0.6701110005378723,0.366344690322876
1761383480642666200,1.317666259765625,0.1698462963104248,-0.7094849944114685,0.37937796115875244
1761383480652735200,1.3277353515625,0.12711401283740997,-0.631656289100647,0.39157336950302124
1761383480662805200,1.33780517578125,0.07140813767910004,-0.5108398199081421,0.41977623105049133
1761383480672874500,1.34787451171875,0.011237740516662598,-0.40183025598526,0.4824574589729309
1761383480682944300,1.3579443359375,-0.03783765807747841,-0.3590444326400757,0.5771104693412781
1761383480693013500,1.368013427734375,-0.045462556183338165,-0.3821846544742584,0.6742455363273621
1761383480703083300,1.378083251953125,-0.04039429500699043,-0.47191321849823,0.7390724420547485
1761383480713152500,1.388152587890625,-0.028232969343662262,-0.5735207796096802,0.7411116361618042
1761383480723222300,1.39822216796875,0.009148490615189075,-0.6543384194374084,0.7015929818153381
1761383480733288200,1.4082880859375,0.05234948918223381,-0.6897518038749695,0.6718156933784485
1761383480743358200,1.418358154296875,0.09268838912248611,-0.711168110370636,0.671032190322876
1761383480753427200,1.42842724609375,0.12123401463031769,-0.7319109439849854,0.6882162094116211
1761383480763497200,1.438497314453125,0.1307699978351593,-0.7095832824707031,0.7072338461875916
1761383480773566200,1.448566162109375,0.12483380734920502,-0.668729841709137,0.7182673215866089
1761383480783636200,1.45863623046875,0.09634171426296234,-0.6464269757270813,0.7291308641433716
1761383480793705200,1.468705322265625,0.052387308329343796,-0.6420878767967224,0.7269449830055237
1761383480803775200,1.478775146484375,-0.021523667499423027,-0.6915693879127502,0.704804539680481
1761383480813844200,1.48884423828125,-0.11700890958309174,-0.7004460096359253,0.6588857769966125
1761383480823914200,1.498914306640625,-0.2180207520723343,-0.6746556758880615,0.6161832809448242
1761383480833983200,1.508983154296875,-0.30651384592056274,-0.6559813022613525,0.6055788397789001
1761383480844053200,1.51905322265625,-0.3682515323162079,-0.6276662945747375,0.632999837398529
1761383480854122200,1.529122314453125,-0.41303524374961853,-0.6045668721199036,0.7045813202857971
1761383480864192300,1.539192138671875,-0.4079752266407013,-0.5610178112983704,0.7974907755851746
1761383480874261200,1.54926123046875,-0.354606032371521,-0.5515257716178894,0.8996706604957581
1761383480884331300,1.559331298828125,-0.2704298794269562,-0.5758947134017944,0.9952163696289062
1761383480894400000,1.56939990234375,-0.16010791063308716,-0.6350704431533813,1.0571215152740479
1761383480904470300,1.57947021484375,-0.042030807584524155,-0.6874098181724548,1.0652122497558594
1761383480914539300,1.589539306640625,0.07994889467954636,-0.7333552241325378,1.044237732887268
1761383480924609300,1.599609375,0.18724524974822998,-0.7882112264633179,1.016249179840088
1761383480934678300,1.60967822265625,0.2713683843612671,-0.7954601049423218,0.9848068952560425
1761383480944748300,1.619748291015625,0.35401293635368347,-0.7861521244049072,0.968327522277832
1761383480954817300,1.6298173828125,0.3963167071342468,-0.8342285752296448,0.9614003300666809
1761383480964887000,1.639886962890625,0.38316336274147034,-0.8777733445167542,0.9606336355209351
1761383480974956300,1.649956298828125,0.3075453042984009,-0.9862817525863647,0.938664436340332
1761383480985026000,1.660026123046875,0.25975939631462097,-1.0120714902877808,0.9062612056732178
1761383480995096300,1.670096435546875,0.19662357866764069,-0.9245294332504272,0.8722813725471497
1761383481005165300,1.680165283203125,0.12892842292785645,-0.7576600313186646,0.8314836025238037
1761383481015235000,1.690235107421875,0.11908084899187088,-0.5108885765075684,0.778552234172821
1761383481025304300,1.70030419921875,0.12981845438480377,-0.2757333219051361,0.7093313336372375
1761383481035374000,1.7103740234375,0.16639482975006104,-0.1516726166009903,0.6059697866439819
1761383481045443300,1.720443359375,0.1990710198879242,-0.16238917410373688,0.45283618569374084
1761383481055513000,1.73051318359375,0.23365376889705658,-0.2517073452472687,0.27916693687438965
1761383481065582300,1.740582275390625,0.26048752665519714,-0.3560566306114197,0.12060125172138214
1761383481075652000,1.750652099609375,0.26494190096855164,-0.4332289397716522,-0.002089516259729862
1761383481085721300,1.760721435546875,0.265507310628891,-0.41999220848083496,-0.08827526867389679
1761383481095791400,1.770791259765625,0.26334163546562195,-0.3381498157978058,-0.14291293919086456
1761383481105860400,1.7808603515625,0.2492324560880661,-0.2912134528160095,-0.17020554840564728
1761383481115930400,1.790930419921875,0.2370849847793579,-0.27755144238471985,-0.15482287108898163
1761383481125999000,1.8009990234375,0.21925193071365356,-0.26807379722595215,-0.10787399858236313
1761383481136069400,1.8110693359375,0.19615939259529114,-0.25680702924728394,-0.03447222337126732
1761383481146138000,1.82113818359375,0.1616235226392746,-0.23393872380256653,0.05287839472293854
1761383481156208400,1.83120849609375,0.10469339042901993,-0.17849011719226837,0.12376029044389725
1761383481166277000,1.841277099609375,0.04243401065468788,-0.0779094472527504,0.16181233525276184
1761383481176347100,1.85134716796875,-0.010553308762609959,0.04571608826518059,0.15785327553749084
1761383481186416000,1.861416015625,-0.04868977516889572,0.130679190158844,0.11047617346048355
1761383481196486100,1.871486083984375,-0.055273640900850296,0.16988517343997955,0.04869350418448448
1761383481206555100,1.88155517578125,-0.02997547574341297,0.17746666073799133,-0.008706139400601387
1761383481216625200,1.891625244140625,0.009619071148335934,0.17385675013065338,-0.05559401959180832
1761383481226694100,1.901694091796875,0.04622608423233032,0.1657000184059143,-0.09466419368982315
1761383481236764200,1.91176416015625,0.06663575023412704,0.16413940489292145,-0.12183456122875214
1761383481246833400,1.92183349609375,0.07124781608581543,0.21526651084423065,-0.16025865077972412
1761383481256903200,1.931903076171875,0.05940713360905647,0.3088414669036865,-0.19710427522659302
1761383481266972400,1.941972412109375,0.04602048918604851,0.39740195870399475,-0.23335149884223938
1761383481277042200,1.952042236328125,0.03295768424868584,0.44644513726234436,-0.2538954019546509
1761383481287111200,1.962111083984375,0.02683986909687519,0.3924684524536133,-0.22691038250923157
1761383481297181200,1.97218115234375,0.024930916726589203,0.2569495141506195,-0.12014930695295334
1761383481307250200,1.982250244140625,0.02455780655145645,0.12312539666891098,0.014392254874110222
1761383481317320200,1.9923203125,0.016574982553720474,0.0668695792555809,0.12702026963233948
1761383481327389200,2.00238916015625,0.0033622407354414463,0.08575058728456497,0.19616444408893585
1761383481337459200,2.012459228515625,-0.01907036453485489,0.13542254269123077,0.20735052227973938
1761383481347529200,2.022529296875,-0.04236103966832161,0.15154771506786346,0.17113153636455536
1761383481357598200,2.03259814453125,-0.0643363818526268,0.1386508196592331,0.11324186623096466
1761383481367668200,2.042668212890625,-0.08181310445070267,0.12972097098827362,0.04235810786485672
1761383481377737200,2.0527373046875,-0.09255602955818176,0.10231545567512512,-0.04596163332462311
1761383481387807200,2.06280712890625,-0.08239714056253433,0.08563767373561859,-0.11913864314556122
1761383481397876200,2.072876220703125,-0.05419958755373955,0.05197478458285332,-0.11563578248023987
1761383481407946000,2.082946044921875,0.010865963064134121,0.0030399984680116177,0.0020897823851555586
1761383481418015200,2.09301513671875,0.1372031271457672,-0.05366003140807152,0.2502140998840332
1761383481428085200,2.103085205078125,0.348183274269104,-0.12268543988466263,0.6042736172676086
1761383481438154200,2.113154296875,0.6604391932487488,-0.2699718177318573,1.0120384693145752
1761383481448224300,2.123224365234375,1.0538448095321655,-0.577263593673706,1.4689618349075317
1761383481458293200,2.133293212890625,1.4480876922607422,-1.124481201171875,1.9193910360336304
1761383481468363300,2.14336328125,1.8055685758590698,-1.6072137355804443,2.3241240978240967
1761383481478432300,2.153432373046875,2.0302352905273438,-2.0096373558044434,2.639660596847534
1761383481488502300,2.163502197265625,2.0886752605438232,-2.2034199237823486,2.881157875061035
1761383481498571300,2.1735712890625,1.9000626802444458,-2.220735549926758,3.060455083847046
1761383481508641300,2.183641357421875,1.464182734489441,-2.1201040744781494,3.1855735778808594
1761383481518710000,2.1937099609375,0.8432265520095825,-1.8976346254348755,3.2354555130004883
1761383481528780300,2.2037802734375,0.06979239732027054,-1.6833367347717285,3.131054162979126
1761383481538849000,2.21384912109375,-0.7811674475669861,-1.5883047580718994,2.849724531173706
1761383481548919300,2.223919189453125,-1.6979225873947144,-1.4579304456710815,2.5098087787628174
1761383481558988300,2.23398828125,-2.6573803424835205,-1.210585355758667,2.059199810028076
1761383481569058300,2.244058349609375,-3.668102979660034,-0.9684457182884216,1.440794587135315
1761383481579127300,2.254127197265625,-4.703953742980957,-0.8080472946166992,0.6638733148574829
1761383481589197000,2.264197021484375,-5.752294540405273,-0.6605318784713745,-0.24849610030651093
1761383481599266300,2.274266357421875,-6.867725849151611,-0.5981286764144897,-1.3205307722091675
1761383481609336000,2.284336181640625,-8.016151428222656,-0.46555304527282715,-2.5343594551086426
1761383481619406300,2.29440625,-9.226710319519043,-0.07695283740758896,-3.805798292160034
1761383481629475000,2.30447509765625,-10.547274589538574,0.7316193580627441,-4.9804582595825195
1761383481639545000,2.314545166015625,-11.983010292053223,2.094390392303467,-5.837500095367432
1761383481649614300,2.3246142578125,-13.502218246459961,3.8178679943084717,-6.088940620422363
1761383481659684000,2.33468408203125,-14.85464859008789,5.524950981140137,-5.555750370025635
1761383481669753300,2.34475341796875,-15.600144386291504,6.6870951652526855,-4.423174858093262
1761383481679823000,2.354822998046875,-15.332859992980957,6.98680305480957,-3.1410934925079346
1761383481689892400,2.364892333984375,-13.736984252929688,6.1930108070373535,-2.121913194656372
1761383481699962000,2.374962158203125,-10.580436706542969,4.255192279815674,-1.6303677558898926
1761383481710031400,2.38503125,-6.138800621032715,1.495373249053955,-1.7750072479248047
1761383481720101000,2.39510107421875,-1.0842684507369995,-1.3593958616256714,-2.672908067703247
1761383481730169300,2.40516943359375,3.8444552421569824,-3.7246243953704834,-3.6885013580322266
1761383481740239400,2.4152392578125,8.12505054473877,-6.034187316894531,-3.900231122970581
1761383481750308400,2.425308349609375,11.466428756713867,-8.105520248413086,-3.037869453430176
1761383481760378400,2.43537841796875,13.633404731750488,-9.330581665039062,-1.3799246549606323
1761383481770447400,2.445447265625,14.782306671142578,-9.013360023498535,0.2503992021083832
1761383481780517400,2.455517333984375,15.183801651000977,-7.490306854248047,1.3640950918197632
1761383481790586000,2.465586181640625,15.08954906463623,-5.6722612380981445,1.926211953163147
1761383481800656400,2.475656494140625,14.785589218139648,-4.347972869873047,2.0960826873779297
1761383481810725400,2.485725341796875,14.282197952270508,-4.194967746734619,2.107386589050293
1761383481820795400,2.49579541015625,13.404497146606445,-4.865169525146484,2.218796491622925
1761383481830864400,2.505864501953125,12.181760787963867,-4.993803977966309,2.5084662437438965
1761383481840934400,2.515934326171875,10.424844741821289,-4.001143455505371,2.9567079544067383
1761383481851003400,2.52600341796875,7.977734088897705,-2.099543571472168,3.393714666366577
1761383481861073200,2.5360732421875,5.111610412597656,-0.17867706716060638,3.523448944091797
1761383481871142400,2.546142333984375,2.153585195541382,0.9363618493080139,3.2200474739074707
1761383481881212200,2.556212158203125,-0.5905362367630005,1.310684084892273,2.423494338989258
1761383481891281400,2.566281494140625,-2.8050591945648193,1.3970000743865967,1.3748478889465332
1761383481901351400,2.576351318359375,-4.464218616485596,1.3557181358337402,0.3573583960533142
1761383481911421200,2.586421142578125,-5.635074615478516,1.2064270973205566,-0.4408186674118042
1761383481921490400,2.596490478515625,-6.459317207336426,1.0217316150665283,-1.0395289659500122
1761383481931560200,2.606560302734375,-7.114322662353516,0.8407729864120483,-1.5652766227722168
1761383481941629400,2.61662939453125,-7.715301513671875,0.7885886430740356,-2.1213855743408203
1761383481951699200,2.62669921875,-8.405412673950195,0.96302729845047,-2.6758742332458496
1761383481961768400,2.6367685546875,-9.256176948547363,1.4391504526138306,-3.219778537750244
1761383481971838200,2.646838134765625,-10.275909423828125,2.450629472732544,-3.6084678173065186
1761383481981907500,2.656907470703125,-11.398101806640625,3.702129602432251,-3.5769381523132324
1761383481991977500,2.6669775390625,-12.295215606689453,4.568040370941162,-3.120652437210083
1761383482002046500,2.67704638671875,-12.481864929199219,4.662534713745117,-2.2775726318359375
1761383482012116500,2.687116455078125,-11.497113227844238,3.944305658340454,-1.0896775722503662
1761383482022185200,2.697185302734375,-9.12398910522461,2.6139883995056152,0.4637005627155304
1761383482032255500,2.70725537109375,-5.738736152648926,1.2441869974136353,2.007452964782715
1761383482042324200,2.71732421875,-1.9980658292770386,0.2811847925186157,2.958035469055176
1761383482052394500,2.72739453125,1.5471386909484863,-0.5360192060470581,3.16041898727417
1761383482062463200,2.737463134765625,4.706948757171631,-1.365518569946289,2.775498867034912
1761383482072533200,2.747533203125,7.32155704498291,-2.2011537551879883,2.1682636737823486
1761383482082602200,2.757602294921875,9.332658767700195,-2.6680517196655273,1.6496200561523438
1761383482092672300,2.76767236328125,10.761751174926758,-2.6924619674682617,1.366206407546997
1761383482102741200,2.7777412109375,11.7592134475708,-2.456955909729004,1.3324593305587769
1761383482112811300,2.787811279296875,12.476322174072266,-2.243342399597168,1.579803705215454
1761383482122880500,2.797880615234375,12.941537857055664,-2.469517230987549,2.0773329734802246
1761383482132950300,2.8079501953125,13.085908889770508,-3.223705291748047,2.723174810409546
1761383482143019500,2.81801953125,12.624685287475586,-4.227838516235352,3.558781385421753
1761383482153089300,2.82808935546875,11.41024112701416,-4.417891025543213,4.436498641967773
1761383482163158500,2.838158447265625,9.350390434265137,-3.4142096042633057,5.076977729797363
1761383482173228300,2.848228271484375,6.364156723022461,-1.9618765115737915,5.236565113067627
1761383482183297300,2.85829736328125,2.8571460247039795,-0.6073301434516907,4.643723964691162
1761383482193367300,2.8683671875,-0.6328392624855042,0.32182011008262634,3.3384788036346436
1761383482203436300,2.878436279296875,-3.6859934329986572,0.7208218574523926,1.7903363704681396
1761383482213506600,2.888506591796875,-5.996053695678711,0.9206010103225708,0.33923158049583435
1761383482223576300,2.898576416015625,-7.544397830963135,1.07392418384552,-0.7063177227973938
1761383482233645300,2.908645263671875,-8.476941108703613,1.004666805267334,-1.3536362648010254
1761383482243715300,2.91871533203125,-8.949774742126465,0.8016673922538757,-1.8428219556808472
1761383482253784300,2.928784423828125,-9.29065227508545,0.5544517636299133,-2.3746590614318848
1761383482263854300,2.938854248046875,-9.711973190307617,0.5083412528038025,-3.09326434135437
1761383482273923300,2.94892333984375,-10.371742248535156,0.8401436805725098,-3.7280356884002686
1761383482283993300,2.958993408203125,-11.3041410446167,1.6527841091156006,-3.9675071239471436
1761383482294062300,2.969062255859375,-12.388833999633789,2.8053319454193115,-3.7142670154571533
1761383482304132400,2.97913232421875,-13.226089477539062,3.79862117767334,-3.099781036376953
1761383482314201300,2.989201416015625,-13.267868041992188,4.250388145446777,-2.2433176040649414
1761383482324271400,2.999271240234375,-12.051753997802734,3.972414493560791,-1.2585399150848389
1761383482334340400,3.00934033203125,-9.304830551147461,3.0658071041107178,-0.23687966167926788
1761383482344410400,3.019410400390625,-5.271457195281982,1.7284817695617676,0.5672953724861145
1761383482354479400,3.029479248046875,-0.6819407343864441,0.21580366790294647,0.8900800943374634
1761383482364549400,3.03954931640625,3.686546802520752,-1.3720768690109253,0.6414787769317627
1761383482374618400,3.049618408203125,7.462531089782715,-2.795032262802124,0.13569603860378265
1761383482384688400,3.0596884765625,10.41063117980957,-3.8478260040283203,-0.1548313945531845
1761383482394757400,3.06975732421875,12.522988319396973,-4.342894554138184,-0.14317287504673004
1761383482404827400,3.079827392578125,13.87628173828125,-4.3533782958984375,0.05011430010199547
1761383482414896000,3.089896240234375,14.6451997756958,-4.106464862823486,0.328982412815094
1761383482424966400,3.09996630859375,14.99895191192627,-3.920391321182251,0.6689479947090149
1761383482435035400,3.110035400390625,14.935225486755371,-3.9247477054595947,1.0247018337249756
1761383482445105400,3.12010546875,14.272268295288086,-4.117308139801025,1.3671249151229858
1761383482455174400,3.13017431640625,12.629080772399902,-4.246730327606201,1.7080132961273193
1761383482465244400,3.140244384765625,9.904975891113281,-3.6702260971069336,1.8334436416625977
1761383482475313400,3.1503134765625,6.204537868499756,-2.2188453674316406,1.5413877964019775
1761383482485383200,3.160383056640625,1.9897611141204834,-0.2969706952571869,0.8527726531028748
1761383482495452400,3.170452392578125,-2.0132124423980713,1.3937829732894897,0.05415138602256775
1761383482505522200,3.180522216796875,-5.285680294036865,2.309866189956665,-0.597213089466095
1761383482515592400,3.190592529296875,-7.557118892669678,2.7198574542999268,-1.0326393842697144
1761383482525661400,3.200661376953125,-8.939434051513672,2.680389404296875,-1.2691209316253662
1761383482535731200,3.210731201171875,-9.693674087524414,2.3580591678619385,-1.4163926839828491
1761383482545800400,3.220800537109375,-10.066082000732422,1.865254282951355,-1.619353175163269
1761383482555870200,3.2308701171875,-10.298827171325684,1.4392966032028198,-1.9774724245071411
1761383482565939500,3.240939453125,-10.595808982849121,1.287603735923767,-2.4629268646240234
1761383482576009200,3.25100927734375,-11.112089157104492,1.517497181892395,-2.8890554904937744
1761383482586078500,3.261078369140625,-11.79163932800293,2.0673112869262695,-3.091883659362793
1761383482596148200,3.271148193359375,-12.348382949829102,2.6841206550598145,-2.9927685260772705
1761383482606217500,3.281217529296875,-12.344383239746094,3.083359718322754,-2.4828288555145264
1761383482616287200,3.291287353515625,-11.44855785369873,3.1480114459991455,-1.4884425401687622
1761383482626356500,3.3013564453125,-9.445917129516602,2.7260916233062744,-0.10545957833528519
1761383482636426500,3.311426513671875,-6.4255690574646,1.9609651565551758,1.2279512882232666
1761383482646495200,3.3214951171875,-2.770897388458252,0.9980118870735168,2.104796886444092
1761383482656565500,3.3315654296875,0.9591209292411804,-0.041064612567424774,2.2785680294036865
1761383482666634200,3.34163427734375,4.394787311553955,-1.0892888307571411,1.8482189178466797
1761383482676704500,3.35170458984375,7.362790107727051,-1.995172142982483,1.1701130867004395
1761383482686773200,3.361773193359375,9.701539039611816,-2.5537359714508057,0.44808429479599
1761383482696843300,3.37184326171875,11.341720581054688,-2.6796040534973145,-0.16942311823368073
1761383482706912300,3.381912353515625,12.385711669921875,-2.5057532787323,-0.5869223475456238
1761383482716982300,3.391982177734375,13.011250495910645,-2.233280897140503,-0.7704951167106628
1761383482727051300,3.40205126953125,13.447897911071777,-2.03983473777771,-0.7217462062835693
1761383482737122000,3.4121220703125,13.691920280456543,-2.287614583969116,-0.4704633951187134
1761383482747191300,3.42219140625,13.602288246154785,-2.930403232574463,-0.06990691274404526
1761383482757261000,3.432260986328125,12.985519409179688,-3.3360540866851807,0.46177801489830017
1761383482767330000,3.442330078125,11.555915832519531,-3.3272860050201416,1.1045747995376587
1761383482777400300,3.452400390625,9.351828575134277,-2.871814489364624,1.619137167930603
1761383482787469000,3.462468994140625,6.534701824188232,-1.932800054550171,1.892455816268921
1761383482797539300,3.472539306640625,3.1494884490966797,-1.0281224250793457,1.9316262006759644
1761383482807609000,3.482609130859375,-0.3340248465538025,-0.026685673743486404,1.700497031211853
1761383482817678300,3.49267822265625,-3.590047836303711,0.9709480404853821,1.0966287851333618
1761383482827748000,3.502748046875,-6.268299102783203,1.778732180595398,0.270215779542923
1761383482837817000,3.512817138671875,-8.229517936706543,2.30377459526062,-0.3698939085006714
1761383482847887000,3.52288720703125,-9.565452575683594,2.3799705505371094,-0.7092069983482361
1761383482857956000,3.5329560546875,-10.431561470031738,2.2054927349090576,-0.9306557774543762
1761383482868026400,3.5430263671875,-10.997393608093262,2.071472644805908,-1.1260031461715698
1761383482878095000,3.55309521484375,-11.437036514282227,2.1164088249206543,-1.2322741746902466
1761383482888165000,3.5631650390625,-11.845508575439453,2.3554787635803223,-1.2258213758468628
1761383482898234000,3.573234130859375,-12.210101127624512,2.628499984741211,-1.1328877210617065
1761383482908304100,3.58330419921875,-12.304222106933594,2.528033971786499,-1.0042202472686768
1761383482918373000,3.593373046875,-11.809796333312988,2.04328989982605,-0.8047465682029724
1761383482928443100,3.603443115234375,-10.588626861572266,1.3574600219726562,-0.43052369356155396
1761383482938512100,3.61351220703125,-8.466856002807617,0.9104173183441162,0.26257169246673584
1761383482948582100,3.62358203125,-5.658723831176758,0.5067412257194519,1.1816579103469849
1761383482958651100,3.633651123046875,-2.596733808517456,0.019955597817897797,1.868979811668396
1761383482968721200,3.64372119140625,0.41246291995048523,-0.5161967873573303,1.9458240270614624
1761383482978790100,3.6537900390625,3.1949574947357178,-1.2241201400756836,1.5453481674194336
1761383482988860200,3.663860107421875,5.6296772956848145,-1.9082707166671753,0.9615058302879333
1761383482998929000,3.673928955078125,7.603540897369385,-2.3253886699676514,0.4140094220638275
1761383483008999200,3.683999267578125,9.103460311889648,-2.4342870712280273,0.009784187190234661
1761383483019068200,3.694068115234375,10.17646598815918,-2.2304821014404297,-0.26629719138145447
1761383483029138200,3.70413818359375,10.940150260925293,-1.889316201210022,-0.3606732487678528
1761383483039207200,3.714207275390625,11.48294448852539,-1.5685701370239258,-0.28390389680862427
1761383483049277200,3.724277099609375,11.932381629943848,-1.43328857421875,-0.10636372119188309
1761383483059346200,3.73434619140625,12.276616096496582,-1.826318383216858,0.14846137166023254
1761383483069416000,3.744416015625,12.41341781616211,-2.7343406677246094,0.5377260446548462
1761383483079485200,3.754485107421875,12.110452651977539,-3.696863889694214,1.141755223274231
1761383483089555000,3.764554931640625,11.106050491333008,-4.137603282928467,1.9336503744125366
1761383483099624200,3.774624267578125,9.088759422302246,-3.6596689224243164,2.617065191268921
1761383483109694200,3.784694091796875,6.123548984527588,-2.3856945037841797,2.7077524662017822
1761383483119764000,3.794763916015625,2.6894736289978027,-0.7013852596282959,2.027693510055542
1761383483129833200,3.804833251953125,-0.7449522018432617,0.7075701951980591,0.9640139937400818
1761383483139903000,3.814903076171875,-3.647709369659424,1.6521332263946533,-0.14043141901493073
1761383483149972200,3.82497216796875,-5.880958557128906,2.1192288398742676,-1.1826916933059692
1761383483160042000,3.8350419921875,-7.401263236999512,2.232447385787964,-1.9122968912124634
1761383483170111200,3.845111328125,-8.389955520629883,2.1150479316711426,-2.360278367996216
1761383483180181000,3.855180908203125,-9.050970077514648,2.0293476581573486,-2.6250908374786377
1761383483190250200,3.865250244140625,-9.555941581726074,1.976341724395752,-2.744509220123291
1761383483200320300,3.8753203125,-10.017704010009766,1.975157380104065,-2.738363742828369
1761383483210389200,3.88538916015625,-10.449941635131836,1.910831332206726,-2.642825126647949
1761383483220459300,3.895459228515625,-10.675167083740234,1.573403000831604,-2.494797468185425
1761383483230528000,3.905528076171875,-10.486712455749512,0.9594634175300598,-2.2421627044677734
1761383483240598300,3.915598388671875,-9.826974868774414,-0.06466794013977051,-1.7702574729919434
1761383483250667000,3.9256669921875,-8.556011199951172,-1.2060353755950928,-1.074895977973938
1761383483260737300,3.9357373046875,-6.601365566253662,-1.730290412902832,-0.1220388263463974
1761383483270806000,3.945805908203125,-4.3481974601745605,-1.6412824392318726,1.1220712661743164
1761383483280876000,3.9558759765625,-2.2243261337280273,-1.2395685911178589,2.2776482105255127
1761383483290945000,3.965945068359375,-0.2190559208393097,-0.6052188277244568,2.8071959018707275
1761383483301015000,3.97601513671875,1.7277095317840576,-0.26485589146614075,2.694849729537964
1761383483311084000,3.986083984375,3.5695788860321045,-0.4643612802028656,2.2296059131622314
1761383483321154000,3.996154052734375,5.26829195022583,-0.7914019823074341,1.6285325288772583
1761383483331223300,4.006223388671875,6.694484710693359,-0.9204297661781311,1.0027579069137573
1761383483341293000,4.01629296875,7.776431560516357,-0.7149308919906616,0.3968874216079712
1761383483351362300,4.0263623046875,8.562281608581543,-0.4022347927093506,-0.028235366567969322
1761383483361432000,4.03643212890625,9.174290657043457,-0.0872504860162735,-0.24852938950061798
1761383483371501300,4.046501220703125,9.78475284576416,0.105509914457798,-0.29573845863342285
1761383483381571000,4.056571044921875,10.414875984191895,-0.07175222039222717,-0.21412533521652222
1761383483391640000,4.06664013671875,10.959794998168945,-0.9705981016159058,-0.00878230668604374
1761383483401710000,4.0767099609375,11.088501930236816,-2.4766335487365723,0.40564683079719543
1761383483411779000,4.086779052734375,10.423093795776367,-3.652529239654541,0.9596959352493286
1761383483421849300,4.096849365234375,8.8103666305542,-3.759204387664795,1.4176504611968994
1761383483431919000,4.106919189453125,6.351937294006348,-2.685020923614502,1.6006138324737549
1761383483441988400,4.11698828125,3.3310391902923584,-1.047013759613037,1.4559680223464966
1761383483452058000,4.12705810546875,0.17831940948963165,0.473074346780777,1.0552024841308594
1761383483462127000,4.137127197265625,-2.6341283321380615,1.3645360469818115,0.4867510199546814
1761383483472197000,4.147197021484375,-4.801748752593994,1.7977207899093628,-0.22586002945899963
1761383483482266000,4.15726611328125,-6.322976589202881,1.8467367887496948,-0.948530375957489
1761383483492336000,4.167336181640625,-7.291564464569092,1.6720166206359863,-1.586684226989746
1761383483502405000,4.177405029296875,-7.894214630126953,1.4279052019119263,-2.119295120239258
1761383483512475100,4.18747509765625,-8.32882022857666,1.2420538663864136,-2.5231919288635254
1761383483522544000,4.197544189453125,-8.728620529174805,1.134811282157898,-2.8055975437164307
1761383483532614100,4.2076142578125,-9.085410118103027,1.0472079515457153,-3.0202701091766357
1761383483542683100,4.21768310546875,-9.28164005279541,0.6349612474441528,-3.2024104595184326
1761383483552753200,4.227753173828125,-9.129929542541504,0.0008815063047222793,-3.3032267093658447
1761383483562822100,4.237822265625,-8.444658279418945,-0.3423115313053131,-3.0347626209259033
1761383483572892200,4.24789208984375,-7.172275066375732,-0.3627459704875946,-2.1625866889953613
1761383483582961200,4.257961181640625,-5.425998210906982,-0.4722072184085846,-0.5887415409088135
1761383483593031200,4.26803125,-3.3018813133239746,-0.6915230751037598,1.0865135192871094
1761383483603100200,4.27810009765625,-0.8750718235969543,-0.6693311929702759,2.1793930530548096
1761383483613170200,4.288170166015625,1.5506055355072021,-0.7569084763526917,2.6389856338500977
1761383483623239200,4.2982392578125,3.682117462158203,-1.0608768463134766,2.7229344844818115
1761383483633309200,4.30830908203125,5.448984146118164,-1.282457709312439,2.6054491996765137
1761383483643378200,4.318378173828125,6.802359104156494,-1.2236356735229492,2.42607045173645
1761383483653448200,4.3284482421875,7.768321990966797,-0.8701742887496948,2.308105945587158
1761383483663517200,4.33851708984375,8.407561302185059,-0.3626090884208679,2.2556891441345215
1761383483673587200,4.348587158203125,8.839071273803711,0.10799038410186768,2.2295987606048584
1761383483683656200,4.35865625,9.187445640563965,0.35013511776924133,2.1787240505218506
1761383483693726000,4.368725830078125,9.553014755249023,0.11381977796554565,2.11157488822937
1761383483703795200,4.378795166015625,9.699347496032715,-0.8819984793663025,2.127302646636963
1761383483713865000,4.388864990234375,9.391180038452148,-2.0962135791778564,2.23062801361084
1761383483723934200,4.398934326171875,8.402786254882812,-2.8879129886627197,2.3767242431640625
1761383483734003700,4.409003662109375,6.702499866485596,-2.8003053665161133,2.443110704421997
1761383483744074000,4.419073974609375,4.444380283355713,-1.9174202680587769,2.26448655128479
1761383483754143000,4.42914306640625,1.8328982591629028,-0.6957952976226807,1.776108741760254
1761383483764212700,4.439212646484375,-0.8088206648826599,0.36418887972831726,1.0354013442993164
1761383483774282000,4.449281982421875,-3.1531713008880615,1.0568842887878418,0.15175144374370575
1761383483784351700,4.459351806640625,-5.0456013679504395,1.427836537361145,-0.6999282836914062
1761383483794421000,4.4694208984375,-6.439566135406494,1.6009565591812134,-1.4226137399673462
1761383483804490800,4.47949072265625,-7.418452262878418,1.7051610946655273,-2.0222597122192383
1761383483814560000,4.48956005859375,-8.141578674316406,1.7626254558563232,-2.5133872032165527
1761383483824629800,4.499629638671875,-8.748822212219238,1.873765230178833,-2.910144567489624
1761383483834699000,4.509698974609375,-9.353875160217285,2.0968480110168457,-3.233508348464966
1761383483844769000,4.51976904296875,-9.973477363586426,2.281529664993286,-3.5222604274749756
1761383483854838000,4.529838134765625,-10.50888729095459,2.474235773086548,-3.7617578506469727
1761383483864908000,4.539907958984375,-10.838508605957031,2.5342984199523926,-3.8264660835266113
1761383483874976800,4.549976806640625,-10.704584121704102,2.441141128540039,-3.577023506164551
1761383483885047000,4.560047119140625,-9.82442855834961,2.3330583572387695,-2.8342552185058594
1761383483895115800,4.57011572265625,-8.05795669555664,2.377976417541504,-1.5306979417800903
1761383483905186000,4.58018603515625,-5.656558513641357,2.179060935974121,0.03863820433616638
1761383483915254800,4.5902548828125,-2.838710308074951,1.693385362625122,1.1948999166488647
1761383483925324800,4.60032470703125,0.16798660159111023,0.8968724608421326,1.6208986043930054
1761383483935393800,4.610393798828125,3.109138011932373,-0.14167457818984985,1.5528734922409058
1761383483945463800,4.6204638671875,5.666329860687256,-1.1754215955734253,1.3445926904678345
1761383483955532800,4.63053271484375,7.6495490074157715,-1.7399251461029053,1.1636016368865967
1761383483965602800,4.640602783203125,9.044794082641602,-1.8010151386260986,1.082205891609192
1761383483975672000,4.650672119140625,9.982701301574707,-1.454058289527893,1.0847923755645752
1761383483985741800,4.660741943359375,10.587462425231934,-0.9420974850654602,1.119282603263855
1761383483995811000,4.67081103515625,11.012855529785156,-0.5247652530670166,1.0981621742248535
1761383484005880800,4.680880859375,11.335027694702148,-0.4911697208881378,0.9644544720649719
1761383484015950000,4.6909501953125,11.393861770629883,-1.201250433921814,0.8224546909332275
1761383484026019800,4.701019775390625,10.844950675964355,-2.4108848571777344,0.781464695930481
1761383484036088800,4.7110888671875,9.547613143920898,-3.2536697387695312,0.7936757802963257
1761383484046158800,4.721158935546875,7.521822452545166,-3.0497145652770996,0.7944800853729248
1761383484056227800,4.731227783203125,4.854269981384277,-1.9559061527252197,0.7448150515556335
1761383484066298000,4.741298095703125,1.819665551185608,-0.4187232255935669,0.649515688419342
1761383484076366800,4.751366943359375,-1.188159465789795,1.0075793266296387,0.4651181399822235
1761383484086436900,4.761436767578125,-3.7600433826446533,1.8422765731811523,0.18493230640888214
1761383484096507000,4.7715068359375,-5.696955680847168,2.190962314605713,-0.167013481259346
1761383484106576000,4.781575927734375,-7.062075614929199,2.1516685485839844,-0.5929200649261475
1761383484116646000,4.79164599609375,-7.95950984954834,1.999289870262146,-1.0926361083984375
1761383484126715000,4.80171484375,-8.592806816101074,1.8478974103927612,-1.5918816328048706
1761383484136785000,4.811784912109375,-9.147329330444336,1.833564281463623,-2.0432941913604736
1761383484146854000,4.82185400390625,-9.76007080078125,2.053682327270508,-2.3975067138671875
1761383484156924000,4.831923828125,-10.480398178100586,2.4441492557525635,-2.5955092906951904
1761383484166993000,4.841992919921875,-11.163798332214355,2.7912142276763916,-2.639601230621338
1761383484177063000,4.85206298828125,-11.542778968811035,2.7557976245880127,-2.624155044555664
1761383484187132000,4.8621318359375,-11.250445365905762,2.509640693664551,-2.478851318359375
1761383484197202000,4.872201904296875,-9.902388572692871,2.2784693241119385,-1.9205820560455322
1761383484207271000,4.88227099609375,-7.3442702293396,1.973800539970398,-0.7928973436355591
1761383484217341000,4.8923408203125,-3.9650514125823975,1.2494113445281982,0.5139253735542297
1761383484227410000,4.902409912109375,-0.3569685220718384,0.20997826755046844,1.3096861839294434
1761383484237480000,4.91247998046875,3.002444267272949,-0.9714641571044922,1.4757899045944214
1761383484247549000,4.922548828125,5.783970832824707,-2.0603387355804443,1.3784220218658447
1761383484257619000,4.932618896484375,7.858938217163086,-2.6677050590515137,1.2263082265853882
1761383484267687700,4.942687744140625,9.292922019958496,-2.6788370609283447,1.0904453992843628
1761383484277758000,4.952758056640625,10.207487106323242,-2.3467907905578613,1.018548846244812
1761383484287826700,4.96282666015625,10.77798843383789,-1.9070992469787598,0.9565967917442322
1761383484297897000,4.97289697265625,11.196357727050781,-1.5003570318222046,0.8409380912780762
1761383484307966000,4.982966064453125,11.536511421203613,-1.5278605222702026,0.7389214634895325
1761383484318036000,4.993035888671875,11.659299850463867,-2.330047130584717,0.7753966450691223
1761383484328105000,5.00310498046875,11.274430274963379,-3.3764290809631348,0.9819588661193848
1761383484338174700,5.0131748046875,10.180994987487793,-4.052960395812988,1.3636428117752075
1761383484348244000,5.023243896484375,8.183005332946777,-3.849813222885132,1.7317335605621338
1761383484358313700,5.033313720703125,5.313549995422363,-2.668910264968872,1.847853183746338
1761383484368383000,5.043383056640625,1.912702202796936,-0.9064936637878418,1.5334014892578125
1761383484378452700,5.05345263671875,-1.519518494606018,0.8067662715911865,0.8494756817817688
1761383484388522000,5.06352197265625,-4.513985633850098,1.9734665155410767,0.020196881145238876
1761383484398592000,5.073592041015625,-6.8307366371154785,2.678802251815796,-0.754416286945343
1761383484408661000,5.083660888671875,-8.461848258972168,3.0733163356781006,-1.329659342765808
1761383484418731000,5.09373095703125,-9.585515022277832,3.347990036010742,-1.7049058675765991
1761383484428799700,5.1037998046875,-10.340702056884766,3.5837957859039307,-1.9596338272094727
1761383484438870000,5.1138701171875,-10.831151008605957,3.702768087387085,-2.153653383255005
1761383484448938800,5.123938720703125,-11.078391075134277,3.627314567565918,-2.2973899841308594
1761383484459009000,5.134009033203125,-10.979477882385254,3.1463782787323,-2.371152877807617
1761383484469077800,5.144077880859375,-10.363280296325684,2.2075586318969727,-2.2840325832366943
1761383484479148000,5.15414794921875,-9.132539749145508,0.9029548764228821,-1.8354548215866089
1761383484489216800,5.164216796875,-7.278013229370117,-0.21548941731452942,-1.0873631238937378
1761383484499286800,5.174286865234375,-4.75105094909668,-0.6729000806808472,-0.08068712055683136
1761383484509355800,5.184355712890625,-2.005079507827759,-0.853868305683136,1.001206398010254
1761383484519425800,5.19442578125,0.6877701282501221,-0.9923915266990662,1.7126471996307373
1761383484529495000,5.2044951171875,3.2417266368865967,-1.3499059677124023,1.934413194656372
1761383484539564800,5.214564697265625,5.422760963439941,-1.8840067386627197,1.9087392091751099
1761383484549634800,5.224634765625,7.162132263183594,-2.1035189628601074,1.8180910348892212
1761383484559703800,5.234703857421875,8.470701217651367,-1.692857027053833,1.6745240688323975
1761383484569773800,5.24477392578125,9.385461807250977,-0.8584782481193542,1.4766916036605835
1761383484579842800,5.2548427734375,10.02573013305664,0.0845646858215332,1.2030051946640015
1761383484589912800,5.264912841796875,10.585466384887695,0.7599077224731445,0.8835566639900208
1761383484599981800,5.27498193359375,11.128608703613281,0.8104939460754395,0.5549225807189941
1761383484610050000,5.285050048828125,11.522027969360352,-0.10111383348703384,0.2645784020423889
1761383484620118800,5.295118896484375,11.555184364318848,-1.6496903896331787,0.13680870831012726
1761383484630189000,5.30518896484375,10.93487548828125,-3.087205648422241,0.29297009110450745
1761383484640257800,5.3152578125,9.526936531066895,-3.7199785709381104,0.7213051915168762
1761383484650327800,5.325327880859375,7.286896705627441,-3.218351364135742,1.227002739906311
1761383484660396800,5.335396728515625,4.251039505004883,-1.8724448680877686,1.568608283996582
1761383484670466800,5.345466796875,0.8288950324058533,-0.12684795260429382,1.5084208250045776
1761383484680535800,5.355535888671875,-2.450831651687622,1.4855730533599854,1.0716826915740967
1761383484690605800,5.365605712890625,-5.129152774810791,2.4240360260009766,0.506585955619812
1761383484700674800,5.3756748046875,-6.975520133972168,2.7742371559143066,0.03277845308184624
1761383484710744800,5.385744873046875,-8.136603355407715,2.664844512939453,-0.35897839069366455
1761383484720814000,5.39581396484375,-8.83158016204834,2.3063230514526367,-0.7217131853103638
1761383484730883800,5.4058837890625,-9.272276878356934,1.9678131341934204,-1.0834146738052368
1761383484740956700,5.415956787109375,-9.663232803344727,1.7770812511444092,-1.4542545080184937
1761383484751026700,5.426026611328125,-10.14137077331543,1.8918739557266235,-1.8181177377700806
1761383484761095400,5.436095458984375,-10.678095817565918,2.182297706604004,-2.096416711807251
1761383484771165700,5.446165771484375,-11.048891067504883,2.396852493286133,-2.2777867317199707
1761383484781234400,5.456234375,-10.89526081085205,2.2286787033081055,-2.333209991455078
1761383484791304700,5.4663046875,-9.863173484802246,1.6317983865737915,-2.096406936645508
1761383484801373400,5.47637353515625,-7.7239556312561035,0.7210119962692261,-1.3028130531311035
1761383484811443500,5.486443359375,-4.817139625549316,-0.604752242565155,-0.06102287396788597
1761383484821512700,5.4965126953125,-1.6762100458145142,-1.64774489402771,0.8959867358207703
1761383484831582500,5.50658251953125,1.2066463232040405,-2.0900206565856934,1.1891567707061768
1761383484841651700,5.516651611328125,3.5351130962371826,-2.1675283908843994,1.0468140840530396
1761383484851721500,5.526721435546875,5.359491348266602,-2.0273709297180176,0.7659075260162354
1761383484861790700,5.536790771484375,6.7090067863464355,-1.8745125532150269,0.5313600301742554
1761383484871860500,5.546860595703125,7.735989570617676,-1.6758655309677124,0.3847420811653137
1761383484881929700,5.5569296875,8.550497055053711,-1.5171178579330444,0.2960055470466614
1761383484891999500,5.56699951171875,9.183751106262207,-1.6302121877670288,0.3025287091732025
1761383484902068700,5.57706884765625,9.64710521697998,-2.075026273727417,0.3676387369632721
1761383484912138800,5.587138671875,9.81298828125,-2.8494246006011963,0.5167323350906372
1761383484922207500,5.59720751953125,9.490462303161621,-3.692166805267334,0.750684916973114
1761383484932277800,5.60727783203125,8.494948387145996,-4.211273193359375,0.931343674659729
1761383484942346500,5.617346435546875,6.748379230499268,-3.896174907684326,0.9730290174484253
1761383484952416800,5.627416748046875,4.266533851623535,-2.880810499191284,0.7905471324920654
1761383484962485500,5.637485595703125,1.339906096458435,-1.3037859201431274,0.3508637547492981
1761383484972555500,5.647555419921875,-1.6388922929763794,0.45408838987350464,-0.19070816040039062
1761383484982624500,5.65762451171875,-4.3184590339660645,1.883175015449524,-0.5831949710845947
1761383484992694500,5.667694580078125,-6.4229536056518555,2.80060076713562,-0.7154638171195984
1761383485002763500,5.677763427734375,-7.950772762298584,3.3660757541656494,-0.7173709273338318
1761383485012833500,5.68783349609375,-9.033044815063477,3.6516125202178955,-0.6629172563552856
1761383485022902500,5.697902587890625,-9.742375373840332,3.7303948402404785,-0.5665595531463623
1761383485032972500,5.70797265625,-10.122538566589355,3.5476865768432617,-0.5002636313438416
1761383485043042600,5.71804248046875,-10.13615894317627,2.959568738937378,-0.4782065153121948
1761383485053111600,5.728111572265625,-9.716389656066895,1.9510014057159424,-0.47722700238227844
1761383485063181600,5.738181640625,-8.8562593460083,0.5390312671661377,-0.4382018446922302
1761383485073250600,5.74825048828125,-7.571098327636719,-0.7661362886428833,-0.29547691345214844
1761383485083320600,5.758320556640625,-5.964674472808838,-1.5607407093048096,0.021976139396429062
1761383485093389600,5.7683896484375,-4.089386463165283,-1.368362545967102,0.5541580319404602
1761383485103459600,5.77845947265625,-2.213921308517456,-0.7685941457748413,1.176429033279419
1761383485113528600,5.788528564453125,-0.26456746459007263,-0.2951677143573761,1.4760098457336426
1761383485123598600,5.7985986328125,1.8236557245254517,-0.436913400888443,1.4536603689193726
1761383485133667600,5.80866748046875,3.930830955505371,-1.0986162424087524,1.4132871627807617
1761383485143737600,5.818737548828125,5.884668827056885,-1.702665090560913,1.4807242155075073
1761383485153806600,5.828806640625,7.485095024108887,-1.9101147651672363,1.6119205951690674
1761383485163876600,5.838876708984375,8.702897071838379,-1.672769546508789,1.7493757009506226
1761383485173945600,5.848945556640625,9.605323791503906,-1.2528865337371826,1.8845324516296387
1761383485184015600,5.859015625,10.291688919067383,-0.9323878884315491,2.0415420532226562
1761383485194084600,5.869084716796875,10.848353385925293,-0.9264956116676331,2.1336865425109863
1761383485204154400,5.879154296875,11.242033958435059,-1.4724534749984741,2.2097976207733154
1761383485214223600,5.8892236328125,11.180403709411621,-2.517927646636963,2.33931303024292
1761383485224293600,5.899293701171875,10.415026664733887,-3.3766300678253174,2.512909173965454
1761383485234362600,5.909362548828125,8.826943397521973,-3.452817440032959,2.6711888313293457
1761383485244432600,5.9194326171875,6.359938144683838,-2.554629325866699,2.5831830501556396
1761383485254502700,5.929502685546875,3.2745611667633057,-1.072396159172058,2.049644947052002
1761383485264571600,5.939571533203125,-0.009381251409649849,0.5541961193084717,1.1520442962646484
1761383485274641400,5.949641357421875,-2.990325689315796,1.9305883646011353,0.20236189663410187
1761383485284710700,5.959710693359375,-5.26138162612915,2.795820951461792,-0.5690181851387024
1761383485294780400,5.969780517578125,-6.756470203399658,3.0641613006591797,-1.1051084995269775
1761383485304849700,5.979849609375,-7.596659183502197,2.944175958633423,-1.563098669052124
1761383485314919700,5.989919677734375,-8.035674095153809,2.6099131107330322,-2.0199484825134277
1761383485324988700,5.99998876953125,-8.276437759399414,2.2611498832702637,-2.476747512817383
1761383485335058700,6.01005859375,-8.488869667053223,2.1482203006744385,-2.913412570953369
1761383485345127700,6.020127685546875,-8.764032363891602,2.2520384788513184,-3.2436935901641846
1761383485355197700,6.03019775390625,-9.000898361206055,2.28706431388855,-3.402439594268799
1761383485365266700,6.0402666015625,-8.962387084960938,2.0960328578948975,-3.3149373531341553
1761383485375336700,6.050336669921875,-8.544723510742188,1.709973692893982,-2.876453399658203
1761383485385405400,6.060405517578125,-7.61287260055542,1.0957040786743164,-2.0594351291656494
1761383485395475700,6.070475830078125,-6.094710350036621,0.5522919297218323,-1.0586960315704346
1761383485405545700,6.080545654296875,-4.103200912475586,0.1608610600233078,-0.016355270519852638
1761383485415614700,6.09061474609375,-1.9158689975738525,-0.12575019896030426,0.8562875390052795
1761383485425683500,6.100683349609375,0.255119651556015,-0.35370001196861267,1.399693489074707
1761383485435753500,6.11075341796875,2.2224340438842773,-0.7145647406578064,1.6426560878753662
1761383485445823700,6.12082373046875,3.9078774452209473,-1.1067519187927246,1.6660802364349365
1761383485455892500,6.130892578125,5.275374412536621,-1.4046217203140259,1.5654468536376953
1761383485465962800,6.140962646484375,6.340902328491211,-1.6110798120498657,1.430328369140625
1761383485476031500,6.151031494140625,7.129670143127441,-1.7168723344802856,1.326769232749939
1761383485486101500,6.1611015625,7.711332321166992,-1.6673710346221924,1.239709734916687
1761383485496170500,6.17117041015625,8.111368179321289,-1.5818878412246704,1.1267863512039185
1761383485506240500,6.181240478515625,8.281116485595703,-1.632966160774231,1.0215063095092773
1761383485516309500,6.1913095703125,8.1278657913208,-1.8468478918075562,0.9340757727622986
1761383485526379500,6.201379638671875,7.545608997344971,-2.076688289642334,0.8207526803016663
1761383485536448800,6.21144873046875,6.377048969268799,-2.06128191947937,0.6538289189338684
1761383485546518500,6.2215185546875,4.684254169464111,-1.5971530675888062,0.42412757873535156
1761383485556587800,6.231587890625,2.666290044784546,-0.8369287252426147,0.1649593859910965
1761383485566657500,6.241657470703125,0.5211185812950134,0.1708524376153946,-0.041792720556259155
1761383485576726800,6.251726806640625,-1.5525318384170532,1.171494960784912,-0.18859387934207916
1761383485586796500,6.261796630859375,-3.306980609893799,1.8754733800888062,-0.29676589369773865
1761383485596865500,6.271865478515625,-4.643730640411377,2.2527151107788086,-0.4107281565666199
1761383485606935600,6.281935546875,-5.61234188079834,2.2913870811462402,-0.5446489453315735
1761383485617004500,6.292004638671875,-6.253544330596924,2.1935677528381348,-0.710268497467041
1761383485627074800,6.30207470703125,-6.661834716796875,2.0487658977508545,-0.896679162979126
1761383485637143600,6.3121435546875,-6.895732879638672,1.870705485343933,-1.0693174600601196
1761383485647213800,6.3222138671875,-6.98344087600708,1.6751956939697266,-1.1721205711364746
1761383485657282600,6.332282470703125,-6.970994472503662,1.4496102333068848,-1.1955068111419678
1761383485667352600,6.3423525390625,-6.904139995574951,1.225446343421936,-1.19832181930542
1761383485677421600,6.352421630859375,-6.790313243865967,1.0493440628051758,-1.1775251626968384
1761383485687491600,6.36249169921875,-6.561460018157959,0.8816919326782227,-1.103501319885254
1761383485697560600,6.372560546875,-6.0926032066345215,0.8163102865219116,-0.934569239616394
1761383485707630600,6.382630615234375,-5.279390811920166,0.9154666662216187,-0.6429967880249023
1761383485717699600,6.392699462890625,-4.012679100036621,1.056503176689148,-0.2193286269903183
1761383485727769600,6.40276953125,-2.390965223312378,1.0323461294174194,0.2649246156215668
1761383485737835000,6.4128349609375,-0.5596784949302673,0.8287701606750488,0.6501021385192871
1761383485747905000,6.422905029296875,1.3629392385482788,0.4055115580558777,0.9174741506576538
1761383485757974000,6.43297412109375,3.2824642658233643,-0.1722886711359024,1.0088727474212646
1761383485768044000,6.4430439453125,5.035444259643555,-0.8473973274230957,0.8849743008613586
1761383485778113000,6.453113037109375,6.546903133392334,-1.441969394683838,0.6015023589134216
1761383485788183000,6.46318310546875,7.794492721557617,-1.9230505228042603,0.3464239835739136
1761383485798252000,6.473251953125,8.78009033203125,-2.2780370712280273,0.21734564006328583
1761383485808322000,6.483322021484375,9.526995658874512,-2.5927200317382812,0.18792223930358887
1761383485818391000,6.49339111328125,9.993132591247559,-2.995847225189209,0.260125070810318
1761383485828461000,6.5034609375,9.986387252807617,-3.421938896179199,0.4286666810512543
1761383485838530000,6.513530029296875,9.263427734375,-3.6706039905548096,0.7119548320770264
1761383485848599800,6.523599853515625,7.611495494842529,-3.4382705688476562,0.9574133157730103
1761383485858669000,6.5336689453125,5.184561729431152,-2.3208892345428467,0.8532506823539734
1761383485868739000,6.543739013671875,2.3234481811523438,-0.6274995803833008,0.41019657254219055
1761383485878808000,6.55380810546875,-0.6014466881752014,1.0591943264007568,-0.16259850561618805
1761383485888878000,6.563878173828125,-3.1954572200775146,2.341712236404419,-0.6571243405342102
1761383485898947000,6.573947021484375,-5.18823766708374,3.085256338119507,-0.9366158843040466
1761383485909017000,6.58401708984375,-6.596930027008057,3.3867080211639404,-1.0481258630752563
1761383485919086000,6.594086181640625,-7.503264427185059,3.4515726566314697,-1.0830512046813965
1761383485929156000,6.604156005859375,-8.034951210021973,3.403662919998169,-1.073553204536438
1761383485939224800,6.614224853515625,-8.290056228637695,3.14536714553833,-1.0992631912231445
1761383485949295000,6.624295166015625,-8.253994941711426,2.6289007663726807,-1.16851806640625
1761383485959363800,6.63436376953125,-7.851932048797607,1.7383531332015991,-1.2501927614212036
1761383485969434000,6.64443408203125,-7.005286693572998,0.4874863028526306,-1.25645112991333
1761383485979502800,6.6545029296875,-5.801250457763672,-0.6448772549629211,-1.027437686920166
1761383485989573000,6.664572998046875,-4.440059185028076,-1.2610605955123901,-0.5107098817825317
1761383485999642000,6.67464208984375,-3.0055108070373535,-1.3094395399093628,0.2833097279071808
1761383486009711900,6.6847119140625,-1.5327852964401245,-1.0046412944793701,1.1272960901260376
1761383486019781000,6.694781005859375,-0.06777292490005493,-0.6967172622680664,1.7419883012771606
1761383486029851000,6.704850830078125,1.4217796325683594,-0.45882511138916016,2.038167715072632
1761383486039920000,6.714920166015625,2.883326530456543,-0.3696555495262146,2.1524205207824707
1761383486049990000,6.724989990234375,4.203864097595215,-0.5194881558418274,2.17227840423584
1761383486060059100,6.73505908203125,5.368802547454834,-0.6847599744796753,2.113957405090332
1761383486070129000,6.74512890625,6.334580421447754,-0.771752119064331,2.0132980346679688
1761383486080198100,6.7551982421875,7.093946933746338,-0.7701177597045898,1.9215461015701294
1761383486090268200,6.76526806640625,7.631887912750244,-0.7953929901123047,1.8430498838424683
1761383486100338000,6.775337890625,7.9506707191467285,-0.9272671341896057,1.7047847509384155
1761383486110407200,6.7854072265625,7.994739055633545,-1.357317566871643,1.5051342248916626
1761383486120477000,6.795476806640625,7.613441467285156,-1.931301236152649,1.315690517425537
1761383486130546200,6.805546142578125,6.657068729400635,-2.2630727291107178,1.1283166408538818
1761383486140616000,6.815615966796875,5.076594352722168,-2.151228427886963,0.9123933911323547
1761383486150685200,6.825685302734375,3.026200771331787,-1.4914377927780151,0.5792175531387329
1761383486160755000,6.8357548828125,0.684487521648407,-0.4626118540763855,0.16838660836219788
1761383486170824000,6.845823974609375,-1.7221845388412476,0.6772511601448059,-0.21294769644737244
1761383486180894000,6.85589404296875,-3.8613173961639404,1.6643427610397339,-0.4499264061450958
1761383486190963000,6.865962890625,-5.563771724700928,2.4016244411468506,-0.552081286907196
1761383486201033200,6.876033203125,-6.872323989868164,2.8381853103637695,-0.6009505391120911
1761383486211102000,6.88610205078125,-7.8291497230529785,3.0372798442840576,-0.6568164825439453
1761383486221172000,6.896171875,-8.501683235168457,3.0316286087036133,-0.7395832538604736
1761383486231241000,6.906240966796875,-8.941350936889648,2.839937925338745,-0.8836482763290405
1761383486241311000,6.91631103515625,-9.128177642822266,2.4073257446289062,-1.160753607749939
1761383486251380000,6.9263798828125,-8.95315170288086,1.6896814107894897,-1.5286211967468262
1761383486261450000,6.936449951171875,-8.344743728637695,0.7467937469482422,-1.8128962516784668
1761383486271519000,6.94651904296875,-7.292911052703857,-0.17129398882389069,-1.8558067083358765
1761383486281589000,6.956589111328125,-5.847676753997803,-0.5986967086791992,-1.5502678155899048
1761383486291658000,6.966657958984375,-4.088843822479248,-0.7587457895278931,-0.8303720355033875
1761383486301728000,6.97672802734375,-2.1102185249328613,-0.7853451371192932,-0.016275642439723015
1761383486311797000,6.986796875,-0.03238537162542343,-0.7934723496437073,0.5698349475860596
1761383486321867000,6.996866943359375,1.9876595735549927,-0.9537250995635986,0.8825806379318237
1761383486331936000,7.00693603515625,3.805351734161377,-1.1855015754699707,1.010861873626709
1761383486342006000,7.017006103515625,5.351459503173828,-1.40488862991333,1.0678261518478394
1761383486352075000,7.027074951171875,6.622957706451416,-1.5399560928344727,1.1576905250549316
1761383486362145000,7.03714501953125,7.663020133972168,-1.3333419561386108,1.2525274753570557
1761383486372214000,7.047214111328125,8.433073043823242,-0.8235388994216919,1.315111517906189
1761383486382284000,7.057283935546875,8.915630340576172,-0.18386836349964142,1.2821989059448242
1761383486392353000,7.06735302734375,9.174809455871582,0.31285032629966736,1.0666370391845703
1761383486402422800,7.0774228515625,9.220423698425293,0.15822985768318176,0.7327727675437927
1761383486412492000,7.087491943359375,8.879535675048828,-0.7651253938674927,0.44428691267967224
1761383486422562000,7.09756201171875,7.935146808624268,-1.772668719291687,0.2515968084335327
1761383486432631000,7.107631103515625,6.42095422744751,-1.8981374502182007,0.0969206839799881
1761383486442701000,7.117701171875,4.401369571685791,-1.2324438095092773,-0.017182182520627975
1761383486452770000,7.12777001953125,2.054290533065796,-0.3056645691394806,-0.0971827432513237
1761383486462840000,7.137840087890625,-0.3254430890083313,0.5695039629936218,-0.13399562239646912
1761383486472909000,7.147908935546875,-2.519571304321289,1.2887824773788452,-0.2103433907032013
1761383486482979000,7.15797900390625,-4.3364691734313965,1.8029136657714844,-0.2999073565006256
1761383486493048000,7.168048095703125,-5.722497940063477,2.02844500541687,-0.3280404508113861
1761383486503118000,7.1781181640625,-6.7591938972473145,2.0171568393707275,-0.3688350319862366
1761383486513186800,7.188186767578125,-7.528935432434082,1.961860179901123,-0.47186046838760376
1761383486523257000,7.198257080078125,-8.168285369873047,1.8530333042144775,-0.630171000957489
1761383486533325800,7.208325927734375,-8.76634693145752,1.7317864894866943,-0.8208205699920654
1761383486543396000,7.21839599609375,-9.31081771850586,1.6310747861862183,-0.9987264275550842
1761383486553465000,7.228465087890625,-9.741889953613281,1.4818880558013916,-1.1539080142974854
1761383486563534800,7.238534912109375,-9.944507598876953,1.1005926132202148,-1.3079593181610107
1761383486573604000,7.24860400390625,-9.727821350097656,0.6961675882339478,-1.3235665559768677
1761383486583673900,7.258673828125,-8.926172256469727,0.8205223083496094,-0.9773287177085876
1761383486593743000,7.2687431640625,-7.509958744049072,1.4872106313705444,-0.1638384610414505
1761383486603812900,7.278812744140625,-5.595144748687744,1.9663723707199097,0.7906413674354553
1761383486613882000,7.288882080078125,-3.279980182647705,1.7460813522338867,1.288284420967102
1761383486623952000,7.298951904296875,-0.6588471531867981,0.7928752303123474,1.2190667390823364
1761383486634021000,7.309021240234375,2.078714370727539,-0.49332475662231445,0.9026858806610107
1761383486644091100,7.319091064453125,4.6231303215026855,-1.697810173034668,0.6049602031707764
1761383486654160100,7.32916015625,6.705442428588867,-2.37284779548645,0.4073653817176819
1761383486664230100,7.339230224609375,8.214863777160645,-2.5272533893585205,0.3485713005065918
1761383486674299000,7.349298828125,9.211087226867676,-2.3204574584960938,0.43945008516311646
1761383486684369200,7.359369140625,9.856425285339355,-1.8486024141311646,0.574497401714325
1761383486694438000,7.36943798828125,10.252795219421387,-1.3243380784988403,0.6995447874069214
1761383486704508200,7.379508056640625,10.476683616638184,-0.9110905528068542,0.7095193862915039
1761383486714577000,7.389576904296875,10.506126403808594,-0.9357101917266846,0.6067661046981812
1761383486724647200,7.399647216796875,10.163445472717285,-1.6726771593093872,0.49177080392837524
1761383486734716000,7.4097158203125,9.181021690368652,-2.671180486679077,0.5063633322715759
1761383486744786200,7.4197861328125,7.470344543457031,-3.141735315322876,0.5665624737739563
1761383486754855400,7.42985546875,5.194746017456055,-2.547212600708008,0.5906169414520264
1761383486764925200,7.43992529296875,2.5153515338897705,-1.1515446901321411,0.5878856182098389
1761383486774994400,7.449994384765625,-0.2959893047809601,0.43767082691192627,0.5668884515762329
1761383486785064400,7.460064453125,-2.8661179542541504,1.6177259683609009,0.4802558124065399
1761383486795133400,7.470133544921875,-4.913458824157715,2.2241733074188232,0.3271573483943939
1761383486805203500,7.480203369140625,-6.401757717132568,2.3803391456604004,0.12148009240627289
1761383486815272400,7.4902724609375,-7.405854225158691,2.3047587871551514,-0.1288040578365326
1761383486825342500,7.500342529296875,-8.069978713989258,2.1150059700012207,-0.39835217595100403
1761383486835411200,7.5104111328125,-8.49176025390625,1.8593274354934692,-0.6764208078384399
1761383486845481500,7.5204814453125,-8.719306945800781,1.5991003513336182,-0.9400013089179993
1761383486855550200,7.53055029296875,-8.75415325164795,1.2103803157806396,-1.139298677444458
1761383486865620500,7.540620361328125,-8.517885208129883,0.5950338244438171,-1.1948237419128418
1761383486875689200,7.550689208984375,-7.852879047393799,0.04959471523761749,-1.039622187614441
1761383486885759200,7.56075927734375,-6.55125617980957,-0.23488175868988037,-0.6808440685272217
1761383486895828200,7.570828125,-4.4864888191223145,-0.27584463357925415,-0.131746307015419
1761383486905898200,7.580898193359375,-1.9929869174957275,-0.4996950328350067,0.4594474732875824
1761383486915967500,7.590967529296875,0.5490891933441162,-0.9891549944877625,0.7399278879165649
1761383486926037200,7.601037353515625,2.9339518547058105,-1.6433660984039307,0.6620258688926697
1761383486936106500,7.6111064453125,4.983879089355469,-2.220318555831909,0.5439721941947937
1761383486946176300,7.62117626953125,6.572844982147217,-2.5081310272216797,0.6208251714706421
1761383486956245500,7.63124560546875,7.712555408477783,-2.2662253379821777,0.8123123049736023
1761383486966315300,7.641315185546875,8.416754722595215,-1.644601583480835,1.0252856016159058
1761383486976384500,7.651384521484375,8.809950828552246,-0.8295440673828125,1.1864979267120361
1761383486986454300,7.661454345703125,9.081036567687988,0.041370876133441925,1.284020185470581
1761383486996523300,7.671523193359375,9.257850646972656,0.3570699691772461,1.408514142036438
1761383487006593500,7.681593505859375,9.324132919311523,-0.1551581621170044,1.6108630895614624
1761383487016662300,7.691662353515625,9.073616027832031,-1.2945170402526855,1.826475977897644
1761383487026732500,7.701732666015625,8.151044845581055,-2.5466208457946777,1.965599775314331
1761383487036801300,7.71180126953125,6.446767330169678,-2.9430971145629883,1.8933008909225464
1761383487046871300,7.721871337890625,4.04370641708374,-2.180164098739624,1.4956365823745728
1761383487056940300,7.731940185546875,1.218920350074768,-0.6294546127319336,0.8213598728179932
1761383487067010300,7.74201025390625,-1.6669108867645264,1.0181025266647339,0.19051961600780487
1761383487077079300,7.752079345703125,-4.147260665893555,2.2086267471313477,-0.1408253014087677
1761383487087149300,7.7621494140625,-6.016435146331787,2.85142183303833,-0.2334311306476593
1761383487097218300,7.77221826171875,-7.338680267333984,3.0400824546813965,-0.2232799530029297
1761383487107288300,7.782288330078125,-8.232336044311523,2.9902708530426025,-0.2254624217748642
1761383487117357300,7.792357421875,-8.838456153869629,2.8519062995910645,-0.2969456613063812
1761383487127427300,7.80242724609375,-9.274161338806152,2.650481939315796,-0.4782786965370178
1761383487137496300,7.812496337890625,-9.594027519226074,2.4433021545410156,-0.7433716058731079
1761383487147566300,7.82256640625,-9.80345344543457,2.1390271186828613,-1.1009358167648315
1761383487157636400,7.83263623046875,-9.791498184204102,1.6548563241958618,-1.433434247970581
1761383487167705300,7.842705322265625,-9.322892189025879,1.0952394008636475,-1.5796611309051514
1761383487177774300,7.8527744140625,-8.07051944732666,0.7810990214347839,-1.4718289375305176
1761383487187844400,7.86284423828125,-6.029144287109375,0.5406129360198975,-1.0181012153625488
1761383487197914400,7.872914306640625,-3.347062587738037,0.40180841088294983,-0.3785880506038666
1761383487207983400,7.8829833984375,-0.3751523196697235,0.1397850662469864,0.14023859798908234
1761383487218052400,7.89305224609375,2.4649510383605957,-0.45399439334869385,0.282023161649704
1761383487228122000,7.9031220703125,4.972798824310303,-1.3049113750457764,0.13985857367515564
1761383487238191400,7.91319140625,7.010917663574219,-2.019954204559326,0.01446762215346098
1761383487248261400,7.923261474609375,8.466946601867676,-2.425839900970459,0.04361245781183243
1761383487258330400,7.933330322265625,9.407770156860352,-2.4544670581817627,0.175846129655838
1761383487268400400,7.943400390625,9.934662818908691,-2.277557134628296,0.29987087845802307
1761383487278469400,7.953469482421875,10.13395881652832,-2.10471248626709,0.3522011935710907
1761383487288539400,7.963539306640625,10.039146423339844,-2.057237148284912,0.34001055359840393
1761383487298608400,7.9736083984375,9.515986442565918,-2.1860222816467285,0.27484622597694397
1761383487308678400,7.983678466796875,8.267395973205566,-2.256563901901245,0.11107432097196579
1761383487318747400,7.993747314453125,6.249402046203613,-1.9130735397338867,-0.2298278659582138
1761383487328817400,8.0038173828125,3.816398859024048,-0.8608537912368774,-0.656614363193512
1761383487338887400,8.013887451171875,1.1760971546173096,0.49371543526649475,-0.7067390084266663
1761383487348956400,8.023956298828125,-1.4462778568267822,1.9693570137023926,-0.45996546745300293
1761383487359026400,8.0340263671875,-3.729112386703491,3.028223991394043,-0.13477538526058197
1761383487369095400,8.044095458984375,-5.581387996673584,3.532076835632324,0.256696492433548
1761383487379165400,8.05416552734375,-6.9178314208984375,3.6910905838012695,0.4325791299343109
1761383487389234400,8.064234375,-7.890113353729248,3.5590453147888184,0.38544464111328125
1761383487399304400,8.074304443359376,-8.602872848510742,3.271345376968384,0.13839435577392578
1761383487409373200,8.084373291015625,-9.100808143615723,2.944002866744995,-0.2281934916973114
1761383487419443500,8.094443359375,-9.428815841674805,2.5877251625061035,-0.5629698634147644
1761383487429512200,8.10451220703125,-9.559464454650879,2.222935199737549,-0.7463138699531555
1761383487439582500,8.11458251953125,-9.355279922485352,1.9416236877441406,-0.7114994525909424
1761383487449651200,8.124651123046876,-8.721312522888184,1.5917929410934448,-0.4234146475791931
1761383487459721200,8.13472119140625,-7.578051567077637,1.0279908180236816,0.05782574787735939
1761383487469790500,8.14479052734375,-5.800676345825195,0.5808825492858887,0.5560216903686523
1761383487479860200,8.154860107421875,-3.51035737991333,0.24203287065029144,0.9580434560775757
1761383487489929500,8.164929443359375,-0.9954781532287598,-0.20344872772693634,1.156566858291626
1761383487499999200,8.174999267578125,1.535011649131775,-0.831016480922699,1.1639842987060547
1761383487510068500,8.185068359375,3.9280312061309814,-1.499886155128479,1.0325371026992798
1761383487520138200,8.19513818359375,6.003066539764404,-2.112278699874878,0.9109328985214233
1761383487530207500,8.20520751953125,7.657939910888672,-2.5547289848327637,0.8554339408874512
1761383487540277200,8.21527734375,8.87552547454834,-2.7438907623291016,0.8683058023452759
1761383487550346500,8.225346435546875,9.726852416992188,-2.6658952236175537,0.8990288376808167
1761383487560416500,8.23541650390625,10.284234046936035,-2.545342445373535,0.9370492100715637
1761383487570485200,8.2454853515625,10.621003150939941,-2.53703236579895,0.9342342615127563
1761383487580555500,8.255555419921874,10.695049285888672,-2.8435323238372803,0.9200736880302429
1761383487590624300,8.265624267578126,10.32240104675293,-3.3520259857177734,0.9435459971427917
1761383487600694500,8.275694580078126,9.260625839233398,-3.6619150638580322,0.9522050023078918
1761383487610763300,8.28576318359375,7.407156467437744,-3.3222200870513916,0.8491723537445068
1761383487620833300,8.295833251953125,4.884352684020996,-2.177807331085205,0.571433961391449
1761383487630902300,8.30590234375,1.969870686531067,-0.5427490472793579,0.11498437821865082
1761383487640972300,8.31597216796875,-1.0122816562652588,1.1260135173797607,-0.29896432161331177
1761383487651041300,8.326041259765624,-3.7163147926330566,2.4598827362060547,-0.5447248220443726
1761383487661111300,8.336111328125,-5.846758842468262,3.306387186050415,-0.5813115835189819
1761383487671180300,8.34618017578125,-7.413438320159912,3.765403985977173,-0.5244877338409424
1761383487681250300,8.356250244140625,-8.513731002807617,3.9072160720825195,-0.46171435713768005
1761383487691319600,8.366319580078125,-9.248308181762695,3.8390064239501953,-0.4568501114845276
1761383487701389300,8.376389404296875,-9.720726013183594,3.581055164337158,-0.4996713399887085
1761383487711458600,8.38645849609375,-9.93674373626709,3.0685651302337646,-0.6083182096481323
1761383487721528300,8.3965283203125,-9.797345161437988,2.192650079727173,-0.8029143214225769
1761383487731597300,8.406597412109376,-9.229262351989746,1.0805044174194336,-0.9509005546569824
1761383487741670400,8.41667041015625,-8.207856178283691,0.001761148450896144,-0.8631712198257446
1761383487751739400,8.426739501953126,-6.562252998352051,-0.4144158363342285,-0.529443085193634
1761383487761809700,8.4368095703125,-4.210573196411133,0.06107667088508606,0.087493896484375
1761383487771878400,8.44687841796875,-1.6925510168075562,0.1319364607334137,0.8944665789604187
1761383487781948700,8.45694873046875,0.7998005151748657,-0.23599521815776825,1.3393687009811401
1761383487792017400,8.467017333984375,3.118368148803711,-1.0718141794204712,1.3097074031829834
1761383487802086700,8.477086669921874,5.131293296813965,-1.9233386516571045,1.1211868524551392
1761383487812156400,8.487156494140624,6.730970859527588,-2.4397037029266357,1.0554916858673096
1761383487822226400,8.497226318359376,7.868601322174072,-2.479447603225708,1.1146327257156372
1761383487832295400,8.50729541015625,8.582456588745117,-2.0940682888031006,1.1998190879821777
1761383487842365400,8.517365478515625,9.034957885742188,-1.463411808013916,1.2525904178619385
1761383487852434400,8.527434326171875,9.357351303100586,-0.9376486539840698,1.2704514265060425
1761383487862503400,8.53750341796875,9.62248706817627,-0.8201388120651245,1.2513421773910522
1761383487872573400,8.547573486328124,9.720524787902832,-1.181072473526001,1.253165364265442
1761383487882642400,8.557642333984376,9.423868179321289,-2.091265916824341,1.2501189708709717
1761383487892712700,8.567712646484376,8.471074104309082,-3.030982494354248,1.2098312377929688
1761383487902782500,8.577782470703125,6.775332450866699,-3.246677875518799,1.0198570489883423
1761383487912851500,8.5878515625,4.525078296661377,-2.4262216091156006,0.5819052457809448
1761383487922921500,8.59792138671875,1.8890461921691895,-1.144820213317871,0.11749067902565002
1761383487932990500,8.607990478515624,-0.7684652209281921,0.49513569474220276,-0.17894551157951355
1761383487943060500,8.618060546875,-3.2743523120880127,1.9720252752304077,-0.49079689383506775
1761383487953129500,8.62812939453125,-5.311568260192871,2.932673931121826,-0.6778498888015747
1761383487963199500,8.638199462890626,-6.809260845184326,3.363905906677246,-0.7316539883613586
1761383487973268500,8.6482685546875,-7.8537774085998535,3.48651385307312,-0.7739271521568298
1761383487983337500,8.65833740234375,-8.561360359191895,3.465458393096924,-0.9023564457893372
1761383487993407500,8.668407470703125,-9.037840843200684,3.3212881088256836,-1.087446689605713
1761383488003477500,8.6784775390625,-9.328266143798828,3.168044328689575,-1.314821481704712
1761383488013546500,8.68854638671875,-9.47602367401123,2.8695333003997803,-1.5062564611434937
1761383488023616500,8.698616455078126,-9.430578231811523,2.351547956466675,-1.6203713417053223
1761383488033685500,8.708685546875,-9.045021057128906,1.5374069213867188,-1.6276353597640991
1761383488043755500,8.718755615234375,-8.089917182922363,0.664099931716919,-1.4375487565994263
1761383488053824500,8.728824462890625,-6.3377814292907715,0.4008321166038513,-0.979613184928894
1761383488063894500,8.73889453125,-4.144287109375,-0.027238279581069946,-0.21768252551555634
1761383488073963500,8.748963623046874,-1.627511739730835,-0.29529237747192383,0.48653051257133484
1761383488084032500,8.759032470703126,0.8478154540061951,-0.6854870319366455,0.8139453530311584
1761383488094102300,8.769102294921876,3.065401554107666,-1.301645278930664,0.7765995860099792
1761383488104171500,8.779171630859375,4.9804277420043945,-1.8903905153274536,0.5592710375785828
1761383488114241300,8.7892412109375,6.490168571472168,-2.2837071418762207,0.4254447817802429
1761383488124310500,8.799310546875,7.587596893310547,-2.4334700107574463,0.44426479935646057
1761383488134380500,8.809380615234375,8.348467826843262,-2.2611782550811768,0.5186862945556641
1761383488144449500,8.819449462890624,8.81977653503418,-1.9416015148162842,0.5779208540916443
1761383488154519600,8.82951953125,9.079758644104004,-1.6762492656707764,0.5867788195610046
1761383488164588500,8.839588623046875,9.115559577941895,-1.721846342086792,0.6077826023101807
1761383488174658600,8.849658447265625,8.829174041748047,-2.127129316329956,0.6886255145072937
1761383488184727600,8.8597275390625,8.054574966430664,-2.6702871322631836,0.7855462431907654
1761383488194797600,8.869797607421875,6.714710235595703,-2.9623749256134033,0.7957628965377808
1761383488204866300,8.8798662109375,4.920673847198486,-2.643589973449707,0.6738417744636536
1761383488214936600,8.8899365234375,2.8313722610473633,-1.7559621334075928,0.5027979016304016
1761383488225005300,8.90000537109375,0.6180086135864258,-0.5535454750061035,0.4536029100418091
1761383488235075600,8.91007568359375,-1.5138890743255615,0.5903775095939636,0.520184338092804
1761383488245145600,8.9201455078125,-3.2925961017608643,1.3978372812271118,0.551860511302948
1761383488255214300,8.93021435546875,-4.653470039367676,1.8149511814117432,0.4329186677932739
1761383488265283600,8.94028369140625,-5.650323867797852,1.8514388799667358,0.1926538646221161
1761383488275353300,8.950353271484374,-6.3495192527771,1.7194297313690186,-0.11056645959615707
1761383488285422600,8.960422607421876,-6.892089366912842,1.6498050689697266,-0.4288400411605835
1761383488295492400,8.970492431640626,-7.36285400390625,1.7414005994796753,-0.7279444336891174
1761383488305561600,8.9805615234375,-7.799432754516602,1.9018434286117554,-0.9786653518676758
1761383488315631400,8.99063134765625,-8.16070556640625,1.9697657823562622,-1.1571346521377563
1761383488325700600,9.00070068359375,-8.325410842895508,1.7662636041641235,-1.2721943855285645
1761383488335770400,9.010770263671875,-8.20150375366211,1.0791211128234863,-1.355290412902832
1761383488345839600,9.020839599609374,-7.683773040771484,0.08167169243097305,-1.4012978076934814
1761383488355909600,9.03090966796875,-6.643295764923096,-0.4980585277080536,-1.2765084505081177
1761383488365978400,9.040978271484375,-5.329854965209961,-0.6178589463233948,-0.8579485416412354
1761383488376048600,9.051048583984375,-3.835083484649658,-0.3892255127429962,-0.22008949518203735
1761383488386117400,9.061117431640625,-2.2624309062957764,-0.0772271454334259,0.4875880479812622
1761383488396187600,9.071187744140625,-0.671488344669342,0.1984584927558899,0.9008975625038147
1761383488406256400,9.08125634765625,1.0186431407928467,0.3530123829841614,0.8908979296684265
1761383488416326400,9.091326416015624,2.753387451171875,0.07393867522478104,0.7395681142807007
1761383488426395400,9.1013955078125,4.339723587036133,-0.5586403608322144,0.6117728352546692
1761383488436465400,9.11146533203125,5.7122979164123535,-1.0911351442337036,0.5365579724311829
1761383488446534400,9.121534423828125,6.829521179199219,-1.3479198217391968,0.4953327775001526
1761383488456604400,9.1316044921875,7.667355537414551,-1.404967188835144,0.502469003200531
1761383488466673400,9.14167333984375,8.32129192352295,-1.2710894346237183,0.4917233884334564
1761383488476743400,9.151743408203124,8.795636177062988,-1.2882483005523682,0.4516635835170746
1761383488486812700,9.161812744140626,9.072052955627441,-1.6742366552352905,0.39724695682525635
1761383488496882400,9.17188232421875,9.079299926757812,-2.422673463821411,0.33366692066192627
1761383488506951700,9.18195166015625,8.547815322875977,-3.2814536094665527,0.35551708936691284
1761383488517021400,9.192021484375,7.267979145050049,-3.7279915809631348,0.42372649908065796
1761383488527090400,9.20209033203125,5.341384410858154,-3.2772018909454346,0.3536193072795868
1761383488537160400,9.212160400390625,3.0494225025177,-2.002563238143921,0.15053758025169373
1761383488547229400,9.2222294921875,0.6305252313613892,-0.4039461314678192,-0.036907948553562164
1761383488557299500,9.232299560546876,-1.6820104122161865,1.0732924938201904,-0.15065927803516388
1761383488567368400,9.242368408203125,-3.558173894882202,2.152946710586548,-0.1322704255580902
1761383488577438700,9.252438720703125,-4.942455291748047,2.7504148483276367,-0.05361076444387436
1761383488587507500,9.262507568359375,-5.899178504943848,2.903313159942627,0.0026607641484588385
1761383488597577500,9.272577392578125,-6.478716850280762,2.779694080352783,-0.007274158298969269
1761383488607646500,9.282646484375,-6.809731483459473,2.5455517768859863,-0.11643313616514206
1761383488617715500,9.292715576171876,-6.976528644561768,2.2400662899017334,-0.32629743218421936
1761383488627785500,9.302785400390626,-7.007883548736572,1.868524193763733,-0.6102596521377563
1761383488637854500,9.3128544921875,-6.893333911895752,1.329891324043274,-0.9502686262130737
1761383488647924500,9.322924560546875,-6.5824689865112305,0.5960417985916138,-1.2299185991287231
1761383488657993500,9.332993408203125,-6.013271808624268,-0.06779555976390839,-1.341532826423645
1761383488668063500,9.3430634765625,-5.180316925048828,-0.26482340693473816,-1.189894199371338
1761383488678132500,9.353132568359374,-4.183622360229492,-0.14492842555046082,-0.7071843147277832
1761383488688202500,9.363202392578126,-2.9666895866394043,0.2864091098308563,-0.09698460251092911
1761383488698271500,9.373271484375,-1.4929851293563843,0.7097800970077515,0.47521287202835083
1761383488708341200,9.38334130859375,0.09761843830347061,0.7004132270812988,0.7891827821731567
1761383488718410500,9.393410400390625,1.7157104015350342,0.17778198421001434,0.7093537449836731
1761383488728480500,9.40348046875,3.330658197402954,-0.5407138466835022,0.3781994879245758
1761383488738549500,9.413549560546874,4.7908711433410645,-1.275661826133728,0.07932944595813751
1761383488748615700,9.42361572265625,5.983469486236572,-1.9288969039916992,-0.049373142421245575
1761383488758684700,9.4336845703125,6.845083713531494,-2.3404557704925537,-0.056293100118637085
1761383488768754700,9.443754638671875,7.315881252288818,-2.418426036834717,-0.09457258135080338
1761383488778823700,9.45382373046875,7.367581844329834,-2.2641122341156006,-0.19516949355602264
1761383488788893700,9.463893798828124,6.996340274810791,-2.0270121097564697,-0.3311946988105774
1761383488798963000,9.473962890625,6.221560955047607,-1.884356141090393,-0.4901619851589203
1761383488809032700,9.48403271484375,5.103957653045654,-1.7400606870651245,-0.6598463654518127
1761383488819101700,9.494101806640625,3.743661403656006,-1.3897618055343628,-0.77309250831604
1761383488829171700,9.504171630859375,2.219017505645752,-0.7748296856880188,-0.6839585900306702
1761383488839240700,9.51424072265625,0.6929097771644592,0.0007275756215676665,-0.3740479052066803
1761383488849310700,9.524310791015624,-0.7102996706962585,0.7779687643051147,0.06952954083681107
1761383488859379700,9.534379638671876,-1.8836644887924194,1.3315597772598267,0.4416130781173706
1761383488869449700,9.54444970703125,-2.7635819911956787,1.5673459768295288,0.603202760219574
1761383488879518700,9.554518798828125,-3.3524584770202637,1.4211602210998535,0.585410475730896
1761383488889588700,9.564588623046875,-3.6630871295928955,1.058140754699707,0.42454248666763306
1761383488899657700,9.57465771484375,-3.7654314041137695,0.6983658075332642,0.17359095811843872
1761383488909727700,9.584727783203125,-3.7629706859588623,0.4726913869380951,-0.06278082728385925
1761383488919796700,9.594796630859374,-3.767796277999878,0.3355761468410492,-0.2311171144247055
1761383488929866800,9.60486669921875,-3.911921262741089,0.27729418873786926,-0.3396265506744385
1761383488939935700,9.614935791015625,-4.273108959197998,0.3584974408149719,-0.46995124220848083
1761383488950004700,9.625004638671875,-4.882303237915039,0.6731570959091187,-0.6735398173332214
1761383488960074800,9.63507470703125,-5.666876316070557,1.3028780221939087,-0.9427182674407959
1761383488970143700,9.645143798828125,-6.438892841339111,2.0914645195007324,-1.2545357942581177
1761383488980213800,9.6552138671875,-6.950139999389648,2.8655567169189453,-1.4961377382278442
1761383488990282800,9.66528271484375,-7.0010881423950195,3.4531054496765137,-1.566606044769287
1761383489000352500,9.6753525390625,-6.366692543029785,3.7041845321655273,-1.3569692373275757
1761383489010421800,9.685421875,-4.9566497802734375,3.548701047897339,-0.8831204771995544
1761383489020491800,9.69549169921875,-2.9698238372802734,2.843266487121582,-0.4123156666755676
1761383489030560800,9.705560791015625,-0.5705921053886414,1.6963504552841187,-0.23501890897750854
1761383489040630800,9.715630859375,2.009455442428589,0.368580162525177,-0.3244835436344147
1761383489050699800,9.72569970703125,4.394730091094971,-1.0862985849380493,-0.43704578280448914
1761383489060769800,9.735769775390626,6.389220714569092,-2.379612922668457,-0.35370293259620667
1761383489070838800,9.7458388671875,7.8461594581604,-3.1856324672698975,-0.09817130863666534
1761383489080908800,9.75590869140625,8.684370994567871,-3.527466297149658,0.20644664764404297
1761383489090977800,9.765977783203125,8.902215957641602,-3.481126070022583,0.4270293414592743
1761383489101047800,9.7760478515625,8.513561248779297,-3.2228751182556152,0.4802001714706421
1761383489111116500,9.786116455078124,7.550023078918457,-2.842782735824585,0.4200145900249481
1761383489121186800,9.796186767578124,5.984158515930176,-2.26948881149292,0.20641815662384033
1761383489131255600,9.806255615234376,3.907156467437744,-1.3152774572372437,-0.13183365762233734
1761383489141325800,9.816325927734376,1.6395183801651,0.06871461868286133,-0.457684189081192
1761383489151394600,9.82639453125,-0.4982377588748932,1.524473786354065,-0.5796037316322327
1761383489161464600,9.836464599609375,-2.255906105041504,2.5441958904266357,-0.41736847162246704
1761383489171533800,9.846533935546875,-3.4805350303649902,2.9663803577423096,-0.20607486367225647
1761383489181603600,9.856603515625,-4.205599308013916,2.6861515045166016,-0.040771130472421646
1761383489191672800,9.8666728515625,-4.464160442352295,1.9993183612823486,0.013340040110051632
1761383489201742600,9.87674267578125,-4.357706546783447,1.2198870182037354,-0.014789332635700703
1761383489211811800,9.886811767578125,-4.030632019042969,0.46341320872306824,-0.04122866317629814
1761383489221881600,9.896881591796875,-3.6305220127105713,-0.1459082067012787,-0.020482638850808144
1761383489231950800,9.906950927734375,-3.2866709232330322,-0.6478418707847595,-0.019947875291109085
1761383489242022000,9.91702197265625,-3.0711090564727783,-1.0416078567504883,-0.061712633818387985
1761383489252090600,9.927090576171874,-2.996284246444702,-1.2219587564468384,-0.08381713926792145
1761383489262160000,9.937159912109376,-3.063005208969116,-1.1583999395370483,0.011685417965054512
1761383489272229600,9.947229736328126,-3.1481263637542725,-0.7701331973075867,0.24867719411849976
1761383489282299000,9.957298828125,-3.0993475914001465,-0.23417894542217255,0.5016026496887207
1761383489292368600,9.96736865234375,-2.742732524871826,0.2118094563484192,0.693074643611908
1761383489302438000,9.97743798828125,-1.9342097043991089,0.4048500061035156,0.7881587743759155
1761383489312507600,9.987507568359375,-0.597366213798523,0.18746043741703033,0.8692666888237
1761383489322576600,9.99757666015625,1.2101023197174072,-0.18987032771110535,1.085424542427063
1761383489332646700,10.007646728515626,3.152853488922119,-0.7152374386787415,1.4873195886611938
1761383489342715600,10.017715576171875,5.020668983459473,-1.4241408109664917,1.9342129230499268
1761383489352786000,10.027785888671875,6.652055263519287,-2.2596421241760254,2.3195621967315674
1761383489362854700,10.037854736328125,7.919168949127197,-2.8977863788604736,2.627593755722046
1761383489372925000,10.047925048828125,8.637383460998535,-3.1253557205200195,2.81398606300354
1761383489382993700,10.05799365234375,8.659482955932617,-2.938270092010498,2.7989625930786133
1761383489393063700,10.068063720703124,7.758143424987793,-2.293551445007324,2.4665756225585938
1761383489403132700,10.078132568359376,5.789782524108887,-1.4896905422210693,1.7733569145202637
1761383489413202700,10.08820263671875,3.2379000186920166,-0.19775089621543884,0.82173752784729
1761383489423271700,10.098271728515625,0.48950231075286865,1.4125922918319702,-0.22892692685127258
1761383489433341700,10.108341796875,-2.0984697341918945,3.024732828140259,-1.140392780303955
1761383489443410700,10.11841064453125,-4.239983081817627,3.9029436111450195,-1.8578760623931885
1761383489453480700,10.128480712890624,-5.628757476806641,4.2758989334106445,-2.144888401031494
1761383489463549700,10.1385498046875,-6.337059020996094,4.097198009490967,-2.116252899169922
1761383489473619700,10.14861962890625,-6.495999336242676,3.6901676654815674,-2.0223398208618164
1761383489483688700,10.158688720703125,-6.261623382568359,3.298527956008911,-1.9569171667099
1761383489493758700,10.1687587890625,-5.832361698150635,2.965343713760376,-1.9639973640441895
1761383489503827700,10.17882763671875,-5.399050235748291,2.762404203414917,-2.0988872051239014
1761383489513897700,10.188897705078125,-5.077895164489746,2.7632339000701904,-2.30045747756958
1761383489523966700,10.198966796875,-4.890683174133301,3.124877452850342,-2.5841012001037598
1761383489534036700,10.20903662109375,-4.874711990356445,3.701292037963867,-2.8519062995910645
1761383489544105700,10.219105712890626,-4.980103969573975,4.169126510620117,-2.9771456718444824
1761383489554175500,10.229175537109375,-5.101874828338623,4.5695013999938965,-2.910573720932007
1761383489564244700,10.23924462890625,-5.109313488006592,4.534598350524902,-2.6820342540740967
1761383489574314800,10.249314697265625,-4.867208003997803,4.009754180908203,-2.3574960231781006
1761383489584383700,10.2593837890625,-4.36326265335083,3.500140428543091,-1.963335633277893
1761383489594453800,10.269453857421874,-3.7324318885803223,3.1562094688415527,-1.5247553586959839
1761383489604522800,10.279522705078126,-3.0443122386932373,2.9407525062561035,-1.0607846975326538
1761383489614592800,10.2895927734375,-2.394502639770508,2.5685036182403564,-0.67790287733078
1761383489624661800,10.299661865234375,-1.8020412921905518,2.149420976638794,-0.5233052968978882
1761383489634731800,10.309731689453125,-1.2506380081176758,1.61113703250885,-0.5166229009628296
1761383489644800800,10.31980078125,-0.7945525050163269,1.056514859199524,-0.6227192282676697
1761383489654870800,10.329870849609375,-0.4214308559894562,0.6438229084014893,-0.7618680596351624
1761383489664939500,10.339939453125,-0.08335480839014053,0.3033609390258789,-0.8545082807540894
1761383489675009800,10.350009765625,0.0203420240432024,0.10199906677007675,-0.9478893280029297
1761383489685078500,10.36007861328125,-0.05714291334152222,-0.08958607167005539,-1.2866621017456055
1761383489695148800,10.370148681640625,-0.21982663869857788,0.00373108871281147,-1.63003671169281
1761383489705217800,10.3802177734375,-0.379300981760025,0.4326227903366089,-1.8045192956924438
1761383489715287800,10.390287841796875,-0.5810276865959167,0.3253072500228882,-2.1412696838378906
1761383489725356800,10.400356689453124,-0.9319732189178467,0.26875025033950806,-2.2929465770721436
1761383489735426600,10.410426513671876,-1.2050883769989014,0.069710373878479,-2.3132975101470947
1761383489745496800,10.420496826171876,-1.254721999168396,-0.504051685333252,-2.276390790939331
1761383489755566600,10.430566650390626,-1.0769994258880615,-1.4640896320343018,-2.1356682777404785
1761383489765635800,10.4406357421875,-0.814799964427948,-2.831871271133423,-1.9890156984329224
1761383489775705600,10.45070556640625,-0.5576214790344238,-4.456928253173828,-1.9189436435699463
1761383489785774600,10.460774658203125,-0.4249669909477234,-6.171463966369629,-1.9915575981140137
1761383489795843600,10.470843505859374,-0.3471275866031647,-7.671037197113037,-2.2823479175567627
1761383489805913600,10.48091357421875,-0.34289345145225525,-8.438775062561035,-2.608386278152466
1761383489815982600,10.490982666015626,-0.20439468324184418,-8.844057083129883,-2.95495343208313
1761383489826052600,10.501052490234375,-0.12184574455022812,-8.981847763061523,-3.171642303466797
1761383489836121600,10.51112158203125,-0.2015823870897293,-8.633333206176758,-3.2997846603393555
1761383489846191600,10.521191650390625,-0.945468008518219,-5.493949890136719,-3.1458284854888916
1761383489856260600,10.531260498046874,-1.3235766887664795,-3.0592663288116455,-2.5273540019989014
1761383489866330600,10.54133056640625,-1.970527172088623,-0.96601802110672,-2.6437230110168457
1761383489876399900,10.55139990234375,-2.299794912338257,0.054186005145311356,-2.7466025352478027
1761383489886469600,10.5614697265625,-2.26474666595459,0.271042138338089,-2.6395297050476074
1761383489896538600,10.57153857421875,-2.0584864616394043,0.32058653235435486,-2.320896863937378
1761383489906608600,10.581608642578125,-1.8571984767913818,0.4598672091960907,-1.9297206401824951
1761383489916677600,10.591677734375,-1.6903704404830933,0.6770623922348022,-1.5011266469955444
1761383489926747600,10.60174755859375,-1.4875589609146118,0.48183560371398926,-1.0086860656738281
1761383489936816600,10.611816650390624,-1.3038415908813477,0.06836520880460739,-0.43722206354141235
1761383489946886700,10.62188671875,-1.2498524188995361,-0.7020134925842285,0.10158681124448776
1761383489956955600,10.63195556640625,-1.2307490110397339,-1.4695820808410645,0.570917546749115
1761383489967025700,10.642025634765625,-1.177183985710144,-1.9110678434371948,1.0742677450180054
1761383489977094700,10.6520947265625,-1.0861843824386597,-2.186595916748047,1.6253714561462402
1761383489987164700,10.66216455078125,-0.9815266728401184,-2.330667734146118,2.163508653640747
1761383489997233700,10.672233642578124,-0.8495979309082031,-2.2769083976745605,2.598418712615967
1761383490007303700,10.6823037109375,-0.7184523940086365,-2.0698626041412354,2.9002509117126465
1761383490017372700,10.69237255859375,-0.5683004856109619,-1.935255527496338,3.0869193077087402
1761383490027442700,10.702442626953125,-0.4714021384716034,-1.7577017545700073,3.118954658508301
1761383490037511700,10.71251171875,-0.44969525933265686,-1.5682703256607056,2.941845655441284
1761383490047581700,10.722581787109375,-0.46414342522621155,-1.3690708875656128,2.6497714519500732
1761383490057650700,10.732650634765625,-0.4713195860385895,-1.1251890659332275,2.32041072845459
1761383490067720700,10.742720703125,-0.45024678111076355,-0.8436292409896851,1.9774599075317383
1761383490077789400,10.75278955078125,-0.3916838765144348,-0.5771762728691101,1.6040555238723755
1761383490087859700,10.762859619140626,-0.258669912815094,-0.3950791358947754,1.1942058801651
1761383490097928400,10.772928466796875,-0.057135190814733505,-0.2436041384935379,0.7942560911178589
1761383490107998700,10.782998779296875,0.12679150700569153,-0.039564188569784164,0.4355834424495697
1761383490118067700,10.793067626953125,0.22955143451690674,0.19128447771072388,0.1211133748292923
1761383490128137500,10.803137451171875,0.30606377124786377,0.37934890389442444,-0.09960915148258209
1761383490138206700,10.813206787109374,0.35387951135635376,0.47084474563598633,-0.19782546162605286
1761383490148276500,10.8232763671875,0.3556470572948456,0.5560249090194702,-0.1985040307044983
1761383490158345700,10.833345703125,0.3074560761451721,0.7180489301681519,-0.15682050585746765
1761383490168415500,10.84341552734375,0.2325802445411682,0.8548171520233154,-0.10946977138519287
1761383490178484700,10.853484619140625,0.1459907591342926,0.8927406072616577,-0.042396459728479385
1761383490188554500,10.863554443359375,0.0016554208705201745,0.7034186124801636,0.09237200766801834
1761383490198623700,10.873623779296874,-0.1243821382522583,0.11804541200399399,0.1095464676618576
1761383490208693800,10.88369384765625,-0.12504872679710388,-0.30360648036003113,0.12781335413455963
1761383490218762800,10.8937626953125,-0.06143593043088913,-0.44766965508461,0.14613750576972961
1761383490228832800,10.903832763671875,-0.004391286056488752,-0.45048433542251587,0.10028692334890366
1761383490238901500,10.913901611328125,0.05143336206674576,-0.4005886912345886,0.007583084981888533
1761383490248970800,10.923970703125,0.11695218831300735,-0.3102457523345947,-0.10044404864311218
1761383490259040500,10.93404052734375,0.1174565851688385,-0.20855852961540222,-0.1510976403951645
