time,seconds_elapsed,z,y,x
1761383479409147400,0.0841474609375,1.355191707611084,0.5202811360359192,-0.27179327607154846
1761383479419217700,0.0942177734375,1.527583360671997,0.6875766515731812,-0.4260648190975189
1761383479429286400,0.104286376953125,1.6155532598495483,0.8251649141311646,-0.5628135800361633
1761383479439356700,0.114356689453125,1.6488847732543945,0.8760137557983398,-0.626552939414978
1761383479449425400,0.12442529296875,1.6438732147216797,0.9417821168899536,-0.5899626612663269
1761383479459495400,0.134495361328125,1.6023132801055908,1.0257831811904907,-0.43985503911972046
1761383479469564400,0.144564453125,1.5317842960357666,1.0905025005340576,-0.20546439290046692
1761383479479634400,0.154634521484375,1.4028445482254028,1.148298978805542,0.06463150680065155
1761383479489703400,0.164703369140625,1.2403634786605835,1.3032499551773071,0.396287202835083
1761383479499773400,0.1747734375,1.1527405977249146,1.0651079416275024,0.6742579340934753
1761383479509842700,0.1848427734375,0.9960291385650635,0.8712164163589478,0.8868482112884521
1761383479519912400,0.194912353515625,0.9186378121376038,0.6727401614189148,0.9240476489067078
1761383479529981700,0.204981689453125,0.9277543425559998,0.5049160122871399,0.7197182178497314
1761383479540051500,0.215051513671875,0.9093806743621826,0.5380316376686096,0.4145132005214691
1761383479550120700,0.22512060546875,0.8744365572929382,0.7134551405906677,0.20075616240501404
1761383479560190500,0.2351904296875,0.8624659180641174,0.740031361579895,0.11321167647838593
1761383479570260500,0.245260498046875,0.8422969579696655,0.7186056971549988,0.16463544964790344
1761383479580329500,0.25532958984375,0.8014623522758484,0.7615318298339844,0.3259940445423126
1761383479590399500,0.2653994140625,0.77301025390625,0.8835474848747253,0.5698109865188599
1761383479600468500,0.275468505859375,0.7482860684394836,0.8304936289787292,0.7355643510818481
1761383479610538500,0.28553857421875,0.7537751197814941,0.8827347159385681,0.8361069560050964
1761383479620607500,0.295607421875,0.7657719254493713,1.0285601615905762,0.9034914970397949
1761383479630677500,0.305677490234375,0.7696928977966309,1.0509752035140991,0.8534919619560242
1761383479640746500,0.31574658203125,0.8281026482582092,1.0599929094314575,0.6755640506744385
1761383479650816500,0.32581640625,0.9229061603546143,1.1730124950408936,0.5247867703437805
1761383479660885500,0.335885498046875,1.0246249437332153,1.2641818523406982,0.49402061104774475
1761383479670955500,0.34595556640625,1.1167746782302856,1.1571507453918457,0.6030153036117554
1761383479681024500,0.3560244140625,1.2318966388702393,0.388297438621521,0.9945032596588135
1761383479691094300,0.36609423828125,1.6931108236312866,-1.355004906654358,1.861093521118164
1761383479701163500,0.37616357421875,2.1586949825286865,-1.6984304189682007,2.3391547203063965
1761383479711233500,0.386233642578125,2.3739500045776367,-1.6964397430419922,2.516674757003784
1761383479721302500,0.396302490234375,2.425358533859253,-1.783710241317749,2.3573474884033203
1761383479731375400,0.406375244140625,2.4808292388916016,-1.804184913635254,1.920918583869934
1761383479741444400,0.4164443359375,2.512493133544922,-1.7131227254867554,1.3918499946594238
1761383479751514400,0.426514404296875,2.558799982070923,-1.6804065704345703,0.8776625394821167
1761383479761583400,0.436583251953125,2.7312629222869873,-1.7337944507598877,0.47070422768592834
1761383479771653400,0.4466533203125,2.9936983585357666,-1.8754801750183105,0.17010577023029327
1761383479781722400,0.456722412109375,3.2862913608551025,-2.135580062866211,0.006124041974544525
1761383479791792400,0.46679248046875,3.4807112216949463,-2.621115207672119,0.050884589552879333
1761383479801861400,0.476861328125,3.4110639095306396,-3.094876527786255,0.3456449806690216
1761383479811931400,0.486931396484375,3.2209792137145996,-3.383680582046509,0.607379138469696
1761383479822000400,0.49700048828125,2.9543306827545166,-3.4210429191589355,0.6973419785499573
1761383479832070400,0.5070703125,2.648249864578247,-3.120899200439453,0.6388829350471497
1761383479842139100,0.51713916015625,2.3298120498657227,-2.4936745166778564,0.4207197427749634
1761383479852209400,0.52720947265625,1.9178094863891602,-1.6936869621276855,0.16230443120002747
1761383479862278400,0.5372783203125,1.4306609630584717,-1.000104546546936,-0.11195311695337296
1761383479872348400,0.547348388671875,0.7807527780532837,-0.44231125712394714,-0.4047714173793793
1761383479882417400,0.55741748046875,0.04314413666725159,0.07483940571546555,-0.6883859038352966
1761383479892487200,0.567487060546875,-0.6263098120689392,0.6629968881607056,-0.8789870142936707
1761383479902556400,0.577556396484375,-1.1590278148651123,1.147084355354309,-0.9738975763320923
1761383479912626200,0.587626220703125,-1.4975533485412598,1.3777707815170288,-1.013527274131775
1761383479922695400,0.5976953125,-1.6151987314224243,1.3910088539123535,-1.0206393003463745
1761383479932765200,0.60776513671875,-1.56979501247406,1.2615411281585693,-0.9777680039405823
1761383479942834400,0.61783447265625,-1.3895642757415771,1.0619723796844482,-0.8767874836921692
1761383479952904400,0.627904541015625,-1.107336401939392,0.8444216251373291,-0.7194830775260925
1761383479962973400,0.637973388671875,-0.8100671768188477,0.6683515906333923,-0.5266387462615967
1761383479973043500,0.64804345703125,-0.5770552158355713,0.47802266478538513,-0.32860398292541504
1761383479983112400,0.658112548828125,-0.42258965969085693,0.3264002203941345,-0.19824126362800598
1761383479993182500,0.668182373046875,-0.3459891676902771,0.23545166850090027,-0.15380509197711945
1761383480003251200,0.678251220703125,-0.35559579730033875,0.1744113266468048,-0.172943115234375
1761383480013321500,0.688321533203125,-0.38347455859184265,0.14639247953891754,-0.22026322782039642
1761383480023390200,0.69839013671875,-0.3903260827064514,0.14171357452869415,-0.24977318942546844
1761383480033460500,0.70846044921875,-0.365924596786499,0.09449625760316849,-0.23284639418125153
1761383480043529200,0.718529296875,-0.3090241253376007,0.032204292714595795,-0.17149639129638672
1761383480053599200,0.72859912109375,-0.23271045088768005,-0.02727501466870308,-0.09398350119590759
1761383480063669500,0.73866943359375,-0.15619418025016785,-0.0727929174900055,-0.030764799565076828
1761383480073738200,0.74873828125,-0.10721570998430252,-0.13348184525966644,-0.010229164734482765
1761383480083808500,0.75880859375,-0.09589923918247223,-0.18572106957435608,-0.009486738592386246
1761383480093877200,0.768877197265625,-0.11194877326488495,-0.24148419499397278,-0.01065906137228012
1761383480103947500,0.778947509765625,-0.14359594881534576,-0.27362456917762756,-0.007254387717694044
1761383480114016300,0.789016357421875,-0.16397897899150848,-0.31768736243247986,0.0038179708644747734
1761383480124086300,0.799086181640625,-0.16243113577365875,-0.3678801357746124,0.01899588480591774
1761383480134155300,0.8091552734375,-0.15813972055912018,-0.3845890760421753,0.012621077708899975
1761383480144225300,0.819225341796875,-0.14842142164707184,-0.3492603302001953,0.03155229240655899
1761383480154294300,0.829294189453125,-0.13682948052883148,-0.3134538531303406,0.08410019427537918
1761383480164364300,0.8393642578125,-0.11007517576217651,-0.27365967631340027,0.15192832052707672
1761383480174433300,0.849433349609375,-0.0825817659497261,-0.2824787199497223,0.2114606350660324
1761383480184503300,0.85950341796875,-0.07519681006669998,-0.3026729226112366,0.23545296490192413
1761383480194572500,0.869572509765625,-0.07526658475399017,-0.311125785112381,0.22550739347934723
1761383480204642300,0.879642333984375,-0.08216693997383118,-0.30717772245407104,0.2085048109292984
1761383480214711600,0.889711669921875,-0.0800425335764885,-0.2724192142486572,0.19929586350917816
1761383480224781300,0.89978125,-0.08867622911930084,-0.22404804825782776,0.21347041428089142
1761383480234850300,0.909850341796875,-0.11590119451284409,-0.20114192366600037,0.24527175724506378
1761383480244920300,0.91992041015625,-0.1565304547548294,-0.20082256197929382,0.266071081161499
1761383480254989300,0.9299892578125,-0.17835772037506104,-0.23883013427257538,0.2796225845813751
1761383480265059300,0.940059326171875,-0.16075682640075684,-0.2877921462059021,0.2841121554374695
1761383480275128300,0.95012841796875,-0.11377333849668503,-0.3371567726135254,0.2925994098186493
1761383480285198300,0.9601982421875,-0.045742861926555634,-0.35100898146629333,0.29725271463394165
1761383480295267300,0.970267333984375,0.00554562546312809,-0.3836236596107483,0.291654497385025
1761383480305337300,0.98033740234375,0.03361322730779648,-0.4273548424243927,0.27316853404045105
1761383480315406300,0.99040625,0.039622917771339417,-0.4458496868610382,0.24210543930530548
1761383480325476400,1.000476318359375,0.033103205263614655,-0.40141692757606506,0.19278237223625183
1761383480335545300,1.01054541015625,0.017272844910621643,-0.3121163547039032,0.14417141675949097
1761383480345615400,1.020615478515625,0.010086657479405403,-0.19948235154151917,0.09391447901725769
1761383480355684400,1.030684326171875,0.01217377744615078,-0.12309516966342926,0.04697040468454361
1761383480365754400,1.04075439453125,-0.0001368601806461811,-0.10096482932567596,0.018749481067061424
1761383480375823400,1.0508232421875,-0.020189397037029266,-0.08316852152347565,0.010043075308203697
1761383480385893400,1.060893310546875,-0.06422849744558334,-0.05455207824707031,0.0294599961489439
1761383480395962000,1.070962158203125,-0.12186010181903839,-0.024791255593299866,0.07900118082761765
1761383480406032400,1.081032470703125,-0.17957930266857147,-0.018222875893115997,0.14480336010456085
1761383480416101400,1.091101318359375,-0.21361875534057617,-0.0268536489456892,0.21258321404457092
1761383480426171400,1.10117138671875,-0.21005289256572723,-0.061271727085113525,0.2570077180862427
1761383480436240400,1.111240478515625,-0.18257705867290497,-0.12914158403873444,0.2738807201385498
1761383480446310400,1.121310302734375,-0.13563521206378937,-0.19289647042751312,0.2536293864250183
1761383480456379400,1.13137939453125,-0.0870671421289444,-0.24412237107753754,0.2002420723438263
1761383480466449200,1.14144921875,-0.045617882162332535,-0.27369585633277893,0.13913655281066895
1761383480476519400,1.15151953125,-0.020123442634940147,-0.29158884286880493,0.08974635601043701
1761383480486588200,1.161588134765625,-0.008202612400054932,-0.27704617381095886,0.08037565648555756
1761383480496658400,1.171658447265625,-0.006861444097012281,-0.23598262667655945,0.09434366971254349
1761383480506727400,1.1817275390625,-0.0020781257189810276,-0.19801826775074005,0.12566277384757996
1761383480516797200,1.191797119140625,0.014428146183490753,-0.22424720227718353,0.15246669948101044
1761383480526866400,1.201866455078125,0.01130896806716919,-0.21577994525432587,0.16434451937675476
1761383480536936200,1.211936279296875,-0.038540348410606384,-0.18970146775245667,0.20310203731060028
1761383480547005400,1.22200537109375,-0.11339506506919861,-0.08927728235721588,0.24056729674339294
1761383480557075200,1.2320751953125,-0.18658939003944397,0.007340331561863422,0.28359198570251465
1761383480567144400,1.24214453125,-0.24696466326713562,0.07562871277332306,0.31119927763938904
1761383480577214200,1.252214111328125,-0.28427979350090027,0.07523030042648315,0.31445765495300293
1761383480587283500,1.262283447265625,-0.2689796984195709,0.04125899821519852,0.302399218082428
1761383480597353500,1.272353515625,-0.187965527176857,-0.0320141538977623,0.2775154113769531
1761383480607422500,1.28242236328125,-0.06246335804462433,-0.18621984124183655,0.28617992997169495
1761383480617492500,1.292492431640625,0.06027055159211159,-0.4028908908367157,0.31374844908714294
1761383480627561200,1.302561279296875,0.14353233575820923,-0.6007435917854309,0.349639892578125
1761383480637631500,1.312631591796875,0.17305640876293182,-0.697940468788147,0.3705424964427948
1761383480647700200,1.3227001953125,0.1576831191778183,-0.6745414137840271,0.3775063455104828
1761383480657770500,1.3327705078125,0.10096845030784607,-0.5614771842956543,0.3982555568218231
1761383480667839200,1.342839111328125,0.04558490216732025,-0.4397459626197815,0.44138506054878235
1761383480677909200,1.3529091796875,-0.013593199662864208,-0.36303627490997314,0.5224927067756653
1761383480687978200,1.362978271484375,-0.043170250952243805,-0.35396790504455566,0.6221967339515686
1761383480698048300,1.37304833984375,-0.0397784486413002,-0.4111579358577728,0.7081816792488098
1761383480708117200,1.3831171875,-0.033205244690179825,-0.5132526755332947,0.7416507601737976
1761383480718187300,1.393187255859375,-0.011917797848582268,-0.6095594763755798,0.71943199634552
1761383480728253200,1.403253173828125,0.032952748239040375,-0.6683320999145508,0.6809343099594116
1761383480738323200,1.4133232421875,0.07632898539304733,-0.6867794990539551,0.6613950133323669
1761383480748392200,1.42339208984375,0.10919485986232758,-0.7200205326080322,0.6740671992301941
1761383480758462200,1.433462158203125,0.12781593203544617,-0.7178782820701599,0.691994309425354
1761383480768531200,1.44353125,0.13019777834415436,-0.6797715425491333,0.7064526081085205
1761383480778601200,1.453601318359375,0.11423372477293015,-0.6415802240371704,0.7217005491256714
1761383480788670200,1.463670166015625,0.07767004519701004,-0.6337787508964539,0.725986123085022
1761383480798740200,1.473740234375,0.020287174731492996,-0.6556203961372375,0.7186248898506165
1761383480808809200,1.483809326171875,-0.06736278533935547,-0.6978755593299866,0.6809430718421936
1761383480818879200,1.493879150390625,-0.16566698253154755,-0.6833850145339966,0.6319515705108643
1761383480828949200,1.50394921875,-0.2651935815811157,-0.6531643867492676,0.6026385426521301
1761383480839018000,1.51401806640625,-0.3390752673149109,-0.6331608295440674,0.6059829592704773
1761383480849088300,1.524088134765625,-0.3907475471496582,-0.6080257296562195,0.6613300442695618
1761383480859157200,1.5341572265625,-0.4164763391017914,-0.5742661356925964,0.7451855540275574
1761383480869227300,1.544227294921875,-0.38371631503105164,-0.5429951548576355,0.8467039465904236
1761383480879296300,1.554296142578125,-0.31490397453308105,-0.5540429949760437,0.9404664039611816
1761383480889366300,1.5643662109375,-0.21463558077812195,-0.5945351719856262,1.0263081789016724
1761383480899435300,1.574435302734375,-0.10029728710651398,-0.6541138291358948,1.063035011291504
1761383480909505000,1.584505126953125,0.0232031662017107,-0.699785590171814,1.0500794649124146
1761383480919574300,1.59457421875,0.13878461718559265,-0.7498535513877869,1.026870846748352
1761383480929644000,1.60464404296875,0.23359821736812592,-0.7957300543785095,0.9956469535827637
1761383480939713300,1.61471337890625,0.3183051347732544,-0.7753906846046448,0.9668336510658264
1761383480949783300,1.624783203125,0.3841962516307831,-0.8015534281730652,0.9600235819816589
1761383480959852300,1.634852294921875,0.3985997140407562,-0.8599014282226562,0.9541609287261963
1761383480969922300,1.64492236328125,0.34933438897132874,-0.9142566919326782,0.9482078552246094
1761383480979991300,1.6549912109375,0.28333166241645813,-1.0128490924835205,0.9154978394508362
1761383480990061300,1.665061279296875,0.2373407483100891,-0.9638514518737793,0.8882143497467041
1761383481000130300,1.67513037109375,0.15708133578300476,-0.8493304252624512,0.8474458456039429
1761383481010200300,1.685200439453125,0.12041166424751282,-0.6265373229980469,0.8001988530158997
1761383481020269000,1.69526904296875,0.1182425320148468,-0.381473571062088,0.741972804069519
1761383481030339300,1.70533935546875,0.1502092331647873,-0.19120019674301147,0.6597135663032532
1761383481040408000,1.715407958984375,0.18763303756713867,-0.13269108533859253,0.5309164524078369
1761383481050478300,1.725478271484375,0.2165982723236084,-0.1909649521112442,0.3585908114910126
1761383481060547000,1.735547119140625,0.24958445131778717,-0.29468709230422974,0.1919267177581787
1761383481070617000,1.7456171875,0.2669624984264374,-0.38957226276397705,0.051750797778367996
1761383481080686300,1.755686279296875,0.26363885402679443,-0.42264577746391296,-0.05285577103495598
1761383481090756000,1.765756103515625,0.266032874584198,-0.37702199816703796,-0.12353694438934326
1761383481100825300,1.775825439453125,0.25853341817855835,-0.2980819046497345,-0.16598135232925415
1761383481110895000,1.78589501953125,0.24559623003005981,-0.27434810996055603,-0.17527185380458832
1761383481120964400,1.79596435546875,0.23296992480754852,-0.2616539001464844,-0.14270511269569397
1761383481131034000,1.8060341796875,0.2082575112581253,-0.25310033559799194,-0.07477867603302002
1761383481141103400,1.816103271484375,0.18441422283649445,-0.24097231030464172,0.0065950131975114346
1761383481151173000,1.826173095703125,0.13676390051841736,-0.1975151002407074,0.08233752846717834
1761383481161243100,1.8362431640625,0.07395963370800018,-0.12206828594207764,0.14284934103488922
1761383481171312400,1.8463125,0.017200561240315437,-0.005854541435837746,0.1584467589855194
1761383481181382100,1.856382080078125,-0.034432537853717804,0.10473029315471649,0.1334838718175888
1761383481191451400,1.866451416015625,-0.05698559805750847,0.1602693796157837,0.0758618637919426
1761383481201521200,1.876521240234375,-0.044931866228580475,0.18750658631324768,0.012809664011001587
1761383481211590400,1.88659033203125,-0.009647819213569164,0.18684373795986176,-0.03967159241437912
1761383481221660200,1.89666015625,0.03035632148385048,0.17790350317955017,-0.07972367107868195
1761383481231729200,1.906729248046875,0.0594991035759449,0.1734750121831894,-0.11080888658761978
1761383481241799200,1.916799072265625,0.07288788259029388,0.18562887609004974,-0.14463263750076294
1761383481251868200,1.9268681640625,0.06694867461919785,0.27361464500427246,-0.18279366195201874
1761383481261938400,1.9369384765625,0.05549095943570137,0.3643421530723572,-0.21983636915683746
1761383481272007200,1.947007080078125,0.03929097205400467,0.44045528769493103,-0.25066015124320984
1761383481282077400,1.957077392578125,0.03126979619264603,0.441729336977005,-0.2528258264064789
1761383481292146200,1.967146240234375,0.030451230704784393,0.3431493639945984,-0.18151161074638367
1761383481302216200,1.97721630859375,0.02441411092877388,0.1896202564239502,-0.05604635924100876
1761383481312285200,1.98728515625,0.024099230766296387,0.09384005516767502,0.07139279693365097
1761383481322355200,1.997355224609375,0.013190923258662224,0.0812438353896141,0.16318956017494202
1761383481332424200,2.007424072265625,-0.0056776609271764755,0.12263642251491547,0.20302635431289673
1761383481342494200,2.017494140625,-0.03002321347594261,0.1568915992975235,0.1909201592206955
1761383481352563200,2.027563232421875,-0.052431508898735046,0.15307468175888062,0.1407797932624817
1761383481362633200,2.03763330078125,-0.07277938723564148,0.14172588288784027,0.07604847103357315
1761383481372702200,2.0477021484375,-0.08625267446041107,0.12662868201732635,-0.004367338493466377
1761383481382772200,2.057772216796875,-0.08814671635627747,0.10047697275876999,-0.09033391624689102
1761383481392841200,2.06784130859375,-0.06892453879117966,0.08120269328355789,-0.13262568414211273
1761383481402911200,2.0779111328125,-0.02892785705626011,0.033791765570640564,-0.07791715860366821
1761383481412980200,2.087980224609375,0.0621739998459816,-0.016388854011893272,0.10863294452428818
1761383481423050200,2.09805029296875,0.23304827511310577,-0.07687536627054214,0.4184989035129547
1761383481433119200,2.108119140625,0.4896292984485626,-0.17428086698055267,0.8007256388664246
1761383481443189200,2.118189208984375,0.8560243248939514,-0.3841451406478882,1.2317286729812622
1761383481453258200,2.12825830078125,1.2541449069976807,-0.8321912884712219,1.6943514347076416
1761383481463328000,2.138327880859375,1.642722249031067,-1.369112253189087,2.1233162879943848
1761383481473398300,2.148398193359375,1.9380173683166504,-1.8157804012298584,2.4869096279144287
1761383481483467300,2.15846728515625,2.08488392829895,-2.13106632232666,2.7646682262420654
1761383481493537300,2.168537353515625,2.0316412448883057,-2.215121269226074,2.9727683067321777
1761383481503606300,2.178606201171875,1.7091550827026367,-2.1824100017547607,3.1235032081604004
1761383481513676300,2.18867626953125,1.1753302812576294,-2.002837657928467,3.2214860916137695
1761383481523745300,2.198745361328125,0.4750465154647827,-1.7701685428619385,3.200570583343506
1761383481533815000,2.20881494140625,-0.35301473736763,-1.604170322418213,3.003774881362915
1761383481543884300,2.21888427734375,-1.2206382751464844,-1.5149163007736206,2.6894686222076416
1761383481553954000,2.2289541015625,-2.1723787784576416,-1.3481295108795166,2.2947771549224854
1761383481564023300,2.239023193359375,-3.153458833694458,-1.06581711769104,1.767756700515747
1761383481574093300,2.24909326171875,-4.184422969818115,-0.8815016746520996,1.0666910409927368
1761383481584162300,2.259162353515625,-5.217949867248535,-0.7179199457168579,0.2222287952899933
1761383481594232300,2.269232421875,-6.304169654846191,-0.6106253266334534,-0.768987774848938
1761383481604301300,2.27930126953125,-7.4390549659729,-0.5534592270851135,-1.9176028966903687
1761383481614371300,2.289371337890625,-8.60631275177002,-0.28806018829345703,-3.170884132385254
1761383481624440300,2.2994404296875,-9.873101234436035,0.25426381826400757,-4.421780109405518
1761383481634510300,2.30951025390625,-11.250212669372559,1.368165373802185,-5.471681118011475
1761383481644579000,2.3195791015625,-12.741479873657227,2.9427390098571777,-6.065096378326416
1761383481654649300,2.3296494140625,-14.226957321166992,4.708722114562988,-5.923735618591309
1761383481664718000,2.339718017578125,-15.328042030334473,6.216551303863525,-5.046907424926758
1761383481674788400,2.349788330078125,-15.608251571655273,6.959888935089111,-3.7741167545318604
1761383481684857000,2.359857177734375,-14.719897270202637,6.7452192306518555,-2.586667537689209
1761383481694927000,2.369927001953125,-12.344470977783203,5.369340896606445,-1.8031044006347656
1761383481704996000,2.37999609375,-8.480999946594238,2.9452102184295654,-1.6172724962234497
1761383481715066000,2.390066162109375,-3.6390573978424072,0.03304370120167732,-2.151932954788208
1761383481725135400,2.40013525390625,1.4361428022384644,-2.5825912952423096,-3.2477519512176514
1761383481735204400,2.410204345703125,6.089958190917969,-4.857194423675537,-3.9250705242156982
1761383481745273300,2.4202734375,9.932211875915527,-7.12843132019043,-3.607668161392212
1761383481755343400,2.43034326171875,12.700666427612305,-8.857872009277344,-2.2660412788391113
1761383481765412400,2.440412353515625,14.316537857055664,-9.38147258758545,-0.5197554230690002
1761383481775482400,2.450482421875,15.066311836242676,-8.323596000671387,0.8769853115081787
1761383481785551400,2.46055126953125,15.175387382507324,-6.574682712554932,1.7004581689834595
1761383481795621400,2.470621337890625,14.955039024353027,-4.885851860046387,2.0415852069854736
1761383481805691100,2.480691162109375,14.574515342712402,-4.099942684173584,2.1004440784454346
1761383481815760400,2.490760498046875,13.894197463989258,-4.504229545593262,2.1357080936431885
1761383481825830400,2.500830322265625,12.865449905395508,-5.050024509429932,2.336686611175537
1761383481835899400,2.5108994140625,11.387350082397461,-4.6388840675354,2.7044150829315186
1761383481845969400,2.520969482421875,9.279067039489746,-3.106532573699951,3.1942389011383057
1761383481856038400,2.531038330078125,6.582091808319092,-1.0574390888214111,3.5026941299438477
1761383481866108400,2.5411083984375,3.6218554973602295,0.4817582070827484,3.4217276573181152
1761383481876177400,2.551177490234375,0.7395548820495605,1.1816073656082153,2.86344575881958
1761383481886247400,2.561247314453125,-1.7706795930862427,1.383449673652649,1.911207914352417
1761383481896316400,2.57131640625,-3.69956636428833,1.3909474611282349,0.8385740518569946
1761383481906386400,2.581386474609375,-5.102443695068359,1.3011651039123535,-0.07449791580438614
1761383481916455200,2.591455078125,-6.076342582702637,1.130654215812683,-0.761861264705658
1761383481926525400,2.601525390625,-6.798464775085449,0.9342378973960876,-1.3068158626556396
1761383481936594200,2.61159423828125,-7.41147518157959,0.7987300753593445,-1.8542780876159668
1761383481946664400,2.62166455078125,-8.039223670959473,0.8583539724349976,-2.402334690093994
1761383481956733400,2.6317333984375,-8.809377670288086,1.1563036441802979,-2.9613068103790283
1761383481966803200,2.64180322265625,-9.741290092468262,1.888150691986084,-3.457937479019165
1761383481976872400,2.65187255859375,-10.835798263549805,3.0898959636688232,-3.6579108238220215
1761383481986942200,2.661942138671875,-11.897276878356934,4.2320237159729,-3.400798797607422
1761383481997011500,2.672011474609375,-12.51066780090332,4.708591461181641,-2.751554012298584
1761383482007081200,2.682081298828125,-12.155868530273438,4.430331707000732,-1.7328437566757202
1761383482017150500,2.692150390625,-10.474286079406738,3.328554153442383,-0.35433274507522583
1761383482027220200,2.70222021484375,-7.509322166442871,1.9180984497070312,1.276237964630127
1761383482037289500,2.71228955078125,-3.874406576156616,0.7215964794158936,2.573218822479248
1761383482047359500,2.722359375,-0.17909960448741913,-0.12425167858600616,3.1424498558044434
1761383482057428500,2.732428466796875,3.1880979537963867,-0.9292533993721008,3.0174062252044678
1761383482067498500,2.74249853515625,6.08945369720459,-1.7926347255706787,2.4697649478912354
1761383482077567200,2.752567138671875,8.40407657623291,-2.4885106086730957,1.8814349174499512
1761383482087637500,2.762637451171875,10.11398983001709,-2.7200911045074463,1.4742004871368408
1761383482097707300,2.772707275390625,11.303943634033203,-2.5909676551818848,1.3127063512802124
1761383482107776500,2.782776611328125,12.150760650634766,-2.310718297958374,1.4151443243026733
1761383482117846300,2.79284619140625,12.743467330932617,-2.277299404144287,1.7994574308395386
1761383482127915300,2.802915283203125,13.074790000915527,-2.7708938121795654,2.377096652984619
1761383482137985500,2.812985595703125,12.94977855682373,-3.738027334213257,3.1120617389678955
1761383482148054300,2.82305419921875,12.110304832458496,-4.485893249511719,4.00606107711792
1761383482158124500,2.83312451171875,10.505483627319336,-4.014163494110107,4.793781757354736
1761383482168193300,2.843193359375,7.95587682723999,-2.689832925796509,5.2274274826049805
1761383482178263600,2.853263671875,4.642752170562744,-1.242582082748413,5.041637420654297
1761383482188332300,2.863332275390625,1.082327961921692,-0.06598586589097977,4.046248435974121
1761383482198402300,2.87340234375,-2.235550880432129,0.5851532816886902,2.568387269973755
1761383482208471300,2.88347119140625,-4.945394039154053,0.8202598094940186,1.0301862955093384
1761383482218541300,2.893541259765625,-6.849679470062256,1.0332682132720947,-0.2512856125831604
1761383482228610300,2.9036103515625,-8.081674575805664,1.0734319686889648,-1.0693607330322266
1761383482238680300,2.913680419921875,-8.748866081237793,0.9224251508712769,-1.6080187559127808
1761383482248749300,2.923749267578125,-9.120933532714844,0.677330732345581,-2.091158151626587
1761383482258819300,2.9338193359375,-9.480392456054688,0.5066879391670227,-2.7237234115600586
1761383482268888300,2.943888427734375,-10.004050254821777,0.6257762908935547,-3.445941686630249
1761383482278958300,2.953958251953125,-10.80223560333252,1.192443609237671,-3.9132180213928223
1761383482289027300,2.96402734375,-11.842998504638672,2.2252724170684814,-3.905015230178833
1761383482299097300,2.974097412109375,-12.868036270141602,3.363291025161743,-3.45013689994812
1761383482309166300,2.984166259765625,-13.379387855529785,4.110900402069092,-2.695530891418457
1761383482319236400,2.994236328125,-12.841830253601074,4.215797424316406,-1.770963191986084
1761383482329305300,3.004305419921875,-10.865296363830566,3.594024896621704,-0.7425907254219055
1761383482339375400,3.014375244140625,-7.4090256690979,2.4473519325256348,0.20297902822494507
1761383482349444400,3.0244443359375,-2.9862239360809326,0.9979367256164551,0.7987891435623169
1761383482359514000,3.03451416015625,1.560245156288147,-0.5767503976821899,0.8234350681304932
1761383482369584400,3.04458447265625,5.671880722045898,-2.1080477237701416,0.38334640860557556
1761383482379653400,3.0546533203125,9.039918899536133,-3.3766367435455322,-0.05736693739891052
1761383482389723400,3.064723388671875,11.571496963500977,-4.159624099731445,-0.18236826360225677
1761383482399792400,3.07479248046875,13.285894393920898,-4.385075092315674,-0.06709985435009003
1761383482409862400,3.0848623046875,14.324780464172363,-4.232132434844971,0.17604994773864746
1761383482419931400,3.094931396484375,14.878061294555664,-3.9807748794555664,0.48552095890045166
1761383482430001200,3.105001220703125,15.016327857971191,-3.898418664932251,0.8489990234375
1761383482440070400,3.1150703125,14.709831237792969,-3.9733352661132812,1.1890158653259277
1761383482450140200,3.12514013671875,13.58946418762207,-4.222602367401123,1.5442650318145752
1761383482460209400,3.13520947265625,11.404731750488281,-4.072785377502441,1.806810736656189
1761383482470279400,3.145279541015625,8.164610862731934,-3.016244888305664,1.7445827722549438
1761383482480348400,3.155348388671875,4.113641262054443,-1.2754100561141968,1.2274525165557861
1761383482490418400,3.16541845703125,-0.06655104458332062,0.643598735332489,0.4402114152908325
1761383482500487400,3.1754873046875,-3.774249792098999,1.9246611595153809,-0.29962822794914246
1761383482510557400,3.185557373046875,-6.540370941162109,2.594177007675171,-0.8464010953903198
1761383482520626400,3.19562646484375,-8.339988708496094,2.7523233890533447,-1.1749000549316406
1761383482530696400,3.205696533203125,-9.37508487701416,2.5563809871673584,-1.3503687381744385
1761383482540765200,3.21576513671875,-9.910551071166992,2.1330888271331787,-1.504974126815796
1761383482550835500,3.22583544921875,-10.184269905090332,1.6343657970428467,-1.7798150777816772
1761383482560904200,3.235904296875,-10.427434921264648,1.3236143589019775,-2.2163949012756348
1761383482570974500,3.245974365234375,-10.823607444763184,1.369458556175232,-2.70119571685791
1761383482581043200,3.256043212890625,-11.443781852722168,1.7631471157073975,-3.028510093688965
1761383482591113200,3.26611328125,-12.11385726928711,2.4009392261505127,-3.0949900150299072
1761383482601182500,3.276182373046875,-12.436924934387207,2.9175589084625244,-2.7954585552215576
1761383482611252200,3.286252197265625,-12.026450157165527,3.177328586578369,-2.057267189025879
1761383482621321500,3.296321533203125,-10.581718444824219,3.0072035789489746,-0.821933388710022
1761383482631391200,3.30639111328125,-8.047784805297852,2.389719009399414,0.5887126326560974
1761383482641460500,3.31646044921875,-4.641530513763428,1.5077013969421387,1.7402315139770508
1761383482651530200,3.3265302734375,-0.878300130367279,0.48298391699790955,2.276930332183838
1761383482661600300,3.336600341796875,2.7257001399993896,-0.5585657954216003,2.1139581203460693
1761383482671669200,3.346669189453125,5.952317237854004,-1.5622947216033936,1.5167025327682495
1761383482681739300,3.3567392578125,8.615985870361328,-2.3252620697021484,0.8012669682502747
1761383482691808500,3.36680859375,10.609171867370605,-2.6544034481048584,0.11363396793603897
1761383482701878300,3.376878173828125,11.927139282226562,-2.605705976486206,-0.40873584151268005
1761383482711947500,3.386947509765625,12.739093780517578,-2.3636093139648438,-0.7140403389930725
1761383482722017300,3.397017333984375,13.246833801269531,-2.099095106124878,-0.7764161825180054
1761383482732087000,3.407087158203125,13.602471351623535,-2.076263427734375,-0.6224899888038635
1761383482742157300,3.4171572265625,13.69694995880127,-2.589569330215454,-0.28870511054992676
1761383482752226000,3.42722607421875,13.379990577697754,-3.181931972503662,0.17335651814937592
1761383482762296300,3.43729638671875,12.38643741607666,-3.3663291931152344,0.7737659811973572
1761383482772365000,3.447364990234375,10.53141975402832,-3.1645476818084717,1.3872977495193481
1761383482782435000,3.45743505859375,8.028560638427734,-2.413343667984009,1.7774816751480103
1761383482792504000,3.467504150390625,4.890496730804443,-1.4506278038024902,1.9395605325698853
1761383482802574000,3.477573974609375,1.3973336219787598,-0.5445666909217834,1.8533439636230469
1761383482812643000,3.48764306640625,-2.008598566055298,0.5093356370925903,1.4391720294952393
1761383482822713000,3.497713134765625,-5.016639232635498,1.4091742038726807,0.6740736961364746
1761383482832782000,3.507781982421875,-7.3311638832092285,2.1039257049560547,-0.09816315025091171
1761383482842852000,3.51785205078125,-8.963226318359375,2.404177188873291,-0.5751105546951294
1761383482852921300,3.52792138671875,-10.047052383422852,2.3137636184692383,-0.8280799388885498
1761383482862991000,3.5379912109375,-10.742772102355957,2.124324083328247,-1.0362823009490967
1761383482873060400,3.548060302734375,-11.222671508789062,2.081021785736084,-1.1954349279403687
1761383482883130000,3.558130126953125,-11.640435218811035,2.219733715057373,-1.2476087808609009
1761383482893199000,3.56819921875,-12.038012504577637,2.5276694297790527,-1.192301869392395
1761383482903269000,3.57826904296875,-12.311333656311035,2.644519567489624,-1.0710246562957764
1761383482913339100,3.588339111328125,-12.137991905212402,2.3368802070617676,-0.9273394346237183
1761383482923408100,3.598408203125,-11.300089836120605,1.7058064937591553,-0.6460029482841492
1761383482933478100,3.60847802734375,-9.638578414916992,1.109719157218933,-0.12958139181137085
1761383482943547100,3.618547119140625,-7.1208977699279785,0.7297602891921997,0.7134067416191101
1761383482953617200,3.6286171875,-4.140367031097412,0.27472302317619324,1.5864330530166626
1761383482963686100,3.63868603515625,-1.0691394805908203,-0.2248343825340271,1.9756330251693726
1761383482973756200,3.648756103515625,1.8387115001678467,-0.8474792838096619,1.7840615510940552
1761383482983825200,3.6588251953125,4.467548847198486,-1.5767709016799927,1.2511807680130005
1761383482993895200,3.668895263671875,6.6786885261535645,-2.1496059894561768,0.6678560972213745
1761383483003964200,3.678964111328125,8.413413047790527,-2.4090776443481445,0.18805374205112457
1761383483014034000,3.689033935546875,9.685151100158691,-2.355461359024048,-0.14949047565460205
1761383483024103200,3.699103271484375,10.593794822692871,-2.0561299324035645,-0.3438624441623688
1761383483034173200,3.709173095703125,11.229400634765625,-1.7098661661148071,-0.3426075577735901
1761383483044242200,3.7192421875,11.716511726379395,-1.45151948928833,-0.20708845555782318
1761383483054312200,3.729312255859375,12.124247550964355,-1.541277527809143,0.0038546822033822536
1761383483064381200,3.739381103515625,12.386375427246094,-2.230318784713745,0.31378173828125
1761383483074451200,3.749451171875,12.332321166992188,-3.2370314598083496,0.8080596327781677
1761383483084520200,3.759520263671875,11.717408180236816,-4.00879430770874,1.5193543434143066
1761383483094590200,3.769590087890625,10.238484382629395,-4.005197048187256,2.3125674724578857
1761383483104659200,3.7796591796875,7.6972479820251465,-3.101067304611206,2.7553908824920654
1761383483114729200,3.789729248046875,4.436988353729248,-1.5366859436035156,2.450038194656372
1761383483124798000,3.7997978515625,0.9317906498908997,0.04061412438750267,1.5061008930206299
1761383483134868200,3.8098681640625,-2.2721855640411377,1.2329435348510742,0.4012677073478699
1761383483144937000,3.81993701171875,-4.8563313484191895,1.9497283697128296,-0.6906126141548157
1761383483155007200,3.83000732421875,-6.7182111740112305,2.229964256286621,-1.5944072008132935
1761383483165076200,3.840076171875,-7.945882797241211,2.1875269412994385,-2.1675944328308105
1761383483175146000,3.85014599609375,-8.748170852661133,2.070236921310425,-2.516958236694336
1761383483185215200,3.86021533203125,-9.312088012695312,2.009510040283203,-2.7043118476867676
1761383483195285000,3.870284912109375,-9.784523010253906,1.9788521528244019,-2.759340763092041
1761383483205354200,3.880354248046875,-10.243463516235352,1.9733471870422363,-2.7047083377838135
1761383483215424000,3.890424072265625,-10.602766036987305,1.7896902561187744,-2.5778558254241943
1761383483225493200,3.9004931640625,-10.634864807128906,1.3083988428115845,-2.393977165222168
1761383483235563000,3.91056298828125,-10.216235160827637,0.5075700879096985,-2.0412826538085938
1761383483245633000,3.920633056640625,-9.280078887939453,-0.6687384247779846,-1.4515025615692139
1761383483255702300,3.930702392578125,-7.646058559417725,-1.5569708347320557,-0.6456597447395325
1761383483265771300,3.940771240234375,-5.4707489013671875,-1.7133493423461914,0.47234174609184265
1761383483275841300,3.95084130859375,-3.2642900943756104,-1.474422574043274,1.7522052526474
1761383483285911000,3.9609111328125,-1.2106801271438599,-0.9138890504837036,2.629535675048828
1761383483295980300,3.970980224609375,0.7692871689796448,-0.3510406017303467,2.809906482696533
1761383483306050000,3.981050048828125,2.666367292404175,-0.3041568994522095,2.485178232192993
1761383483316119300,3.991119384765625,4.442700386047363,-0.629362165927887,1.9320645332336426
1761383483326189000,4.00118896484375,6.028581142425537,-0.8881404399871826,1.3111040592193604
1761383483336258000,4.011258056640625,7.280114650726318,-0.8407161831855774,0.6816955208778381
1761383483346328300,4.021328369140625,8.201878547668457,-0.5515164732933044,0.15398858487606049
1761383483356397000,4.03139697265625,8.877814292907715,-0.23415341973304749,-0.16770130395889282
1761383483366467300,4.04146728515625,9.480926513671875,0.052429720759391785,-0.2986132800579071
1761383483376536000,4.0515361328125,10.0977783203125,0.08493945747613907,-0.27347543835639954
1761383483386606300,4.0616064453125,10.720909118652344,-0.40544164180755615,-0.13947084546089172
1761383483396675000,4.071675048828125,11.104978561401367,-1.690392017364502,0.16857300698757172
1761383483406745000,4.0817451171875,10.869524002075195,-3.164691686630249,0.669733464717865
1761383483416814000,4.09181396484375,9.736313819885254,-3.8490378856658936,1.2089698314666748
1761383483426884000,4.101884033203125,7.673856735229492,-3.336862564086914,1.5464117527008057
1761383483436953000,4.111953125,4.886843204498291,-1.8866935968399048,1.5583586692810059
1761383483447023000,4.122023193359375,1.7406227588653564,-0.22107306122779846,1.273210883140564
1761383483457092000,4.132092041015625,-1.298011302947998,1.0004568099975586,0.7928416132926941
1761383483467162000,4.142162109375,-3.7964420318603516,1.645795464515686,0.13287943601608276
1761383483477231000,4.152231201171875,-5.6379570960998535,1.868922233581543,-0.6041700839996338
1761383483487301000,4.162301025390625,-6.862001419067383,1.7902427911758423,-1.2874832153320312
1761383483497370400,4.172370361328125,-7.628195762634277,1.5550901889801025,-1.8706728219985962
1761383483507440000,4.182440185546875,-8.120573997497559,1.3360569477081299,-2.3437912464141846
1761383483517509000,4.192509033203125,-8.529335975646973,1.1815123558044434,-2.6786751747131348
1761383483527579100,4.2025791015625,-8.915675163269043,1.1209007501602173,-2.9226059913635254
1761383483537648000,4.212648193359375,-9.215253829956055,0.9038371443748474,-3.1187665462493896
1761383483547718100,4.22271826171875,-9.260968208312988,0.31178829073905945,-3.277986764907837
1761383483557787100,4.232787109375,-8.85976505279541,-0.2118682861328125,-3.237732172012329
1761383483567857200,4.242857177734375,-7.873151779174805,-0.36538153886795044,-2.6911165714263916
1761383483577927200,4.25292724609375,-6.350958824157715,-0.37895143032073975,-1.4507476091384888
1761383483587996200,4.26299609375,-4.404158592224121,-0.5761240720748901,0.2846241295337677
1761383483598066200,4.273066162109375,-2.11686110496521,-0.7057307958602905,1.7208011150360107
1761383483608135200,4.28313525390625,0.367201030254364,-0.6632193326950073,2.465519428253174
1761383483618205200,4.293205078125,2.6577420234680176,-0.8891480565071106,2.710714101791382
1761383483628274200,4.303274169921875,4.617502689361572,-1.1903715133666992,2.6703195571899414
1761383483638344000,4.313343994140625,6.177982807159424,-1.2863726615905762,2.5093839168548584
1761383483648413200,4.3234130859375,7.332597732543945,-1.0667120218276978,2.3519418239593506
1761383483658483000,4.33348291015625,8.123711585998535,-0.6176828145980835,2.2709200382232666
1761383483668552200,4.34355224609375,8.644399642944336,-0.10055863857269287,2.2357237339019775
1761383483678622200,4.353622314453125,9.017367362976074,0.283051073551178,2.2063913345336914
1761383483688691200,4.363691162109375,9.374625205993652,0.327396959066391,2.1364805698394775
1761383483698761200,4.37376123046875,9.670283317565918,-0.29540643095970154,2.1045186519622803
1761383483708830200,4.383830322265625,9.615774154663086,-1.5044094324111938,2.1697521209716797
1761383483718900200,4.393900146484375,8.992878913879395,-2.563098192214966,2.301515817642212
1761383483728969200,4.40396923828125,7.637587070465088,-2.955075979232788,2.421264886856079
1761383483739039000,4.4140390625,5.630370140075684,-2.42722487449646,2.3850600719451904
1761383483749107700,4.424107666015625,3.1697592735290527,-1.2987115383148193,2.0599112510681152
1761383483759178000,4.434177978515625,0.4930928349494934,-0.11211639642715454,1.4221926927566528
1761383483769246700,4.444246826171875,-2.029764175415039,0.7649244070053101,0.5980185270309448
1761383483779317000,4.45431689453125,-4.1607346534729,1.2876732349395752,-0.2941092550754547
1761383483789385700,4.4643857421875,-5.80190372467041,1.5332512855529785,-1.0794450044631958
1761383483799456000,4.4744560546875,-6.966558456420898,1.6741509437561035,-1.7436823844909668
1761383483809524700,4.484524658203125,-7.801253795623779,1.7436988353729248,-2.2852444648742676
1761383483819594800,4.4945947265625,-8.44930648803711,1.8107998371124268,-2.725558280944824
1761383483829664000,4.5046640625,-9.04448127746582,1.9870549440383911,-3.0839595794677734
1761383483839733800,4.514733642578125,-9.663568496704102,2.203439950942993,-3.3867835998535156
1761383483849803000,4.524802978515625,-10.255182266235352,2.3866679668426514,-3.6591248512268066
1761383483859872800,4.534872802734375,-10.707809448242188,2.5505943298339844,-3.8270599842071533
1761383483869942000,4.54494189453125,-10.844181060791016,2.4981448650360107,-3.755157947540283
1761383483880011800,4.55501171875,-10.373806953430176,2.3813576698303223,-3.284740924835205
1761383483890081000,4.5650810546875,-9.040846824645996,2.362333297729492,-2.2494728565216064
1761383483900150800,4.57515087890625,-6.919349670410156,2.3317673206329346,-0.7436420917510986
1761383483910220800,4.585220703125,-4.285037517547607,1.9809942245483398,0.7007240056991577
1761383483920290000,4.5952900390625,-1.3462477922439575,1.3354634046554565,1.4875967502593994
1761383483930358800,4.60535888671875,1.6687815189361572,0.4142661392688751,1.6173110008239746
1761383483940429000,4.615428955078125,4.4518609046936035,-0.6828041672706604,1.449302315711975
1761383483950498800,4.625498779296875,6.735685348510742,-1.5190945863723755,1.2428772449493408
1761383483960568000,4.635568115234375,8.414857864379883,-1.8209322690963745,1.1045122146606445
1761383483970637800,4.645637939453125,9.566004753112793,-1.6584078073501587,1.0755764245986938
1761383483980706800,4.655706787109375,10.317157745361328,-1.193589210510254,1.097241997718811
1761383483990776800,4.66577685546875,10.814295768737793,-0.7005918622016907,1.1177595853805542
1761383484000845800,4.675845703125,11.193668365478516,-0.42726072669029236,1.0356969833374023
1761383484010916000,4.685916015625,11.421892166137695,-0.7356480956077576,0.8770033121109009
1761383484020984800,4.69598486328125,11.210332870483398,-1.7904216051101685,0.7846371531486511
1761383484031054800,4.706054931640625,10.2893705368042,-2.926766872406006,0.7762068510055542
1761383484041123800,4.716123779296875,8.625808715820312,-3.281536102294922,0.7982714176177979
1761383484051193900,4.72619384765625,6.255135536193848,-2.576566696166992,0.7668678164482117
1761383484061262800,4.736262939453125,3.3592495918273926,-1.2024849653244019,0.7068329453468323
1761383484071332900,4.746332763671875,0.2852763235569,0.3436247408390045,0.5635165572166443
1761383484081401900,4.75640185546875,-2.5505471229553223,1.5065416097640991,0.32814183831214905
1761383484091472000,4.766471923828125,-4.8047943115234375,2.0846047401428223,0.009004645049571991
1761383484101540900,4.776540771484375,-6.445831775665283,2.209533929824829,-0.3752674162387848
1761383484111611000,4.78661083984375,-7.553897857666016,2.087831735610962,-0.8431998491287231
1761383484121680000,4.796679931640625,-8.298431396484375,1.924978494644165,-1.3506754636764526
1761383484131750000,4.80675,-8.87097454071045,1.8281530141830444,-1.828037977218628
1761383484141819000,4.81681884765625,-9.43316650390625,1.92316472530365,-2.241452217102051
1761383484151889000,4.826888916015625,-10.108687400817871,2.246314287185669,-2.5234649181365967
1761383484161958000,4.8369580078125,-10.838090896606445,2.658979892730713,-2.638972759246826
1761383484172028000,4.84702783203125,-11.407668113708496,2.8316409587860107,-2.63832950592041
1761383484182097000,4.857096923828125,-11.501113891601562,2.651749610900879,-2.58838152885437
1761383484192167000,4.8671669921875,-10.728906631469727,2.400299072265625,-2.2728774547576904
1761383484202236000,4.87723583984375,-8.762773513793945,2.162715196609497,-1.424124836921692
1761383484212305700,4.8873056640625,-5.715090751647949,1.6812527179718018,-0.12229851633310318
1761383484222375000,4.897375,-2.158355712890625,0.7590155005455017,1.0026289224624634
1761383484232445000,4.90744482421875,1.3811813592910767,-0.3529722988605499,1.4468721151351929
1761383484242514000,4.917513916015625,4.479025840759277,-1.5528103113174438,1.4368802309036255
1761383484252584000,4.927583984375,6.910282611846924,-2.4344213008880615,1.296268105506897
1761383484262653000,4.93765283203125,8.650053977966309,-2.7286295890808105,1.1483782529830933
1761383484272723000,4.947722900390625,9.805492401123047,-2.5272979736328125,1.0447571277618408
1761383484282792000,4.9577919921875,10.527326583862305,-2.117795944213867,0.9897559285163879
1761383484292862000,4.967862060546875,10.99525260925293,-1.6733161211013794,0.9015453457832336
1761383484302931000,4.977930908203125,11.383294105529785,-1.4169005155563354,0.7790021300315857
1761383484313001000,4.9880009765625,11.646153450012207,-1.8380706310272217,0.7263755798339844
1761383484323071000,4.998071044921875,11.543661117553711,-2.855550527572632,0.8524107336997986
1761383484333140000,5.008139892578125,10.833202362060547,-3.788748264312744,1.1523809432983398
1761383484343210000,5.0182099609375,9.302992820739746,-4.073736667633057,1.557416558265686
1761383484353279000,5.028279052734375,6.847156524658203,-3.3550591468811035,1.8308545351028442
1761383484363349000,5.038348876953125,3.647613525390625,-1.8239154815673828,1.7408097982406616
1761383484373417700,5.048417724609375,0.17184802889823914,0.010982822626829147,1.2212716341018677
1761383484383488000,5.058488037109375,-3.0857815742492676,1.4720617532730103,0.42820116877555847
1761383484393556700,5.068556640625,-5.765620231628418,2.379786729812622,-0.3902222216129303
1761383484403627000,5.078626953125,-7.718185901641846,2.917226791381836,-1.0736689567565918
1761383484413695700,5.08869580078125,-9.075654029846191,3.216001272201538,-1.544827938079834
1761383484423766000,5.09876611328125,-9.999308586120605,3.487440347671509,-1.8444825410842896
1761383484433834800,5.108834716796875,-10.61429500579834,3.666599750518799,-2.0665767192840576
1761383484443904800,5.11890478515625,-10.985323905944824,3.71044921875,-2.23705792427063
1761383484453974000,5.12897412109375,-11.08017635345459,3.45528507232666,-2.3510780334472656
1761383484464043800,5.139043701171875,-10.7452974319458,2.7457492351531982,-2.366525411605835
1761383484474113000,5.149113037109375,-9.819060325622559,1.5915331840515137,-2.1086196899414062
1761383484484182800,5.159182861328125,-8.292695045471191,0.2709980905056,-1.4995440244674683
1761383484494252000,5.169251953125,-6.075196743011475,-0.4953390657901764,-0.6128262281417847
1761383484504321800,5.17932177734375,-3.381122350692749,-0.7733718156814575,0.47188615798950195
1761383484514391000,5.18939111328125,-0.6473000049591064,-0.9046891927719116,1.4167729616165161
1761383484524460800,5.199460693359375,1.9973981380462646,-1.1258360147476196,1.8678970336914062
1761383484534530000,5.209530029296875,4.390937328338623,-1.6111854314804077,1.9269309043884277
1761383484544600000,5.21960009765625,6.345100402832031,-2.0633363723754883,1.8677473068237305
1761383484554668800,5.229668701171875,7.868729114532471,-1.96918785572052,1.7474697828292847
1761383484564739000,5.239739013671875,8.972199440002441,-1.2938953638076782,1.5787478685379028
1761383484574807800,5.249807861328125,9.725594520568848,-0.37533801794052124,1.3449848890304565
1761383484584878000,5.259878173828125,10.311262130737305,0.4886593520641327,1.040623664855957
1761383484594946800,5.26994677734375,10.865883827209473,0.8976138234138489,0.7144663333892822
1761383484605016800,5.280016845703125,11.352553367614746,0.48407360911369324,0.3946382701396942
1761383484615084000,5.290083984375,11.60705280303955,-0.8270626068115234,0.17040401697158813
1761383484625153800,5.30015380859375,11.340514183044434,-2.4207894802093506,0.17093771696090698
1761383484635222800,5.310222900390625,10.33161735534668,-3.5282795429229736,0.4784375727176666
1761383484645293000,5.32029296875,8.52001667022705,-3.6013660430908203,0.9678242802619934
1761383484655361800,5.33036181640625,5.851380348205566,-2.6181328296661377,1.4254993200302124
1761383484665432000,5.34043212890625,2.5559279918670654,-1.0083690881729126,1.5887027978897095
1761383484675500800,5.350500732421875,-0.8582532405853271,0.7415238618850708,1.3216779232025146
1761383484685571000,5.360571044921875,-3.889270782470703,2.054304838180542,0.7831481695175171
1761383484695639800,5.370639892578125,-6.149707317352295,2.6728689670562744,0.2455938458442688
1761383484705709800,5.380709716796875,-7.627607345581055,2.7775285243988037,-0.17154346406459808
1761383484715778800,5.39077880859375,-8.525017738342285,2.5012166500091553,-0.5419038534164429
1761383484725848800,5.400848876953125,-9.070385932922363,2.136286973953247,-0.9082983136177063
1761383484735921700,5.410921630859375,-9.46139907836914,1.849334955215454,-1.2705671787261963
1761383484745991700,5.42099169921875,-9.882303237915039,1.8083542585372925,-1.6500858068466187
1761383484756060700,5.431060791015625,-10.410416603088379,2.033569812774658,-1.9773211479187012
1761383484766130700,5.441130615234375,-10.906554222106934,2.33001971244812,-2.203420400619507
1761383484776199700,5.45119970703125,-11.051133155822754,2.3836536407470703,-2.332976818084717
1761383484786269700,5.461269775390625,-10.510900497436523,1.9743242263793945,-2.271733283996582
1761383484796339500,5.47133935546875,-8.9194974899292,1.2385069131851196,-1.782814860343933
1761383484806408700,5.48140869140625,-6.329298973083496,0.09389671683311462,-0.7100318074226379
1761383484816478500,5.491478515625,-3.243989944458008,-1.1995904445648193,0.49564963579177856
1761383484826547700,5.501547607421875,-0.17068186402320862,-1.9262772798538208,1.115546703338623
1761383484836617700,5.51161767578125,2.441526412963867,-2.1520838737487793,1.1431235074996948
1761383484846686700,5.521686767578125,4.511510372161865,-2.1036276817321777,0.9073532819747925
1761383484856756700,5.5317568359375,6.087812423706055,-1.9374535083770752,0.628171980381012
1761383484866825500,5.541825439453125,7.255371570587158,-1.7749570608139038,0.44643574953079224
1761383484876895700,5.551895751953125,8.16741943359375,-1.5656934976577759,0.3263472318649292
1761383484886964500,5.561964599609375,8.894607543945312,-1.5191686153411865,0.2832927107810974
1761383484897034800,5.57203466796875,9.439775466918945,-1.805105209350586,0.3209008276462555
1761383484907103500,5.582103515625,9.782649040222168,-2.4108431339263916,0.42584535479545593
1761383484917173500,5.592173583984375,9.72797679901123,-3.2758846282958984,0.625933051109314
1761383484927242500,5.602242431640625,9.08447265625,-4.026044845581055,0.8496524691581726
1761383484937312500,5.6123125,7.72424840927124,-4.146465301513672,0.9691644906997681
1761383484947381500,5.622381591796875,5.588808536529541,-3.4590237140655518,0.9110154509544373
1761383484957451500,5.632451416015625,2.83439302444458,-2.138256788253784,0.5973040461540222
1761383484967520800,5.642520751953125,-0.16200514137744904,-0.4068529009819031,0.07056863605976105
1761383484977590500,5.652590576171875,-3.035762310028076,1.2414606809616089,-0.4244846999645233
1761383484987659800,5.66265966796875,-5.447386741638184,2.3996195793151855,-0.6810470223426819
1761383484997729500,5.6727294921875,-7.249774932861328,3.1330273151397705,-0.7336995601654053
1761383485007798800,5.682798828125,-8.541136741638184,3.5462112426757812,-0.705266535282135
1761383485017868500,5.69286865234375,-9.426135063171387,3.7274351119995117,-0.6176860332489014
1761383485027937500,5.7029375,-9.97042465209961,3.6897754669189453,-0.5335368514060974
1761383485038007600,5.713007568359375,-10.175859451293945,3.3179831504821777,-0.4876154065132141
1761383485048076500,5.72307666015625,-9.979920387268066,2.5217771530151367,-0.47755637764930725
1761383485058146800,5.733146728515625,-9.343598365783691,1.2744269371032715,-0.4681544005870819
1761383485068215600,5.743215576171875,-8.254860877990723,-0.13497868180274963,-0.39280372858047485
1761383485078285600,5.75328564453125,-6.814619541168213,-1.279730200767517,-0.16452167928218842
1761383485088354600,5.7633544921875,-5.035862445831299,-1.542873740196228,0.2516651451587677
1761383485098424600,5.773424560546875,-3.149587631225586,-1.0819947719573975,0.8772537112236023
1761383485108493600,5.78349365234375,-1.2555620670318604,-0.4665220379829407,1.3795421123504639
1761383485118563600,5.7935634765625,0.7673003673553467,-0.273479163646698,1.481507420539856
1761383485128632600,5.803632568359375,2.8879153728485107,-0.719989001750946,1.4187684059143066
1761383485138702600,5.81370263671875,4.945664882659912,-1.430940866470337,1.4302043914794922
1761383485148771600,5.823771484375,6.73684549331665,-1.8579403162002563,1.5366663932800293
1761383485158841600,5.833841552734375,8.137008666992188,-1.8267769813537598,1.6772981882095337
1761383485168910600,5.84391064453125,9.18807315826416,-1.4578490257263184,1.8104900121688843
1761383485178980600,5.853980712890625,9.967432975769043,-1.0599817037582397,1.9633508920669556
1761383485189049600,5.864049560546875,10.583664894104004,-0.864672064781189,2.0930440425872803
1761383485199119600,5.87411962890625,11.0787992477417,-1.1091612577438354,2.159240484237671
1761383485209188600,5.884188720703125,11.291881561279297,-1.9545729160308838,2.265491485595703
1761383485219258600,5.894258544921875,10.891250610351562,-3.009869337081909,2.4160749912261963
1761383485229327600,5.90432763671875,9.735647201538086,-3.53920316696167,2.597458839416504
1761383485239398700,5.914398681640625,7.698252201080322,-3.0917606353759766,2.6700708866119385
1761383485249467600,5.924467529296875,4.874218463897705,-1.8524513244628906,2.370811700820923
1761383485259537700,5.93453759765625,1.6271134614944458,-0.23800525069236755,1.6264739036560059
1761383485269606700,5.944606689453125,-1.565218210220337,1.3219144344329834,0.6658524870872498
1761383485279676700,5.9546767578125,-4.224528789520264,2.437892436981201,-0.22215601801872253
1761383485289745700,5.96474560546875,-6.104085922241211,3.0049586296081543,-0.8591676354408264
1761383485299815700,5.974815673828125,-7.240397930145264,3.049318313598633,-1.342045783996582
1761383485309884700,5.984884765625,-7.852470874786377,2.8037028312683105,-1.7947232723236084
1761383485319954700,5.99495458984375,-8.166521072387695,2.4339051246643066,-2.2536659240722656
1761383485330023400,6.0050234375,-8.378498077392578,2.1710047721862793,-2.7105157375335693
1761383485340093700,6.01509375,-8.619648933410645,2.1974823474884033,-3.102630615234375
1761383485350162400,6.025162353515625,-8.901205062866211,2.305356979370117,-3.353175401687622
1761383485360232700,6.035232666015625,-9.026955604553223,2.221327066421509,-3.403531551361084
1761383485370301400,6.045301513671875,-8.806374549865723,1.9375073909759521,-3.1513330936431885
1761383485380371500,6.055371337890625,-8.146604537963867,1.4329588413238525,-2.5126028060913086
1761383485390440700,6.065440673828125,-6.925554275512695,0.801712155342102,-1.573930025100708
1761383485400510500,6.075510498046875,-5.132674694061279,0.36683183908462524,-0.5397965908050537
1761383485410579700,6.085579833984375,-3.020064353942871,0.0026445803232491016,0.45171263813972473
1761383485420649500,6.0956494140625,-0.8097830414772034,-0.2169509083032608,1.1691948175430298
1761383485430718700,6.10571875,1.2689692974090576,-0.5154760479927063,1.5502619743347168
1761383485440788500,6.11578857421875,3.106502056121826,-0.9047940373420715,1.6714049577713013
1761383485450857700,6.125857666015625,4.629092693328857,-1.2653894424438477,1.617027997970581
1761383485460927500,6.135927490234375,5.848100185394287,-1.5064542293548584,1.489253044128418
1761383485470996700,6.145996826171875,6.767062187194824,-1.6729105710983276,1.3708332777023315
1761383485481066800,6.156066650390625,7.444522380828857,-1.7009608745574951,1.2838451862335205
1761383485491135500,6.166135498046875,7.935513496398926,-1.6123980283737183,1.180696964263916
1761383485501205800,6.176205810546875,8.231278419494629,-1.5739799737930298,1.0656901597976685
1761383485511274500,6.1862744140625,8.251649856567383,-1.7133283615112305,0.9752547740936279
1761383485521344800,6.1963447265625,7.908589839935303,-1.9650037288665771,0.8774192333221436
1761383485531413500,6.20641357421875,7.0386881828308105,-2.1133804321289062,0.7400648593902588
1761383485541483500,6.2164833984375,5.587619304656982,-1.8714748620986938,0.5426445007324219
1761383485551552500,6.226552490234375,3.705782175064087,-1.2344443798065186,0.2857106924057007
1761383485561622500,6.23662255859375,1.6007448434829712,-0.3458945155143738,0.050175994634628296
1761383485571691500,6.24669140625,-0.5382863283157349,0.6994718313217163,-0.12887844443321228
1761383485581761500,6.256761474609375,-2.4836812019348145,1.5717105865478516,-0.2521390914916992
1761383485591830500,6.26683056640625,-4.022828102111816,2.118215322494507,-0.35887590050697327
1761383485601900500,6.276900634765625,-5.173369407653809,2.3067522048950195,-0.4784783720970154
1761383485611969800,6.2869697265625,-5.966394901275635,2.263235569000244,-0.6228533387184143
1761383485622039600,6.29703955078125,-6.481439590454102,2.134862184524536,-0.802627444267273
1761383485632108800,6.30710888671875,-6.796701431274414,1.9702376127243042,-0.996141791343689
1761383485642178600,6.317178466796875,-6.9544196128845215,1.7834126949310303,-1.1364831924438477
1761383485652247600,6.32724755859375,-6.983062744140625,1.5761796236038208,-1.1972591876983643
1761383485662317600,6.337317626953125,-6.943581581115723,1.3423467874526978,-1.204306721687317
1761383485672387600,6.3473876953125,-6.850978374481201,1.1402064561843872,-1.1999436616897583
1761383485682456600,6.35745654296875,-6.692659854888916,0.9730746150016785,-1.158263087272644
1761383485692525600,6.367525634765625,-6.360209941864014,0.8361468315124512,-1.0409013032913208
1761383485702595600,6.377595703125,-5.738238334655762,0.8493492603302002,-0.8090620040893555
1761383485712665600,6.38766552734375,-4.697120666503906,1.0174674987792969,-0.4516894817352295
1761383485722734600,6.397734619140625,-3.2371578216552734,1.0650951862335205,0.02310774475336075
1761383485732804600,6.4078046875,-1.49062979221344,0.9697401523590088,0.470071941614151
1761383485742870000,6.4178701171875,0.3967875838279724,0.6474784016609192,0.7971004247665405
1761383485752940000,6.42793994140625,2.3384034633636475,0.14686720073223114,0.9846402406692505
1761383485763009000,6.438009033203125,4.190842151641846,-0.5019553303718567,0.9706004858016968
1761383485773079000,6.4480791015625,5.829721927642822,-1.1477676630020142,0.7487218379974365
1761383485783148000,6.45814794921875,7.207265377044678,-1.690258502960205,0.4582429826259613
1761383485793217800,6.4682177734375,8.321696281433105,-2.1034562587738037,0.265533983707428
1761383485803287000,6.478287109375,9.181021690368652,-2.4220619201660156,0.18349270522594452
1761383485813357000,6.488357177734375,9.810596466064453,-2.768402338027954,0.20816315710544586
1761383485823426000,6.498426025390625,10.061513900756836,-3.2125980854034424,0.3287026882171631
1761383485833496000,6.50849609375,9.734624862670898,-3.574923515319824,0.5534404516220093
1761383485843565000,6.51856494140625,8.554953575134277,-3.6405136585235596,0.8584283590316772
1761383485853635000,6.528635009765625,6.477360248565674,-2.9822158813476562,0.9508142471313477
1761383485863704000,6.5387041015625,3.785149097442627,-1.4963469505310059,0.6555185317993164
1761383485873774000,6.548774169921875,0.8462913036346436,0.2501393258571625,0.1244274452328682
1761383485883843000,6.558843017578125,-1.96461820602417,1.7776051759719849,-0.44137856364250183
1761383485893913000,6.5689130859375,-4.267949104309082,2.7813920974731445,-0.8296307325363159
1761383485903981800,6.57898193359375,-5.958464622497559,3.2890586853027344,-1.012126088142395
1761383485914052000,6.589052001953125,-7.104176998138428,3.4423251152038574,-1.0785471200942993
1761383485924120800,6.599120849609375,-7.806852340698242,3.4564061164855957,-1.0839767456054688
1761383485934191000,6.609191162109375,-8.192216873168945,3.3109612464904785,-1.080962061882019
1761383485944260000,6.619260009765625,-8.313924789428711,2.9296929836273193,-1.1347525119781494
1761383485954329900,6.629329833984375,-8.099637031555176,2.250990629196167,-1.2155557870864868
1761383485964399000,6.639399169921875,-7.480563640594482,1.141080617904663,-1.2805633544921875
1761383485974468900,6.64946875,-6.431707859039307,-0.11251985281705856,-1.176806926727295
1761383485984538000,6.6595380859375,-5.132883548736572,-1.0252764225006104,-0.813869059085846
1761383485994607900,6.66960791015625,-3.7288005352020264,-1.3344146013259888,-0.142942875623703
1761383486004677000,6.679677001953125,-2.2676823139190674,-1.1756863594055176,0.7181868553161621
1761383486014747000,6.689746826171875,-0.7948353886604309,-0.819378137588501,1.4678843021392822
1761383486024816000,6.699816162109375,0.670966625213623,-0.5743893980979919,1.9194008111953735
1761383486034886100,6.70988623046875,2.1742208003997803,-0.3696162700653076,2.107196569442749
1761383486044955100,6.719955078125,3.5620760917663574,-0.42097026109695435,2.167417049407959
1761383486055025200,6.730025146484375,4.810428142547607,-0.6019272208213806,2.1465280055999756
1761383486065094000,6.740093994140625,5.882012844085693,-0.7324113249778748,2.061779260635376
1761383486075164200,6.7501640625,6.742339134216309,-0.7690577507019043,1.9584449529647827
1761383486085233000,6.76023291015625,7.390987873077393,-0.7652923464775085,1.882452130317688
1761383486095303200,6.77030322265625,7.8196821212768555,-0.8259586095809937,1.7804608345031738
1761383486105372000,6.780371826171875,8.019293785095215,-1.0929449796676636,1.6027464866638184
1761383486115442000,6.79044189453125,7.867978096008301,-1.6361608505249023,1.4068794250488281
1761383486125511000,6.800510986328125,7.215363025665283,-2.1356637477874756,1.2179714441299438
1761383486135581000,6.810580810546875,5.936494827270508,-2.267944812774658,1.0231037139892578
1761383486145650000,6.82064990234375,4.101984977722168,-1.8717185258865356,0.7615498304367065
1761383486155720000,6.830719970703125,1.8826545476913452,-0.9991602301597595,0.3695565164089203
1761383486165789200,6.8407890625,-0.5294508337974548,0.11797616630792618,-0.03720610961318016
1761383486175859000,6.85085888671875,-2.8404629230499268,1.2186917066574097,-0.3588866889476776
1761383486185928200,6.86092822265625,-4.7630085945129395,2.071712017059326,-0.5201590061187744
1761383486195998000,6.870998046875,-6.262447834014893,2.664163589477539,-0.5861465334892273
1761383486206067200,6.881067138671875,-7.392213821411133,2.9735705852508545,-0.6336647272109985
1761383486216137000,6.891136962890625,-8.192910194396973,3.0721516609191895,-0.6965520977973938
1761383486226206000,6.9012060546875,-8.74738883972168,2.9636898040771484,-0.8008049130439758
1761383486236276000,6.91127587890625,-9.069587707519531,2.6721925735473633,-1.0071016550064087
1761383486246345000,6.921344970703125,-9.089585304260254,2.0852017402648926,-1.3488013744354248
1761383486256415200,6.931415283203125,-8.70140552520752,1.250731348991394,-1.6971322298049927
1761383486266484000,6.94148388671875,-7.869638919830322,0.25795188546180725,-1.876427412033081
1761383486276554000,6.951553955078125,-6.613730430603027,-0.43036526441574097,-1.762217402458191
1761383486286623000,6.961623046875,-4.999303340911865,-0.6860397458076477,-1.233046054840088
1761383486296693000,6.97169287109375,-3.1189346313476562,-0.781956672668457,-0.4121045172214508
1761383486306762000,6.981761962890625,-1.073468565940857,-0.7640380263328552,0.3079160153865814
1761383486316832000,6.99183203125,0.9975486397743225,-0.8476399779319763,0.7468746900558472
1761383486326901000,7.00190087890625,2.931429624557495,-1.0602102279663086,0.9590659141540527
1761383486336971000,7.011970947265625,4.619729042053223,-1.2855770587921143,1.037635087966919
1761383486347040000,7.0220400390625,6.021620273590088,-1.486858606338501,1.1014951467514038
1761383486357110000,7.032110107421875,7.169638633728027,-1.487951636314392,1.2021586894989014
1761383486367179000,7.042178955078125,8.091957092285156,-1.0874236822128296,1.284773826599121
1761383486377249000,7.0522490234375,8.706127166748047,-0.506914496421814,1.314669132232666
1761383486387318000,7.062318115234375,9.073723793029785,0.12896457314491272,1.1908022165298462
1761383486397388000,7.072387939453125,9.23209285736084,0.35331031680107117,0.901178240776062
1761383486407457000,7.08245703125,9.12095832824707,-0.2194695919752121,0.5676528811454773
1761383486417527000,7.092527099609375,8.485692977905273,-1.321803331375122,0.3348102867603302
1761383486427596000,7.102595947265625,7.244590759277344,-1.9614295959472656,0.1673554927110672
1761383486437666000,7.112666015625,5.470250606536865,-1.6193351745605469,0.026591992005705833
1761383486447735000,7.122735107421875,3.251755952835083,-0.7674881815910339,-0.07358039915561676
1761383486457804800,7.1328046875,0.8519968390464783,0.1584273725748062,-0.11637100577354431
1761383486467875000,7.142875,-1.4565160274505615,0.9546576142311096,-0.17020639777183533
1761383486477943800,7.15294384765625,-3.480360269546509,1.5918700695037842,-0.2645843029022217
1761383486488014000,7.16301416015625,-5.077605724334717,1.9565409421920776,-0.3212917745113373
1761383486498083000,7.1730830078125,-6.277676582336426,2.0489532947540283,-0.3457949757575989
1761383486508152000,7.183152099609375,-7.166541576385498,1.9982274770736694,-0.419162392616272
1761383486518222000,7.19322216796875,-7.854233741760254,1.9253900051116943,-0.5485067963600159
1761383486528291800,7.203291748046875,-8.471477508544922,1.797179937362671,-0.7306162714958191
1761383486538361000,7.213361083984375,-9.045206069946289,1.6868243217468262,-0.9159334301948547
1761383486548430800,7.223430908203125,-9.544236183166504,1.5804903507232666,-1.0767780542373657
1761383486558500000,7.2335,-9.88077163696289,1.3362033367156982,-1.242233395576477
1761383486568569900,7.24356982421875,-9.89824390411377,0.8798595070838928,-1.3504904508590698
1761383486578639000,7.25363916015625,-9.410758018493652,0.6720895171165466,-1.2139573097229004
1761383486588709000,7.263709228515625,-8.28480052947998,1.130584478378296,-0.6286684274673462
1761383486598778000,7.273778076171875,-6.6066179275512695,1.7949973344802856,0.3304985761642456
1761383486608848100,7.28384814453125,-4.477662086486816,1.9746079444885254,1.117473840713501
1761383486618916900,7.293916748046875,-1.9987821578979492,1.3489069938659668,1.3029001951217651
1761383486628987100,7.303987060546875,0.7154341340065002,0.17598280310630798,1.0700894594192505
1761383486639056000,7.314055908203125,3.3983538150787354,-1.1238981485366821,0.7402197122573853
1761383486649126100,7.324126220703125,5.735105514526367,-2.1082963943481445,0.48993369936943054
1761383486659195000,7.33419482421875,7.5370917320251465,-2.4915308952331543,0.35328611731529236
1761383486669265200,7.34426513671875,8.765874862670898,-2.459238290786743,0.37561550736427307
1761383486679334000,7.354333984375,9.57186508178711,-2.0912411212921143,0.5040217041969299
1761383486689404000,7.36440380859375,10.080772399902344,-1.577468752861023,0.6405465602874756
1761383486699473000,7.374472900390625,10.388282775878906,-1.082679033279419,0.7157667875289917
1761383486709543000,7.38454296875,10.526123046875,-0.8334392309188843,0.6669535040855408
1761383486719612200,7.394612060546875,10.401226043701172,-1.2157474756240845,0.5365725755691528
1761383486729682000,7.404681884765625,9.762972831726074,-2.1897432804107666,0.4805813431739807
1761383486739751400,7.41475146484375,8.419146537780762,-3.004956007003784,0.5311052203178406
1761383486749821400,7.424821533203125,6.386087894439697,-2.9786057472229004,0.5810911655426025
1761383486759890400,7.434890380859375,3.899163246154785,-1.895363688468933,0.5900987386703491
1761383486769960400,7.44496044921875,1.1020630598068237,-0.3466148376464844,0.5745866298675537
1761383486780029200,7.455029296875,-1.6276488304138184,1.1250660419464111,0.5285333395004272
1761383486790099500,7.465099365234375,-3.9611425399780273,1.9900766611099243,0.40488719940185547
1761383486800168200,7.475168212890625,-5.723251819610596,2.357416868209839,0.23019471764564514
1761383486810238500,7.485238525390625,-6.952271938323975,2.368513584136963,0.0003239312209188938
1761383486820307200,7.49530712890625,-7.769829273223877,2.2309725284576416,-0.2677975296974182
1761383486830377200,7.505377197265625,-8.305160522460938,1.9982810020446777,-0.5388590693473816
1761383486840446200,7.5154462890625,-8.62482738494873,1.7422678470611572,-0.8139575123786926
1761383486850516200,7.52551611328125,-8.761762619018555,1.4446724653244019,-1.0584722757339478
1761383486860585500,7.53558544921875,-8.67820930480957,0.9247683882713318,-1.1975712776184082
1761383486870655200,7.5456552734375,-8.247041702270508,0.3078193962574005,-1.1479747295379639
1761383486880724500,7.555724365234375,-7.297937393188477,-0.1295129358768463,-0.8870530724525452
1761383486890794200,7.565794189453125,-5.598222732543945,-0.24424007534980774,-0.42961564660072327
1761383486900863500,7.575863525390625,-3.270005226135254,-0.34996891021728516,0.1778964102268219
1761383486910933200,7.585933349609375,-0.7037096619606018,-0.7008768320083618,0.649442195892334
1761383486921002500,7.59600244140625,1.767948865890503,-1.3102608919143677,0.7244719862937927
1761383486931072300,7.606072265625,4.016234397888184,-1.944494366645813,0.5796728730201721
1761383486941141200,7.616141357421875,5.838223934173584,-2.41454815864563,0.5600975751876831
1761383486951211500,7.62621142578125,7.201475143432617,-2.451852321624756,0.7054932713508606
1761383486961280300,7.6362802734375,8.115274429321289,-1.9766855239868164,0.9189195036888123
1761383486971350500,7.6463505859375,8.643421173095703,-1.242672085762024,1.1075005531311035
1761383486981419300,7.656419189453125,8.955934524536133,-0.37587717175483704,1.2356311082839966
1761383486991489500,7.666489501953125,9.182807922363281,0.31491947174072266,1.3312318325042725
1761383487001558300,7.676558349609375,9.312626838684082,0.2036086767911911,1.4982719421386719
1761383487011628300,7.686628173828125,9.260845184326172,-0.656058669090271,1.7152260541915894
1761383487021697300,7.696697265625,8.708127975463867,-1.9609098434448242,1.909882664680481
1761383487031767300,7.706767333984375,7.396501064300537,-2.8875529766082764,1.9575763940811157
1761383487041836300,7.716836181640625,5.32217264175415,-2.680476188659668,1.7400484085083008
1761383487051906300,7.72690625,2.6670000553131104,-1.4587663412094116,1.1708624362945557
1761383487061975300,7.736975341796875,-0.2415582686662674,0.23895788192749023,0.47927626967430115
1761383487072045300,7.74704541015625,-2.9809653759002686,1.690751314163208,-0.02140146680176258
1761383487082114600,7.757114501953125,-5.153988838195801,2.6120126247406006,-0.21487027406692505
1761383487092184300,7.767184326171875,-6.737605571746826,2.996997117996216,-0.23584318161010742
1761383487102253300,7.77725341796875,-7.826841831207275,3.0452494621276855,-0.22431516647338867
1761383487112323300,7.7873232421875,-8.561365127563477,2.9335522651672363,-0.25548121333122253
1761383487122392300,7.797392333984375,-9.06963062286377,2.763741970062256,-0.37851420044898987
1761383487132462300,7.80746240234375,-9.44558048248291,2.557366132736206,-0.6073637008666992
1761383487142531300,7.81753125,-9.715826988220215,2.3248636722564697,-0.9180182218551636
1761383487152601300,7.827601318359375,-9.835651397705078,1.9241632223129272,-1.286834955215454
1761383487162670300,7.83767041015625,-9.631610870361328,1.381505012512207,-1.53416109085083
1761383487172740400,7.847740234375,-8.804659843444824,0.9081975221633911,-1.5699193477630615
1761383487182809300,7.857809326171875,-7.138285160064697,0.6735256314277649,-1.2936134338378906
1761383487192879400,7.86787939453125,-4.750463008880615,0.46480146050453186,-0.7072648406028748
1761383487202948400,7.8779482421875,-1.8660361766815186,0.30922597646713257,-0.0882260799407959
1761383487213018400,7.888018310546875,1.0786181688308716,-0.0957685187458992,0.2584248185157776
1761383487223087400,7.89808740234375,3.7695512771606445,-0.8602630496025085,0.2262311726808548
1761383487233157400,7.908157470703125,6.0611724853515625,-1.6905837059020996,0.0553659126162529
1761383487243226400,7.918226318359375,7.812126159667969,-2.260920763015747,0.005792767740786076
1761383487253296400,7.92829638671875,8.998161315917969,-2.46797251701355,0.09928036481142044
1761383487263365400,7.938365478515625,9.716360092163086,-2.3707804679870605,0.24268625676631927
1761383487273435400,7.948435302734375,10.076053619384766,-2.1689727306365967,0.32865196466445923
1761383487283504000,7.958504150390625,10.127219200134277,-2.0534286499023438,0.3472285568714142
1761383487293574400,7.968574462890625,9.853677749633789,-2.093097686767578,0.30932772159576416
1761383487303643400,7.978643310546875,9.000448226928711,-2.2454402446746826,0.20512807369232178
1761383487313713400,7.98871337890625,7.336523532867432,-2.1546287536621094,-0.03850699961185455
1761383487323782400,7.998782470703125,5.070642471313477,-1.4564876556396484,-0.4579218626022339
1761383487333852400,8.008852294921875,2.5111794471740723,-0.21369288861751556,-0.7517178058624268
1761383487343921400,8.01892138671875,-0.14988017082214355,1.2468645572662354,-0.5977783203125
1761383487353991200,8.0289912109375,-2.6435348987579346,2.567155599594116,-0.32563281059265137
1761383487364060400,8.039060302734375,-4.7240824699401855,3.365250825881958,0.09181927144527435
1761383487374130200,8.049130126953125,-6.306642532348633,3.653532028198242,0.36974218487739563
1761383487384199400,8.059199462890625,-7.437049388885498,3.6689064502716064,0.4298904836177826
1761383487394269400,8.06926953125,-8.275592803955078,3.4328854084014893,0.27957573533058167
1761383487404338400,8.07933837890625,-8.876280784606934,3.1176798343658447,-0.04536692798137665
1761383487414408400,8.089408447265624,-9.28387451171875,2.7822680473327637,-0.4090968370437622
1761383487424477400,8.0994775390625,-9.522163391113281,2.405277729034424,-0.6844319701194763
1761383487434547500,8.10954736328125,-9.508614540100098,2.0810067653656006,-0.7596924901008606
1761383487444616200,8.1196162109375,-9.093152046203613,1.809287190437317,-0.6082068681716919
1761383487454686500,8.1296865234375,-8.22364330291748,1.3219192028045654,-0.20223850011825562
1761383487464755200,8.139755126953125,-6.765817165374756,0.7958823442459106,0.3110666275024414
1761383487474825500,8.149825439453124,-4.69971227645874,0.41650810837745667,0.7719622850418091
1761383487484894200,8.159894287109376,-2.261876106262207,0.05377917364239693,1.0791631937026978
1761383487494964500,8.169964599609376,0.2762543559074402,-0.49443960189819336,1.1782581806182861
1761383487505033200,8.180033203125,2.7623002529144287,-1.161239504814148,1.103169560432434
1761383487515103200,8.190103271484375,5.015857219696045,-1.8078186511993408,0.9605321288108826
1761383487525172200,8.200172119140625,6.887279987335205,-2.350569248199463,0.8669931292533875
1761383487535242200,8.2102421875,8.3192777633667,-2.682187795639038,0.8566725850105286
1761383487545311500,8.2203115234375,9.34753131866455,-2.7183098793029785,0.8760002255439758
1761383487555381200,8.23038134765625,10.039254188537598,-2.5897367000579834,0.9160094857215881
1761383487565450500,8.240450439453125,10.480359077453613,-2.5019850730895996,0.9376439452171326
1761383487575520300,8.250520263671875,10.699762344360352,-2.6428143978118896,0.915702760219574
1761383487585589500,8.260589599609375,10.581372261047363,-3.0771069526672363,0.9212740659713745
1761383487595659300,8.2706591796875,9.887602806091309,-3.5598785877227783,0.9479897618293762
1761383487605728500,8.280728515625,8.437716484069824,-3.5830678939819336,0.9140586853027344
1761383487615798300,8.29079833984375,6.218665599822998,-2.8305864334106445,0.732869565486908
1761383487625867300,8.3008671875,3.456972599029541,-1.3845436573028564,0.3464834988117218
1761383487635937500,8.3109375,0.469369500875473,0.32501357793807983,-0.11469393223524094
1761383487646006300,8.32100634765625,-2.421539783477783,1.8574146032333374,-0.4471395015716553
1761383487656076500,8.33107666015625,-4.856167793273926,2.942631721496582,-0.5904198288917542
1761383487666145300,8.341145263671875,-6.693047523498535,3.591240406036377,-0.5663195252418518
1761383487676215300,8.35121533203125,-8.015932083129883,3.8753578662872314,-0.48849746584892273
1761383487686284300,8.3612841796875,-8.917716026306152,3.904801845550537,-0.45581382513046265
1761383487696354300,8.371354248046876,-9.513078689575195,3.7457871437072754,-0.48008736968040466
1761383487706423300,8.38142333984375,-9.861075401306152,3.3745181560516357,-0.5447292327880859
1761383487716493300,8.391493408203125,-9.915693283081055,2.6847712993621826,-0.7019956111907959
1761383487726562300,8.401562255859375,-9.567383766174316,1.6556074619293213,-0.9080963134765625
1761383487736635400,8.411635498046875,-8.776973724365234,0.5254945158958435,-0.9438791871070862
1761383487746704600,8.42170458984375,-7.482422351837158,-0.3338013291358948,-0.7307421565055847
1761383487756774400,8.4317744140625,-5.450281620025635,-0.20617616176605225,-0.2678694725036621
1761383487766843600,8.44184375,-2.9418070316314697,0.1780170500278473,0.4974002540111542
1761383487776913400,8.451913330078124,-0.43903791904449463,0.01435859315097332,1.184109091758728
1761383487786982700,8.461982666015626,1.9931868314743042,-0.6114368438720703,1.3661600351333618
1761383487797052400,8.472052490234375,4.174107074737549,-1.5136139392852783,1.2103297710418701
1761383487807121400,8.482121337890625,5.990354537963867,-2.227130889892578,1.0619629621505737
1761383487817191400,8.49219140625,7.361532211303711,-2.5109269618988037,1.068909764289856
1761383487827260400,8.502260498046875,8.272500038146973,-2.319301128387451,1.1589208841323853
1761383487837330700,8.51233056640625,8.833283424377441,-1.7811267375946045,1.2287293672561646
1761383487847399400,8.5223994140625,9.206852912902832,-1.152488350868225,1.2612758874893188
1761383487857469400,8.532469482421876,9.502105712890625,-0.8179599046707153,1.256556510925293
1761383487867538400,8.542538330078125,9.705307960510254,-0.9236953854560852,1.244227647781372
1761383487877608400,8.5526083984375,9.640750885009766,-1.574290156364441,1.2459114789962769
1761383487887677400,8.562677490234375,9.040682792663574,-2.5975167751312256,1.2345893383026123
1761383487897747500,8.57274755859375,7.709017276763916,-3.2565956115722656,1.1430530548095703
1761383487907816400,8.58281640625,5.7101359367370605,-2.949622869491577,0.8254927396774292
1761383487917886500,8.592886474609376,3.244232416152954,-1.750779628753662,0.3091197609901428
1761383487927955500,8.60295556640625,0.5458098649978638,-0.35062089562416077,-0.03214782848954201
1761383487938025500,8.613025390625,-2.05193829536438,1.3087407350540161,-0.34450453519821167
1761383487948094500,8.623094482421875,-4.363624095916748,2.5278685092926025,-0.6074884533882141
1761383487958164500,8.63316455078125,-6.122902870178223,3.2162067890167236,-0.7227113246917725
1761383487968233500,8.6432333984375,-7.381679534912109,3.4504401683807373,-0.7480571866035461
1761383487978303500,8.653303466796874,-8.23747730255127,3.5030128955841064,-0.8333932757377625
1761383487988372500,8.66337255859375,-8.8247709274292,3.4014382362365723,-0.9897708892822266
1761383487998442500,8.6734423828125,-9.199227333068848,3.264129161834717,-1.20484459400177
1761383488008511500,8.683511474609375,-9.42193603515625,3.049130916595459,-1.425790786743164
1761383488018581500,8.69358154296875,-9.4846773147583,2.6545751094818115,-1.5728522539138794
1761383488028650500,8.703650390625,-9.288615226745605,1.988208532333374,-1.647536039352417
1761383488038720300,8.71372021484375,-8.664484977722168,1.0552899837493896,-1.56196129322052
1761383488048789500,8.72378955078125,-7.296616077423096,0.49782851338386536,-1.253461480140686
1761383488058859500,8.733859619140626,-5.283009052276611,0.2050517499446869,-0.6271980404853821
1761383488068928500,8.743928466796875,-2.9056639671325684,-0.17162388563156128,0.16720587015151978
1761383488078998500,8.75399853515625,-0.3591446280479431,-0.43971526622772217,0.6974347829818726
1761383488089067500,8.764067626953125,1.9911383390426636,-0.972240149974823,0.8311119079589844
1761383488099137500,8.774137451171875,4.0715837478637695,-1.6025800704956055,0.6683806777000427
1761383488109206500,8.78420654296875,5.792309284210205,-2.104198694229126,0.46273425221443176
1761383488119276500,8.794276611328126,7.086225986480713,-2.392334461212158,0.4125007688999176
1761383488129345500,8.804345458984375,8.00915241241455,-2.3696839809417725,0.4764869511127472
1761383488139415600,8.81441552734375,8.61746883392334,-2.105139970779419,0.5463343262672424
1761383488149484300,8.824484375,8.974550247192383,-1.7766960859298706,0.5804574489593506
1761383488159554600,8.834554443359375,9.13370418548584,-1.6379570960998535,0.5875205397605896
1761383488169623300,8.844623291015624,9.025093078613281,-1.880003809928894,0.636653482913971
1761383488179693600,8.854693603515624,8.51383113861084,-2.389878034591675,0.7376339435577393
1761383488189762600,8.864762451171876,7.454620361328125,-2.8676533699035645,0.7991987466812134
1761383488199832300,8.874832275390625,5.864417552947998,-2.885364055633545,0.7457079291343689
1761383488209901600,8.884901611328125,3.9030137062072754,-2.246366262435913,0.5750675201416016
1761383488219971300,8.894971435546875,1.727734088897705,-1.164765477180481,0.45626622438430786
1761383488230040600,8.90504052734375,-0.47308599948883057,0.06194113940000534,0.47564205527305603
1761383488240110300,8.9151103515625,-2.4598801136016846,1.0432631969451904,0.5509845018386841
1761383488250179600,8.9251796875,-4.019572734832764,1.6708064079284668,0.5055813193321228
1761383488260249300,8.935249267578126,-5.194488048553467,1.8760201930999756,0.3219013512134552
1761383488270318600,8.945318603515625,-6.024714469909668,1.8019745349884033,0.04063399136066437
1761383488280388400,8.955388427734375,-6.633057594299316,1.673865556716919,-0.27661922574043274
1761383488290457600,8.96545751953125,-7.12890100479126,1.6838161945343018,-0.5885629653930664
1761383488300527600,8.975527587890625,-7.5839033126831055,1.8289260864257812,-0.8659201264381409
1761383488310596400,8.985596435546874,-7.992476940155029,1.9691581726074219,-1.0795857906341553
1761383488320666600,8.99566650390625,-8.27411937713623,1.9163395166397095,-1.22586190700531
1761383488330735400,9.0057353515625,-8.302056312561035,1.4988652467727661,-1.3259813785552979
1761383488340805600,9.0158056640625,-8.008055686950684,0.5740264654159546,-1.3901450634002686
1761383488350874400,9.025874267578125,-7.205896377563477,-0.24903275072574615,-1.3814173936843872
1761383488360944400,9.0359443359375,-6.017963409423828,-0.6105024814605713,-1.1044048070907593
1761383488371013400,9.046013427734374,-4.591869354248047,-0.4974856674671173,-0.5606101751327515
1761383488381083400,9.05608349609375,-3.0544991493225098,-0.23676374554634094,0.14139717817306519
1761383488391152400,9.06615234375,-1.4649158716201782,0.08597436547279358,0.7494290471076965
1761383488401222400,9.076222412109376,0.16167695820331573,0.3187713623046875,0.9269288182258606
1761383488411291400,9.08629150390625,1.8926892280578613,0.282833069562912,0.8123436570167542
1761383488421361400,9.096361328125,3.575902223587036,-0.2131601870059967,0.6650105118751526
1761383488431430700,9.1064306640625,5.0539164543151855,-0.8552746772766113,0.5668379068374634
1761383488441500400,9.11650048828125,6.3075714111328125,-1.2379939556121826,0.500622570514679
1761383488451569700,9.126569580078124,7.282634258270264,-1.398831844329834,0.4907068908214569
1761383488461639400,9.136639404296876,8.016575813293457,-1.3378276824951172,0.4966602325439453
1761383488471708400,9.14670849609375,8.583733558654785,-1.2321693897247314,0.46669623255729675
1761383488481778400,9.1567783203125,8.963313102722168,-1.423500657081604,0.4180014431476593
1761383488491847400,9.166847412109375,9.120978355407715,-2.0170938968658447,0.354965478181839
1761383488501917400,9.17691748046875,8.903922080993652,-2.8511805534362793,0.3280968964099884
1761383488511986400,9.186986328125,8.003311157226562,-3.5979738235473633,0.39208680391311646
1761383488522056700,9.197056640625,6.371147155761719,-3.615262508392334,0.4061377942562103
1761383488532125400,9.20712548828125,4.222881317138672,-2.7074785232543945,0.251087486743927
1761383488542195500,9.217195556640625,1.8481570482254028,-1.2007807493209839,0.04118017852306366
1761383488552264400,9.227264404296875,-0.5614901781082153,0.3751027584075928,-0.11200910806655884
1761383488562334500,9.23733447265625,-2.68662166595459,1.685868740081787,-0.16182133555412292
1761383488572403500,9.247403564453125,-4.304758071899414,2.519726276397705,-0.09973185509443283
1761383488582473500,9.257473388671874,-5.470780849456787,2.8830409049987793,-0.022678107023239136
1761383488592542500,9.26754248046875,-6.227097988128662,2.8713085651397705,0.0024323053658008575
1761383488602612500,9.277612548828126,-6.666790008544922,2.681452751159668,-0.05260593816637993
1761383488612680400,9.287680419921875,-6.908174514770508,2.411806583404541,-0.21590885519981384
1761383488622750500,9.29775048828125,-7.004599094390869,2.0736820697784424,-0.4622647166252136
1761383488632819500,9.3078193359375,-6.971507549285889,1.6363779306411743,-0.7763105034828186
1761383488642889500,9.317889404296874,-6.762463569641113,0.9861618876457214,-1.111518144607544
1761383488652958500,9.32795849609375,-6.3325042724609375,0.23246091604232788,-1.3111377954483032
1761383488663028500,9.338028564453126,-5.618077754974365,-0.21122196316719055,-1.3108372688293457
1761383488673097500,9.348097412109375,-4.698389530181885,-0.22207380831241608,-0.9869160056114197
1761383488683167500,9.35816748046875,-3.6042258739471436,0.05657648295164108,-0.4142970144748688
1761383488693236500,9.368236572265625,-2.2577216625213623,0.5291890501976013,0.20327593386173248
1761383488703306500,9.378306396484374,-0.6987652778625488,0.7902280688285828,0.6740072965621948
1761383488713375500,9.38837548828125,0.905275285243988,0.497775673866272,0.7937682867050171
1761383488723445500,9.398445556640626,2.5337352752685547,-0.16706722974777222,0.5516290664672852
1761383488733514500,9.408514404296875,4.091381072998047,-0.9115767478942871,0.20768451690673828
1761383488743581000,9.418580810546874,5.425991535186768,-1.6044974327087402,-0.013889821246266365
1761383488753649700,9.428649658203126,6.462154865264893,-2.171095609664917,-0.06439640372991562
1761383488763719700,9.4387197265625,7.130860328674316,-2.404561758041382,-0.07217421382665634
1761383488773788700,9.44878857421875,7.397883415222168,-2.350888252258301,-0.14261668920516968
1761383488783858700,9.458858642578125,7.236414432525635,-2.1279802322387695,-0.2649060785770416
1761383488793927700,9.468927734375,6.6595072746276855,-1.9356303215026855,-0.4147930443286896
1761383488803997700,9.478997802734375,5.703466892242432,-1.8216804265975952,-0.5775323510169983
1761383488814066700,9.489066650390624,4.451932430267334,-1.596706748008728,-0.7369219660758972
1761383488824136700,9.49913671875,2.996063232421875,-1.098252296447754,-0.7600738406181335
1761383488834205700,9.509205810546876,1.448906421661377,-0.39463314414024353,-0.5608454346656799
1761383488844275700,9.519275634765625,-0.02628416195511818,0.4205981194972992,-0.1598004251718521
1761383488854344700,9.5293447265625,-1.3295915126800537,1.0951483249664307,0.2767428159713745
1761383488864414700,9.539414794921875,-2.3563003540039062,1.5077908039093018,0.5454699993133545
1761383488874483700,9.549483642578124,-3.093615770339966,1.546188235282898,0.6064435839653015
1761383488884553700,9.5595537109375,-3.539893388748169,1.2568105459213257,0.5199497938156128
1761383488894622700,9.569622802734376,-3.7320661544799805,0.8761838674545288,0.3006315529346466
1761383488904692700,9.579692626953126,-3.7708446979522705,0.5777479410171509,0.046028874814510345
1761383488914761700,9.58976171875,-3.753514528274536,0.40490666031837463,-0.1611757129430771
1761383488924831700,9.599831787109375,-3.8163764476776123,0.30104902386665344,-0.2946520447731018
1761383488934900700,9.609900634765625,-4.057016372680664,0.3097913861274719,-0.40096515417099
1761383488944970500,9.619970458984374,-4.545829772949219,0.4847360849380493,-0.5697216391563416
1761383488955039700,9.630039794921874,-5.261169910430908,0.9654965996742249,-0.8001306056976318
1761383488965109800,9.64010986328125,-6.0696797370910645,1.6981079578399658,-1.1064585447311401
1761383488975178800,9.6501787109375,-6.73817253112793,2.497769594192505,-1.3951630592346191
1761383488985248800,9.660248779296875,-7.045438766479492,3.2021992206573486,-1.5628316402435303
1761383488995317800,9.67031787109375,-6.779991149902344,3.635938882827759,-1.5045232772827148
1761383489005387800,9.6803876953125,-5.7491326332092285,3.695505142211914,-1.1470911502838135
1761383489015456800,9.690456787109374,-4.020504474639893,3.273730993270874,-0.6282234787940979
1761383489025526800,9.70052685546875,-1.8094456195831299,2.3158295154571533,-0.2849876284599304
1761383489035595800,9.710595703125,0.7248714566230774,1.0664395093917847,-0.2593451142311096
1761383489045665800,9.720665771484375,3.2452480792999268,-0.3473145067691803,-0.4016684293746948
1761383489055734500,9.730734619140625,5.45179557800293,-1.7663936614990234,-0.4275919198989868
1761383489065804800,9.7408046875,7.194797039031982,-2.8410651683807373,-0.24486397206783295
1761383489075873500,9.75087353515625,8.341073989868164,-3.4049439430236816,0.04845819249749184
1761383489085943800,9.76094384765625,8.873037338256836,-3.5311496257781982,0.33182138204574585
1761383489096012800,9.7710126953125,8.781980514526367,-3.3640711307525635,0.4686117172241211
1761383489106082600,9.78108251953125,8.108345985412598,-3.0383543968200684,0.46267277002334595
1761383489116151800,9.79115185546875,6.849749565124512,-2.5828962326049805,0.32792240381240845
1761383489126221600,9.8012216796875,4.99528169631958,-1.8421295881271362,0.04622259736061096
1761383489136290800,9.811290771484375,2.774141550064087,-0.6570519208908081,-0.31815454363822937
1761383489146360600,9.821360595703124,0.5433550477027893,0.8348755836486816,-0.5598735809326172
1761383489156429800,9.831429931640624,-1.4417325258255005,2.1064717769622803,-0.5238697528839111
1761383489166499600,9.84149951171875,-2.928375244140625,2.855548620223999,-0.31200075149536133
1761383489176568800,9.85156884765625,-3.9037303924560547,2.909031867980957,-0.11881983280181885
1761383489186638800,9.861638916015625,-4.386764049530029,2.3779232501983643,-0.002632265444844961
1761383489196707800,9.871707763671875,-4.4448370933532715,1.6238278150558472,-0.00045326678082346916
1761383489206777900,9.88177783203125,-4.2074103355407715,0.840435802936554,-0.03736063838005066
1761383489216846600,9.8918466796875,-3.8290319442749023,0.1491931974887848,-0.03874574601650238
1761383489226916900,9.901916748046874,-3.4416208267211914,-0.39375942945480347,-0.020925503224134445
1761383489236986600,9.911986572265626,-3.1616814136505127,-0.8569251894950867,-0.045529648661613464
1761383489247056000,9.922055908203125,-3.0115363597869873,-1.1461204290390015,-0.08530226349830627
1761383489257125600,9.932125732421875,-3.0162105560302734,-1.2212698459625244,-0.06363026052713394
1761383489267194600,9.942194580078125,-3.11037015914917,-0.9864059090614319,0.1173490583896637
1761383489277265000,9.952264892578125,-3.1493942737579346,-0.4991222620010376,0.37983769178390503
1761383489287333600,9.962333740234374,-2.9669458866119385,0.023379262536764145,0.6033958792686462
1761383489297404000,9.97240380859375,-2.398611068725586,0.36515578627586365,0.7470492124557495
1761383489307472600,9.98247265625,-1.3347351551055908,0.33790266513824463,0.8127278089523315
1761383489317543000,9.99254296875,0.26747584342956543,0.02318146452307701,0.946809709072113
1761383489327611600,10.002611572265625,2.18216872215271,-0.426721453666687,1.267034649848938
1761383489337681700,10.012681640625,4.108621120452881,-1.0289524793624878,1.7106720209121704
1761383489347750700,10.022750732421875,5.8712477684021,-1.8373019695281982,2.131171703338623
1761383489357820700,10.032820556640624,7.344605445861816,-2.615771532058716,2.481459856033325
1761383489367889700,10.0428896484375,8.357768058776855,-3.0587615966796875,2.7376203536987305
1761383489377959700,10.052959716796876,8.74753189086914,-3.0758471488952637,2.8307507038116455
1761383489388028700,10.063028564453125,8.345738410949707,-2.652240753173828,2.6778407096862793
1761383489398098700,10.0730986328125,6.883195400238037,-1.9454643726348877,2.1473608016967773
1761383489408168000,10.08316796875,4.564524173736572,-0.8898459076881409,1.3263839483261108
1761383489418237700,10.09323779296875,1.8641082048416138,0.6213403344154358,0.2750478684902191
1761383489428307000,10.103306884765624,-0.8396329879760742,2.2605466842651367,-0.7026221752166748
1761383489438376700,10.113376708984376,-3.258336305618286,3.551259756088257,-1.548287034034729
1761383489448445700,10.12344580078125,-5.022477149963379,4.168952941894531,-2.0616602897644043
1761383489458515700,10.133515625,-6.059319019317627,4.249588489532471,-2.152240514755249
1761383489468584700,10.143584716796875,-6.475656032562256,3.9118852615356445,-2.074104070663452
1761383489478654700,10.15365478515625,-6.4140944480896,3.4929115772247314,-1.9869056940078735
1761383489488723700,10.1637236328125,-6.059010982513428,3.1284027099609375,-1.9504626989364624
1761383489498793700,10.173793701171874,-5.602575778961182,2.862375259399414,-2.0271244049072266
1761383489508862700,10.18386279296875,-5.220719814300537,2.7367618083953857,-2.196363687515259
1761383489518932700,10.1939326171875,-4.963099956512451,2.899631977081299,-2.439321517944336
1761383489529001700,10.204001708984375,-4.857826232910156,3.4278595447540283,-2.7347819805145264
1761383489539071700,10.21407177734375,-4.915762901306152,3.9548087120056152,-2.9402852058410645
1761383489549140700,10.224140625,-5.046458721160889,4.393586158752441,-2.9754576683044434
1761383489559209700,10.234209716796874,-5.131359100341797,4.653472423553467,-2.820971727371216
1761383489569279700,10.24427978515625,-5.022744655609131,4.2949652671813965,-2.5336732864379883
1761383489579348700,10.2543486328125,-4.637390613555908,3.7405126094818115,-2.1688709259033203
1761383489589418800,10.264418701171875,-4.054689884185791,3.3213703632354736,-1.7540005445480347
1761383489599487700,10.27448779296875,-3.3914806842803955,3.0620524883270264,-1.291398286819458
1761383489609557500,10.2845576171875,-2.7096784114837646,2.793382167816162,-0.8620527386665344
1761383489619626800,10.294626708984374,-2.092092990875244,2.3621535301208496,-0.5793994665145874
1761383489629696500,10.304696533203124,-1.5148223638534546,1.909559965133667,-0.5100612044334412
1761383489639765800,10.314765869140626,-1.0022757053375244,1.3338500261306763,-0.5645385384559631
1761383489649835800,10.324835693359375,-0.6059861183166504,0.8429749011993408,-0.7006537318229675
1761383489659904800,10.33490478515625,-0.23695588111877441,0.4883744716644287,-0.8128806352615356
1761383489669974800,10.344974853515625,0.007976479828357697,0.17872826755046844,-0.8939580917358398
1761383489680043800,10.355043701171875,0.0007949992432259023,0.0960051640868187,-1.060716152191162
1761383489690113800,10.36511376953125,-0.14377248287200928,-0.209285169839859,-1.5292829275131226
1761383489700182800,10.375182861328126,-0.28968173265457153,0.2634948790073395,-1.7122585773468018
1761383489710252800,10.385252685546876,-0.4885674715042114,0.5033113360404968,-1.9371036291122437
1761383489720321500,10.395321533203125,-0.7492156028747559,0.27059265971183777,-2.266313076019287
1761383489730391800,10.405391845703125,-1.0920072793960571,0.2182948738336563,-2.322763204574585
1761383489740461600,10.415461669921875,-1.2582935094833374,-0.13757163286209106,-2.3080103397369385
1761383489750531600,10.425531494140625,-1.1760615110397339,-0.9513648748397827,-2.2274930477142334
1761383489760600600,10.4356005859375,-0.9556668400764465,-2.087216854095459,-2.0579471588134766
1761383489770670600,10.445670654296874,-0.6688230633735657,-3.6238582134246826,-1.9486795663833618
1761383489780739600,10.455739501953126,-0.47841769456863403,-5.293402194976807,-1.9297285079956055
1761383489790809600,10.4658095703125,-0.37330082058906555,-7.013143539428711,-2.1393980979919434
1761383489800878600,10.475878662109375,-0.34701859951019287,-8.114289283752441,-2.442211866378784
1761383489810948600,10.485948486328125,-0.2916005253791809,-8.665349006652832,-2.8008663654327393
1761383489821017900,10.496017822265625,-0.14402088522911072,-8.928662300109863,-3.0775325298309326
1761383489831087600,10.506087646484374,-0.12009576708078384,-8.984014511108398,-3.2488653659820557
1761383489841156600,10.516156494140626,-0.679549515247345,-6.87685489654541,-3.4163596630096436
1761383489851226600,10.5262265625,-1.0630881786346436,-4.373020648956299,-2.7401466369628906
1761383489861295600,10.536295654296875,-1.6770933866500854,-1.8241215944290161,-2.555171251296997
1761383489871365600,10.54636572265625,-2.1910016536712646,-0.1838461309671402,-2.7192347049713135
1761383489881434600,10.5564345703125,-2.319679021835327,0.2116846889257431,-2.733726739883423
1761383489891504600,10.566504638671875,-2.165559768676758,0.3101111650466919,-2.4994852542877197
1761383489901573600,10.57657373046875,-1.95027756690979,0.34854137897491455,-2.1318655014038086
1761383489911643600,10.5866435546875,-1.7709548473358154,0.6357638239860535,-1.7244690656661987
1761383489921712600,10.596712646484375,-1.5953669548034668,0.6205241084098816,-1.269970178604126
1761383489931782700,10.60678271484375,-1.38455069065094,0.31871092319488525,-0.7284600138664246
1761383489941851600,10.6168515625,-1.2607673406600952,-0.271352082490921,-0.1626320332288742
1761383489951921700,10.626921630859375,-1.2409018278121948,-1.113976240158081,0.3343828022480011
1761383489961990700,10.63699072265625,-1.2051608562469482,-1.7121365070343018,0.8082797527313232
1761383489972060700,10.647060791015624,-1.133446455001831,-2.054241180419922,1.3400202989578247
1761383489982129700,10.657129638671876,-1.0375292301177979,-2.268988609313965,1.9008755683898926
1761383489992199700,10.66719970703125,-0.9127922654151917,-2.326655149459839,2.3907549381256104
1761383490002268700,10.6772685546875,-0.7866582870483398,-2.1627919673919678,2.759610414505005
1761383490012337700,10.687337646484375,-0.6375852227210999,-1.9906127452850342,3.003146171569824
1761383490022407400,10.697407470703125,-0.5068903565406799,-1.840807557106018,3.1225085258483887
1761383490032476700,10.7074765625,-0.4492066502571106,-1.6523606777191162,3.051903009414673
1761383490042546700,10.717546630859376,-0.4553031623363495,-1.462739109992981,2.7995030879974365
1761383490052615700,10.72761572265625,-0.4669129252433777,-1.2429594993591309,2.4824118614196777
1761383490062685700,10.737685791015625,-0.46477946639060974,-0.9807401895523071,2.1487832069396973
1761383490072754700,10.747754638671875,-0.4247860908508301,-0.6923753619194031,1.790152668952942
1761383490082824700,10.75782470703125,-0.3369446396827698,-0.4656948149204254,1.3978395462036133
1761383490092893700,10.767893798828124,-0.16183175146579742,-0.31164446473121643,0.9865235686302185
1761383490102963700,10.777963623046874,0.04575660079717636,-0.13622735440731049,0.6042270660400391
1761383490113032700,10.78803271484375,0.1880858689546585,0.08258619159460068,0.2657668888568878
1761383490123102700,10.798102783203126,0.26878470182418823,0.3058869242668152,-0.00930729229003191
1761383490133171500,10.80817138671875,0.3371537923812866,0.4451940655708313,-0.16810469329357147
1761383490143241700,10.81824169921875,0.3649614751338959,0.5132841467857361,-0.2105187326669693
1761383490153310500,10.828310546875,0.3363162577152252,0.6411566734313965,-0.18310128152370453
1761383490163380700,10.838380615234374,0.2719995975494385,0.805644154548645,-0.1367654800415039
1761383490173449700,10.84844970703125,0.19694292545318604,0.8780041933059692,-0.10588376969099045
1761383490183519500,10.85851953125,0.07706765830516815,0.884797215461731,0.04275017976760864
1761383490193588700,10.868588623046875,-0.06968392431735992,0.424679696559906,0.10185829550027847
1761383490203658500,10.878658447265625,-0.14096103608608246,-0.12289099395275116,0.10647008568048477
1761383490213727700,10.888727783203125,-0.0963774174451828,-0.3948073387145996,0.13839097321033478
1761383490223797500,10.898797607421875,-0.03213052079081535,-0.4526509642601013,0.12712819874286652
1761383490233866800,10.90886669921875,0.021893346682190895,-0.4243081510066986,0.050888266414403915
1761383490243936500,10.9189365234375,0.08765904605388641,-0.3518264889717102,-0.05409034714102745
1761383490254005800,10.929005859375,0.12497416883707047,-0.24237874150276184,-0.13986773788928986
