time,seconds_elapsed,z,y,x
1761384860134236400,0.054236328125,-0.998931884765625,-0.0247650146484375,0.0155029296875
1761384860144295400,0.06429541015625,-0.9989166259765625,-0.02386474609375,0.015533447265625
1761384860154366500,0.074366455078125,-1.0007171630859375,-0.023468017578125,0.01568603515625
1761384860164433400,0.084433349609375,-0.9994659423828125,-0.0229949951171875,0.015869140625
1761384860174502400,0.09450244140625,-0.9995269775390625,-0.0234832763671875,0.0152130126953125
1761384860184571400,0.1045712890625,-0.9995880126953125,-0.024139404296875,0.0156707763671875
1761384860194640400,0.114640380859375,-0.9993743896484375,-0.023651123046875,0.0156402587890625
1761384860204709400,0.12470947265625,-0.9984283447265625,-0.0246429443359375,0.0164031982421875
1761384860214778400,0.1347783203125,-0.9989166259765625,-0.0252227783203125,0.0162506103515625
1761384860224847400,0.144847412109375,-1.0002288818359375,-0.0243072509765625,0.01593017578125
1761384860234916400,0.154916259765625,-0.9996795654296875,-0.023406982421875,0.0147705078125
1761384860244985300,0.1649853515625,-0.9996185302734375,-0.0238189697265625,0.0150604248046875
1761384860255054600,0.1750546875,-0.9996795654296875,-0.023956298828125,0.014739990234375
1761384860265123300,0.185123291015625,-0.9992218017578125,-0.024139404296875,0.0153961181640625
1761384860275192600,0.195192626953125,-0.9997100830078125,-0.0243682861328125,0.0153350830078125
1761384860285261300,0.20526123046875,-0.99945068359375,-0.0239715576171875,0.0159149169921875
1761384860295330300,0.215330322265625,-0.9996185302734375,-0.023468017578125,0.0159912109375
1761384860305399300,0.2253994140625,-0.9997711181640625,-0.023468017578125,0.0162353515625
1761384860315468300,0.23546826171875,-1.0005035400390625,-0.0239715576171875,0.015350341796875
1761384860325537500,0.24553759765625,-0.9993896484375,-0.0240631103515625,0.014923095703125
1761384860335605500,0.25560546875,-0.99884033203125,-0.025146484375,0.01513671875
1761384860345674200,0.26567431640625,-0.9989776611328125,-0.0246124267578125,0.0162811279296875
1761384860355744300,0.275744140625,-1.0000457763671875,-0.025543212890625,0.01605224609375
1761384860365813500,0.2858134765625,-0.9994964599609375,-0.02386474609375,0.0163116455078125
1761384860375881500,0.295881591796875,-0.999053955078125,-0.023834228515625,0.0146942138671875
1761384860385950200,0.3059501953125,-0.99908447265625,-0.023345947265625,0.014617919921875
1761384860396019500,0.31601953125,-1.000762939453125,-0.024139404296875,0.0150909423828125
1761384860406088400,0.32608837890625,-1.00030517578125,-0.0234527587890625,0.0157470703125
1761384860416157400,0.336157470703125,-0.9994049072265625,-0.02447509765625,0.01556396484375
1761384860426226400,0.346226318359375,-0.999481201171875,-0.0237884521484375,0.0153656005859375
1761384860436295400,0.35629541015625,-0.9998016357421875,-0.02398681640625,0.0158538818359375
1761384860446364400,0.366364501953125,-0.999664306640625,-0.0233612060546875,0.0155792236328125
1761384860456433400,0.376433349609375,-0.99859619140625,-0.023101806640625,0.0158843994140625
1761384860466502400,0.38650244140625,-0.9999237060546875,-0.02374267578125,0.015289306640625
1761384860476571400,0.3965712890625,-0.9993743896484375,-0.023162841796875,0.0157623291015625
1761384860486640400,0.406640380859375,-1.000030517578125,-0.0250091552734375,0.015716552734375
1761384860496709400,0.41670947265625,-0.999786376953125,-0.02459716796875,0.016021728515625
1761384860506778400,0.4267783203125,-0.9995574951171875,-0.0242919921875,0.0155792236328125
1761384860516847400,0.436847412109375,-1.000518798828125,-0.0236053466796875,0.0154876708984375
1761384860526916600,0.44691650390625,-0.9996185302734375,-0.023956298828125,0.0154266357421875
1761384860536985300,0.4569853515625,-0.999298095703125,-0.0243072509765625,0.01507568359375
1761384860547054300,0.467054443359375,-1.00006103515625,-0.0239715576171875,0.0158233642578125
1761384860557123300,0.477123291015625,-0.9999847412109375,-0.0244598388671875,0.015472412109375
1761384860567192300,0.4871923828125,-0.9995574951171875,-0.0240478515625,0.015472412109375
1761384860577261600,0.497261474609375,-0.9994354248046875,-0.023895263671875,0.0155487060546875
1761384860587330600,0.50733056640625,-0.9995269775390625,-0.024078369140625,0.0156097412109375
1761384860597399800,0.51739990234375,-0.9998016357421875,-0.0238189697265625,0.015625
1761384860607468500,0.527468505859375,-0.9992523193359375,-0.023956298828125,0.016082763671875
1761384860617537800,0.537537841796875,-0.999725341796875,-0.0241241455078125,0.015716552734375
1761384860627606500,0.5476064453125,-0.9994964599609375,-0.023956298828125,0.01556396484375
1761384860637675500,0.557675537109375,-0.9991302490234375,-0.0238494873046875,0.015594482421875
1761384860647744800,0.567744873046875,-1.000335693359375,-0.024169921875,0.016876220703125
1761384860657813500,0.5778134765625,-0.9997100830078125,-0.0239715576171875,0.0158233642578125
1761384860667882800,0.5878828125,-0.99993896484375,-0.02459716796875,0.0157470703125
1761384860677951500,0.597951416015625,-0.9996337890625,-0.023590087890625,0.0161590576171875
1761384860688020700,0.608020751953125,-0.9993896484375,-0.0233612060546875,0.01611328125
1761384860698089500,0.61808935546875,-0.999481201171875,-0.0244140625,0.01519775390625
1761384860708158700,0.62815869140625,-0.9992523193359375,-0.023773193359375,0.015106201171875
1761384860718227700,0.638227783203125,-1.0007476806640625,-0.023345947265625,0.015655517578125
1761384860728296700,0.648296630859375,-0.9998931884765625,-0.0235748291015625,0.015777587890625
1761384860738365700,0.65836572265625,-0.9994659423828125,-0.0237274169921875,0.0169830322265625
1761384860748434400,0.668434326171875,-1.0007781982421875,-0.023956298828125,0.015228271484375
1761384860758503700,0.678503662109375,-0.9994354248046875,-0.0239410400390625,0.014617919921875
1761384860768572700,0.68857275390625,-1.0002593994140625,-0.0243072509765625,0.015289306640625
1761384860778641700,0.6986416015625,-0.9998016357421875,-0.024444580078125,0.0157012939453125
1761384860788710700,0.708710693359375,-0.999481201171875,-0.023651123046875,0.015411376953125
1761384860798779600,0.718779541015625,-0.9998779296875,-0.02362060546875,0.0153961181640625
1761384860808848600,0.7288486328125,-0.9991607666015625,-0.0243072509765625,0.0148468017578125
1761384860818917600,0.738917724609375,-0.9992523193359375,-0.02374267578125,0.0159912109375
1761384860828986600,0.748986572265625,-0.9989471435546875,-0.02410888671875,0.0166015625
1761384860839055600,0.7590556640625,-1.0000457763671875,-0.0246734619140625,0.0159759521484375
1761384860849124600,0.76912451171875,-1.0002288818359375,-0.0243988037109375,0.015167236328125
1761384860859193600,0.779193603515625,-1.000457763671875,-0.0246124267578125,0.0149383544921875
1761384860869262600,0.7892626953125,-1.00054931640625,-0.0236053466796875,0.0153350830078125
1761384860879331600,0.79933154296875,-0.9991302490234375,-0.023834228515625,0.0151214599609375
1761384860889400800,0.80940087890625,-0.9996490478515625,-0.0239105224609375,0.016082763671875
1761384860899469600,0.819469482421875,-1.000274658203125,-0.0245819091796875,0.0157928466796875
1761384860909539600,0.82953955078125,-0.9994659423828125,-0.0234832763671875,0.015533447265625
1761384860919608600,0.839608642578125,-1.000640869140625,-0.0240020751953125,0.0149383544921875
1761384860929676500,0.849676513671875,-0.9997711181640625,-0.02337646484375,0.0161590576171875
1761384860939745800,0.859745849609375,-1.0001068115234375,-0.0235443115234375,0.0155029296875
1761384860949814500,0.869814453125,-1.0003814697265625,-0.0241241455078125,0.015869140625
1761384860959884500,0.879884521484375,-1.0007171630859375,-0.0242156982421875,0.01507568359375
1761384860969953500,0.88995361328125,-0.999786376953125,-0.023895263671875,0.0147247314453125
1761384860980021800,0.900021728515625,-1.0007171630859375,-0.0229644775390625,0.015411376953125
1761384860990091500,0.910091552734375,-0.999755859375,-0.0238800048828125,0.01513671875
1761384861000159700,0.92015966796875,-1.00042724609375,-0.0235595703125,0.0156097412109375
1761384861010229500,0.9302294921875,-0.999359130859375,-0.0240631103515625,0.0160980224609375
1761384861020298800,0.940298828125,-0.999542236328125,-0.0244598388671875,0.015869140625
1761384861030367500,0.950367431640625,-0.999725341796875,-0.0235748291015625,0.015533447265625
1761384861040436700,0.960436767578125,-0.9992523193359375,-0.0226593017578125,0.0157928466796875
1761384861050505700,0.970505615234375,-0.999847412109375,-0.024078369140625,0.0153656005859375
1761384861060574500,0.980574462890625,-1.0001220703125,-0.02349853515625,0.01470947265625
1761384861070643700,0.990643798828125,-0.999298095703125,-0.0242919921875,0.015289306640625
1761384861080712400,1.00071240234375,-0.9996185302734375,-0.0233306884765625,0.01617431640625
1761384861090781700,1.01078173828125,-0.9985198974609375,-0.0236968994140625,0.0149383544921875
1761384861100850700,1.0208505859375,-1.001708984375,-0.0238189697265625,0.01605224609375
1761384861110919700,1.030919677734375,-0.999755859375,-0.0238800048828125,0.0154876708984375
1761384861120988700,1.04098876953125,-1.0004119873046875,-0.024078369140625,0.0162811279296875
1761384861131057700,1.0510576171875,-0.999542236328125,-0.0236053466796875,0.0157318115234375
1761384861141126700,1.061126708984375,-1.0005950927734375,-0.02313232421875,0.0163421630859375
1761384861151195600,1.071195556640625,-0.9985809326171875,-0.023712158203125,0.014892578125
1761384861161264600,1.0812646484375,-0.999725341796875,-0.0249481201171875,0.0151824951171875
1761384861171333600,1.091333740234375,-0.999725341796875,-0.025238037109375,0.0159149169921875
1761384861181402600,1.101402587890625,-0.9987640380859375,-0.02410888671875,0.0160064697265625
1761384861191471600,1.1114716796875,-1.00006103515625,-0.0233612060546875,0.0145721435546875
1761384861201540600,1.12154052734375,-1.002227783203125,-0.023529052734375,0.015625
1761384861211609600,1.131609619140625,-1.00042724609375,-0.0238494873046875,0.0160064697265625
1761384861221678800,1.141678955078125,-1.0009613037109375,-0.023284912109375,0.0158233642578125
1761384861231747600,1.15174755859375,-0.999237060546875,-0.023956298828125,0.0157623291015625
1761384861241816800,1.16181689453125,-1.000213623046875,-0.024261474609375,0.0153961181640625
1761384861251885600,1.171885498046875,-0.999847412109375,-0.0242462158203125,0.0153045654296875
1761384861261954600,1.18195458984375,-0.9998016357421875,-0.0240325927734375,0.0160369873046875
1761384861272023600,1.1920234375,-1.00006103515625,-0.024200439453125,0.0157928466796875
1761384861282092500,1.202092529296875,-1.0010528564453125,-0.0236968994140625,0.0158843994140625
1761384861292161800,1.212161865234375,-1.0001220703125,-0.0239105224609375,0.0155029296875
1761384861302230500,1.22223046875,-0.999755859375,-0.02447509765625,0.0156707763671875
1761384861312299800,1.2322998046875,-1.001007080078125,-0.0236358642578125,0.015625
1761384861322368500,1.242368408203125,-0.9995880126953125,-0.0237274169921875,0.01580810546875
1761384861332437800,1.252437744140625,-0.9997100830078125,-0.024658203125,0.01580810546875
1761384861342506800,1.2625068359375,-1.0000152587890625,-0.0240936279296875,0.015869140625
1761384861352575500,1.272575439453125,-0.999786376953125,-0.024017333984375,0.0159759521484375
1761384861362644700,1.282644775390625,-0.999908447265625,-0.0234222412109375,0.0157623291015625
1761384861372713500,1.29271337890625,-1.000762939453125,-0.0243988037109375,0.016448974609375
1761384861382782700,1.30278271484375,-1.0004425048828125,-0.0248565673828125,0.0154266357421875
1761384861392851700,1.312851806640625,-0.9995880126953125,-0.023834228515625,0.01556396484375
1761384861402920700,1.322920654296875,-0.9996185302734375,-0.024383544921875,0.01580810546875
1761384861412989700,1.33298974609375,-0.9993133544921875,-0.024261474609375,0.0156402587890625
1761384861423058700,1.34305859375,-1.0005340576171875,-0.02435302734375,0.015472412109375
1761384861433127700,1.353127685546875,-1.00006103515625,-0.023895263671875,0.0150604248046875
1761384861443196400,1.363196533203125,-0.9996795654296875,-0.0238800048828125,0.015960693359375
1761384861453265700,1.373265625,-0.9998016357421875,-0.0234222412109375,0.0153656005859375
1761384861463334700,1.383334716796875,-1.000274658203125,-0.0241241455078125,0.01617431640625
1761384861473403600,1.393403564453125,-0.9991912841796875,-0.0240325927734375,0.0159759521484375
1761384861483472600,1.40347265625,-0.9997711181640625,-0.02252197265625,0.015899658203125
1761384861493541600,1.413541748046875,-0.999755859375,-0.0234222412109375,0.0157623291015625
1761384861503610600,1.423610595703125,-0.9998779296875,-0.0249481201171875,0.015777587890625
1761384861513679600,1.4336796875,-0.9996185302734375,-0.0243988037109375,0.0156707763671875
1761384861523748600,1.44374853515625,-0.99981689453125,-0.0235443115234375,0.0150604248046875
1761384861533817600,1.453817626953125,-0.9992828369140625,-0.0239715576171875,0.015625
1761384861543886600,1.463886474609375,-1.000396728515625,-0.024658203125,0.01580810546875
1761384861553955600,1.47395556640625,-0.9996185302734375,-0.02392578125,0.0159454345703125
1761384861564024600,1.484024658203125,-0.999603271484375,-0.023529052734375,0.0157470703125
1761384861574093600,1.494093505859375,-0.9990997314453125,-0.0234222412109375,0.0158233642578125
1761384861584162800,1.504162841796875,-0.9998626708984375,-0.023773193359375,0.0162811279296875
1761384861594231600,1.5142314453125,-0.99932861328125,-0.024200439453125,0.0166473388671875
1761384861604300800,1.52430078125,-1.0001220703125,-0.0245208740234375,0.01544189453125
1761384861614369500,1.53436962890625,-1.0005340576171875,-0.0242462158203125,0.0146942138671875
1761384861624438500,1.5444384765625,-0.99969482421875,-0.023773193359375,0.01513671875
1761384861634507800,1.5545078125,-0.9993438720703125,-0.0244140625,0.01666259765625
1761384861644576500,1.564576416015625,-0.999420166015625,-0.0238037109375,0.0164031982421875
1761384861654645800,1.574645751953125,-0.999908447265625,-0.023681640625,0.01470947265625
1761384861664714500,1.584714599609375,-1.0005950927734375,-0.0238037109375,0.0159454345703125
1761384861674783700,1.59478369140625,-0.9987945556640625,-0.0243072509765625,0.0150146484375
1761384861684852500,1.6048525390625,-1.00042724609375,-0.0239105224609375,0.014373779296875
1761384861694921700,1.614921630859375,-1.0008544921875,-0.0237274169921875,0.015960693359375
1761384861704990700,1.62499072265625,-0.9985809326171875,-0.0236663818359375,0.0164947509765625
1761384861715059700,1.635059814453125,-1.0005340576171875,-0.023406982421875,0.0148468017578125
1761384861725128700,1.645128662109375,-0.999786376953125,-0.0247039794921875,0.0157318115234375
1761384861735197400,1.655197509765625,-0.9996490478515625,-0.0235443115234375,0.016082763671875
1761384861745266700,1.6652666015625,-0.9994659423828125,-0.0236358642578125,0.0155792236328125
1761384861755335700,1.675335693359375,-0.999908447265625,-0.0234832763671875,0.015716552734375
1761384861765404700,1.68540478515625,-1.0004730224609375,-0.0240936279296875,0.015625
1761384861775473700,1.6954736328125,-0.999725341796875,-0.023681640625,0.0159454345703125
1761384861785542700,1.705542724609375,-0.99951171875,-0.0233306884765625,0.0151824951171875
1761384861795611600,1.715611572265625,-0.9993896484375,-0.023956298828125,0.015838623046875
1761384861805680600,1.7256806640625,-1.0005645751953125,-0.0247802734375,0.015655517578125
1761384861815749600,1.73574951171875,-1.00030517578125,-0.0236358642578125,0.015625
1761384861825818600,1.745818603515625,-1.000457763671875,-0.024078369140625,0.0162353515625
1761384861835887600,1.7558876953125,-0.999908447265625,-0.0235748291015625,0.0156097412109375
1761384861845956600,1.76595654296875,-0.999420166015625,-0.024566650390625,0.0155029296875
1761384861856025600,1.776025634765625,-0.99993896484375,-0.02435302734375,0.0153045654296875
1761384861866094600,1.786094482421875,-1.00018310546875,-0.024261474609375,0.01544189453125
1761384861876163800,1.796163818359375,-1.0004425048828125,-0.0240478515625,0.0159149169921875
1761384861886232600,1.806232666015625,-1.0002593994140625,-0.0242462158203125,0.0155792236328125
1761384861896301800,1.8163017578125,-0.99957275390625,-0.023162841796875,0.014556884765625
1761384861906370600,1.82637060546875,-1.000091552734375,-0.024139404296875,0.01568603515625
1761384861916439600,1.836439453125,-1.0003662109375,-0.0238494873046875,0.0162200927734375
1761384861926508500,1.846508544921875,-0.9992828369140625,-0.0247344970703125,0.0166015625
1761384861936577500,1.85657763671875,-1.0006256103515625,-0.0247344970703125,0.0152587890625
1761384861946646800,1.866646728515625,-1.0004730224609375,-0.023834228515625,0.015899658203125
1761384861956715500,1.876715576171875,-0.999969482421875,-0.02386474609375,0.0162353515625
1761384861966784800,1.88678466796875,-1.000091552734375,-0.02398681640625,0.01611328125
1761384861976853500,1.896853515625,-1.00115966796875,-0.0233306884765625,0.0157928466796875
1761384861986922800,1.9069228515625,-1,-0.024200439453125,0.015655517578125
1761384861996991700,1.91699169921875,-0.9986114501953125,-0.0231170654296875,0.0156097412109375
1761384862007060500,1.927060546875,-1.000091552734375,-0.0231781005859375,0.0158843994140625
1761384862017129700,1.937129638671875,-0.999908447265625,-0.0230255126953125,0.01611328125
1761384862027198500,1.947198486328125,-1.000213623046875,-0.02337646484375,0.0148162841796875
1761384862037267700,1.957267822265625,-0.9997100830078125,-0.0238494873046875,0.015838623046875
1761384862047336700,1.967336669921875,-0.9998779296875,-0.024383544921875,0.015045166015625
1761384862057405700,1.97740576171875,-0.9998321533203125,-0.0240631103515625,0.0155181884765625
1761384862067474700,1.987474609375,-1.0006256103515625,-0.0239410400390625,0.0161590576171875
1761384862077543700,1.997543701171875,-0.9996337890625,-0.02392578125,0.01568603515625
1761384862087612700,2.00761279296875,-1.0006561279296875,-0.0243377685546875,0.01544189453125
1761384862097681700,2.017681640625,-1.0005645751953125,-0.0241241455078125,0.0158233642578125
1761384862107750700,2.027750732421875,-1.0001220703125,-0.0242462158203125,0.0163726806640625
1761384862117819600,2.037819580078125,-1.0007171630859375,-0.0236968994140625,0.0150604248046875
1761384862127888600,2.047888671875,-1.0019989013671875,-0.02392578125,0.0152587890625
1761384862137957600,2.05795751953125,-1.0010528564453125,-0.0240325927734375,0.0159149169921875
1761384862148027600,2.068027587890625,-1.0016326904296875,-0.0245361328125,0.0155792236328125
1761384862158096600,2.0780966796875,-1.0003509521484375,-0.02398681640625,0.01556396484375
1761384862168165600,2.08816552734375,-1.0000457763671875,-0.024444580078125,0.0153350830078125
1761384862178234600,2.098234619140625,-1.000762939453125,-0.0237579345703125,0.01531982421875
1761384862188303600,2.1083037109375,-1.0007171630859375,-0.024078369140625,0.015716552734375
1761384862198372600,2.11837255859375,-0.9998626708984375,-0.0246124267578125,0.01678466796875
1761384862208441900,2.12844189453125,-1.0003509521484375,-0.023773193359375,0.0160675048828125
1761384862218510600,2.138510498046875,-1.000518798828125,-0.0235748291015625,0.0159454345703125
1761384862228579800,2.148579833984375,-1.000518798828125,-0.0234222412109375,0.015869140625
1761384862238648600,2.158648681640625,-1.0009307861328125,-0.0242919921875,0.015625
1761384862248717600,2.168717529296875,-1.0009002685546875,-0.0242156982421875,0.0157928466796875
1761384862258786600,2.17878662109375,-1.000152587890625,-0.024261474609375,0.0153961181640625
1761384862268855600,2.18885546875,-1.000030517578125,-0.023895263671875,0.0157623291015625
1761384862278924800,2.1989248046875,-1.000091552734375,-0.0231781005859375,0.0155029296875
1761384862288993500,2.20899365234375,-1.0001068115234375,-0.0240020751953125,0.01544189453125
1761384862299062800,2.219062744140625,-1.0008697509765625,-0.0225982666015625,0.0152740478515625
1761384862309131500,2.229131591796875,-1.000213623046875,-0.0245819091796875,0.015045166015625
1761384862319200800,2.23920068359375,-1.0001373291015625,-0.024078369140625,0.0153656005859375
1761384862329269800,2.249269775390625,-0.9996795654296875,-0.0243377685546875,0.01605224609375
1761384862339338500,2.25933837890625,-0.999481201171875,-0.0247039794921875,0.0157318115234375
1761384862349407700,2.26940771484375,-1.000457763671875,-0.0240631103515625,0.0162200927734375
1761384862359476500,2.2794765625,-1.0005035400390625,-0.0240020751953125,0.0160675048828125
1761384862369545700,2.289545654296875,-1.0000457763671875,-0.023895263671875,0.015960693359375
1761384862379614500,2.299614501953125,-0.99981689453125,-0.024627685546875,0.015045166015625
1761384862389683700,2.30968359375,-1.000579833984375,-0.023773193359375,0.0151824951171875
1761384862399752700,2.319752685546875,-0.9999847412109375,-0.024871826171875,0.0151519775390625
1761384862409821700,2.32982177734375,-1.00091552734375,-0.0240325927734375,0.01641845703125
1761384862419890700,2.339890625,-1.000457763671875,-0.0243377685546875,0.0150146484375
1761384862429959400,2.34995947265625,-1.000457763671875,-0.0240325927734375,0.0155792236328125
1761384862440028700,2.360028564453125,-1.0005035400390625,-0.02362060546875,0.0159149169921875
1761384862450097700,2.37009765625,-0.99993896484375,-0.024139404296875,0.0157012939453125
1761384862460166700,2.380166748046875,-1.0009918212890625,-0.0240936279296875,0.01580810546875
1761384862470235600,2.390235595703125,-0.9996490478515625,-0.0243377685546875,0.0160980224609375
1761384862480304600,2.4003046875,-1.0001068115234375,-0.02435302734375,0.0158538818359375
1761384862490373600,2.41037353515625,-1.00042724609375,-0.0236663818359375,0.015106201171875
1761384862500442600,2.420442626953125,-0.999969482421875,-0.0238037109375,0.0154571533203125
1761384862510511600,2.43051171875,-0.99945068359375,-0.0244903564453125,0.0151214599609375
1761384862520580600,2.44058056640625,-1.00030517578125,-0.0248870849609375,0.0160369873046875
1761384862530649600,2.450649658203125,-1.000762939453125,-0.024261474609375,0.0156402587890625
1761384862540718600,2.460718505859375,-0.9994049072265625,-0.0238189697265625,0.0157928466796875
1761384862550787600,2.47078759765625,-1.0005950927734375,-0.0230560302734375,0.0154876708984375
1761384862560856600,2.480856689453125,-1.0001373291015625,-0.0235595703125,0.015594482421875
1761384862570925800,2.49092578125,-1.0006866455078125,-0.023956298828125,0.015838623046875
1761384862580994600,2.50099462890625,-1.0009613037109375,-0.02423095703125,0.015533447265625
1761384862591064000,2.51106396484375,-0.9998321533203125,-0.0239105224609375,0.016143798828125
1761384862601132800,2.5211328125,-1.0006103515625,-0.024322509765625,0.0167388916015625
1761384862611202000,2.5312021484375,-1.0007781982421875,-0.0237274169921875,0.014495849609375
1761384862621270800,2.541270751953125,-1.0007171630859375,-0.024169921875,0.0154876708984375
1761384862631339800,2.55133984375,-0.9995880126953125,-0.023773193359375,0.0161590576171875
1761384862641409000,2.561408935546875,-1.0005950927734375,-0.02386474609375,0.015960693359375
1761384862651477800,2.571477783203125,-1.000213623046875,-0.0240325927734375,0.0165252685546875
1761384862661547000,2.581547119140625,-0.9995574951171875,-0.0241851806640625,0.01470947265625
1761384862671615700,2.59161572265625,-0.9994659423828125,-0.024566650390625,0.014495849609375
1761384862681685000,2.60168505859375,-0.999786376953125,-0.023834228515625,0.014862060546875
1761384862691754000,2.61175390625,-1.0001678466796875,-0.0237274169921875,0.0154266357421875
1761384862701823000,2.621822998046875,-1.0001983642578125,-0.0239410400390625,0.01513671875
1761384862711892000,2.63189208984375,-0.9990081787109375,-0.02392578125,0.01611328125
1761384862721960700,2.641960693359375,-0.99993896484375,-0.0249481201171875,0.016357421875
1761384862732030000,2.652030029296875,-1.0003509521484375,-0.0240478515625,0.0161285400390625
1761384862742098700,2.6620986328125,-1.0003204345703125,-0.024017333984375,0.01617431640625
1761384862752168000,2.67216796875,-1.000457763671875,-0.023590087890625,0.0161895751953125
1761384862762237000,2.68223681640625,-1.0006103515625,-0.0240631103515625,0.0163421630859375
1761384862772306000,2.692305908203125,-1,-0.0236358642578125,0.015289306640625
1761384862782375000,2.702375,-0.999725341796875,-0.0238189697265625,0.015411376953125
1761384862792444000,2.71244384765625,-0.9997406005859375,-0.024261474609375,0.01611328125
1761384862802513000,2.722512939453125,-1.000457763671875,-0.0244903564453125,0.01531982421875
1761384862812582000,2.732581787109375,-1.0002288818359375,-0.02386474609375,0.0155181884765625
1761384862822651000,2.74265087890625,-1.0002593994140625,-0.0235748291015625,0.014892578125
1761384862832720000,2.752719970703125,-0.9996337890625,-0.0236053466796875,0.0156097412109375
1761384862842788900,2.762788818359375,-0.9999847412109375,-0.023468017578125,0.0155181884765625
1761384862852857900,2.77285791015625,-1.0000152587890625,-0.023712158203125,0.015045166015625
1761384862862926800,2.7829267578125,-0.9997406005859375,-0.023406982421875,0.0149383544921875
1761384862872995800,2.792995849609375,-0.999755859375,-0.0222930908203125,0.015716552734375
1761384862883065000,2.803065185546875,-0.999755859375,-0.026031494140625,0.0164337158203125
1761384862893133800,2.8131337890625,-0.9994964599609375,-0.026580810546875,0.0162353515625
1761384862903203000,2.823203125,-0.9993133544921875,-0.023284912109375,0.0155181884765625
1761384862913271800,2.833271728515625,-1.0006103515625,-0.022247314453125,0.01531982421875
1761384862923340800,2.8433408203125,-0.9996337890625,-0.02215576171875,0.014129638671875
1761384862933410000,2.85341015625,-1.000885009765625,-0.0219268798828125,0.01397705078125
1761384862943478800,2.863478759765625,-1.0001678466796875,-0.021636962890625,0.0144195556640625
1761384862953548000,2.873548095703125,-1.002197265625,-0.0219268798828125,0.0146026611328125
1761384862963616800,2.88361669921875,-0.9996795654296875,-0.0263214111328125,0.0173797607421875
1761384862973686000,2.89368603515625,-0.999237060546875,-0.0283203125,0.0182037353515625
1761384862983754800,2.903754638671875,-0.999908447265625,-0.0259552001953125,0.016815185546875
1761384862993824000,2.913823974609375,-1.0012054443359375,-0.0242462158203125,0.01531982421875
1761384863003893000,2.92389306640625,-1.000335693359375,-0.0205535888671875,0.01348876953125
1761384863013961700,2.933961669921875,-1.0001678466796875,-0.0197296142578125,0.0131378173828125
1761384863024031000,2.944031005859375,-0.9993743896484375,-0.021331787109375,0.013214111328125
1761384863034101000,2.95410107421875,-0.9993896484375,-0.02398681640625,0.015594482421875
1761384863044170000,2.964169921875,-1.00048828125,-0.0269927978515625,0.017730712890625
1761384863054238700,2.97423876953125,-0.9999237060546875,-0.0277099609375,0.01849365234375
1761384863064308000,2.984307861328125,-1.0003814697265625,-0.02655029296875,0.0172882080078125
1761384863074376700,2.994376708984375,-1.000091552734375,-0.0240936279296875,0.0146942138671875
1761384863084446000,3.004446044921875,-0.9996337890625,-0.0207977294921875,0.0135498046875
1761384863094515000,3.014514892578125,-0.999481201171875,-0.0219268798828125,0.0137939453125
1761384863104584000,3.024583984375,-1.0002593994140625,-0.02362060546875,0.0159149169921875
1761384863114653000,3.03465283203125,-1.0002593994140625,-0.02490234375,0.018157958984375
1761384863124722000,3.044721923828125,-1.0003814697265625,-0.0248260498046875,0.0172576904296875
1761384863134791000,3.054791015625,-1.0003509521484375,-0.0257568359375,0.016754150390625
1761384863144860000,3.06485986328125,-0.999267578125,-0.024688720703125,0.015472412109375
1761384863154929000,3.074928955078125,-1.000640869140625,-0.0231781005859375,0.014007568359375
1761384863164998000,3.084997802734375,-1.000244140625,-0.022369384765625,0.013641357421875
1761384863175067000,3.09506689453125,-1.00115966796875,-0.0221405029296875,0.0153045654296875
1761384863185135900,3.105135986328125,-1.0001678466796875,-0.02398681640625,0.0162811279296875
1761384863195204900,3.115204833984375,-1.0002899169921875,-0.02532958984375,0.015777587890625
1761384863205273900,3.12527392578125,-1.000335693359375,-0.026397705078125,0.016571044921875
1761384863215343000,3.135343017578125,-1.0001220703125,-0.0244598388671875,0.016937255859375
1761384863225411800,3.145411865234375,-1.000274658203125,-0.0230255126953125,0.01568603515625
1761384863235480800,3.155480712890625,-1.000152587890625,-0.0225830078125,0.0152587890625
1761384863245549800,3.1655498046875,-1.0000762939453125,-0.0219268798828125,0.0147247314453125
1761384863255618800,3.175618896484375,-0.999755859375,-0.0233001708984375,0.015716552734375
1761384863265688000,3.18568798828125,-1.000396728515625,-0.024871826171875,0.01611328125
1761384863275756800,3.1957568359375,-0.9998931884765625,-0.0241851806640625,0.0159149169921875
1761384863285826000,3.205825927734375,-0.9990081787109375,-0.024749755859375,0.0167236328125
1761384863295894800,3.215894775390625,-1.0007171630859375,-0.024322509765625,0.0154571533203125
1761384863305964000,3.225964111328125,-1.000244140625,-0.02337646484375,0.014617919921875
1761384863316032800,3.23603271484375,-0.9999847412109375,-0.022613525390625,0.01513671875
1761384863326101800,3.246101806640625,-1.0004730224609375,-0.02337646484375,0.0151214599609375
1761384863336171000,3.2561708984375,-0.9990692138671875,-0.0248565673828125,0.0162353515625
1761384863346239700,3.26623974609375,-1.0005950927734375,-0.02532958984375,0.016632080078125
1761384863356309000,3.27630908203125,-1.00018310546875,-0.02520751953125,0.0160980224609375
1761384863366377700,3.286377685546875,-1.0001983642578125,-0.02508544921875,0.016021728515625
1761384863376447000,3.296447021484375,-1.0005340576171875,-0.023162841796875,0.015167236328125
1761384863386516000,3.306515869140625,-0.99969482421875,-0.0225372314453125,0.0150299072265625
1761384863396585000,3.3165849609375,-1.0009765625,-0.0237274169921875,0.0157470703125
1761384863406654000,3.326654052734375,-1.0020599365234375,-0.0235595703125,0.0153656005859375
1761384863416722700,3.33672265625,-1.00006103515625,-0.023834228515625,0.0147247314453125
1761384863426792000,3.3467919921875,-1.000030517578125,-0.0248870849609375,0.01611328125
1761384863436860700,3.356860595703125,-1.0002899169921875,-0.024566650390625,0.0160675048828125
1761384863446930000,3.366929931640625,-0.999725341796875,-0.023681640625,0.016326904296875
1761384863456999000,3.3769990234375,-0.999786376953125,-0.023681640625,0.016204833984375
1761384863467068000,3.38706787109375,-1.0003814697265625,-0.023681640625,0.015777587890625
1761384863477137000,3.397136962890625,-1.0009765625,-0.023895263671875,0.01507568359375
1761384863487206000,3.407205810546875,-1.0006561279296875,-0.024139404296875,0.0155029296875
1761384863497275000,3.41727490234375,-1.001251220703125,-0.0246124267578125,0.01446533203125
1761384863507344100,3.42734423828125,-1.000701904296875,-0.0249176025390625,0.01544189453125
1761384863517412900,3.437412841796875,-0.9999847412109375,-0.024566650390625,0.01611328125
1761384863527481900,3.44748193359375,-1.0005035400390625,-0.0247039794921875,0.01678466796875
1761384863537550800,3.45755078125,-0.9993133544921875,-0.023956298828125,0.0151214599609375
1761384863547619800,3.467619873046875,-1.0009307861328125,-0.022918701171875,0.01495361328125
1761384863557688800,3.477688720703125,-1.0005950927734375,-0.0234527587890625,0.0148468017578125
1761384863567757800,3.4877578125,-0.999969482421875,-0.0246734619140625,0.0159454345703125
1761384863577827000,3.4978271484375,-1.000274658203125,-0.024932861328125,0.0164642333984375
1761384863587895800,3.507895751953125,-1.001495361328125,-0.0249481201171875,0.0166168212890625
1761384863597964000,3.517964111328125,-0.9996185302734375,-0.024932861328125,0.016693115234375
1761384863608033300,3.528033203125,-0.9997100830078125,-0.023956298828125,0.015380859375
1761384863618102000,3.53810205078125,-1.0011138916015625,-0.02392578125,0.014862060546875
1761384863628171300,3.548171142578125,-1.0006256103515625,-0.02398681640625,0.015594482421875
1761384863638240000,3.558239990234375,-0.9999237060546875,-0.0239105224609375,0.016082763671875
1761384863648309200,3.568309326171875,-0.9998626708984375,-0.0243377685546875,0.0163116455078125
1761384863658378200,3.578378173828125,-1.000030517578125,-0.0245208740234375,0.016632080078125
1761384863668447200,3.588447265625,-0.9996795654296875,-0.0252532958984375,0.015533447265625
1761384863678516200,3.59851611328125,-0.999237060546875,-0.0243988037109375,0.01593017578125
1761384863688585000,3.6085849609375,-0.9994354248046875,-0.0236663818359375,0.01531982421875
1761384863698654200,3.618654296875,-1.00054931640625,-0.02362060546875,0.0151214599609375
1761384863708723000,3.628722900390625,-1.000091552734375,-0.02410888671875,0.0161285400390625
1761384863718792200,3.638792236328125,-1.000274658203125,-0.02410888671875,0.01611328125
1761384863728861200,3.648861083984375,-1.00006103515625,-0.0240478515625,0.0158843994140625
1761384863738930200,3.65893017578125,-1.0009918212890625,-0.024505615234375,0.0160980224609375
1761384863748999200,3.668999267578125,-1.000732421875,-0.02447509765625,0.0150146484375
1761384863759068200,3.679068115234375,-1.000732421875,-0.0242767333984375,0.01409912109375
1761384863769137200,3.68913720703125,-1.00030517578125,-0.024261474609375,0.01483154296875
1761384863779206100,3.6992060546875,-1.0009613037109375,-0.023529052734375,0.015167236328125
1761384863789275100,3.709275146484375,-1.0004730224609375,-0.023223876953125,0.0148773193359375
1761384863799344000,3.71934423828125,-1.0003509521484375,-0.0228424072265625,0.0153961181640625
1761384863809413000,3.7294130859375,-0.9996185302734375,-0.02374267578125,0.016937255859375
1761384863819482000,3.739482177734375,-1.001129150390625,-0.024505615234375,0.0159454345703125
1761384863829551000,3.749551025390625,-0.9994659423828125,-0.02459716796875,0.014801025390625
1761384863839620000,3.7596201171875,-1.000457763671875,-0.0246734619140625,0.014892578125
1761384863849689300,3.769689453125,-1.001434326171875,-0.02423095703125,0.0154876708984375
1761384863859758000,3.779758056640625,-1.0008697509765625,-0.0228729248046875,0.016082763671875
1761384863869827000,3.7898271484375,-1.0003814697265625,-0.0235443115234375,0.015380859375
1761384863879896000,3.79989599609375,-0.9998016357421875,-0.0242462158203125,0.0164794921875
1761384863889965000,3.809965087890625,-0.999664306640625,-0.0240020751953125,0.0168609619140625
1761384863900034300,3.820034423828125,-1.0007476806640625,-0.02435302734375,0.015350341796875
1761384863910103000,3.83010302734375,-0.999786376953125,-0.0234832763671875,0.0155181884765625
1761384863920172300,3.84017236328125,-1.0011749267578125,-0.023529052734375,0.014984130859375
1761384863930241000,3.850240966796875,-1.000396728515625,-0.0235595703125,0.015869140625
1761384863940310300,3.860310302734375,-1.000946044921875,-0.023101806640625,0.016326904296875
1761384863950379000,3.87037890625,-1.0009002685546875,-0.0250701904296875,0.01544189453125
1761384863960448000,3.880447998046875,-1.00103759765625,-0.0253143310546875,0.0148162841796875
1761384863970517200,3.890517333984375,-1.0002288818359375,-0.0240325927734375,0.015716552734375
1761384863980586000,3.9005859375,-1.0004119873046875,-0.0236968994140625,0.0157318115234375
1761384863990655200,3.9106552734375,-1.0008544921875,-0.023223876953125,0.01593017578125
1761384864000724000,3.920723876953125,-1.00225830078125,-0.0230560302734375,0.0153656005859375
1761384864010793200,3.930793212890625,-1.00079345703125,-0.0237274169921875,0.0157012939453125
1761384864020862200,3.9408623046875,-1.0002288818359375,-0.0236358642578125,0.015594482421875
1761384864030931200,3.95093115234375,-0.999542236328125,-0.024078369140625,0.015625
1761384864041000200,3.961000244140625,-1.0001678466796875,-0.0243682861328125,0.0149688720703125
1761384864051069200,3.971069091796875,-1.00006103515625,-0.0239410400390625,0.0157318115234375
1761384864061138200,3.98113818359375,-0.9996795654296875,-0.02423095703125,0.015838623046875
1761384864071207200,3.991207275390625,-0.9997711181640625,-0.024322509765625,0.016082763671875
1761384864081276200,4.001276123046875,-0.999755859375,-0.0229949951171875,0.015869140625
1761384864091345200,4.01134521484375,-1.0005035400390625,-0.023956298828125,0.0159912109375
1761384864101414100,4.0214140625,-1.0002593994140625,-0.024444580078125,0.0157928466796875
1761384864111483100,4.031483154296875,-0.9988555908203125,-0.0252227783203125,0.01593017578125
1761384864121552100,4.04155224609375,-0.999725341796875,-0.0245513916015625,0.015167236328125
1761384864131621000,4.05162109375,-1.0002593994140625,-0.02490234375,0.01446533203125
1761384864141690400,4.0616904296875,-1.000701904296875,-0.02471923828125,0.0153656005859375
1761384864151759000,4.071759033203125,-0.9990234375,-0.02349853515625,0.0155792236328125
1761384864161828000,4.081828125,-1.0006561279296875,-0.0233154296875,0.0159454345703125
1761384864171897000,4.09189697265625,-1.0009765625,-0.0229339599609375,0.016693115234375
1761384864181966000,4.101966064453125,-1.0011138916015625,-0.0238189697265625,0.0147552490234375
1761384864192035000,4.11203515625,-0.9997711181640625,-0.0245361328125,0.0154571533203125
1761384864202104000,4.12210400390625,-1.0001068115234375,-0.0246429443359375,0.01568603515625
1761384864212173300,4.13217333984375,-1.00048828125,-0.0245819091796875,0.0152740478515625
1761384864222242000,4.142241943359375,-1.000396728515625,-0.024566650390625,0.016326904296875
1761384864232311300,4.152311279296875,-1.0000762939453125,-0.0249481201171875,0.0159759521484375
1761384864242380000,4.162380126953125,-1.000823974609375,-0.0245513916015625,0.0169525146484375
1761384864252449000,4.172448974609375,-0.99993896484375,-0.0243988037109375,0.0172119140625
1761384864262518300,4.182518310546875,-1.0008697509765625,-0.0234832763671875,0.0159454345703125
1761384864272587000,4.1925869140625,-1.001220703125,-0.0225982666015625,0.0139312744140625
1761384864282656300,4.20265625,-1.000579833984375,-0.023193359375,0.0142669677734375
1761384864292725000,4.21272509765625,-0.9998626708984375,-0.0225677490234375,0.015106201171875
1761384864302794200,4.222794189453125,-1.00018310546875,-0.0242919921875,0.016265869140625
1761384864312863200,4.23286328125,-0.9996490478515625,-0.0241241455078125,0.017608642578125
1761384864322932200,4.24293212890625,-1.000030517578125,-0.0248565673828125,0.01800537109375
1761384864333001200,4.253001220703125,-0.9996490478515625,-0.0238800048828125,0.0170135498046875
1761384864343071200,4.2630712890625,-1.00079345703125,-0.0235443115234375,0.0152130126953125
1761384864353139200,4.27313916015625,-1.0008544921875,-0.02362060546875,0.01385498046875
1761384864363208000,4.2832080078125,-0.9995574951171875,-0.0238494873046875,0.0137176513671875
1761384864373277200,4.293277099609375,-1.0000457763671875,-0.0230560302734375,0.0150909423828125
1761384864383347000,4.303346923828125,-1.0009613037109375,-0.023956298828125,0.0163116455078125
1761384864393415200,4.313415283203125,-1.000335693359375,-0.02520751953125,0.0164947509765625
1761384864403485200,4.323485107421875,-0.999298095703125,-0.024627685546875,0.016632080078125
1761384864413554200,4.33355419921875,-1.000579833984375,-0.0250244140625,0.0156097412109375
1761384864423623200,4.343623046875,-0.9998779296875,-0.0235595703125,0.014801025390625
1761384864433692200,4.353692138671875,-1.000152587890625,-0.0228729248046875,0.014434814453125
1761384864443761200,4.36376123046875,-0.9999542236328125,-0.0225677490234375,0.0146942138671875
1761384864453830100,4.373830078125,-1.001190185546875,-0.0232391357421875,0.0159454345703125
1761384864463899100,4.383899169921875,-0.9996337890625,-0.024200439453125,0.0164794921875
1761384864473968000,4.393968017578125,-0.9999542236328125,-0.024749755859375,0.01727294921875
1761384864484037000,4.404037109375,-1.001007080078125,-0.0252227783203125,0.0162353515625
1761384864494106000,4.414106201171875,-1.0009765625,-0.0241851806640625,0.0152130126953125
1761384864504175000,4.424175048828125,-1.0011749267578125,-0.02410888671875,0.014678955078125
1761384864514244000,4.434244140625,-1.0001373291015625,-0.0225677490234375,0.0150146484375
1761384864524313000,4.44431298828125,-1.0003814697265625,-0.0230255126953125,0.0153350830078125
1761384864534382000,4.454382080078125,-1.000518798828125,-0.0243988037109375,0.0162506103515625
1761384864544451300,4.464451416015625,-0.999847412109375,-0.0259246826171875,0.016937255859375
1761384864554520000,4.47452001953125,-0.99981689453125,-0.0254058837890625,0.0167388916015625
1761384864564589000,4.484589111328125,-1.0003814697265625,-0.02532958984375,0.01507568359375
1761384864574658000,4.494657958984375,-1.000518798828125,-0.0235595703125,0.0144195556640625
1761384864584727000,4.50472705078125,-0.9998016357421875,-0.0218048095703125,0.015106201171875
1761384864594796800,4.514796875,-1.000213623046875,-0.02191162109375,0.0152740478515625
1761384864604865800,4.52486572265625,-1.0006103515625,-0.023223876953125,0.0156707763671875
1761384864614935000,4.53493505859375,-0.9998321533203125,-0.0240478515625,0.016387939453125
1761384864625003800,4.545003662109375,-0.999664306640625,-0.0256805419921875,0.01605224609375
1761384864635073000,4.555072998046875,-0.999603271484375,-0.0251922607421875,0.01611328125
1761384864645141800,4.565141845703125,-0.999114990234375,-0.0241241455078125,0.0159759521484375
1761384864655211000,4.5752109375,-1.0001678466796875,-0.0233612060546875,0.01654052734375
1761384864665279700,4.58527978515625,-1.000244140625,-0.0227813720703125,0.0163421630859375
1761384864675349000,4.595348876953125,-1.00103759765625,-0.02386474609375,0.0160980224609375
1761384864685418000,4.60541796875,-1.0010986328125,-0.0236053466796875,0.0156097412109375
1761384864695486700,4.61548681640625,-1.001129150390625,-0.0245819091796875,0.0148468017578125
1761384864705556000,4.625555908203125,-1.0010833740234375,-0.0248260498046875,0.0147705078125
1761384864715624700,4.635624755859375,-1.0004730224609375,-0.0238800048828125,0.01593017578125
1761384864725694000,4.64569384765625,-1.0000762939453125,-0.0234832763671875,0.015533447265625
1761384864735763000,4.655762939453125,-1.000518798828125,-0.022796630859375,0.0160369873046875
1761384864745832000,4.66583203125,-1.00006103515625,-0.0235748291015625,0.015228271484375
1761384864755901000,4.67590087890625,-0.99993896484375,-0.02362060546875,0.0149688720703125
1761384864765970000,4.685969970703125,-0.9999542236328125,-0.024810791015625,0.0151519775390625
1761384864776039000,4.696038818359375,-0.99945068359375,-0.0247955322265625,0.0163421630859375
1761384864786108000,4.70610791015625,-1.0008544921875,-0.0242462158203125,0.0165557861328125
1761384864796177000,4.716177001953125,-1.000396728515625,-0.024139404296875,0.0171661376953125
1761384864806246000,4.726245849609375,-1.0005645751953125,-0.0229949951171875,0.0163726806640625
1761384864816315000,4.73631494140625,-1.00030517578125,-0.0233154296875,0.01629638671875
1761384864826384000,4.7463837890625,-0.99981689453125,-0.0235443115234375,0.015869140625
1761384864836452900,4.756452880859375,-1.0006103515625,-0.0240631103515625,0.015289306640625
1761384864846521900,4.76652197265625,-0.999969482421875,-0.0242462158203125,0.0153961181640625
1761384864856591000,4.776591064453125,-1.0001373291015625,-0.0242462158203125,0.01641845703125
1761384864866659800,4.786659912109375,-1.000762939453125,-0.0238494873046875,0.0168914794921875
1761384864876729000,4.79672900390625,-1.0002288818359375,-0.0237884521484375,0.0164642333984375
1761384864886797800,4.8067978515625,-1.0008087158203125,-0.0238800048828125,0.0152435302734375
1761384864896866800,4.81686669921875,-1.000274658203125,-0.0238494873046875,0.0153961181640625
1761384864906935800,4.826935791015625,-1.001190185546875,-0.024169921875,0.016021728515625
1761384864917004800,4.8370048828125,-1.001129150390625,-0.024688720703125,0.01593017578125
1761384864927074000,4.847073974609375,-1.00067138671875,-0.0244903564453125,0.0153961181640625
1761384864937142800,4.857142822265625,-0.9998931884765625,-0.023834228515625,0.0161590576171875
1761384864947212000,4.8672119140625,-1.0001983642578125,-0.0242462158203125,0.0169525146484375
1761384864957280800,4.87728076171875,-1.00048828125,-0.02374267578125,0.0159149169921875
1761384864967350000,4.88735009765625,-1.0005340576171875,-0.0242919921875,0.0143280029296875
1761384864977419000,4.8974189453125,-1.0008697509765625,-0.0239410400390625,0.014892578125
1761384864987487700,4.90748779296875,-1.000732421875,-0.0233154296875,0.01690673828125
1761384864997557000,4.917556884765625,-1.000457763671875,-0.024322509765625,0.0162506103515625
1761384865007625700,4.927625732421875,-0.9999542236328125,-0.02392578125,0.0162353515625
1761384865017695000,4.937695068359375,-1.000518798828125,-0.0240631103515625,0.0159759521484375
1761384865027764000,4.947763916015625,-1.000091552734375,-0.02386474609375,0.01605224609375
1761384865037833000,4.9578330078125,-1.0004730224609375,-0.0245361328125,0.01580810546875
1761384865047902000,4.96790185546875,-1.0003814697265625,-0.024444580078125,0.0157928466796875
1761384865057971000,4.977970947265625,-1.00006103515625,-0.0237884521484375,0.0150604248046875
1761384865068040000,4.9880400390625,-1.000152587890625,-0.024322509765625,0.0160980224609375
1761384865078108700,4.998108642578125,-1.0001678466796875,-0.0238494873046875,0.0164031982421875
1761384865088178000,5.008177978515625,-1.001129150390625,-0.0243072509765625,0.0160675048828125
1761384865098247000,5.018246826171875,-1.000946044921875,-0.0234832763671875,0.01666259765625
1761384865108316000,5.02831591796875,-1.0005645751953125,-0.0233612060546875,0.0157470703125
1761384865118385000,5.038385009765625,-1.0008544921875,-0.02362060546875,0.0153656005859375
1761384865128454000,5.048453857421875,-1.000396728515625,-0.0233917236328125,0.0159454345703125
1761384865138523000,5.05852294921875,-1.0001678466796875,-0.024200439453125,0.0163116455078125
1761384865148591900,5.068591796875,-1.000396728515625,-0.0240936279296875,0.0160675048828125
1761384865158660900,5.078660888671875,-1.000244140625,-0.0236053466796875,0.01568603515625
1761384865168729900,5.088729736328125,-1.0010528564453125,-0.02374267578125,0.0160369873046875
1761384865178798800,5.098798828125,-1.000335693359375,-0.0237579345703125,0.0153350830078125
1761384865188867800,5.108867919921875,-0.9995574951171875,-0.0247039794921875,0.0159912109375
1761384865198936800,5.118936767578125,-1.0014801025390625,-0.02508544921875,0.0150146484375
1761384865209004000,5.129004150390625,-0.9999542236328125,-0.0246124267578125,0.0158538818359375
1761384865219072800,5.13907275390625,-1.00067138671875,-0.0239105224609375,0.0162353515625
1761384865229142000,5.14914208984375,-1.00048828125,-0.024261474609375,0.0158233642578125
1761384865239210800,5.159210693359375,-1.0007781982421875,-0.0239410400390625,0.0161285400390625
1761384865249280000,5.169280029296875,-0.999603271484375,-0.0237274169921875,0.0154876708984375
1761384865259349000,5.179348876953125,-1.0004425048828125,-0.0240478515625,0.0160980224609375
1761384865269418000,5.18941796875,-1.00048828125,-0.023956298828125,0.015411376953125
1761384865279487000,5.199487060546875,-1.0002899169921875,-0.0240020751953125,0.0152740478515625
1761384865289555700,5.2095556640625,-1.0008087158203125,-0.0234222412109375,0.016326904296875
1761384865299625000,5.219625,-1.0004730224609375,-0.0241241455078125,0.0160369873046875
1761384865309693700,5.229693603515625,-0.9998931884765625,-0.0244598388671875,0.0159912109375
1761384865319763000,5.239762939453125,-0.9997100830078125,-0.0242919921875,0.01593017578125
1761384865329832000,5.24983203125,-1.0006866455078125,-0.0238037109375,0.015869140625
1761384865339901000,5.25990087890625,-0.9994964599609375,-0.024200439453125,0.0162200927734375
1761384865349970000,5.269969970703125,-0.99920654296875,-0.0242767333984375,0.0157928466796875
1761384865360039000,5.280038818359375,-1.0001373291015625,-0.023712158203125,0.0154876708984375
1761384865370108000,5.29010791015625,-0.9999237060546875,-0.02386474609375,0.0154876708984375
1761384865380177000,5.300177001953125,-0.999481201171875,-0.023681640625,0.01580810546875
1761384865390246000,5.310245849609375,-1.000762939453125,-0.0236358642578125,0.0160369873046875
1761384865400315000,5.32031494140625,-1.0005035400390625,-0.0242919921875,0.015838623046875
1761384865410384000,5.3303837890625,-1.0006103515625,-0.024383544921875,0.016387939453125
1761384865420452900,5.340452880859375,-1.0001220703125,-0.0237579345703125,0.01605224609375
1761384865430521900,5.35052197265625,-1.000244140625,-0.0241241455078125,0.0156097412109375
1761384865440590800,5.3605908203125,-1.0004730224609375,-0.0245513916015625,0.0156707763671875
1761384865450660000,5.37066015625,-0.9998931884765625,-0.0235748291015625,0.0158538818359375
1761384865460728800,5.380728759765625,-0.9992828369140625,-0.023468017578125,0.015838623046875
1761384865470797800,5.3907978515625,-1.000335693359375,-0.023162841796875,0.01544189453125
1761384865480866800,5.40086669921875,-1.00079345703125,-0.024078369140625,0.0157928466796875
1761384865490935800,5.410935791015625,-1,-0.0235595703125,0.0157318115234375
1761384865501005000,5.421005126953125,-1.000091552734375,-0.0239105224609375,0.014892578125
1761384865511073800,5.43107373046875,-1.00128173828125,-0.0238189697265625,0.015625
1761384865521143000,5.44114306640625,-1.00018310546875,-0.02410888671875,0.01641845703125
1761384865531211800,5.451211669921875,-0.9997100830078125,-0.0240020751953125,0.0153961181640625
1761384865541281000,5.461281005859375,-0.9993896484375,-0.023712158203125,0.01513671875
1761384865551349800,5.471349853515625,-1.00030517578125,-0.023406982421875,0.0156707763671875
1761384865561419000,5.4814189453125,-1.00006103515625,-0.024200439453125,0.015350341796875
1761384865571488000,5.491488037109375,-0.9999847412109375,-0.02398681640625,0.0150604248046875
1761384865581556700,5.501556640625,-1.0003509521484375,-0.024322509765625,0.0152587890625
1761384865591626000,5.5116259765625,-1.0010833740234375,-0.0238189697265625,0.0158233642578125
1761384865601698000,5.521697998046875,-0.99945068359375,-0.0236053466796875,0.0160675048828125
1761384865611767000,5.53176708984375,-1.0000457763671875,-0.023468017578125,0.0150909423828125
1761384865621836000,5.5418359375,-0.9995880126953125,-0.0238494873046875,0.015350341796875
1761384865631905000,5.551905029296875,-1.0007781982421875,-0.0241241455078125,0.015411376953125
1761384865641974000,5.56197412109375,-1.0003662109375,-0.0246124267578125,0.0154266357421875
1761384865652043000,5.57204296875,-1.000335693359375,-0.02447509765625,0.0162811279296875
1761384865662112000,5.582112060546875,-1.0006561279296875,-0.0239715576171875,0.0162200927734375
1761384865672181200,5.59218115234375,-1.0005645751953125,-0.023712158203125,0.01593017578125
1761384865682250000,5.60225,-0.9996795654296875,-0.0236968994140625,0.01593017578125
1761384865692319000,5.612319091796875,-0.999755859375,-0.0234832763671875,0.015350341796875
1761384865702388000,5.622387939453125,-1.0002899169921875,-0.0232391357421875,0.0155792236328125
1761384865712457000,5.63245703125,-1.0012054443359375,-0.0235748291015625,0.0150299072265625
1761384865722526000,5.64252587890625,-1.0006256103515625,-0.023773193359375,0.016448974609375
1761384865732595000,5.652594970703125,-0.9998626708984375,-0.023162841796875,0.01556396484375
1761384865742664200,5.662664306640625,-1.0005645751953125,-0.0238800048828125,0.0152740478515625
1761384865752733000,5.67273291015625,-0.9990386962890625,-0.02392578125,0.0155181884765625
1761384865762802200,5.68280224609375,-0.9998626708984375,-0.02423095703125,0.015289306640625
1761384865772871000,5.692870849609375,-1.0000457763671875,-0.024688720703125,0.0151824951171875
1761384865782940000,5.70293994140625,-1.0004119873046875,-0.02435302734375,0.016326904296875
1761384865793009200,5.713009033203125,-1.0010986328125,-0.0235137939453125,0.0153350830078125
1761384865803078000,5.723077880859375,-1.0000762939453125,-0.0240325927734375,0.0155487060546875
1761384865813147100,5.733147216796875,-1.00054931640625,-0.0243988037109375,0.0154876708984375
1761384865823215900,5.7432158203125,-1.0013885498046875,-0.0237579345703125,0.015472412109375
1761384865833286100,5.7532861328125,-1.00042724609375,-0.0240020751953125,0.0159454345703125
1761384865843355000,5.76335498046875,-1.0008392333984375,-0.02374267578125,0.0158843994140625
1761384865853424000,5.773424072265625,-1.000732421875,-0.02362060546875,0.0162353515625
1761384865863492900,5.783492919921875,-0.99920654296875,-0.0244140625,0.016143798828125
1761384865873562000,5.79356201171875,-1.0000762939453125,-0.02410888671875,0.01605224609375
1761384865883631000,5.803631103515625,-1.0003204345703125,-0.0238037109375,0.015960693359375
1761384865893700000,5.8137001953125,-1.0003662109375,-0.0245208740234375,0.016326904296875
1761384865903769000,5.82376904296875,-1.0002288818359375,-0.024200439453125,0.015167236328125
1761384865913837800,5.833837890625,-1.00006103515625,-0.024444580078125,0.0152435302734375
1761384865923907000,5.843906982421875,-0.9997100830078125,-0.024505615234375,0.0153656005859375
1761384865933975800,5.853975830078125,-0.9998931884765625,-0.0235443115234375,0.0159912109375
1761384865944045000,5.864045166015625,-1.0001983642578125,-0.0238037109375,0.015869140625
1761384865954114000,5.874114013671875,-1.000244140625,-0.0238037109375,0.015533447265625
1761384865964183000,5.88418310546875,-0.9998779296875,-0.023895263671875,0.016082763671875
1761384865974252000,5.894251953125,-1.000579833984375,-0.024383544921875,0.01666259765625
1761384865984321000,5.904321044921875,-1.0000152587890625,-0.0240936279296875,0.01531982421875
1761384865994390000,5.91439013671875,-1.0004425048828125,-0.023284912109375,0.0152740478515625
1761384866004459000,5.924458984375,-1.00091552734375,-0.0234375,0.0157470703125
1761384866014528000,5.934528076171875,-1.0003814697265625,-0.0237579345703125,0.0161895751953125
1761384866024597000,5.944596923828125,-1.0007171630859375,-0.0234222412109375,0.015594482421875
1761384866034666000,5.954666015625,-1.00091552734375,-0.0231170654296875,0.0162200927734375
1761384866044735000,5.96473486328125,-1.0009002685546875,-0.0241241455078125,0.01654052734375
1761384866054804000,5.974803955078125,-1.0017547607421875,-0.024658203125,0.015350341796875
1761384866064873000,5.984873046875,-1.0005035400390625,-0.02423095703125,0.015472412109375
1761384866074942200,5.994942138671875,-1.00115966796875,-0.0238494873046875,0.015411376953125
1761384866085011000,6.005010986328125,-1.0001983642578125,-0.0229949951171875,0.016021728515625
1761384866095080000,6.015079833984375,-1.0008544921875,-0.023223876953125,0.0160675048828125
1761384866105149000,6.02514892578125,-0.9999237060546875,-0.0242156982421875,0.015655517578125
1761384866115218000,6.035218017578125,-0.999542236328125,-0.024658203125,0.014617919921875
1761384866125287200,6.045287109375,-1.00018310546875,-0.02349853515625,0.015777587890625
1761384866135356000,6.05535595703125,-1.000579833984375,-0.023651123046875,0.015838623046875
1761384866145425200,6.065425048828125,-1.0008544921875,-0.023834228515625,0.014892578125
1761384866155494000,6.075493896484375,-1.000946044921875,-0.0239105224609375,0.01568603515625
1761384866165563100,6.085563232421875,-1.0009307861328125,-0.0241241455078125,0.0164031982421875
1761384866175632000,6.0956318359375,-1.0006103515625,-0.023895263671875,0.015380859375
1761384866185701000,6.105701171875,-1.000457763671875,-0.024139404296875,0.01544189453125
1761384866195770000,6.11577001953125,-1.000274658203125,-0.0236663818359375,0.0156402587890625
1761384866205838800,6.1258388671875,-1.0004119873046875,-0.023193359375,0.015625
1761384866215908000,6.135908203125,-1.0001678466796875,-0.0245819091796875,0.015655517578125
1761384866225976800,6.145976806640625,-0.9992218017578125,-0.0242156982421875,0.015167236328125
1761384866236046000,6.156046142578125,-1.0001068115234375,-0.023895263671875,0.015777587890625
1761384866246115000,6.166114990234375,-1.0010986328125,-0.0238037109375,0.0167388916015625
1761384866256184000,6.17618408203125,-1.0008697509765625,-0.0243377685546875,0.015869140625
1761384866266253000,6.186253173828125,-0.999969482421875,-0.0245208740234375,0.0153045654296875
1761384866276322000,6.196322021484375,-1.0001983642578125,-0.02362060546875,0.0160675048828125
1761384866286391000,6.20639111328125,-1.0008392333984375,-0.0242156982421875,0.015533447265625
1761384866296460000,6.2164599609375,-1.0003814697265625,-0.0239410400390625,0.015655517578125
1761384866306529000,6.226529052734375,-0.999603271484375,-0.023529052734375,0.0152587890625
1761384866316598000,6.236597900390625,-0.9999847412109375,-0.024200439453125,0.015716552734375
1761384866326667000,6.2466669921875,-1.000579833984375,-0.0236358642578125,0.0159149169921875
1761384866336736000,6.256736083984375,-0.99981689453125,-0.0239715576171875,0.015472412109375
1761384866346805000,6.266804931640625,-1.0008392333984375,-0.0239410400390625,0.0155029296875
1761384866356874000,6.2768740234375,-1.000213623046875,-0.023651123046875,0.0158843994140625
1761384866366943200,6.286943115234375,-1.0014190673828125,-0.02392578125,0.0160980224609375
1761384866377012000,6.297011962890625,-0.99932861328125,-0.0243072509765625,0.015533447265625
1761384866387081000,6.3070810546875,-1.0007476806640625,-0.024810791015625,0.0155487060546875
1761384866397150000,6.31714990234375,-1.0002288818359375,-0.0239410400390625,0.0148162841796875
1761384866407218000,6.327218017578125,-1.00030517578125,-0.02362060546875,0.01544189453125
1761384866417287200,6.337287109375,-0.9999847412109375,-0.02398681640625,0.0155029296875
1761384866427357000,6.34735693359375,-1.0006561279296875,-0.023193359375,0.0152740478515625
1761384866437425200,6.357425048828125,-1.000244140625,-0.02325439453125,0.0160675048828125
1761384866447494100,6.367494140625,-0.9998626708984375,-0.023956298828125,0.0160064697265625
1761384866457563000,6.37756298828125,-0.999603271484375,-0.0244140625,0.0157012939453125
1761384866467632000,6.387632080078125,-1.000274658203125,-0.02447509765625,0.0157928466796875
1761384866477700900,6.397700927734375,-1.00054931640625,-0.0239105224609375,0.0161590576171875
1761384866487770000,6.40777001953125,-1.0000152587890625,-0.023590087890625,0.01580810546875
1761384866497838800,6.4178388671875,-1.0005645751953125,-0.0238800048828125,0.0157012939453125
1761384866507908000,6.427908203125,-1.000701904296875,-0.02410888671875,0.0152587890625
1761384866517977000,6.43797705078125,-1.000152587890625,-0.02410888671875,0.0157623291015625
1761384866528046000,6.448046142578125,-0.9993896484375,-0.0241851806640625,0.015472412109375
1761384866538115000,6.458114990234375,-0.9999847412109375,-0.0240936279296875,0.01617431640625
1761384866548183800,6.468183837890625,-0.9999847412109375,-0.0244293212890625,0.0162811279296875
1761384866558253000,6.478253173828125,-1.00006103515625,-0.02410888671875,0.0161895751953125
1761384866568322000,6.488322021484375,-1.0010986328125,-0.02362060546875,0.0152740478515625
1761384866578391000,6.49839111328125,-1.0008544921875,-0.02459716796875,0.016693115234375
1761384866588460000,6.5084599609375,-1.00067138671875,-0.024139404296875,0.015533447265625
1761384866598525400,6.518525390625,-1.0009765625,-0.0241241455078125,0.0160064697265625
1761384866608594400,6.528594482421875,-1.0001983642578125,-0.023956298828125,0.0164031982421875
1761384866618663400,6.538663330078125,-1.000823974609375,-0.0232391357421875,0.01531982421875
1761384866628732400,6.548732421875,-1.0011138916015625,-0.024017333984375,0.01568603515625
1761384866638801700,6.5588017578125,-1.0001220703125,-0.0243682861328125,0.0157470703125
1761384866648870400,6.568870361328125,-1.00054931640625,-0.0236968994140625,0.01544189453125
1761384866658939600,6.578939697265625,-1.00103759765625,-0.023529052734375,0.0154266357421875
1761384866669008400,6.58900830078125,-1.0010833740234375,-0.0238800048828125,0.015594482421875
1761384866679077600,6.59907763671875,-0.99951171875,-0.0237274169921875,0.0156097412109375
1761384866689146600,6.609146728515625,-1.0009002685546875,-0.0240631103515625,0.015899658203125
1761384866699215400,6.61921533203125,-1.0013427734375,-0.024078369140625,0.016204833984375
1761384866709284600,6.62928466796875,-1.0005950927734375,-0.024078369140625,0.01531982421875
1761384866719353300,6.639353271484375,-1.0008544921875,-0.02398681640625,0.0159149169921875
1761384866729422600,6.649422607421875,-1.0001983642578125,-0.0238037109375,0.0158538818359375
1761384866739491600,6.65949169921875,-1.0006256103515625,-0.0237274169921875,0.016021728515625
1761384866749560600,6.669560546875,-1.000396728515625,-0.0243988037109375,0.015167236328125
1761384866759629600,6.679629638671875,-1.0012054443359375,-0.0239105224609375,0.0154876708984375
1761384866769698600,6.689698486328125,-1.0001983642578125,-0.0238037109375,0.0160369873046875
1761384866779767600,6.699767578125,-1.0005340576171875,-0.0239410400390625,0.016387939453125
1761384866789836300,6.709836181640625,-1.001068115234375,-0.0238189697265625,0.01519775390625
1761384866799905500,6.719905517578125,-0.9997100830078125,-0.023651123046875,0.015625
1761384866809974500,6.729974609375,-1.0003204345703125,-0.02362060546875,0.0161895751953125
1761384866820043500,6.74004345703125,-1.0008087158203125,-0.0243072509765625,0.0157623291015625
1761384866830112500,6.750112548828125,-1.0015106201171875,-0.0240936279296875,0.015960693359375
1761384866840181500,6.760181396484375,-1.00079345703125,-0.023345947265625,0.01531982421875
1761384866850250500,6.77025048828125,-0.999969482421875,-0.0243072509765625,0.01531982421875
1761384866860319500,6.780319580078125,-1.00054931640625,-0.0244598388671875,0.01617431640625
1761384866870388500,6.790388427734375,-1.00067138671875,-0.0242462158203125,0.015716552734375
1761384866880457500,6.80045751953125,-1.00054931640625,-0.0239715576171875,0.0159454345703125
1761384866890526500,6.8105263671875,-1.0007171630859375,-0.0234832763671875,0.01446533203125
1761384866900595500,6.820595458984375,-1.0008392333984375,-0.0239105224609375,0.01580810546875
1761384866910664400,6.83066455078125,-1.0011749267578125,-0.02410888671875,0.0159149169921875
1761384866920733400,6.8407333984375,-1.0004119873046875,-0.0237884521484375,0.0161285400390625
1761384866930802700,6.850802734375,-0.9993896484375,-0.024444580078125,0.015716552734375
1761384866940871400,6.860871337890625,-1.00018310546875,-0.0244140625,0.015380859375
1761384866950940700,6.870940673828125,-1.0001678466796875,-0.0241241455078125,0.015716552734375
1761384866961009400,6.881009521484375,-1.0006103515625,-0.023895263671875,0.0155487060546875
1761384866971078700,6.89107861328125,-1.0008544921875,-0.0242767333984375,0.01544189453125
1761384866981147600,6.901147705078125,-0.9997100830078125,-0.0234527587890625,0.015869140625
1761384866991216400,6.91121630859375,-1.0006103515625,-0.0237579345703125,0.015625
1761384867001285600,6.92128564453125,-1.0001373291015625,-0.0246124267578125,0.0152587890625
1761384867011354400,6.931354248046875,-1.0009307861328125,-0.0245208740234375,0.0157928466796875
1761384867021423600,6.941423583984375,-0.999542236328125,-0.0233306884765625,0.0154571533203125
1761384867031492400,6.951492431640625,-0.9996795654296875,-0.0243682861328125,0.015899658203125
1761384867041561600,6.9615615234375,-1.00048828125,-0.0247650146484375,0.01507568359375
1761384867051630600,6.971630615234375,-1.001129150390625,-0.0241851806640625,0.01611328125
1761384867061699600,6.981699462890625,-1.0005645751953125,-0.02386474609375,0.016571044921875
1761384867071768600,6.9917685546875,-1.000030517578125,-0.0244903564453125,0.0152435302734375
1761384867081837300,7.00183740234375,-1.0000457763671875,-0.0239715576171875,0.0153045654296875
1761384867091906600,7.011906494140625,-0.9995269775390625,-0.0238189697265625,0.0155029296875
1761384867101975600,7.0219755859375,-1.0008392333984375,-0.023590087890625,0.0169219970703125
1761384867112044500,7.03204443359375,-1.000946044921875,-0.023590087890625,0.015625
1761384867122113500,7.042113525390625,-1.0010833740234375,-0.02337646484375,0.015289306640625
1761384867132182500,7.0521826171875,-0.999114990234375,-0.0234375,0.0157470703125
1761384867142251500,7.06225146484375,-0.999725341796875,-0.02398681640625,0.01531982421875
1761384867152320500,7.072320556640625,-1.000274658203125,-0.0231475830078125,0.0150909423828125
1761384867162389500,7.082389404296875,-0.999969482421875,-0.0244140625,0.0148468017578125
1761384867172458500,7.09245849609375,-1.0017242431640625,-0.023590087890625,0.0154571533203125
1761384867182527500,7.102527587890625,-1.0003204345703125,-0.0240478515625,0.0159912109375
1761384867192596500,7.112596435546875,-1.0010833740234375,-0.0246429443359375,0.0166168212890625
1761384867202665500,7.12266552734375,-1.0001373291015625,-0.0237884521484375,0.016021728515625
1761384867212734500,7.132734375,-1.0002899169921875,-0.0233917236328125,0.0158233642578125
1761384867222803700,7.1428037109375,-1.000396728515625,-0.024383544921875,0.0154266357421875
1761384867232872400,7.15287255859375,-1.00018310546875,-0.0241241455078125,0.01519775390625
1761384867242941700,7.162941650390625,-1.0002288818359375,-0.0233306884765625,0.0155487060546875
1761384867253010400,7.173010498046875,-0.99993896484375,-0.02374267578125,0.0167236328125
1761384867263079400,7.183079345703125,-1.00103759765625,-0.0241546630859375,0.01629638671875
1761384867273148400,7.1931484375,-1.0011138916015625,-0.023773193359375,0.016082763671875
1761384867283217400,7.203217529296875,-1.00042724609375,-0.0234832763671875,0.0157928466796875
1761384867293286700,7.21328662109375,-1.000152587890625,-0.0239715576171875,0.015625
1761384867303355400,7.22335546875,-1.000640869140625,-0.0240325927734375,0.0161285400390625
1761384867313424600,7.233424560546875,-1.00054931640625,-0.0240936279296875,0.01531982421875
1761384867323493400,7.243493408203125,-0.9997711181640625,-0.0245361328125,0.0153961181640625
1761384867333562600,7.253562744140625,-1.000152587890625,-0.024383544921875,0.0155792236328125
1761384867343631600,7.263631591796875,-1.00018310546875,-0.024383544921875,0.0159454345703125
1761384867353700400,7.273700439453125,-0.9997406005859375,-0.02392578125,0.0157623291015625
1761384867363769600,7.28376953125,-0.9994964599609375,-0.02435302734375,0.01605224609375
1761384867373838300,7.29383837890625,-1.00048828125,-0.0235595703125,0.0156707763671875
1761384867383907600,7.303907470703125,-1.000274658203125,-0.024017333984375,0.0164642333984375
1761384867393976600,7.3139765625,-1.000244140625,-0.02374267578125,0.0159759521484375
1761384867404044500,7.32404443359375,-1.0010986328125,-0.0234222412109375,0.0156402587890625
1761384867414114600,7.334114501953125,-1.0009307861328125,-0.0240936279296875,0.0157318115234375
1761384867424182500,7.3441826171875,-0.9996185302734375,-0.0240478515625,0.01593017578125
1761384867434251500,7.35425146484375,-0.9995574951171875,-0.0240936279296875,0.016326904296875
1761384867444320500,7.364320556640625,-1.00048828125,-0.023712158203125,0.0156097412109375
1761384867454389500,7.374389404296875,-1.0007781982421875,-0.02386474609375,0.01544189453125
1761384867464458500,7.38445849609375,-1.00067138671875,-0.023956298828125,0.015777587890625
1761384867474527500,7.394527587890625,-0.99981689453125,-0.0242156982421875,0.016265869140625
1761384867484596500,7.404596435546875,-1.00091552734375,-0.0249176025390625,0.01495361328125
1761384867494665700,7.414665771484375,-0.9998931884765625,-0.0244293212890625,0.015655517578125
1761384867504734500,7.424734375,-1.0003509521484375,-0.023895263671875,0.0164642333984375
1761384867514803500,7.434803466796875,-1.0005645751953125,-0.023590087890625,0.0155181884765625
1761384867524872400,7.44487255859375,-1.0004119873046875,-0.0234832763671875,0.016021728515625
1761384867534941400,7.45494140625,-0.998870849609375,-0.0239715576171875,0.0157623291015625
1761384867545010700,7.4650107421875,-1.0001678466796875,-0.0246429443359375,0.014923095703125
1761384867555079400,7.475079345703125,-1.0008392333984375,-0.024200439453125,0.0158843994140625
1761384867565148700,7.485148681640625,-1.0006561279296875,-0.024169921875,0.0167083740234375
1761384867575217400,7.495217529296875,-1.001434326171875,-0.0238037109375,0.0160064697265625
1761384867585286700,7.50528662109375,-1.0004730224609375,-0.024261474609375,0.015228271484375
1761384867595355100,7.515355224609375,-0.99993896484375,-0.0238800048828125,0.01568603515625
1761384867605424000,7.525424072265625,-1.0011444091796875,-0.022979736328125,0.0162811279296875
1761384867615493000,7.5354931640625,-1.0011444091796875,-0.02386474609375,0.0157012939453125
1761384867625561900,7.545561767578125,-0.9995880126953125,-0.0240325927734375,0.0154266357421875
1761384867635631000,7.555631103515625,-1.0002899169921875,-0.0241851806640625,0.016693115234375
1761384867645700000,7.5657001953125,-1.000823974609375,-0.0239410400390625,0.016357421875
1761384867655769000,7.57576904296875,-1.000457763671875,-0.0245513916015625,0.015045166015625
1761384867665838000,7.585838134765625,-1.000335693359375,-0.0232696533203125,0.0160675048828125
1761384867675907000,7.595906982421875,-1.000518798828125,-0.023681640625,0.0153350830078125
1761384867685976000,7.60597607421875,-1.0006866455078125,-0.02410888671875,0.0161285400390625
1761384867696045000,7.616045166015625,-0.9999542236328125,-0.023681640625,0.0159912109375
1761384867706114000,7.626114013671875,-1.00067138671875,-0.0237579345703125,0.016632080078125
1761384867716183000,7.63618310546875,-1.0004730224609375,-0.024688720703125,0.016357421875
1761384867726252000,7.646251953125,-0.9998779296875,-0.02410888671875,0.015777587890625
1761384867736321000,7.656321044921875,-0.999969482421875,-0.0242156982421875,0.015594482421875
1761384867746390000,7.66639013671875,-1.0009307861328125,-0.0245361328125,0.0149078369140625
1761384867756459000,7.676458984375,-1.0007781982421875,-0.0236358642578125,0.0147705078125
1761384867766528300,7.6865283203125,-0.999725341796875,-0.0237274169921875,0.0161895751953125
1761384867776597000,7.696596923828125,-1.001220703125,-0.024261474609375,0.0160369873046875
1761384867786666200,7.706666259765625,-0.999847412109375,-0.0239105224609375,0.0149993896484375
1761384867796735000,7.71673486328125,-1.0000762939453125,-0.0236968994140625,0.01531982421875
1761384867806804000,7.726803955078125,-1.0006103515625,-0.024261474609375,0.015411376953125
1761384867816873000,7.736873046875,-1.001556396484375,-0.02398681640625,0.01641845703125
1761384867826942000,7.74694189453125,-1.0005950927734375,-0.0236968994140625,0.016082763671875
1761384867837011200,7.75701123046875,-0.9998321533203125,-0.024658203125,0.0155029296875
1761384867847080000,7.767079833984375,-1.0003662109375,-0.0236358642578125,0.0157012939453125
1761384867857149200,7.777149169921875,-1.0004119873046875,-0.0238800048828125,0.0161590576171875
1761384867867218000,7.787218017578125,-1.00079345703125,-0.024139404296875,0.01495361328125
1761384867877287200,7.797287109375,-1.0002288818359375,-0.0242767333984375,0.01605224609375
1761384867887356200,7.807356201171875,-0.99957275390625,-0.0243682861328125,0.01531982421875
1761384867897425200,7.817425048828125,-0.9996795654296875,-0.0246429443359375,0.0153350830078125
1761384867907494100,7.827494140625,-0.998779296875,-0.0236968994140625,0.016845703125
1761384867917563000,7.83756298828125,-1.000152587890625,-0.024200439453125,0.0157318115234375
1761384867927632100,7.847632080078125,-1.0007781982421875,-0.0237884521484375,0.0164642333984375
1761384867937700900,7.857700927734375,-1.000244140625,-0.02435302734375,0.0154876708984375
1761384867947770000,7.86777001953125,-1.0005035400390625,-0.0238494873046875,0.01568603515625
1761384867957839000,7.877839111328125,-0.999542236328125,-0.0235748291015625,0.0157012939453125
1761384867967908000,7.887908203125,-1.000946044921875,-0.0244140625,0.0166015625
1761384867977977000,7.89797705078125,-1.0007171630859375,-0.0241851806640625,0.0163116455078125
1761384867988046000,7.908046142578125,-1.0010528564453125,-0.0245361328125,0.016143798828125
1761384867998115000,7.918114990234375,-0.9999542236328125,-0.023712158203125,0.0157318115234375
1761384868008184000,7.92818408203125,-0.9998931884765625,-0.02362060546875,0.0162200927734375
1761384868018253000,7.938253173828125,-0.9999847412109375,-0.0242462158203125,0.0152130126953125
1761384868028322000,7.948322021484375,-1.00006103515625,-0.0241851806640625,0.016632080078125
1761384868038391000,7.95839111328125,-1,-0.0240631103515625,0.0164031982421875
1761384868048460000,7.9684599609375,-1.0010986328125,-0.0245819091796875,0.015289306640625
1761384868058529000,7.978529052734375,-1.0004730224609375,-0.0239715576171875,0.0153961181640625
1761384868068598000,7.988597900390625,-1.0003662109375,-0.0243377685546875,0.0165863037109375
1761384868078666000,7.998666015625,-1.00067138671875,-0.0234375,0.0162811279296875
1761384868088735000,8.00873486328125,-1.0009765625,-0.023529052734375,0.0162506103515625
1761384868098804000,8.018803955078125,-1.000640869140625,-0.0244598388671875,0.0161590576171875
1761384868108873200,8.028873291015625,-0.99957275390625,-0.0240325927734375,0.0155792236328125
1761384868118942000,8.03894189453125,-0.999969482421875,-0.0235595703125,0.01568603515625
1761384868129011200,8.04901123046875,-1.0005340576171875,-0.0237579345703125,0.0162506103515625
1761384868139080000,8.059079833984375,-1.001220703125,-0.0242156982421875,0.0157318115234375
1761384868149149000,8.06914892578125,-1.0009613037109375,-0.0235443115234375,0.0158843994140625
1761384868159218200,8.07921826171875,-0.999908447265625,-0.023895263671875,0.0157318115234375
1761384868169287000,8.089286865234374,-1.0005950927734375,-0.024261474609375,0.015167236328125
1761384868179356200,8.099356201171876,-1.0004425048828125,-0.0236053466796875,0.0154876708984375
1761384868189425000,8.1094248046875,-1.0006256103515625,-0.024078369140625,0.0155029296875
1761384868199494100,8.119494140625,-1.0009918212890625,-0.0240478515625,0.01605224609375
1761384868209563100,8.129563232421875,-1.000823974609375,-0.0238037109375,0.015869140625
1761384868219632000,8.139632080078124,-0.9993133544921875,-0.023681640625,0.0164337158203125
1761384868229701000,8.149701171875,-0.9994659423828125,-0.0241546630859375,0.0161285400390625
1761384868239770000,8.15977001953125,-1.0003509521484375,-0.025054931640625,0.0154571533203125
1761384868249839000,8.169839111328125,-1.0009613037109375,-0.024688720703125,0.015228271484375
1761384868259907800,8.179907958984375,-0.9998321533203125,-0.024383544921875,0.0165252685546875
1761384868269977000,8.18997705078125,-0.9997711181640625,-0.0241241455078125,0.016265869140625
1761384868280046000,8.200046142578126,-1.0000457763671875,-0.023590087890625,0.0169677734375
1761384868290115000,8.210114990234375,-1,-0.0242156982421875,0.0158233642578125
1761384868300184000,8.22018408203125,-1.001068115234375,-0.0240325927734375,0.016387939453125
1761384868310253000,8.230253173828125,-1.0001068115234375,-0.023834228515625,0.015838623046875
1761384868320322000,8.240322021484374,-0.9999847412109375,-0.0235595703125,0.015838623046875
1761384868330391300,8.250391357421876,-1.000457763671875,-0.02423095703125,0.0155181884765625
1761384868340460000,8.2604599609375,-1.0001373291015625,-0.0233154296875,0.01611328125
1761384868350529000,8.270529052734375,-1.001556396484375,-0.02349853515625,0.0155487060546875
1761384868360598000,8.280597900390624,-1.0006256103515625,-0.02484130859375,0.0163421630859375
1761384868370667000,8.2906669921875,-1.0013427734375,-0.023956298828125,0.0158843994140625
1761384868380736000,8.300736083984376,-1.0000152587890625,-0.0241851806640625,0.0156707763671875
1761384868390805000,8.310804931640625,-1.001434326171875,-0.0237884521484375,0.0148162841796875
1761384868400874200,8.320874267578125,-1.0005035400390625,-0.0235595703125,0.016448974609375
1761384868410943000,8.33094287109375,-1.0007476806640625,-0.023406982421875,0.016082763671875
1761384868421012200,8.34101220703125,-1.0008392333984375,-0.02423095703125,0.0166778564453125
1761384868431081000,8.3510810546875,-1.000335693359375,-0.02392578125,0.0164947509765625
1761384868441150000,8.36114990234375,-1.000579833984375,-0.024169921875,0.0154266357421875
1761384868451219200,8.37121923828125,-1.000213623046875,-0.0238494873046875,0.0154266357421875
1761384868461288000,8.381287841796874,-1.0008087158203125,-0.0240936279296875,0.01580810546875
1761384868471357200,8.391357177734376,-1.0001983642578125,-0.0238800048828125,0.015869140625
1761384868481426000,8.401426025390625,-1.000701904296875,-0.0238037109375,0.0154266357421875
1761384868491495200,8.4114951171875,-1.000823974609375,-0.02386474609375,0.0158538818359375
1761384868501564000,8.42156396484375,-1.0007171630859375,-0.0235443115234375,0.0155181884765625
1761384868511633200,8.431633056640624,-1.00018310546875,-0.0241241455078125,0.0153350830078125
1761384868521702100,8.4417021484375,-1.0007476806640625,-0.0235748291015625,0.0164337158203125
1761384868531771000,8.45177099609375,-1.00091552734375,-0.023651123046875,0.0157623291015625
1761384868541840100,8.461840087890625,-1.0003509521484375,-0.0242156982421875,0.0161895751953125
1761384868551908900,8.471908935546875,-1.0005035400390625,-0.0246124267578125,0.015411376953125
1761384868561978000,8.48197802734375,-0.9998626708984375,-0.0234375,0.016387939453125
1761384868572047000,8.492047119140626,-1.00140380859375,-0.023406982421875,0.0169219970703125
1761384868582116000,8.5021162109375,-0.9999847412109375,-0.024444580078125,0.016387939453125
1761384868592185000,8.51218505859375,-1.0010986328125,-0.02386474609375,0.0155181884765625
1761384868602254600,8.522254638671875,-1.001190185546875,-0.0243072509765625,0.01593017578125
1761384868612323800,8.53232373046875,-1.000213623046875,-0.0236053466796875,0.016204833984375
1761384868622391800,8.542391845703126,-1.000274658203125,-0.0236053466796875,0.0160675048828125
1761384868632460500,8.55246044921875,-0.9996490478515625,-0.024139404296875,0.0155181884765625
1761384868642529800,8.56252978515625,-0.99993896484375,-0.024658203125,0.0155487060546875
1761384868652598500,8.5725986328125,-1.0001983642578125,-0.0244140625,0.015625
1761384868662667800,8.582667724609376,-1.000518798828125,-0.02435302734375,0.0155181884765625
1761384868672736800,8.59273681640625,-1.0004119873046875,-0.0237274169921875,0.015625
1761384868682805500,8.602805419921875,-1.00067138671875,-0.0245361328125,0.01580810546875
1761384868692874800,8.612874755859375,-1.00048828125,-0.024505615234375,0.0160675048828125
1761384868702943500,8.622943603515624,-1.001190185546875,-0.0246429443359375,0.0156707763671875
1761384868713012700,8.6330126953125,-1.0001678466796875,-0.024261474609375,0.015289306640625
1761384868723081500,8.64308154296875,-1.0003814697265625,-0.023681640625,0.0153350830078125
1761384868733150700,8.653150634765625,-1.000152587890625,-0.0239715576171875,0.014984130859375
1761384868743219700,8.6632197265625,-1.001220703125,-0.024078369140625,0.0153961181640625
1761384868753288700,8.673288818359374,-1.000396728515625,-0.024261474609375,0.016204833984375
1761384868763357700,8.683357666015626,-0.9992523193359375,-0.023712158203125,0.0158233642578125
1761384868773426400,8.693426513671875,-0.9989166259765625,-0.0236358642578125,0.0159759521484375
1761384868783495700,8.70349560546875,-1.000030517578125,-0.0246124267578125,0.015625
1761384868793564700,8.713564697265625,-0.999664306640625,-0.0239715576171875,0.015380859375
1761384868803633700,8.723633544921874,-1.0008697509765625,-0.0233917236328125,0.016357421875
1761384868813702700,8.73370263671875,-0.9998931884765625,-0.0240325927734375,0.01641845703125
1761384868823771600,8.743771728515625,-0.9996185302734375,-0.0243988037109375,0.0158233642578125
1761384868833840600,8.753840576171875,-1.0015106201171875,-0.024383544921875,0.0153961181640625
1761384868843909600,8.76390966796875,-0.999542236328125,-0.0237579345703125,0.01666259765625
1761384868853978600,8.773978515625,-1.0003204345703125,-0.0242462158203125,0.01593017578125
1761384868864047600,8.784047607421876,-1.0012054443359375,-0.024383544921875,0.0159759521484375
1761384868874116600,8.79411669921875,-0.9999847412109375,-0.023956298828125,0.0146026611328125
1761384868884185600,8.804185546875,-0.9997406005859375,-0.0233306884765625,0.0151824951171875
1761384868894254600,8.814254638671875,-1.000274658203125,-0.0238494873046875,0.01641845703125
1761384868904323600,8.824323486328124,-1.000152587890625,-0.023773193359375,0.0158843994140625
1761384868914392800,8.834392822265626,-1.0002593994140625,-0.0237579345703125,0.0163116455078125
1761384868924461600,8.844461669921875,-1.00152587890625,-0.02392578125,0.0161895751953125
1761384868934530800,8.85453076171875,-1.0005645751953125,-0.02392578125,0.016143798828125
1761384868944599600,8.864599609375,-1.0007476806640625,-0.0241546630859375,0.016143798828125
1761384868954668800,8.874668701171874,-1.000244140625,-0.0239410400390625,0.01593017578125
1761384868964737500,8.884737548828125,-0.9996337890625,-0.023681640625,0.0153350830078125
1761384868974806500,8.894806640625,-1.0003662109375,-0.0236358642578125,0.0164794921875
1761384868984875800,8.904875732421875,-1.0011444091796875,-0.0240936279296875,0.0152740478515625
1761384868994944500,8.914944580078124,-1.0001678466796875,-0.023956298828125,0.0149688720703125
1761384869005013800,8.925013671875,-1.0002593994140625,-0.0244140625,0.0162506103515625
1761384869015082500,8.93508251953125,-1.0008087158203125,-0.0238189697265625,0.016326904296875
1761384869025151700,8.94515185546875,-1.0008392333984375,-0.024169921875,0.01544189453125
1761384869035220700,8.955220703125,-1.000762939453125,-0.0243377685546875,0.015655517578125
1761384869045289700,8.965289794921874,-1.0001983642578125,-0.0235443115234375,0.015380859375
1761384869055358700,8.975358642578126,-1.000213623046875,-0.0239715576171875,0.0155487060546875
1761384869065427500,8.985427490234375,-1.0008392333984375,-0.0243682861328125,0.0153350830078125
1761384869075496700,8.99549658203125,-1.0009765625,-0.0237579345703125,0.015472412109375
1761384869085565400,9.0055654296875,-1.0003509521484375,-0.0246734619140625,0.015167236328125
1761384869095633700,9.015633544921876,-1.0007171630859375,-0.023223876953125,0.015472412109375
1761384869105702700,9.02570263671875,-1.0014801025390625,-0.0236053466796875,0.015655517578125
1761384869115771600,9.035771728515625,-1.0010223388671875,-0.023590087890625,0.015594482421875
1761384869125840600,9.045840576171875,-1.00103759765625,-0.0232391357421875,0.0158233642578125
1761384869135909600,9.05590966796875,-1.0009765625,-0.0243072509765625,0.016632080078125
1761384869145978600,9.065978515625,-1.0002288818359375,-0.0237884521484375,0.0153045654296875
1761384869156047600,9.076047607421875,-0.999908447265625,-0.0239410400390625,0.0153350830078125
1761384869166116600,9.08611669921875,-1.0001068115234375,-0.0242156982421875,0.0167388916015625
1761384869176185600,9.096185546875,-1.00079345703125,-0.0233612060546875,0.0161590576171875
1761384869186254800,9.1062548828125,-1.00054931640625,-0.0237579345703125,0.016143798828125
1761384869196323600,9.116323486328126,-0.9995269775390625,-0.02374267578125,0.0157012939453125
1761384869206391600,9.1263916015625,-1.0017852783203125,-0.0238494873046875,0.015655517578125
1761384869216460800,9.136460693359375,-1.0012664794921875,-0.0244903564453125,0.0159454345703125
1761384869226529500,9.146529541015624,-0.9999542236328125,-0.024322509765625,0.0158233642578125
1761384869236598800,9.156598876953124,-0.999053955078125,-0.0234222412109375,0.016815185546875
1761384869246667500,9.16666748046875,-1.00067138671875,-0.0232696533203125,0.0158538818359375
1761384869256736800,9.17673681640625,-1.0003509521484375,-0.024261474609375,0.0166778564453125
1761384869266805800,9.1868056640625,-1.0004730224609375,-0.0245208740234375,0.0147552490234375
1761384869276874500,9.19687451171875,-1.0003509521484375,-0.0244140625,0.016204833984375
1761384869286943700,9.20694384765625,-1.000457763671875,-0.024566650390625,0.0162811279296875
1761384869297012500,9.217012451171875,-1.0004730224609375,-0.023773193359375,0.01544189453125
1761384869307081700,9.227081787109375,-1.00048828125,-0.0242462158203125,0.0153656005859375
1761384869317150700,9.237150634765625,-1.0007781982421875,-0.0240936279296875,0.0156402587890625
1761384869327219700,9.2472197265625,-1.000030517578125,-0.0239715576171875,0.015655517578125
1761384869337288700,9.257288818359376,-0.9991302490234375,-0.023681640625,0.0161285400390625
1761384869347357700,9.267357666015625,-0.9998321533203125,-0.02349853515625,0.0160980224609375
1761384869357426700,9.2774267578125,-1.0002899169921875,-0.0236358642578125,0.0158233642578125
1761384869367495400,9.287495361328125,-1.000885009765625,-0.0240478515625,0.0147247314453125
1761384869377564700,9.297564697265624,-0.9997711181640625,-0.02349853515625,0.01580810546875
1761384869387633700,9.307633544921876,-1.000946044921875,-0.0249481201171875,0.0155181884765625
1761384869397702700,9.31770263671875,-1.0008087158203125,-0.0243377685546875,0.015869140625
1761384869407770600,9.3277705078125,-1.0006561279296875,-0.024017333984375,0.0157928466796875
1761384869417839600,9.337839599609374,-1.000457763671875,-0.023773193359375,0.0150604248046875
1761384869427908600,9.34790869140625,-1.000732421875,-0.024322509765625,0.01568603515625
1761384869437977600,9.3579775390625,-1.0009918212890625,-0.023956298828125,0.0156097412109375
1761384869448046600,9.368046630859375,-1.001373291015625,-0.0238800048828125,0.015960693359375
1761384869458115600,9.378115478515625,-0.9998931884765625,-0.02386474609375,0.01544189453125
1761384869468184800,9.388184814453124,-1.0005950927734375,-0.0235137939453125,0.015350341796875
1761384869478253600,9.398253662109376,-1.000640869140625,-0.0235137939453125,0.015899658203125
1761384869488322800,9.40832275390625,-1.0012969970703125,-0.0237579345703125,0.0166473388671875
1761384869498391600,9.4183916015625,-1.000946044921875,-0.024444580078125,0.016448974609375
1761384869508460800,9.428460693359375,-0.999786376953125,-0.023712158203125,0.0155029296875
1761384869518529500,9.438529541015624,-1.000823974609375,-0.024322509765625,0.015411376953125
1761384869528598500,9.4485986328125,-1.0006256103515625,-0.0241851806640625,0.0162811279296875
1761384869538667800,9.458667724609375,-1.0011749267578125,-0.024200439453125,0.0165863037109375
1761384869548736500,9.468736572265625,-1.0008544921875,-0.02471923828125,0.01483154296875
1761384869558805800,9.4788056640625,-1.0000457763671875,-0.0243682861328125,0.015655517578125
1761384869568874500,9.48887451171875,-0.9997711181640625,-0.0242156982421875,0.01605224609375
1761384869578943700,9.49894384765625,-0.999603271484375,-0.0244140625,0.015045166015625
1761384869589012700,9.5090126953125,-1.00091552734375,-0.024078369140625,0.0157318115234375
1761384869599082500,9.51908251953125,-1.0003662109375,-0.023956298828125,0.0155029296875
1761384869609151500,9.5291513671875,-0.999420166015625,-0.0242462158203125,0.0165863037109375
1761384869619220500,9.539220458984374,-1.00030517578125,-0.023956298828125,0.0157470703125
1761384869629289500,9.54928955078125,-1.0010528564453125,-0.0233612060546875,0.0156097412109375
1761384869639358200,9.559358154296875,-1.000335693359375,-0.0238037109375,0.014923095703125
1761384869649427500,9.569427490234375,-1.000732421875,-0.0244598388671875,0.016021728515625
1761384869659496200,9.57949609375,-1.0006866455078125,-0.0241851806640625,0.0152740478515625
1761384869669565400,9.5895654296875,-1.000274658203125,-0.023773193359375,0.0164947509765625
1761384869679634400,9.599634521484376,-1.000457763671875,-0.023468017578125,0.0167388916015625
1761384869689703400,9.609703369140625,-1.000091552734375,-0.0240020751953125,0.01605224609375
1761384869699772400,9.6197724609375,-1.000701904296875,-0.02423095703125,0.0158538818359375
1761384869709841400,9.62984130859375,-1.0006561279296875,-0.0237884521484375,0.0163116455078125
1761384869719910400,9.639910400390624,-1.000946044921875,-0.0242156982421875,0.01507568359375
1761384869729979400,9.6499794921875,-0.99969482421875,-0.02386474609375,0.0164642333984375
1761384869740048400,9.66004833984375,-1.0003204345703125,-0.023101806640625,0.0152435302734375
1761384869750117400,9.670117431640625,-1.0009307861328125,-0.023681640625,0.015655517578125
1761384869760186400,9.680186279296874,-1.0006561279296875,-0.0244598388671875,0.0159454345703125
1761384869770255400,9.69025537109375,-1.000823974609375,-0.0236358642578125,0.01617431640625
1761384869780324400,9.700324462890626,-1.00079345703125,-0.0240631103515625,0.015655517578125
1761384869790392300,9.710392333984375,-1.00006103515625,-0.0236968994140625,0.015472412109375
1761384869800461300,9.72046142578125,-1.000244140625,-0.0235595703125,0.015838623046875
1761384869810530300,9.7305302734375,-0.9992523193359375,-0.0235137939453125,0.01513671875
1761384869820599300,9.740599365234376,-0.9996185302734375,-0.02349853515625,0.015594482421875
1761384869830668500,9.75066845703125,-1.0001678466796875,-0.0237579345703125,0.0155029296875
1761384869840737300,9.7607373046875,-1.000152587890625,-0.0238800048828125,0.015472412109375
1761384869850806500,9.770806640625,-1.0012664794921875,-0.0238037109375,0.0167388916015625
1761384869860875300,9.780875244140624,-1.001922607421875,-0.0237884521484375,0.015899658203125
1761384869870944500,9.790944580078126,-1.0010223388671875,-0.023590087890625,0.015899658203125
1761384869881013500,9.801013427734375,-1.0006561279296875,-0.023468017578125,0.0152587890625
1761384869891082200,9.811082275390625,-1.0003662109375,-0.0240936279296875,0.0157470703125
1761384869901151500,9.8211513671875,-0.999847412109375,-0.0245513916015625,0.0156402587890625
1761384869911220200,9.83122021484375,-0.99981689453125,-0.023895263671875,0.015045166015625
1761384869921289500,9.84128955078125,-0.99951171875,-0.024200439453125,0.0159454345703125
1761384869931358500,9.8513583984375,-1.000701904296875,-0.023773193359375,0.015625
1761384869941427500,9.861427490234375,-1.0007171630859375,-0.0236663818359375,0.0159759521484375
1761384869951496400,9.871496337890624,-1.000885009765625,-0.0229339599609375,0.0149078369140625
1761384869961565400,9.8815654296875,-1.0005950927734375,-0.0238800048828125,0.015380859375
1761384869971634400,9.891634521484375,-1.0003204345703125,-0.0245208740234375,0.014984130859375
1761384869981703200,9.901703125,-1.0004425048828125,-0.0241241455078125,0.015167236328125
1761384869991772400,9.9117724609375,-1.0005035400390625,-0.0240325927734375,0.0155792236328125
1761384870001841400,9.92184130859375,-1.0010986328125,-0.0238800048828125,0.0162811279296875
1761384870011910400,9.931910400390626,-0.999755859375,-0.0235443115234375,0.01519775390625
1761384870021979400,9.9419794921875,-1.0012664794921875,-0.0238189697265625,0.0154876708984375
1761384870032048400,9.95204833984375,-1.0010986328125,-0.0240631103515625,0.016357421875
1761384870042117400,9.962117431640625,-1.0013580322265625,-0.0244140625,0.0159759521484375
1761384870052186400,9.972186279296874,-1.00146484375,-0.0238189697265625,0.015380859375
1761384870062255400,9.98225537109375,-1.001068115234375,-0.0246124267578125,0.0153350830078125
1761384870072324400,9.992324462890625,-0.9998779296875,-0.023651123046875,0.0158538818359375
1761384870082393300,10.002393310546875,-1.000823974609375,-0.0238189697265625,0.0162506103515625
1761384870092462300,10.01246240234375,-0.9999237060546875,-0.02386474609375,0.0163421630859375
1761384870102531300,10.02253125,-1.000152587890625,-0.0237884521484375,0.016693115234375
1761384870112600300,10.032600341796876,-1,-0.024017333984375,0.0154571533203125
1761384870122669600,10.042669677734375,-1.0001220703125,-0.0238800048828125,0.0157012939453125
1761384870132738300,10.05273828125,-0.9999542236328125,-0.02410888671875,0.01605224609375
1761384870142807600,10.0628076171875,-0.9997100830078125,-0.0244903564453125,0.01531982421875
1761384870152875500,10.07287548828125,-0.9998626708984375,-0.0237274169921875,0.0143890380859375
1761384870162944300,10.0829443359375,-0.99932861328125,-0.024139404296875,0.015380859375
1761384870173013500,10.093013427734375,-1,-0.023834228515625,0.01641845703125
1761384870183082200,10.103082275390625,-1.000885009765625,-0.0240936279296875,0.0158538818359375
1761384870193151500,10.1131513671875,-1.000732421875,-0.02362060546875,0.0157470703125
1761384870203220500,10.123220458984376,-1.000762939453125,-0.02423095703125,0.0154571533203125
1761384870213289500,10.13328955078125,-0.999359130859375,-0.0246429443359375,0.015655517578125
1761384870223358500,10.1433583984375,-0.9998016357421875,-0.0245361328125,0.01641845703125
1761384870233427200,10.15342724609375,-1.000457763671875,-0.0245513916015625,0.0162353515625
1761384870243496400,10.163496337890624,-1.00054931640625,-0.024322509765625,0.0154571533203125
1761384870253565200,10.173565185546876,-1.0007171630859375,-0.0243377685546875,0.015838623046875
1761384870263634400,10.183634521484375,-1.000518798828125,-0.0234832763671875,0.0163726806640625
1761384870273703400,10.193703369140625,-0.9983062744140625,-0.0236968994140625,0.0150604248046875
1761384870283772400,10.2037724609375,-1.001373291015625,-0.0241546630859375,0.0155487060546875
1761384870293841400,10.21384130859375,-1.00244140625,-0.0233306884765625,0.01605224609375
1761384870303910400,10.223910400390626,-0.9995880126953125,-0.023345947265625,0.016510009765625
1761384870313979400,10.2339794921875,-1.0007476806640625,-0.0236663818359375,0.016326904296875
1761384870324048400,10.24404833984375,-1.0018463134765625,-0.0232086181640625,0.0166473388671875
1761384870334117400,10.254117431640625,-1.000213623046875,-0.0235443115234375,0.01507568359375
1761384870344186400,10.264186279296876,-1.00103759765625,-0.0238189697265625,0.014862060546875
1761384870354255400,10.27425537109375,-1.000030517578125,-0.02459716796875,0.0150146484375
1761384870364324400,10.284324462890625,-0.99969482421875,-0.0241241455078125,0.015045166015625
1761384870374393300,10.294393310546875,-1.0009765625,-0.0244903564453125,0.0154876708984375
