time,seconds_elapsed,z,y,x
1761384860185829400,0.105829345703125,0.002286816481500864,-0.0018578432500362396,0.00044960202649235725
1761384860195898400,0.1158984375,-0.00018459709826856852,0.00176698574796319,-0.0006944921333342791
1761384860205967400,0.12596728515625,0.004423736594617367,0.0000963844358921051,0.0007891547866165638
1761384860216036400,0.136036376953125,-0.0000956475269049406,-0.0013624951243400574,-0.004636236932128668
1761384860226105300,0.146105224609375,0.0011974226217716932,0.0005432805046439171,-0.0013255516532808542
1761384860236174300,0.15617431640625,-0.00020153133664280176,-0.0000070212408900260925,-0.00027113454416394234
1761384860246243600,0.16624365234375,0.0017476362409070134,-0.002062714658677578,-0.0014969876501709223
1761384860256312300,0.176312255859375,-0.001838174881413579,0.00039094313979148865,0.00012052012607455254
1761384860266381600,0.186381591796875,-0.0016152681782841682,-0.001936660148203373,0.0009764600545167923
1761384860276450300,0.1964501953125,-0.0011143016163259745,-0.001965572126209736,-0.003278489224612713
1761384860286519300,0.206519287109375,0.0030689919367432594,-0.000859561376273632,0.0005292985588312149
1761384860296588500,0.216588623046875,-0.0007771673845127225,0.00005795806646347046,-0.0011947434395551682
1761384860306657300,0.2266572265625,0.002471888903528452,-0.0010619014501571655,0.0008721360936760902
1761384860316726500,0.2367265625,0.0014800889184698462,-0.0012873131781816483,0.0014082971028983593
1761384860326795300,0.246795166015625,-0.0007516401819884777,-0.0010705320164561272,0.00037738773971796036
1761384860336863200,0.25686328125,-0.0025715483352541924,-0.0007075630128383636,-0.0009190686978399754
1761384860346932500,0.266932373046875,-0.0015574166318401694,-0.00119731854647398,0.00114541407674551
1761384860357002500,0.27700244140625,0.0018670110730454326,-0.0027272170409560204,-0.0005220882594585419
1761384860367071500,0.287071533203125,0.002079531317576766,-0.00036872178316116333,0.0008084271103143692
1761384860377139500,0.297139404296875,0.00044948048889636993,-0.0010317172855138779,0.0007436997257173061
1761384860387208400,0.30720849609375,-0.004211850464344025,-0.0008314475417137146,0.00029176147654652596
1761384860397277400,0.31727734375,-0.0007042663637548685,-0.0004375223070383072,0.0001722690649330616
1761384860407346400,0.327346435546875,0.0016688763862475753,0.0006724828854203224,0.000052959658205509186
1761384860417415400,0.33741552734375,-0.0016128409188240767,-0.0017142612487077713,-0.0008727849926799536
1761384860427484200,0.347484130859375,0.0004750773077830672,0.0013446458615362644,-0.0015915720723569393
1761384860437553400,0.357553466796875,-0.0014946621377021074,0.0016243206337094307,-0.0013834945857524872
1761384860447622400,0.367622314453125,0.00011681672185659409,-0.00017704162746667862,0.00021067354828119278
1761384860457691400,0.37769140625,-0.001977331703528762,-0.00027058180421590805,0.000873953104019165
1761384860467760400,0.387760498046875,0.0005460134125314653,-0.00015153829008340836,-0.0004192781634628773
1761384860477829400,0.397829345703125,-0.0021339822560548782,0.0009245057590305805,-0.0005836321506649256
1761384860487898400,0.4078984375,-0.0008058638777583838,-0.0022438568994402885,0.0019551594741642475
1761384860497967400,0.41796728515625,-0.0005764391971752048,0.00010292418301105499,-0.002351413480937481
1761384860508036400,0.428036376953125,0.0018555595306679606,0.0012177228927612305,-0.0003676246851682663
1761384860518105600,0.438105712890625,0.0010242910357192159,-0.00017189327627420425,-0.00044722389429807663
1761384860528174300,0.44817431640625,-0.000552300363779068,-0.0033839326351881027,0.000997807364910841
1761384860538243300,0.458243408203125,-0.0018142412882298231,-0.0008215261623263359,-0.0023478250950574875
1761384860548312300,0.468312255859375,-0.0018597813323140144,0.0006027324125170708,0.001731871161609888
1761384860558381300,0.47838134765625,0.000666458101477474,-0.0015176096931099892,-0.0003473847173154354
1761384860568450600,0.488450439453125,-0.0019767293706536293,-0.0005735186859965324,0.0005831238813698292
1761384860578519300,0.498519287109375,0.00098151876591146,0.002873760648071766,0.004362826235592365
1761384860588588800,0.5085888671875,0.00033756636548787355,-0.003788136877119541,0.0009430614300072193
1761384860598657500,0.518657470703125,0.00034815329127013683,0.0009499369189143181,0.0036087040789425373
1761384860608726800,0.528726806640625,0.0010064867092296481,-0.00210763793438673,0.0022451658733189106
1761384860618795500,0.53879541015625,0.000522791116964072,0.0021270979195833206,0.000039886683225631714
1761384860628864500,0.548864501953125,-0.000013835844583809376,0.0010751495137810707,0.0026766820810735226
1761384860638933800,0.558933837890625,0.0005787702975794673,-0.0006303749978542328,-0.0012097042053937912
1761384860649002500,0.56900244140625,-0.001127517083659768,0.0007627247832715511,-0.0013585749547928572
1761384860659071700,0.57907177734375,0.00020084960851818323,0.0009421906433999538,0.0010948926210403442
1761384860669140500,0.589140380859375,-0.00047159858513623476,-0.0005233464762568474,0.0002461434341967106
1761384860679209700,0.599209716796875,-0.0016316057881340384,0.000708321575075388,0.0006804196164011955
1761384860689278700,0.60927880859375,-0.000029980787076056004,0.0008537298999726772,0.001050066202878952
1761384860699347700,0.61934765625,-0.0003479663282632828,-0.0009688464924693108,-0.0005713396240025759
1761384860709416700,0.629416748046875,0.0002230154350399971,-0.0009560631588101387,0.0015480038709938526
1761384860719485700,0.639485595703125,-0.00009412842337042093,0.00012209266424179077,-0.0025948742404580116
1761384860729554700,0.6495546875,0.00045181962195783854,-0.001488320529460907,-0.0004025599919259548
1761384860739623400,0.65962353515625,-0.0008649127557873726,-0.0016925418749451637,0.0005975421518087387
1761384860749692700,0.669692626953125,0.001727674505673349,-0.000550578348338604,-0.0004291064105927944
1761384860759761700,0.67976171875,-0.0014038952067494392,-0.002316504716873169,0.0008974261581897736
1761384860769830700,0.68983056640625,-0.000017187325283885002,0.00085079250857234,0.0005224528722465038
1761384860779899600,0.699899658203125,0.0007361103198491037,0.0011324072256684303,0.00027770688757300377
1761384860789968600,0.70996875,-0.00022981816437095404,-0.0007227510213851929,-0.0031186225824058056
1761384860800037600,0.72003759765625,0.00028486759401857853,0.002030785195529461,0.000006527639925479889
1761384860810107000,0.73010693359375,-0.00036893843207508326,-0.00212667603045702,0.0023415875621140003
1761384860820175600,0.740175537109375,-0.000255363411270082,0.004298736806958914,-0.002472850028425455
1761384860830244600,0.75024462890625,-0.0005602954188361764,0.0008853632025420666,-0.0022621939424425364
1761384860840313600,0.760313720703125,-0.0009854987729340792,-0.000250350683927536,0.00046305684372782707
1761384860850382600,0.770382568359375,0.0009144002688117325,-0.003330029547214508,-0.0023540351539850235
1761384860860451600,0.78045166015625,0.0000912912655621767,-0.0006603309884667397,-0.0002939486876130104
1761384860870520600,0.7905205078125,-0.00018834066577255726,-0.002304566092789173,-0.0018066240008920431
1761384860880589800,0.80058984375,-0.0004349827067926526,-0.0021664686501026154,0.0008982024155557156
1761384860890658600,0.810658447265625,0.0018976801075041294,-0.0005651097744703293,0.0010105879046022892
1761384860900727800,0.820727783203125,0.00025321985594928265,0.0018475600518286228,0.0009887944906949997
1761384860910797600,0.830797607421875,0.00014189979992806911,0.0004462040960788727,0.0024428805336356163
1761384860920866800,0.84086669921875,-0.0007012352580204606,0.001915148925036192,0.00016085011884570122
1761384860930934800,0.850934814453125,-0.0011766095412895083,0.00020060595124959946,0.0022759325802326202
1761384860941003500,0.86100341796875,0.0000027811620384454727,-0.0005811983719468117,-0.0038991905748844147
1761384860951072800,0.87107275390625,-0.00006672728341072798,-0.0002986369654536247,-0.0017260510940104723
1761384860961142500,0.881142578125,0.00004376948345452547,-0.0013984795659780502,0.000007604248821735382
1761384860971211800,0.891211669921875,-0.0014566555619239807,-0.0007087215781211853,0.002044922672212124
1761384860981279500,0.901279541015625,-0.0015733921900391579,-0.00025652628391981125,0.0007397010922431946
1761384860991349800,0.911349853515625,-0.0011020125821232796,0.0010558790527284145,0.000874456949532032
1761384861001417700,0.921417724609375,-0.0011342331999912858,-0.0002226186916232109,0.001240369863808155
1761384861011487700,0.93148779296875,0.00035181071143597364,-0.0010540569201111794,0.001273393165320158
1761384861021556700,0.941556640625,0.0005650997045449913,-0.0013995412737131119,-0.00025343429297208786
1761384861031625700,0.951625732421875,-0.002024292014539242,-0.000587809830904007,-0.0015432031359523535
1761384861041694700,0.96169482421875,0.00035126565489917994,-0.00015137530863285065,-0.0012191671412438154
1761384861051763500,0.971763427734375,-0.000030098948627710342,-0.0009657703340053558,0.0013723550364375114
1761384861061832700,0.981832763671875,0.002094608498737216,-0.0003447188064455986,-0.0009358334355056286
1761384861071901400,0.9919013671875,-0.000508631463162601,-0.0003010435029864311,-0.0006418204866349697
1761384861081970700,1.001970703125,0.002696634503081441,-0.010965391993522644,0.0015746401622891426
1761384861092039700,1.012039794921875,-0.001265882863663137,-0.005819366313517094,0.0023701265454292297
1761384861102108700,1.022108642578125,0.0010825543431565166,-0.0037516942247748375,0.0008022435940802097
1761384861112177700,1.032177734375,-0.0008628848008811474,-0.00034018419682979584,-0.00029125064611434937
1761384861122246700,1.04224658203125,-0.0016369868535548449,0.0018576341681182384,-0.0005823727697134018
1761384861132315600,1.052315673828125,-0.001105420058593154,0.0025905361399054527,0.0008839638903737068
1761384861142384600,1.062384521484375,-0.001267521409317851,0.003079191781580448,-0.0010067860130220652
1761384861152453600,1.07245361328125,-0.0008675146382302046,0.0010218997485935688,0.002006048336625099
1761384861162522600,1.082522705078125,-0.00017883768305182457,0.0014201365411281586,0.001763822976499796
1761384861172591600,1.092591552734375,-0.0018148175440728664,0.0020238752476871014,-0.00020984606817364693
1761384861182660600,1.10266064453125,-0.00032200023997575045,0.0010208673775196075,0.0005796700716018677
1761384861192729600,1.1127294921875,0.0016822947654873133,0.0007031522691249847,0.0016840831376612186
1761384861202798600,1.122798583984375,-0.00072779122274369,-0.0013438966125249863,0.0007658554241061211
1761384861212867800,1.132867919921875,-0.00017518526874482632,-0.0015409700572490692,-0.00028103310614824295
1761384861222936600,1.1429365234375,-0.00015761656686663628,0.0013066879473626614,0.0014181225560605526
1761384861233005600,1.153005615234375,0.000595525314565748,0.0007351739332079887,0.001795225776731968
1761384861243074600,1.163074462890625,0.0009481168817728758,0.0009212070144712925,0.00017705047503113747
1761384861253143600,1.1731435546875,-0.0006923902546986938,-0.0025065476074814796,0.0009815916419029236
1761384861263212800,1.183212890625,-0.0012806277954950929,0.0028592897579073906,0.0002774451859295368
1761384861273281500,1.193281494140625,-0.0011517306556925178,0.0005053216591477394,0.0011925073340535164
1761384861283350800,1.203350830078125,-0.0001062310766428709,-0.00016199331730604172,-0.001329527935013175
1761384861293419500,1.21341943359375,0.0011880651582032442,0.00033655017614364624,-0.0012877164408564568
1761384861303488800,1.22348876953125,-0.0014904425479471684,-0.0012404806911945343,0.002459609881043434
1761384861313557500,1.2335576171875,-0.0005945551674813032,0.0025151087902486324,0.00020151538774371147
1761384861323626800,1.243626708984375,0.0011100273113697767,-0.0005943309515714645,-0.0006893831305205822
1761384861333695700,1.25369580078125,-0.0015531338285654783,0.0011196797713637352,0.00032022129744291306
1761384861343764500,1.263764404296875,-0.0015252735465765,0.0013774349354207516,0.000593752134591341
1761384861353833700,1.273833740234375,0.0003565159859135747,-0.0020580431446433067,0.001192963682115078
1761384861363902500,1.28390234375,0.0009688572026789188,0.0014399532228708267,-0.0003358679823577404
1761384861373971700,1.2939716796875,0.0024738095235079527,-0.0010996367782354355,-0.0005483883433043957
1761384861384040700,1.304040771484375,-0.0002799242502078414,0.0011999341659247875,0.00017497269436717033
1761384861394109700,1.314109619140625,-0.0012274769833311439,-0.0005220659077167511,-0.0010274446103721857
1761384861404178700,1.3241787109375,0.001999135594815016,0.0009650071151554585,-0.0003270660527050495
1761384861414247700,1.33424755859375,-0.0005777388578280807,0.0014323918148875237,-0.0009132276754826307
1761384861424316700,1.344316650390625,0.0007494656601920724,0.0003724396228790283,0.0009465743787586689
1761384861434385700,1.3543857421875,-0.0030039935372769833,0.0009878957644104958,-0.00023799948394298553
1761384861444454700,1.36445458984375,-0.0017119154799729586,-0.0013338737189769745,-0.0015602160710841417
1761384861454523600,1.374523681640625,-0.00201285257935524,0.0002573644742369652,0.001082172617316246
1761384861464592600,1.384592529296875,-0.00013855379074811935,0.0014116093516349792,0.0008757729083299637
1761384861474661600,1.39466162109375,-0.00012736860662698746,-0.0008326368406414986,0.0005458071827888489
1761384861484730600,1.404730712890625,-0.0018018661066889763,0.0006536282598972321,0.0006152298301458359
1761384861494799600,1.414799560546875,0.0016863421769812703,0.0025913440622389317,0.00026875268667936325
1761384861504868900,1.424868896484375,-0.0009281847160309553,0.0021030413918197155,0.0008907043375074863
1761384861514937600,1.4349375,-0.0010757239069789648,0.0016993065364658833,0.0019602300599217415
1761384861525006600,1.445006591796875,0.0006200780044309795,0.0005463296547532082,0.0001495545729994774
1761384861535075600,1.45507568359375,-0.000809506862424314,0.0011673788540065289,0.00043344777077436447
1761384861545144600,1.46514453125,0.00081538938684389,-0.0023716073483228683,0.0011023334227502346
1761384861555213600,1.475213623046875,0.001767469453625381,0.002570154145359993,0.001565190963447094
1761384861565282600,1.485282470703125,0.0007892355788499117,-0.0009208768606185913,0.0006202571094036102
1761384861575351800,1.495351806640625,-0.0006004018941894174,0.0000037727877497673035,-0.0012127964291721582
1761384861585420500,1.505420654296875,-0.0015137576265260577,0.0016296925023198128,0.0005331826396286488
1761384861595489800,1.51548974609375,0.002116131130605936,-0.0033594733104109764,-0.0010229020845144987
1761384861605558500,1.52555859375,-0.00018221652135252953,0.0016835900023579597,-0.0010038516484200954
1761384861615627500,1.53562744140625,0.00017784279771149158,-0.0016999561339616776,-0.002778049558401108
1761384861625696800,1.54569677734375,0.0016634645871818066,0.000935685820877552,-0.0007625794969499111
1761384861635765500,1.555765625,-0.00023350503761321306,-0.000308808870613575,-0.0016142583917826414
1761384861645834800,1.565834716796875,0.0010393764823675156,0.00006947480142116547,0.0011130571365356445
1761384861655903500,1.575903564453125,-0.000604859204031527,0.0025941519998013973,0.00008720718324184418
1761384861665972700,1.58597265625,0.0009243167005479336,-0.0009989803656935692,0.0009889798238873482
1761384861676041700,1.596041748046875,-0.0006386925233528018,0.0009677642956376076,-0.0023948324378579855
1761384861686110700,1.60611083984375,0.00010237749665975571,0.0013270569033920765,0.00028022751212120056
1761384861696179700,1.6161796875,-0.0011466450523585081,-0.0012860363349318504,0.00011457875370979309
1761384861706248700,1.626248779296875,-0.0024254678282886744,0.0031394795514643192,0.0014499481767416
1761384861716317700,1.636317626953125,-0.00005285744555294514,-0.00047789234668016434,-0.001572473207488656
1761384861726386400,1.646386474609375,0.002581319073215127,0.0009274226613342762,0.0010362006723880768
1761384861736455700,1.65645556640625,0.0007495969184674323,0.0005607055500149727,-0.00003439048305153847
1761384861746524700,1.666524658203125,0.002912897849455476,0.00021336879581212997,-0.0003935890272259712
1761384861756593700,1.67659375,-0.0004472124855965376,0.00008420553058385849,-0.00040291016921401024
1761384861766662700,1.68666259765625,-0.0005929376929998398,0.0010994300246238708,-0.0019990531727671623
1761384861776731600,1.696731689453125,-0.0021924320608377457,0.001073064748197794,0.0011996696703135967
1761384861786800600,1.706800537109375,0.0015683650271967053,0.001457954291254282,0.002122105099260807
1761384861796869600,1.71686962890625,0.0008756768656894565,0.0006510159000754356,0.00047254329547286034
1761384861806938600,1.726938720703125,0.0009297195938415825,0.0005515357479453087,-0.0018465814646333456
1761384861817007600,1.737007568359375,-0.0003901429008692503,-0.001323329284787178,-0.0007256569806486368
1761384861827076600,1.74707666015625,0.00035322923213243484,0.001286596991121769,0.0020058383233845234
1761384861837145600,1.7571455078125,0.0015516517451032996,-0.00010383967310190201,-0.0012320326641201973
1761384861847214600,1.767214599609375,-0.00046139059122651815,0.0001896163448691368,-0.0029246786143630743
1761384861857283600,1.77728369140625,0.0021093590185046196,-0.0014668703079223633,-0.0015480907168239355
1761384861867352800,1.787352783203125,-0.001581193646416068,-0.0010229088366031647,0.0021750847809016705
1761384861877421600,1.797421630859375,0.0000846135662868619,-0.00023887399584054947,0.00042378995567560196
1761384861887490800,1.80749072265625,-0.0009578784229233861,0.0013960539363324642,0.0000612400472164154
1761384861897559600,1.8175595703125,-0.0003320355899631977,-0.002512667328119278,-0.000009067356586456299
1761384861907628500,1.827628662109375,0.00016046559903770685,0.0005331849679350853,0.00018819747492671013
1761384861917697800,1.83769775390625,0.0013474364532157779,-0.0008687032386660576,-0.001103169284760952
1761384861927766500,1.8477666015625,0.0006633111042901874,-0.0008233599364757538,-0.0003812038339674473
1761384861937835800,1.857835693359375,0.000992744229733944,0.0006246007978916168,0.0007272036746144295
1761384861947904500,1.867904541015625,-0.0013053888687863946,0.0015281946398317814,-0.0013159140944480896
1761384861957973800,1.877973876953125,0.0029612614307552576,0.0020871921442449093,0.0003019561991095543
1761384861968042500,1.88804248046875,0.00023669912479817867,0.0022775838151574135,-0.0019205340649932623
1761384861978111700,1.89811181640625,0.00037837924901396036,-0.0006399089470505714,-0.002500037895515561
1761384861988180700,1.9081806640625,0.001598402508534491,-0.0007833875715732574,-0.00007593119516968727
1761384861998249500,1.91824951171875,-0.00005755096208304167,-0.00001719687134027481,0.0007326044142246246
1761384862008318700,1.928318603515625,0.001867460086941719,-0.002010514959692955,-0.001846750732511282
1761384862018387500,1.938387451171875,0.003161223605275154,0.00034718215465545654,0.003282497636973858
1761384862028456700,1.948456787109375,0.0007066522957757115,0.0007293922826647758,0.0004314826801419258
1761384862038525700,1.958525634765625,0.002088300185278058,-0.0004945965483784676,0.003004362341016531
1761384862048594700,1.9685947265625,0.0012473275419324636,0.0002149352803826332,0.0008001388050615788
1761384862058663700,1.97866357421875,0.001299259252846241,-0.0001853378489613533,0.000698672141879797
1761384862068732700,1.988732666015625,0.0004924921086058021,0.0010779248550534248,-0.0022695621009916067
1761384862078801700,1.9988017578125,0.0017942452104762197,-0.0012941528111696243,0.002760882955044508
1761384862088870400,2.008870361328125,-0.0002119150012731552,-0.0022265268489718437,-0.0011173700913786888
1761384862098939600,2.018939697265625,-0.0010494791204109788,0.0001929551362991333,0.0009282040409743786
1761384862109008600,2.029008544921875,0.0021355694625526667,-0.00022710300981998444,-0.0014128279872238636
1761384862119077600,2.03907763671875,0.0021973547991365194,0.0013082087971270084,0.00023140758275985718
1761384862129146600,2.049146728515625,0.00004795682616531849,4.98257577419281e-7,-0.0006690747104585171
1761384862139215600,2.059215576171875,0.00011826434638351202,-0.00029591191560029984,0.0004577087238430977
1761384862149285600,2.06928564453125,0.0010225060395896435,0.004438989330083132,-0.00029637059196829796
1761384862159354600,2.079354736328125,-0.0010805922793224454,0.0005521057173609734,-0.00012912414968013763
1761384862169423600,2.089423583984375,-0.0021549565717577934,0.0017407783307135105,0.0010566068813204765
1761384862179492600,2.09949267578125,-0.0012598683824762702,-0.0012520821765065193,0.00011571217328310013
1761384862189561600,2.1095615234375,-0.0008304193615913391,0.0008793887682259083,-0.003121881512925029
1761384862199630800,2.119630859375,-0.0005593097303062677,-0.00150387454777956,-0.0004517962224781513
1761384862209699600,2.129699462890625,0.00016746821347624063,-0.0005890093743801117,-0.00037850672379136086
1761384862219768600,2.1397685546875,-0.0006985918153077364,0.0004767877981066704,-0.001362810842692852
1761384862229837600,2.149837646484375,0.0002994057722389698,0.0007182098925113678,-0.001219640951603651
1761384862239906600,2.159906494140625,0.00021445087622851133,-0.00023972894996404648,-0.0006883405148983002
1761384862249975800,2.169975830078125,-0.0002721305936574936,0.0013311547227203846,0.00026215752586722374
1761384862260044500,2.18004443359375,0.00025996891781687737,-0.0009498428553342819,-0.0001394469290971756
1761384862270113800,2.19011376953125,0.002316851634532213,0.0012177242897450924,0.0007233563810586929
1761384862280182500,2.2001826171875,-0.0026030719745904207,-0.00016019493341445923,0.0022059381008148193
1761384862290251800,2.210251708984375,0.000657656928524375,-0.0006960565224289894,-0.00016840361058712006
1761384862300320500,2.220320556640625,-0.0018680851208046079,0.0016190293245017529,-0.00005362136289477348
1761384862310389800,2.2303896484375,-0.0013870870461687446,-0.00028757937252521515,0.0001283637247979641
1761384862320458800,2.240458740234375,0.0006363828433677554,-0.0012721503153443336,0.0019773966632783413
1761384862330527500,2.250527587890625,-0.00037827074993401766,-0.0008148951455950737,0.00031946180388331413
1761384862340596700,2.2605966796875,0.0005351934814825654,-0.0009405957534909248,-0.0020137333776801825
1761384862350665500,2.27066552734375,-0.0013212199555709958,-0.00017686840146780014,0.0008227075450122356
1761384862360734700,2.280734619140625,-0.001690600416623056,-0.0018959389999508858,-0.002238329965621233
1761384862370803700,2.2908037109375,-0.00010075268801301718,-0.002237570472061634,-0.003582756035029888
1761384862380872700,2.300872802734375,0.0009362822747789323,-0.001052730716764927,-0.0011440995149314404
1761384862390941700,2.310941650390625,0.00031632615718990564,-0.0007108533754944801,0.001131297554820776
1761384862401010700,2.3210107421875,-0.0012027410557493567,0.0007363082841038704,-0.00243307719938457
1761384862411079700,2.33107958984375,-0.0011175392428413033,0.0012381495907902718,-0.00019114138558506966
1761384862421148400,2.3411484375,0.00118849182035774,0.001149199903011322,-0.0005794302560389042
1761384862431217700,2.3512177734375,0.0003149524563923478,-0.0002536065876483917,-0.000868628965690732
1761384862441286700,2.36128662109375,0.0011847408022731543,-0.00011805165559053421,0.000055221375077962875
1761384862451355600,2.371355712890625,-0.0006472177337855101,-0.0021197712048888206,0.000021029263734817505
1761384862461424600,2.381424560546875,0.0008923556306399405,-0.0010734153911471367,0.0010822988115251064
1761384862471493600,2.39149365234375,-0.000855256337672472,0.0003405315801501274,0.0006630220450460911
1761384862481562600,2.401562744140625,0.0019157626666128635,-0.0012693488970398903,-0.0014275596477091312
1761384862491631900,2.4116318359375,-0.00018653960432857275,0.0021740365773439407,-0.00016623595729470253
1761384862501700600,2.42170068359375,-0.0014350294368341565,0.0008176886476576328,-0.0017098039388656616
1761384862511769600,2.43176953125,-0.00031901418697088957,0.0017428086139261723,-0.003198286285623908
1761384862521838600,2.441838623046875,-0.00040450168307870626,-0.001094522885978222,0.00022227782756090164
1761384862531907600,2.451907470703125,0.0018079150468111038,0.0004485882818698883,0.003265837673097849
1761384862541976600,2.4619765625,-0.0009977251756936312,0.002472857479006052,0.0008458234369754791
1761384862552045600,2.472045654296875,-0.0015211144927889109,0.00025149062275886536,-0.0035213110968470573
1761384862562114800,2.48211474609375,-0.0024955649860203266,-0.0007362756878137589,-0.0008482963312417269
1761384862572183600,2.49218359375,-0.0005361618241295218,0.001466322224587202,-0.0017355694435536861
1761384862582252800,2.502252685546875,-0.000869589508511126,-0.003278099000453949,-0.0007619177922606468
1761384862592321800,2.51232177734375,0.0003941114991903305,-0.0007582781836390495,0.0011335574090480804
1761384862602391000,2.52239111328125,-0.001383814844302833,-0.0018038349226117134,-0.0017735494766384363
1761384862612459800,2.532459716796875,0.0008453479968011379,-0.0017588455229997635,-0.0011796215549111366
1761384862622528800,2.54252880859375,-0.0005482841515913606,0.0007059099152684212,0.0007503712549805641
1761384862632598000,2.552597900390625,0.001439006649889052,0.0010896408930420876,-0.0012179780751466751
1761384862642666800,2.562666748046875,-0.0020681102760136127,-0.001452346332371235,0.0007700715214014053
1761384862652736000,2.572736083984375,-0.0015686667757108808,-0.000817502848803997,-0.002682289108633995
1761384862662804700,2.5828046875,-0.002159089781343937,0.0015266118571162224,-0.0009200754575431347
1761384862672874000,2.5928740234375,-0.00020971684716641903,-0.002468104474246502,-0.0012813678476959467
1761384862682943000,2.60294287109375,0.0016246684826910496,-0.0003817835822701454,0.002938410732895136
1761384862693012000,2.613011962890625,0.0004747024504467845,0.0006606830283999443,-0.0016154677141457796
1761384862703081000,2.6230810546875,0.000020633451640605927,-0.001658930443227291,0.0010117408819496632
1761384862713149700,2.633149658203125,0.00146347691770643,0.00013043638318777084,0.0009265951812267303
1761384862723219000,2.643218994140625,-0.000806335243396461,0.0002441536635160446,0.0038805739022791386
1761384862733288000,2.653287841796875,0.003749753348529339,0.0007408363744616508,-0.0007431553676724434
1761384862743357000,2.66335693359375,0.0006535623106174171,0.0006777197122573853,-0.0019892484415322542
1761384862753426000,2.673426025390625,0.0015573599375784397,-0.0004210593178868294,0.0021313270553946495
1761384862763495000,2.683494873046875,-0.00019340217113494873,-0.001519346609711647,-0.0028636977076530457
1761384862773564000,2.69356396484375,0.00043457781430333853,-0.00023577455431222916,-0.0027965563349425793
1761384862783633000,2.7036328125,-0.0007262940052896738,-0.0014320658519864082,-0.0012013230007141829
1761384862793702000,2.713701904296875,-0.0016532441368326545,0.0023975269868969917,0.0016458779573440552
1761384862803771000,2.72377099609375,-0.00004789070226252079,-0.00002195499837398529,-0.0009829283226281404
1761384862813840000,2.73383984375,0.0010001903865486383,0.0009154141880571842,0.00004554307088255882
1761384862823908900,2.743908935546875,-0.0015045126201584935,-0.0010185735300183296,-0.0009028085041791201
1761384862833977900,2.753977783203125,0.000829734664876014,0.001334089320152998,0.0013208226300776005
1761384862844046800,2.764046875,-0.0012307531433179975,-0.0007120175287127495,-0.002806277945637703
1761384862854115800,2.77411572265625,-0.0017532376805320382,-0.0010890252888202667,-0.0019414382986724377
1761384862864184800,2.784184814453125,-0.00017824419774115086,-0.0033804094418883324,-0.0020247953943908215
1761384862874254000,2.794254150390625,0.0015501553425565362,0.0014570150524377823,-0.000151805579662323
1761384862884322800,2.80432275390625,-0.0010173983173444867,0.0009238501079380512,-0.0020426500122994184
1761384862894391800,2.814391845703125,-0.0009923417819663882,-0.0025936365127563477,-0.0023976177908480167
1761384862904460800,2.824460693359375,0.0018039774149656296,-0.0013025356456637383,-0.0005765482783317566
1761384862914529800,2.83452978515625,-0.0005985761526972055,0.0001299101859331131,-0.0004562963731586933
1761384862924599000,2.84459912109375,0.0006837359396740794,0.003113183192908764,0.001530421432107687
1761384862934667800,2.854667724609375,0.0019718240946531296,0.001413025427609682,-0.000023960601538419724
1761384862944737000,2.864737060546875,-0.0004737568087875843,0.001987469382584095,0.0019443817436695099
1761384862954805800,2.8748056640625,0.0017827426781877875,-0.0007025739178061485,-0.0017700002063065767
1761384862964875000,2.884875,0.0010152196045964956,0.000677209347486496,-0.000254129059612751
1761384862974944000,2.894944091796875,0.001195047632791102,0.0017464924603700638,-0.0015369406901299953
1761384862985013000,2.905012939453125,0.0005388447316363454,0.001910543069243431,-0.001047717873007059
1761384862995082000,2.91508203125,0.0008140645804814994,-0.0015281802043318748,-0.001173411961644888
1761384863005150700,2.925150634765625,0.001553624402731657,0.0015459065325558186,0.0007437975145876408
1761384863015220000,2.935219970703125,-0.00117696903180331,0.0004985304549336433,-0.0009339952375739813
1761384863025288700,2.945288818359375,0.0011263990309089422,0.0002457965165376663,-0.0024069896899163723
1761384863035359000,2.95535888671875,-0.0004713671514764428,0.003048873506486416,0.0035540470853447914
1761384863045427700,2.965427734375,0.00048124545719474554,-0.0013578590005636215,-0.0014508310705423355
1761384863055497000,2.9754970703125,-0.0009404827142134309,0.001551327295601368,0.0006462233141064644
1761384863065566000,2.98556591796875,-0.0006880149012431502,-0.0015299497172236443,0.0005641980096697807
1761384863075635000,2.995635009765625,-0.0010902590584009886,-0.0012312103062868118,-0.002588308649137616
1761384863085704000,3.005703857421875,-0.0008010396268218756,-0.000341181643307209,0.0016434541903436184
1761384863095773000,3.01577294921875,0.0007431883714161813,-0.0020085573196411133,0.001622428186237812
1761384863105842000,3.025842041015625,0.0013160343514755368,0.00115687632933259,0.0009936559945344925
1761384863115911000,3.035910888671875,0.0012058583088219166,-0.0008966047316789627,-0.0008430089801549911
1761384863125980000,3.04597998046875,0.00040051830001175404,0.000768403522670269,0.0010028276592493057
1761384863136049000,3.056048828125,0.0009295278578065336,-0.000014615245163440704,-0.001271489541977644
1761384863146118000,3.066117919921875,0.0005907737649977207,0.0012708925642073154,0.0018297615461051464
1761384863156187000,3.076186767578125,-0.0020916955545544624,0.0009633274748921394,0.0005366657860577106
1761384863166255900,3.086255859375,0.0002644030610099435,-0.00012910179793834686,0.0009334767237305641
1761384863176324900,3.096324951171875,-0.0019321171566843987,-0.0006181439384818077,0.00134586775675416
1761384863186393900,3.106393798828125,-0.000007983297109603882,0.0012223664671182632,-0.0023444744292646646
1761384863196462800,3.116462890625,0.0015726960264146328,-0.0007749814540147781,-0.000848258612677455
1761384863206532000,3.126531982421875,0.0002831934252753854,-0.0006993478164076805,-0.0011851484887301922
1761384863216600800,3.136600830078125,0.0018758210353553295,-0.00102922972291708,-0.00021573668345808983
1761384863226669800,3.146669921875,0.000946377869695425,0.0014062304981052876,-0.0007291943766176701
1761384863236738800,3.15673876953125,-0.000478043919429183,0.0006586071103811264,0.0014506196603178978
1761384863246807800,3.166807861328125,-0.0008602074813097715,0.001354224979877472,0.0010277098044753075
1761384863256877000,3.176876953125,-0.0004135092021897435,0.0009348462335765362,-0.00035658618435263634
1761384863266945800,3.18694580078125,-0.0014556042151525617,-0.00020205695182085037,-0.001080166781321168
1761384863277015000,3.19701513671875,0.0007638772949576378,0.0004696892574429512,0.0005802884697914124
1761384863287083800,3.207083740234375,-0.0012188460677862167,0.0004419926553964615,-0.00041333679109811783
1761384863297153000,3.217153076171875,-0.0019089202396571636,-0.00013889092952013016,-0.0005576321855187416
1761384863307222000,3.227221923828125,-0.0007784084882587194,0.00041185133159160614,0.0018099178560078144
1761384863317290800,3.237290771484375,-0.0004891105927526951,-0.0005960855633020401,0.00047661876305937767
1761384863327360000,3.247360107421875,-0.00025794818066060543,-0.0005982154980301857,-0.0003763916902244091
1761384863337428700,3.2574287109375,-0.0019950889982283115,0.000974876806139946,0.000421381089836359
1761384863347498000,3.267498046875,0.0003423676826059818,-0.0007218234241008759,-0.0022247356828302145
1761384863357566700,3.277566650390625,-0.0011985835153609514,0.0003597782924771309,-0.0027874200604856014
1761384863367636000,3.287635986328125,0.00048107211478054523,0.0005137091502547264,0.0007497901096940041
1761384863377705000,3.297705078125,-0.0008732043206691742,0.0023616785183548927,-0.0011020773090422153
1761384863387774000,3.30777392578125,0.0010386791545897722,-0.00025993678718805313,-0.0015026167966425419
1761384863397843000,3.317843017578125,-0.0010495878523215652,-0.0000319434329867363,-0.0002265707589685917
1761384863407911700,3.32791162109375,-0.0005137600237503648,-0.0006844177842140198,0.0011337720789015293
1761384863417981000,3.33798095703125,0.002060947008430958,-0.0021370071917772293,0.0008419170044362545
1761384863428050000,3.3480498046875,0.00012669316492974758,0.0004718257114291191,-0.0012281578965485096
1761384863438119000,3.358118896484375,0.00011551636271178722,-0.002017958089709282,-0.001385640585795045
1761384863448188000,3.36818798828125,-0.0017644090112298727,0.0004997942596673965,0.0007643294520676136
1761384863458257000,3.3782568359375,-0.0008984563173726201,0.0008821804076433182,-0.0021433320362120867
1761384863468326000,3.388325927734375,-0.0017240362940356135,-0.0011301040649414062,-0.00016273930668830872
1761384863478395000,3.398394775390625,0.00011697632726281881,0.0017817788757383823,0.0018561724573373795
1761384863488464000,3.4084638671875,-0.0006979508325457573,-0.00043556932359933853,0.0006279228255152702
1761384863498533000,3.418533203125,-0.0006737331859767437,0.00045154988765716553,-0.0012852088548243046
1761384863508601900,3.428601806640625,-0.0015405919402837753,-0.000995345413684845,0.0015079141594469547
1761384863518670800,3.4386708984375,0.0009809876792132854,0.004686773754656315,0.0011664428748190403
1761384863528739800,3.44873974609375,0.0007980285445228219,0.002483807038515806,-0.0005616825073957443
1761384863538808800,3.458808837890625,-0.001855764421634376,-0.001416172832250595,-0.0009413508232682943
1761384863548878000,3.468878173828125,-0.00013882433995604515,0.0017138407565653324,0.0002762465737760067
1761384863558946800,3.47894677734375,-0.0007951074512675405,0.0010800971649587154,0.0007972400635480881
1761384863569016000,3.48901611328125,-0.0002574152313172817,-0.0002493523061275482,-0.00218496797606349
1761384863579084800,3.499084716796875,-0.0003049385268241167,0.0012837923131883144,0.0010980591177940369
1761384863589154000,3.509154052734375,-0.00002290983684360981,0.0002640681341290474,0.0008743535727262497
1761384863599222300,3.51922216796875,0.0002535295207053423,0.0023708571679890156,0.0012113815173506737
1761384863609291000,3.529291015625,-0.0004665893502533436,-0.0029522692784667015,0.0018883571028709412
1761384863619360300,3.5393603515625,0.0010799688752740622,0.0013370378874242306,0.0009903493337333202
1761384863629429000,3.549428955078125,-0.0006372373318299651,0.00037989765405654907,-0.00182354636490345
1761384863639498200,3.559498291015625,-0.0016455574659630656,0.0022711986675858498,0.0029050372540950775
1761384863649567200,3.569567138671875,-0.00042263383511453867,-0.0004239203408360481,0.002479197923094034
1761384863659636200,3.57963623046875,-0.0017324319342151284,-0.0006226599216461182,-0.0012611602433025837
1761384863669705200,3.589705322265625,-0.00037661672104150057,0.0011206450872123241,0.002842504531145096
1761384863679774000,3.59977392578125,-0.001051037572324276,-0.0011524409055709839,-0.0012534665875136852
1761384863689843200,3.60984326171875,-0.0010286669712513685,0.0006824769079685211,-0.0006968660745769739
1761384863699912200,3.619912109375,0.0003127317177131772,-0.000040465034544467926,-0.0011095961090177298
1761384863709981200,3.629981201171875,-0.0009115233551710844,-0.0018162606284022331,-0.001456073485314846
1761384863720050200,3.64005029296875,-0.0020204419270157814,-0.0006563877686858177,0.0010809595696628094
1761384863730119200,3.650119140625,0.00002726272214204073,-0.000038800761103630066,-0.0006900427397340536
1761384863740188200,3.660188232421875,-0.00013581756502389908,0.0015546358190476894,0.0012682275846600533
1761384863750257200,3.670257080078125,-0.0005518033867701888,0.002527222502976656,0.001919636968523264
1761384863760326100,3.680326171875,-0.0005187680944800377,-0.0013068635016679764,0.003484517801553011
1761384863770395100,3.69039501953125,-0.00021916243713349104,0.0014580297283828259,-0.0006295330822467804
1761384863780464000,3.700464111328125,-0.00013656122609972954,-0.0011173011735081673,-0.0006307775620371103
1761384863790533000,3.710533203125,-0.0022340668365359306,-0.0009878715500235558,-0.001278192037716508
1761384863800602000,3.72060205078125,-0.00027731177397072315,0.003960489295423031,0.0031115668825805187
1761384863810671000,3.730671142578125,-0.0012038254644721746,0.00020010583102703094,-0.0007564083207398653
1761384863820740000,3.740739990234375,0.0006812196807004511,0.0011723083443939686,0.002731278073042631
1761384863830809000,3.75080908203125,-0.0016122945817187428,-0.00030654482543468475,0.00009102001786231995
1761384863840878300,3.76087841796875,-0.0017603066517040133,-0.00010222010314464569,0.002480713650584221
1761384863850947000,3.770947021484375,-0.0021525900810956955,-0.00103006511926651,-0.00019682850688695908
1761384863861016000,3.78101611328125,-0.000733082415536046,-0.0014245156198740005,0.0005006180144846439
1761384863871085000,3.7910849609375,0.000010205782018601894,0.0014125499874353409,-0.0003630449064075947
1761384863881154000,3.801154052734375,0.0004611075855791569,-0.0004851110279560089,-0.002200616989284754
1761384863891223300,3.811223388671875,0.0007189015741460025,-0.000684048980474472,0.00010781129822134972
1761384863901292000,3.8212919921875,-0.001010400359518826,0.0003794347867369652,-0.0002661035396158695
1761384863911361300,3.831361328125,0.0019244032446295023,0.0022361907176673412,0.0006811828352510929
1761384863921430000,3.841429931640625,-0.000459343078546226,0.003672489896416664,-0.0025194138288497925
1761384863931499300,3.851499267578125,-0.0006284537957981229,-0.0004343707114458084,0.0015000952407717705
1761384863941568300,3.861568359375,-0.0007216904778033495,0.0010328097268939018,-0.0006321163382381201
1761384863951637000,3.871636962890625,-0.000851120101287961,0.00022054556757211685,-0.0027328175492584705
1761384863961706200,3.881706298828125,-0.0009433722589164972,-0.0006013410165905952,0.002152486238628626
1761384863971775000,3.89177490234375,0.0018851710483431816,0.00165622029453516,-0.0002869688905775547
1761384863981844200,3.90184423828125,-0.00041385390795767307,-0.0008211592212319374,0.0006128009408712387
1761384863991913000,3.911912841796875,-0.0010141304228454828,0.001243856269866228,-0.0006961424369364977
1761384864001982200,3.921982177734375,-0.0008027415024116635,-0.0008253753185272217,-0.00006837258115410805
1761384864012051200,3.93205126953125,-0.0008871637983247638,0.0013435031287372112,-0.00029154540970921516
1761384864022120200,3.9421201171875,0.0005648500518873334,0.0017143967561423779,-0.002759952563792467
1761384864032189200,3.952189208984375,-0.00041492690797895193,-0.00007071997970342636,-0.0006462016608566046
1761384864042258000,3.9622578125,-0.0021227106917649508,0.0014682360924780369,-0.001252494053915143
1761384864052327200,3.9723271484375,-0.00006142409984022379,-0.0021965401247143745,-0.00024448754265904427
1761384864062396200,3.982396240234375,0.000058302655816078186,-0.0013333195820450783,-0.001266529317945242
1761384864072465200,3.992465087890625,0.0008934699581004679,-0.0014571566134691238,0.0021268706768751144
1761384864082534100,4.0025341796875,-0.0007546476554125547,-0.000919019803404808,0.0009896163828670979
1761384864092603100,4.01260302734375,0.0018973283004015684,0.0008391989395022392,-0.0005771210417151451
1761384864102672100,4.022672119140625,0.001562230521813035,-0.0009466409683227539,-0.0006320106331259012
1761384864112741000,4.0327412109375,-0.0013544633984565735,0.0008893422782421112,0.0008388534188270569
1761384864122810000,4.04281005859375,-0.0016876765294000506,0.0004950622096657753,-0.0008004927076399326
1761384864132879400,4.05287939453125,-0.000032788258977234364,0.0004963940009474754,0.00004372932016849518
1761384864142948000,4.062947998046875,0.0026792935095727444,0.000494619831442833,-0.0023351123090833426
1761384864153017000,4.07301708984375,-0.0025580793153494596,-0.0019075516611337662,-0.0020064781419932842
1761384864163086000,4.083086181640625,-0.0011387912090867758,0.0017049042508006096,-0.00034588994458317757
1761384864173155000,4.093155029296875,0.00040664104744791985,-0.001416853629052639,-0.000806617084890604
1761384864183224300,4.103224365234375,-0.0015044945757836103,0.0013560461811721325,0.00008878298103809357
1761384864193293000,4.11329296875,0.000385284423828125,0.001988014206290245,-0.00034318212419748306
1761384864203362300,4.1233623046875,-0.00047993543557822704,-0.002112063579261303,0.000424977857619524
1761384864213431000,4.13343115234375,-0.0007515780162066221,0.00023711100220680237,0.0006817062385380268
1761384864223500300,4.143500244140625,0.002124435966834426,-0.002912234514951706,0.00002176593989133835
1761384864233569000,4.153569091796875,0.00036967918276786804,0.0007655909284949303,-0.0012994282878935337
1761384864243638000,4.163637939453125,-0.0013474859297275543,-0.00016664527356624603,0.0005182204768061638
1761384864253707300,4.173707275390625,0.00017397792544215918,0.0016738655976951122,0.00039784517139196396
1761384864263776000,4.18377587890625,-0.0006046260241419077,0.0010957359336316586,0.0014161826111376286
1761384864273845200,4.19384521484375,0.00001162942498922348,-0.0030116578564047813,0.0013812952674925327
1761384864283914000,4.2039140625,-0.000024042907170951366,0.001988144125789404,-0.0009632091969251633
1761384864293983200,4.213983154296875,0.0013738503912463784,0.000057085417211055756,0.0007033972069621086
1761384864304052200,4.22405224609375,-0.0015447851037606597,0.001087794080376625,0.0007185698486864567
1761384864314121200,4.234121337890625,0.0007940029609017074,-0.0023807063698768616,-0.0014870602171868086
1761384864324190200,4.244190185546875,0.0010635796934366226,-0.003396444022655487,0.002750204410403967
1761384864334259000,4.254259033203125,0.0020854345057159662,0.0014755427837371826,-0.00011748773977160454
1761384864344329200,4.2643291015625,0.00010888802353292704,-0.0005139932036399841,0.001322450116276741
1761384864354397200,4.274397216796875,-0.0006370632909238338,-0.0014394419267773628,-0.001196367433294654
1761384864364466200,4.284466064453125,-0.00047358532901853323,0.0026234369724988937,0.00016487948596477509
1761384864374535200,4.29453515625,0.000476364279165864,-0.0021569374948740005,-0.0009893346577882767
1761384864384605200,4.304605224609375,0.00020340236369520426,0.0013869903050363064,-0.00020981254056096077
1761384864394673200,4.314673095703125,0.0006257797358557582,-0.0003254218026995659,-0.0024814889766275883
1761384864404743200,4.3247431640625,0.0004007074749097228,0.0005611404776573181,-0.0033960845321416855
1761384864414812200,4.334812255859375,0.0011133693624287844,0.00015101395547389984,-0.00389649230055511
1761384864424881200,4.344881103515625,0.0013406808720901608,-0.0026834551244974136,0.0010062754154205322
1761384864434950100,4.3549501953125,-0.0006851857760921121,0.0009674723260104656,-0.0027772774919867516
1761384864445019100,4.36501904296875,0.0008240914321504533,-0.0011164108291268349,-0.001078914850950241
1761384864455088000,4.375088134765625,0.001763388398103416,-0.0014399848878383636,0.001300885807722807
1761384864465157000,4.3851572265625,-0.00010986847337335348,0.0024878517724573612,0.0005898540839552879
1761384864475226000,4.39522607421875,-0.0002036116784438491,-0.000584903173148632,0.001435940619558096
1761384864485295000,4.405295166015625,0.0001881994539871812,-0.0017843954265117645,0.000829002819955349
1761384864495364000,4.415364013671875,0.0005013871705159545,-0.0018064994364976883,-0.002134562935680151
1761384864505433000,4.42543310546875,-0.00004391116090118885,0.0014417343772947788,0.0006158198229968548
1761384864515502300,4.43550244140625,0.00147568853572011,0.0005003064870834351,0.0011306088417768478
1761384864525571000,4.445571044921875,-0.0006896236445754766,-0.0013516675680875778,-0.0016280857380479574
1761384864535640300,4.455640380859375,0.00011731404811143875,0.0009338576346635818,-0.0011447218712419271
1761384864545709000,4.465708984375,0.00162070756778121,-0.0021053561940789223,0.0006237579509615898
1761384864555778000,4.475778076171875,-0.0001771923853084445,-0.000013177283108234406,-0.0024500626605004072
1761384864565847000,4.485846923828125,0.002018967177718878,-0.00036432594060897827,0.0020954320207238197
1761384864575916000,4.495916015625,-0.00027055235113948584,0.0025955107994377613,0.0008706445805728436
1761384864585985300,4.5059853515625,-0.00032496359199285507,0.0008499645628035069,0.0019081924110651016
1761384864596054800,4.5160546875,0.0014684089692309499,-0.00007228832691907883,0.001509250607341528
1761384864606124000,4.5261240234375,-0.00018695683684200048,0.0018886527977883816,0.0002228226512670517
1761384864616192800,4.53619287109375,-0.0006519446615129709,-0.001192891038954258,0.002558414824306965
1761384864626262000,4.546261962890625,-0.00014995981473475695,-0.00017998460680246353,-0.00022566644474864006
1761384864636330800,4.556330810546875,-0.001453310833312571,0.00011376198381185532,-0.001835813745856285
1761384864646400000,4.56639990234375,-0.0009185731178149581,-0.0006187455728650093,-0.0005587262567132711
1761384864656469000,4.576468994140625,0.00023031444288790226,-0.000490914098918438,-0.0014530159533023834
1761384864666538000,4.5865380859375,-0.00013441452756524086,-0.0023879501968622208,-0.0003842068836092949
1761384864676607000,4.59660693359375,-0.0005855540512129664,-0.0010819360613822937,0.0010562972165644169
1761384864686675700,4.60667578125,0.00017002574168145657,-0.0011387132108211517,-0.002186652272939682
1761384864696745000,4.616744873046875,-0.0007815215503796935,0.000532953068614006,0.0002104588784277439
1761384864706813700,4.626813720703125,0.0009953747503459454,-0.001192198134958744,-0.0009322369005531073
1761384864716883000,4.636883056640625,-0.0012057278072461486,-0.00020549725741147995,0.0005418229848146439
1761384864726952000,4.646951904296875,-0.0008020952809602022,0.0013712276704609394,-0.0006064195185899734
1761384864737021000,4.65702099609375,0.0011004670523107052,0.0019059902988374233,0.0016692518256604671
1761384864747090000,4.66708984375,0.0008481794502586126,-0.0008505173027515411,0.002475910820066929
1761384864757159000,4.677158935546875,0.0004628200549632311,0.0007282048463821411,-0.0012125670909881592
1761384864767228000,4.687227783203125,-0.000676066498272121,-0.003333810716867447,-0.00027262838557362556
1761384864777297000,4.697296875,0.0002081028651446104,0.0009243180975317955,-0.00019007036462426186
1761384864787366000,4.707365966796875,-0.0007678736001253128,-0.0011748522520065308,-0.00017346953973174095
1761384864797435000,4.717434814453125,-0.000310342526063323,0.0015575503930449486,-0.0015726946294307709
1761384864807504000,4.72750390625,-0.0028059452306479216,0.0010585547424852848,-0.0018025327008217573
1761384864817572900,4.73757275390625,0.0008670866955071688,-0.002037104219198227,0.00021747499704360962
1761384864827641900,4.747641845703125,0.0004691657377406955,0.0009533506818115711,-0.0018186417873948812
1761384864837710800,4.7577109375,0.00021190440747886896,-0.0008200481534004211,-0.0010330092627555132
1761384864847780000,4.767780029296875,0.0009215588215738535,-0.000569378025829792,-0.00004908908158540726
1761384864857848800,4.777848876953125,0.0006864016759209335,-0.0006066625937819481,-0.001425676979124546
1761384864867917800,4.787917724609375,-0.00006823171861469746,-0.001364980824291706,0.0010854587890207767
1761384864877986800,4.79798681640625,0.0004406983498483896,0.0006552934646606445,-0.001928707119077444
1761384864888055800,4.808055908203125,-0.00023428630083799362,-0.00011089257895946503,0.0003556106239557266
1761384864898125000,4.818125,0.0005012787878513336,0.0015229573473334312,0.0003643990494310856
1761384864908193800,4.82819384765625,0.0004082858795300126,0.00273996964097023,-0.0014461248647421598
1761384864918263000,4.838262939453125,0.0020879413932561874,-0.003333102911710739,-0.0020464013796299696
1761384864928331800,4.848331787109375,-0.0008633721154183149,0.0020026233978569508,0.001443096436560154
1761384864938401000,4.858401123046875,-0.0010636418592184782,0.0010233791545033455,0.0036694989539682865
1761384864948469800,4.8684697265625,0.0008054252248257399,-0.00011249817907810211,0.0024280124343931675
1761384864958539000,4.8785390625,-0.00018820015247911215,0.0008856542408466339,-0.0021174706052988768
1761384864968608000,4.88860791015625,-0.000043449923396110535,-0.0010785013437271118,-0.0016745126340538263
1761384864978676700,4.8986767578125,0.0013216864317655563,0.0006640050560235977,-0.001355465967208147
1761384864988746000,4.90874609375,-0.0003210067516192794,-0.0016618231311440468,0.00009296787902712822
1761384864998814700,4.918814697265625,-0.0003481708699837327,0.0008894847705960274,-0.00048200879245996475
1761384865008884000,4.928884033203125,0.001865218160673976,-0.0000820644199848175,0.0019713155925273895
1761384865018953000,4.938952880859375,0.0019286014139652252,0.0008385898545384407,0.0019630598835647106
1761384865029022000,4.94902197265625,-0.000607009744271636,0.0019447198137640953,0.001876533031463623
1761384865039091000,4.959091064453125,0.00007689010817557573,-0.00009899027645587921,-0.0004891527350991964
1761384865049160000,4.969159912109375,0.000594625947996974,0.0011257431469857693,-0.0022964950185269117
1761384865059229000,4.97922900390625,0.00007690733764320612,-0.0025230534374713898,0.0011195414699614048
1761384865069297700,4.989297607421875,0.0008659400627948344,-0.001214098185300827,-0.0011240863241255283
1761384865079367000,4.999366943359375,-0.0006358164828270674,-0.0008415216580033302,-0.0013408674858510494
1761384865089436000,5.009435791015625,-0.0021448438055813313,-0.0014793174341320992,-0.0002699336037039757
1761384865099505000,5.0195048828125,0.0018951714737340808,-0.0020183417946100235,0.00032794615253806114
1761384865109574000,5.029573974609375,0.0021522785536944866,-0.00030145980417728424,0.0007472969591617584
1761384865119643000,5.039642822265625,0.0008598465356044471,-0.0003435378894209862,0.0015899213030934334
1761384865129711900,5.0497119140625,0.0030897140968590975,0.002775981556624174,0.0016511850990355015
1761384865139781000,5.059781005859375,-0.0009710737504065037,-0.0023031998425722122,-0.000629279762506485
1761384865149849900,5.069849853515625,-0.0007334761321544647,0.001155806239694357,-0.0021117229480296373
1761384865159918800,5.0799189453125,0.00022819137666374445,-0.00040187686681747437,-0.00036415690556168556
1761384865169987800,5.08998779296875,0.0017109597101807594,0.00040327198803424835,0.003700773697346449
1761384865180056800,5.100056884765625,-0.0009130528196692467,0.0027228854596614838,-0.0010870574042201042
1761384865190125800,5.110125732421875,-0.0028584073297679424,0.001505523920059204,-0.0004192986525595188
1761384865200194800,5.12019482421875,0.002927576657384634,0.0013246950693428516,-0.001525309169664979
1761384865210261800,5.13026171875,-0.0009214724414050579,0.0014546639285981655,0.000009043142199516296
1761384865220331000,5.1403310546875,0.00019039737526327372,0.0021007470786571503,0.0018354393541812897
1761384865230399700,5.150399658203125,0.0005943620344623923,-0.0021198419854044914,-0.000938155222684145
1761384865240469000,5.160468994140625,-0.001278372947126627,0.0012266864068806171,0.0002783769741654396
1761384865250538000,5.1705380859375,-0.00008405325934290886,0.0020119217224419117,-0.0011835664045065641
1761384865260607000,5.18060693359375,-0.0017631764058023691,-0.0008938536047935486,0.001821011770516634
1761384865270676000,5.190676025390625,0.00003433611709624529,0.0006637321785092354,0.0024162516929209232
1761384865280744700,5.20074462890625,0.0012189100962132215,-0.0022966377437114716,-0.000135855283588171
1761384865290814000,5.21081396484375,0.0006055970443412662,0.0021630804985761642,0.0014607282355427742
1761384865300883000,5.220883056640625,0.0006402181461453438,0.0002594524994492531,-0.0012210747227072716
1761384865310952000,5.230951904296875,-0.003055169014260173,-0.0022739293053746223,-0.0023300298489630222
1761384865321021000,5.24102099609375,-0.0013382288161665201,-0.0008486052975058556,0.000019943341612815857
1761384865331090000,5.25108984375,0.0004195625660941005,-0.000039876438677310944,-0.000886253546923399
1761384865341159000,5.261158935546875,0.0002957255346700549,0.0009191283024847507,0.0015513375401496887
1761384865351228000,5.271227783203125,-0.001463802414946258,-0.0010663112625479698,-0.0006815020460635424
1761384865361297000,5.281296875,0.001073390943929553,0.00006153713911771774,-0.0023973765783011913
1761384865371366000,5.291365966796875,-0.001364320982247591,-0.0016962094232439995,0.001093810424208641
1761384865381435000,5.301434814453125,0.0016399910673499107,-0.000605911947786808,-0.00022045988589525223
1761384865391504000,5.31150390625,0.0002660943428054452,0.0011351509019732475,0.0017346595413982868
1761384865401572900,5.32157275390625,0.00040431239176541567,-0.0002590138465166092,-0.0015117339789867401
1761384865411641900,5.331641845703125,-0.0008392235031351447,0.00030435342341661453,0.0002468847669661045
1761384865421710800,5.3417109375,-0.0029148911125957966,-0.0014298977330327034,0.0010114782489836216
1761384865431779800,5.35177978515625,0.00102687394246459,-0.0009364411234855652,0.0019488492980599403
1761384865441849000,5.36184912109375,-0.0027130029629915953,0.0020313854329288006,0.003600009251385927
1761384865451917800,5.371917724609375,-0.0005690725520253181,-0.0003541763871908188,-0.0007583864498883486
1761384865461986800,5.38198681640625,0.0007446646923199296,0.0027374867349863052,0.0013114223256707191
1761384865472055800,5.392055908203125,-0.0005946179153397679,0.0009351097978651524,-0.00034491904079914093
1761384865482124800,5.402124755859375,0.0017353816656395793,-0.00046731065958738327,0.0005877199582755566
1761384865492194000,5.412194091796875,0.00021419255062937737,-0.00031286850571632385,0.0010557286441326141
1761384865502262800,5.4222626953125,-0.00017489527817815542,-0.0010063555091619492,0.00034013763070106506
1761384865512332000,5.43233203125,0.00044187670573592186,-0.00009821262210607529,-0.00008784979581832886
1761384865522400800,5.44240087890625,0.0011755776358768344,0.00018141884356737137,-0.00007879547774791718
1761384865532470000,5.452469970703125,0.0005656491266563535,0.0013890746049582958,0.00022501172497868538
1761384865542539000,5.4625390625,0.001019984483718872,0.0010306132026016712,0.001083614770323038
1761384865552607700,5.472607666015625,-0.002015917096287012,-0.0015243533998727798,0.0008230758830904961
1761384865562677000,5.482677001953125,0.0007290029316209257,0.00026262737810611725,-0.0010051843710243702
1761384865572745700,5.492745849609375,0.0013291428331285715,-0.0005490733310580254,-0.0015581923071295023
1761384865582815000,5.50281494140625,-0.0007332090754061937,-0.001129908487200737,-0.0019850970711559057
1761384865592883700,5.5128837890625,0.0006260611698962748,0.002349759452044964,-0.0016349812503904104
1761384865602956000,5.5229560546875,0.001462293672375381,-0.003276967443525791,-0.00027224142104387283
1761384865613025000,5.53302490234375,0.00015995267312973738,-0.00025418028235435486,0.0013931193388998508
1761384865623094000,5.543093994140625,-0.001482684980146587,0.003538161050528288,0.0020184293389320374
1761384865633163000,5.5531630859375,0.0016702727880328894,0.0010131611488759518,-0.0018454974051564932
1761384865643232000,5.56323193359375,0.0009027497726492584,-0.0013634441420435905,-0.0024487036280333996
1761384865653301000,5.573301025390625,-0.0016072452999651432,-0.00027425121515989304,0.004615509882569313
1761384865663370200,5.583370361328125,-0.00010389089584350586,0.001041616778820753,0.002329186536371708
1761384865673439000,5.59343896484375,0.00047635158989578485,0.002662315033376217,-0.0008480043616145849
1761384865683508000,5.603508056640625,0.001000461634248495,-0.000021352432668209076,-0.0007531957235187292
1761384865693577000,5.613576904296875,0.0005767623661085963,0.0005852030590176582,-0.0012805205769836903
1761384865703646000,5.62364599609375,0.002209280151873827,-0.00030855368822813034,0.0010452182032167912
1761384865713715200,5.633715087890625,-0.0008228127844631672,0.002616854850202799,0.0012606503441929817
1761384865723784000,5.643783935546875,0.001462445710785687,0.0023998073302209377,-0.0022480643820017576
1761384865733853200,5.653853271484375,-0.00118316023144871,0.0011129770427942276,0.0011103213764727116
1761384865743922000,5.663921875,-0.0007360154995694757,0.0019883583299815655,-0.0009898475836962461
1761384865753991200,5.6739912109375,0.0009721783571876585,-0.00026120059192180634,0.0002668234519660473
1761384865764060000,5.684059814453125,0.0002193027175962925,0.002220333553850651,-0.0003552911803126335
1761384865774129000,5.69412890625,0.000621188257355243,-0.0008293446153402328,0.00427501043304801
1761384865784198100,5.7041982421875,0.00005180446896702051,0.00019011367112398148,-0.002505131531506777
1761384865794267000,5.714266845703125,0.00011346570681780577,0.0037004039622843266,-0.0005064585711807013
1761384865804336000,5.724336181640625,-0.0012561979237943888,-0.0003350842744112015,-0.0005482700653374195
1761384865814404900,5.73440478515625,0.0005765712121501565,0.0015925825573503971,0.000769683625549078
1761384865824474000,5.74447412109375,0.0016929683042690158,0.0014279992319643497,-0.0037076228763908148
1761384865834543900,5.7545439453125,0.0017623500898480415,0.000544331967830658,0.0011630482040345669
1761384865844613000,5.764613037109375,-0.0009767110459506512,0.0001568421721458435,-0.0013389915693551302
1761384865854681900,5.774681884765625,0.0010271654464304447,-0.000766705721616745,0.0005805273540318012
1761384865864751000,5.784751220703125,-0.0007539568468928337,-0.001044739969074726,-0.0004972538445144892
1761384865874820000,5.794820068359375,-0.0007171632023528218,0.0001261858269572258,0.0009830379858613014
1761384865884889000,5.80488916015625,-0.0005637650610879064,0.002178683876991272,-0.0012979593593627214
1761384865894958000,5.8149580078125,0.0013663393910974264,-0.002694043330848217,0.0001751454547047615
1761384865905026800,5.82502685546875,0.0006680585793219507,0.00044156238436698914,0.000267556868493557
1761384865915096000,5.835095947265625,0.0012370356125757098,0.0042037395760416985,0.002965525258332491
1761384865925165000,5.8451650390625,0.00023941555991768837,-0.0010863635689020157,0.0015151677653193474
1761384865935234000,5.855234130859375,0.0010666502639651299,0.0016905744560062885,0.002635910641402006
1761384865945303000,5.865302978515625,0.0009273668983951211,-0.00021758023649454117,0.0014835605397820473
1761384865955372000,5.8753720703125,0.0017909328453242779,0.0014633946120738983,-0.0025967760011553764
1761384865965441000,5.88544091796875,-0.0007808818481862545,0.0003909394145011902,0.0022871950641274452
1761384865975510000,5.895510009765625,-0.0024122800678014755,0.0003311699256300926,0.0020317919552326202
1761384865985579000,5.9055791015625,-0.0007358200382441282,0.0010630064643919468,0.0007651927880942822
1761384865995648000,5.91564794921875,-0.0003712328616529703,0.00043932627886533737,0.0006900113075971603
1761384866005717000,5.925717041015625,0.00013929512351751328,-0.0012853369116783142,-0.0007883096113801003
1761384866015786000,5.935785888671875,-0.0008581026922911406,-0.0003846520557999611,0.0024176971055567265
1761384866025855000,5.94585498046875,0.0005347304977476597,-0.0006504356861114502,-0.000014834105968475342
1761384866035924000,5.955924072265625,-0.0004105243133381009,-0.0007552085444331169,-0.0012226225808262825
1761384866045993200,5.9659931640625,0.000731705455109477,0.0013470910489559174,-0.00010169809684157372
1761384866056062000,5.97606201171875,0.001523326733149588,-0.0008571315556764603,0.0011492995545268059
1761384866066131200,5.986131103515625,0.0009198543848469853,0.0012454339303076267,-0.0005980003625154495
1761384866076200000,5.996199951171875,-0.00013317808043211699,0.0008977768011391163,0.0016392199322581291
1761384866086269000,6.00626904296875,-0.0017630327492952347,-0.0007166313007473946,0.0016826298087835312
1761384866096338000,6.016337890625,-0.0003729036543518305,0.00041303597390651703,-0.0010194794740527868
1761384866106407000,6.026406982421875,0.001868945313617587,0.0024546156637370586,0.0019789738580584526
1761384866116476200,6.03647607421875,-0.0026438869535923004,-0.0011984016746282578,0.002201871480792761
1761384866126545000,6.046544921875,0.00010236480738967657,-0.002479914575815201,-0.0009784754365682602
1761384866136614100,6.0566142578125,-0.00011173682287335396,-0.001849990338087082,0.000897411722689867
1761384866146683000,6.066682861328125,-0.0007674071239307523,0.0011117113754153252,-0.000916733406484127
1761384866156752100,6.076752197265625,-0.0003399437991902232,0.002696668729186058,0.0008241725154221058
1761384866166821000,6.086821044921875,0.0007245216402225196,-0.0014767711982131004,0.0014050076715648174
1761384866176890000,6.09689013671875,0.0005749764968641102,0.0005871681496500969,0.0013186107389628887
1761384866186959000,6.106958984375,0.002624012529850006,0.003778967075049877,-0.002003949135541916
1761384866197027800,6.11702783203125,0.0009453668026253581,-0.0001758364960551262,-0.00012513995170593262
1761384866207097000,6.12709716796875,0.001186116598546505,0.0008489475585520267,-0.0002734777517616749
1761384866217165800,6.137165771484375,0.000760883092880249,-0.0001627439633011818,0.000011854339390993118
1761384866227235000,6.147235107421875,0.001837332732975483,0.0006141001358628273,-0.0005569967906922102
1761384866237304000,6.157303955078125,0.001398762920871377,-0.00018919352442026138,0.000999134499579668
1761384866247373000,6.167373046875,-0.0003527980297803879,-0.001059514470398426,0.0019173924811184406
1761384866257442000,6.177442138671875,0.0010797921568155289,0.0017095524817705154,0.0005387053824961185
1761384866267511000,6.187510986328125,0.00026300072204321623,-0.0006968798115849495,-0.0018661287613213062
1761384866277580000,6.197580078125,0.0016300941351801157,0.0004528118297457695,-0.0011181998997926712
1761384866287649000,6.20764892578125,-0.0011316038435325027,0.000813137274235487,0.0005177799612283707
1761384866297718000,6.217718017578125,-0.0009499769657850266,0.00008292775601148605,0.00298617547377944
1761384866307787000,6.227787109375,-0.0000335832592099905,-0.00009816698729991913,0.0004862658679485321
1761384866317856000,6.23785595703125,-0.0010597127256914973,-0.00013224035501480103,-0.00010780198499560356
1761384866327925000,6.247925048828125,0.0008409854490309954,0.0006299559026956558,-0.0002505476586520672
1761384866337994000,6.257993896484375,0.0009193682344630361,-0.00021027587354183197,0.000697809737175703
1761384866348063000,6.26806298828125,0.001061847317032516,-0.0011514369398355484,-0.0005171240773051977
1761384866358132200,6.27813232421875,-0.0003673330647870898,-0.002389124594628811,0.0009139832109212875
1761384866368201000,6.288200927734375,-0.00024163187481462955,-0.001443701796233654,0.002381917554885149
1761384866378270000,6.29827001953125,-0.0023993190843611956,0.0011464059352874756,-0.0010486235842108727
1761384866388339000,6.3083388671875,-0.000547356903553009,-0.0012038340792059898,-0.00029228581115603447
1761384866398408000,6.318407958984375,-0.0007594219641759992,-0.0012365896254777908,0.00023549608886241913
1761384866408476200,6.32847607421875,0.0005945291486568749,-0.0003127390518784523,0.0022693523205816746
1761384866418545000,6.338544921875,-0.0016326198820024729,-0.0013723811134696007,-0.001416715094819665
1761384866428615200,6.348615234375,-0.0007718862034380436,0.0017278045415878296,0.0007361844182014465
1761384866438683100,6.35868310546875,-0.0007436848245561123,-0.0002686586230993271,-0.002528417855501175
1761384866448751900,6.368751953125,-0.001644365955144167,0.0019660000689327717,0.0004247613251209259
1761384866458821000,6.378821044921875,-0.0020890911109745502,0.00046371761709451675,0.0012243385426700115
1761384866468889900,6.388889892578125,-0.0011186350602656603,0.0012304414995014668,0.0012384532019495964
1761384866478959000,6.398958984375,-0.0025451260153204203,0.0013366788625717163,0.0007318160496652126
1761384866489028000,6.409028076171875,-0.0004441580967977643,-0.0017046509310603142,-0.0010548988357186317
1761384866499097000,6.41909716796875,0.0008477927767671645,0.0002794712781906128,-0.00016943179070949554
1761384866509166000,6.429166015625,-0.0011250770185142756,0.0014467351138591766,0.001858831848949194
1761384866519235000,6.439235107421875,-0.0027988513465970755,0.000022424384951591492,-0.0006885030306875706
1761384866529304000,6.449303955078125,-0.0022145539987832308,0.00010418333113193512,-0.001001957105472684
1761384866539372800,6.459372802734375,-0.0011427440913394094,-0.000531206838786602,0.0014034928753972054
1761384866549442000,6.469442138671875,-0.0021914970129728317,0.00017506349831819534,0.0013313214294612408
1761384866559511000,6.479510986328125,-0.0021433131769299507,-0.0005382560193538666,0.002418176271021366
1761384866569580000,6.489580078125,0.0019563569221645594,-0.001431213691830635,0.0035106055438518524
1761384866579649000,6.49964892578125,0.0004380946047604084,0.00005715619772672653,-6.933696568012238e-7
1761384866589718000,6.509718017578125,0.0003307691076770425,0.00034637562930583954,0.0008448604494333267
1761384866599783400,6.519783447265625,-0.0006765943253412843,-0.0015685530379414558,0.00011409446597099304
1761384866609852700,6.529852783203125,0.00039213208947330713,-0.003231964074075222,0.000841137021780014
1761384866619921400,6.53992138671875,0.0014617126435041428,0.0010909000411629677,0.000353875569999218
1761384866629990700,6.54999072265625,-0.0018446019385010004,0.0008333721198141575,0.001154421828687191
1761384866640059400,6.560059326171875,-0.0002489978214725852,-0.0026500672101974487,0.002549956552684307
1761384866650128600,6.570128662109375,-0.0012807064922526479,0.0023122006095945835,0.00034805480390787125
1761384866660197400,6.580197265625,0.00017682707402855158,-0.00017990916967391968,-0.0014851654414087534
1761384866670266600,6.5902666015625,-0.0008325109956786036,0.00031117815524339676,-0.00019726064056158066
1761384866680335600,6.600335693359375,-0.0010449860710650682,0.000013533048331737518,0.0015549208037555218
1761384866690404400,6.610404296875,0.00004664354491978884,0.0027073207311332226,-0.00232929945923388
1761384866700473600,6.6204736328125,0.00037547992542386055,0.00032426510006189346,0.0006612441502511501
1761384866710542300,6.630542236328125,0.002903885208070278,-0.0011327499523758888,-0.0021270853467285633
1761384866720611600,6.640611572265625,-0.0004751952365040779,-0.0010424908250570297,0.0001625935547053814
1761384866730680600,6.6506806640625,0.0002545107854530215,0.0011634058319032192,0.0017519681714475155
1761384866740749600,6.66074951171875,-0.00027214246802031994,0.00036247633397579193,0.0002428586594760418
1761384866750818600,6.670818603515625,-0.0024727126583456993,0.0008620847947895527,0.0001512463204562664
1761384866760887600,6.680887451171875,-0.0009573395363986492,0.0007962984964251518,0.0017337012104690075
1761384866770956500,6.69095654296875,0.0006477475399151444,-0.00017362460494041443,-0.0005542205180972815
1761384866781025500,6.701025634765625,-0.0005637487629428506,-0.002068275585770607,0.0031979470513761044
1761384866791094500,6.711094482421875,0.0004162946715950966,0.00003828480839729309,0.0017886022105813026
1761384866801163500,6.72116357421875,0.0023467219434678555,0.0001362040638923645,-0.0002613607794046402
1761384866811232500,6.731232421875,0.0016018359456211329,-0.0012318622320890427,-0.00022993562743067741
1761384866821301500,6.741301513671875,-0.0015655538300052285,0.0014507216401398182,-0.00020447652786970139
1761384866831370500,6.75137060546875,0.0018307754071429372,0.0017029228620231152,0.0008117859251797199
1761384866841439500,6.761439453125,-0.0004016102757304907,0.00020836014300584793,-0.0013688362669199705
1761384866851508700,6.7715087890625,-0.00043729657772928476,0.0011364719830453396,-0.0003011748194694519
1761384866861577500,6.781577392578125,0.001756363781169057,0.0007551582530140877,-0.000830822391435504
1761384866871646500,6.791646484375,0.0007046815590001643,0.001004164107143879,0.0009886492043733597
1761384866881715500,6.801715576171875,0.0006012293742969632,-0.0007364824414253235,0.0013006874360144138
1761384866891784400,6.811784423828125,-0.0012131822295486927,0.001279530581086874,-0.0020077575463801622
1761384866901853400,6.821853515625,0.000019861385226249695,0.0011246949434280396,0.0018466431647539139
1761384866911922400,6.83192236328125,-0.00013060716446489096,0.0006605060771107674,-0.0013851027470082045
1761384866921991700,6.84199169921875,0.002845884533599019,-0.0002734912559390068,0.0012541227042675018
1761384866932060400,6.852060302734375,0.0003041635500267148,0.00004848465323448181,0.001458653248846531
1761384866942129700,6.862129638671875,0.0003268063301220536,0.00011490751057863235,-0.0015832171775400639
1761384866952198400,6.872198486328125,-0.0018817530944943428,0.00006377510726451874,0.00023865140974521637
1761384866962267400,6.882267333984375,0.002609647810459137,0.00001579616218805313,-0.0008605397306382656
1761384866972336600,6.892336669921875,0.0016594317276030779,-0.0008811559528112411,-0.002147112740203738
1761384866982405400,6.9024052734375,0.00002919812686741352,-0.0003219274803996086,0.00040852557867765427
1761384866992474600,6.912474609375,0.000697118928655982,0.0006706332787871361,-0.0005265101790428162
1761384867002543400,6.92254345703125,-0.0010692017385736108,0.0022915229201316833,-0.0003940039314329624
1761384867012612600,6.932612548828125,0.0003236315678805113,-0.0001383451744914055,-0.0008478064555674791
1761384867022681600,6.942681640625,-0.00018683075904846191,-0.0005817646160721779,-0.0006143092177808285
1761384867032750600,6.95275048828125,-0.0021759457886219025,-0.002133055590093136,0.0004962286911904812
1761384867042819600,6.962819580078125,-0.00012444064486771822,0.0010087639093399048,-0.0027177738957107067
1761384867052888600,6.972888671875,0.0006300328532233834,-0.0008314801380038261,0.00021143723279237747
1761384867062957600,6.98295751953125,-0.0009662804659456015,0.002471907064318657,-0.00013603037223219872
1761384867073026300,6.9930263671875,-0.0010975743643939495,-0.00036169588565826416,0.0018951627425849438
1761384867083095600,7.003095458984375,-0.0006950413808226585,0.00044429488480091095,-0.0025590870063751936
1761384867093164500,7.01316455078125,0.0002130966167896986,0.00002990756183862686,0.0031427410431206226
1761384867103233500,7.023233642578125,-0.0019212054321542382,-0.00071765948086977,0.0022403793409466743
1761384867113302500,7.033302490234375,-0.002812298946082592,0.0013223220594227314,0.0013562096282839775
1761384867123371500,7.04337158203125,0.00038264598697423935,-0.001478215679526329,-0.0006840839050710201
1761384867133440500,7.0534404296875,0.0032492727041244507,-0.000491781160235405,0.00014442531391978264
1761384867143509500,7.063509521484375,0.0024273046292364597,0.00010804180055856705,-0.00017964467406272888
1761384867153578500,7.07357861328125,0.0015993278939276934,-0.0017223488539457321,0.001396147534251213
1761384867163647500,7.0836474609375,0.001861884375102818,0.0015781852416694164,0.0009529213421046734
1761384867173716500,7.093716552734375,-0.0015304501866921782,-0.0020873891189694405,0.00012281397357583046
1761384867183785500,7.103785400390625,0.00030072976369410753,0.00043927691876888275,-0.00015049660578370094
1761384867193854500,7.1138544921875,0.00028901174664497375,-0.0010795239359140396,-0.0023622517473995686
1761384867203923500,7.12392333984375,0.0009491891250945628,-0.0024915235117077827,0.0015252036973834038
1761384867213992700,7.13399267578125,-0.00026867445558309555,-0.0017703389748930931,0.0024535818956792355
1761384867224061400,7.1440615234375,-0.002035694196820259,0.0015547964721918106,-0.0004208488389849663
1761384867234130700,7.154130615234375,0.0016503871884196997,-0.0006420444697141647,0.0002052602358162403
1761384867244199400,7.164199462890625,-0.0019698909018188715,0.001152009703218937,-0.0003624451346695423
1761384867254268400,7.174268310546875,0.00046450458467006683,-0.0012083500623703003,-0.0017406309489160776
1761384867264337700,7.184337646484375,0.000768601952586323,0.0007911836728453636,0.0011327052488923073
1761384867274406400,7.194406494140625,0.0018208168912678957,-0.0006714249029755592,0.00019846856594085693
1761384867284475600,7.2044755859375,0.0016761735314503312,-0.0011003268882632256,0.001387071330100298
1761384867294544400,7.21454443359375,0.0022833743132650852,0.0003420412540435791,-0.00016315467655658722
1761384867304613600,7.224613525390625,0.0026604407466948032,-0.00010149367153644562,0.0019527650438249111
1761384867314682400,7.234682373046875,0.00034695258364081383,-0.0014905985444784164,-0.00030346494168043137
1761384867324751600,7.244751708984375,0.000883137050550431,0.00000286102294921875,0.0014747744426131248
1761384867334820600,7.254820556640625,0.0017832855228334665,0.000954674556851387,-0.0008933085482567549
1761384867344889300,7.264889404296875,0.0030157282017171383,0.00020177755504846573,0.0031331609934568405
1761384867354958600,7.27495849609375,0.00031927775125950575,-0.0005060909315943718,-0.00030711060389876366
1761384867365027300,7.28502734375,-0.00309164309874177,0.0006719697266817093,-0.0008328321855515242
1761384867375096600,7.2950966796875,0.0014234802220016718,0.00019206851720809937,0.0004894272424280643
1761384867385165600,7.30516552734375,-0.0008846730925142765,-0.000849124975502491,-0.001202449668198824
1761384867395234600,7.315234619140625,0.000981936464086175,0.0013045729137957096,-0.000427203718572855
1761384867405302500,7.325302490234375,0.001020902651362121,0.001085229218006134,0.0013653235509991646
1761384867415372500,7.33537255859375,-0.0006259960355237126,-0.001020532101392746,-0.0022642987314611673
1761384867425440500,7.3454404296875,-0.0005006091669201851,0.00035902857780456543,-0.0007065264508128166
1761384867435509500,7.355509521484375,-0.0002840942470356822,0.0009688921272754669,0.0005811117589473724
1761384867445578500,7.36557861328125,0.0028895919676870108,-0.0011188117787241936,-0.0002784077078104019
1761384867455647500,7.3756474609375,-0.0014915743377059698,0.0006718980148434639,-0.0016443431377410889
1761384867465716500,7.385716552734375,0.001843160018324852,0.001736573874950409,0.00048669707030057907
1761384867475785500,7.395785400390625,0.00168816396035254,-0.0017436454072594643,-0.00274238595739007
1761384867485854700,7.405854736328125,0.00013815367128700018,0.0009263963438570499,-0.00021617021411657333
1761384867495923500,7.41592333984375,-0.0016216631047427654,-0.0030933795496821404,-0.00016716821119189262
1761384867505992400,7.425992431640625,0.00006996060255914927,0.00114078214392066,-0.0007342312019318342
1761384867516061400,7.4360615234375,-0.0005921012489125133,0.0020459904335439205,0.0010538152419030666
1761384867526130400,7.44613037109375,-0.00019089027773588896,-0.0007354989647865295,0.00001999828964471817
1761384867536199700,7.45619970703125,-0.00035121256951242685,0.0008243145421147346,0.0003145439550280571
1761384867546268400,7.466268310546875,0.000413991860114038,-0.001562756486237049,0.00005350029096007347
1761384867556337700,7.476337646484375,-0.00011677620932459831,0.0006311554461717606,0.00015416787937283516
1761384867566406400,7.486406494140625,0.0006988148088566959,0.001427317038178444,-0.001307361526414752
1761384867576475600,7.4964755859375,-0.0007238457910716534,0.00018015876412391663,0.002315869089215994
1761384867586544600,7.506544677734375,0.0007340448210015893,-0.00011507794260978699,-0.00022838544100522995
1761384867596613000,7.516613037109375,-0.0019379046279937029,0.00023992173373699188,-0.00022226013243198395
1761384867606682000,7.52668212890625,-0.0000079302117228508,0.0013340632431209087,0.0001210956834256649
1761384867616750800,7.536750732421875,0.000943350896704942,-0.0014721089974045753,-0.0018302022945135832
1761384867626820000,7.546820068359375,-0.00037982966750860214,0.00013796892017126083,-0.00002049701288342476
1761384867636889000,7.55688916015625,0.0006731842877343297,-0.0010090544819831848,-0.0005792281590402126
1761384867646958000,7.5669580078125,0.0006688990979455411,-0.00012906361371278763,-0.0006237884517759085
1761384867657027000,7.577027099609375,-0.00016893132124096155,0.003777794074267149,0.00257892906665802
1761384867667096000,7.587095947265625,-0.00019612431060522795,-0.001093330793082714,-0.001354672247543931
1761384867677165000,7.5971650390625,-0.0013479413464665413,0.00012666266411542892,0.0036699133925139904
1761384867687234000,7.607234130859375,0.000521462585311383,0.0017843497917056084,0.00038867490366101265
1761384867697303000,7.617302978515625,0.0005523552536033094,-0.0008756155148148537,-0.0024989903904497623
1761384867707372000,7.6273720703125,-0.00039294816087931395,0.0011056982912123203,-0.0007432280108332634
1761384867717441000,7.63744091796875,-0.0000949404202401638,-0.0010812897235155106,0.0006275009363889694
1761384867727510000,7.647510009765625,-0.0008704885840415955,0.0024177683517336845,0.0010966788977384567
1761384867737579000,7.6575791015625,0.0002634854754433036,0.0024491935037076473,-0.0012538270093500614
1761384867747648000,7.66764794921875,0.00008027488365769386,-0.0009931279346346855,0.0007075616158545017
1761384867757717200,7.67771728515625,-0.0010686129098758101,0.001805588137358427,-0.00042055360972881317
1761384867767786000,7.687785888671875,-0.0009961207397282124,-0.001288609579205513,0.0019697747193276882
1761384867777855200,7.697855224609375,-0.001396926585584879,0.0012605688534677029,0.0011487221345305443
1761384867787924000,7.707924072265625,0.00013058062177151442,0.0015637446194887161,-0.001137609826400876
1761384867797993000,7.717992919921875,-0.0017972817877307534,-0.0008967500180006027,0.0013005142100155354
1761384867808062000,7.72806201171875,-0.0001842058263719082,0.001143492292612791,0.0005868393927812576
1761384867818131000,7.738130859375,-0.0011461396934464574,-0.002631804905831814,-0.0004645762965083122
1761384867828200200,7.7482001953125,-0.0006604093359783292,0.0009643025696277618,0.002276127692312002
1761384867838269000,7.75826904296875,0.0004389435052871704,0.00005563255399465561,0.00011310819536447525
1761384867848338200,7.768338134765625,0.0007070444407872856,0.0015614284202456474,-0.0005741326604038477
1761384867858407000,7.778406982421875,-0.0018645038362592459,-0.0004399372264742851,-0.0029741732869297266
1761384867868476200,7.78847607421875,0.001191750168800354,-0.0020624110475182533,-0.001980298198759556
1761384867878545200,7.798545166015625,-0.0017129597254097462,0.0009858435951173306,0.0019782246090471745
1761384867888614100,7.8086142578125,-0.0021098521538078785,-0.0007291557267308235,0.0016750884242355824
1761384867898683100,7.81868310546875,-0.0002568246563896537,-0.0012045307084918022,-0.0013270932249724865
1761384867908752000,7.828751953125,0.0007431615958921611,0.0003618355840444565,-0.00041329534724354744
1761384867918821000,7.838821044921875,-0.0006195779424160719,0.0011701053008437157,-0.00029824674129486084
1761384867928890000,7.84889013671875,-0.0015054579125717282,-0.0013324227184057236,-0.004673811141401529
1761384867938959000,7.858958984375,0.0002732673892751336,0.001347782090306282,0.0021542678587138653
1761384867949028000,7.869028076171875,-0.00023733952548354864,-0.0008376026526093483,0.0009246459230780602
1761384867959097000,7.87909716796875,-0.0023143389262259007,0.00010941736400127411,-0.0015973676927387714
1761384867969166000,7.889166015625,-0.0020044734701514244,-0.00008468981832265854,-0.00000859145075082779
1761384867979235000,7.899235107421875,-0.0005551812937483191,0.0015499587170779705,0.0007432191632688046
1761384867989304000,7.909303955078125,-0.0025850096717476845,-0.0002684611827135086,0.0004248502664268017
1761384867999373000,7.919373046875,-0.0012337218504399061,0.003426940646022558,0.0016200770623981953
1761384868009442000,7.929442138671875,0.0018115241546183825,0.0025148489512503147,0.002856601495295763
1761384868019511000,7.939510986328125,-0.0002553552621975541,0.00007246434688568115,0.00004190672188997269
1761384868029580000,7.949580078125,-0.0020659794099628925,0.0007282081060111523,0.00008760066702961922
1761384868039649000,7.95964892578125,-0.0012960595777258277,-0.00044597964733839035,-0.0006660737562924623
1761384868049718000,7.969718017578125,-0.0026780657935887575,0.0012323609553277493,0.0015145228244364262
1761384868059787000,7.979787109375,-0.0026988384779542685,-0.0014126906171441078,0.0013331612572073936
1761384868069856300,7.989856201171875,-0.0007038951152935624,-0.0008209394291043282,-0.0024789036251604557
1761384868079924200,7.99992431640625,0.0018596637528389692,0.0006296848878264427,0.004572081379592419
1761384868089993000,8.009992919921874,-0.0020886475685983896,0.00056451465934515,0.0008720601908862591
1761384868100062200,8.020062255859376,-0.0016124744433909655,0.0005567912012338638,0.0010811183601617813
1761384868110131000,8.030130859375,0.00017203891184180975,-0.0017513055354356766,0.0018388167954981327
1761384868120200200,8.0402001953125,0.000003993511199951172,0.0010378225706517696,-0.0002890489995479584
1761384868130269000,8.05026904296875,0.0015594855649396777,-0.0006415918469429016,-0.0004462231881916523
1761384868140338000,8.060337890625,-0.00031431461684405804,-0.0012927353382110596,0.00024460069835186005
1761384868150407200,8.0704072265625,0.001334542059339583,0.002505628392100334,0.0008353092707693577
1761384868160476000,8.080475830078125,0.0009467858471907675,-0.0017610220238566399,-0.0007316945120692253
1761384868170545200,8.090545166015625,0.0004003323847427964,0.00035147182643413544,0.00010733120143413544
1761384868180614000,8.10061376953125,-0.003101457841694355,0.0031904010102152824,0.0025055077858269215
1761384868190683100,8.11068310546875,0.0001066926633939147,-0.00008616223931312561,0.0015286197885870934
1761384868200752000,8.120752197265626,0.0008286756346933544,0.00024540163576602936,0.0005901218391954899
1761384868210821000,8.130821044921875,-0.0012367692543193698,0.0010915235616266727,-0.0007670493796467781
1761384868220890000,8.14089013671875,-0.0005768380360677838,0.0022713039070367813,0.0016686776652932167
1761384868230959000,8.150958984375,-0.001157177146524191,-0.0012741442769765854,-0.0015039702411741018
1761384868241028000,8.161028076171876,-0.00009430944919586182,-0.0022208979353308678,0.0003887382335960865
1761384868251097000,8.17109716796875,-0.00200281897559762,0.00008288305252790451,-0.0005843343678861856
1761384868261166000,8.181166015625,0.00019349006470292807,-0.0015283292159438133,-0.000773152569308877
1761384868271235000,8.191235107421875,-0.000373761635273695,0.00047227460891008377,0.0013308143243193626
1761384868281304000,8.201303955078124,0.00015780527610331774,0.0012951912358403206,0.0014266883954405785
1761384868291373000,8.211373046875,-0.001709866221062839,-0.0009621186181902885,-0.000005652662366628647
1761384868301442000,8.221442138671875,0.0023431985173374414,-0.00024013593792915344,0.0031472640112042427
1761384868311511000,8.231510986328125,0.0003791842609643936,-0.0008248761296272278,-0.0025251274928450584
1761384868321580300,8.241580322265625,0.0012471084482967854,0.002227372955530882,-0.002219662768766284
1761384868331649000,8.25164892578125,0.0006118043093010783,-0.00033577438443899155,0.0012896801345050335
1761384868341718000,8.261718017578126,0.0002626638161018491,-0.00020421389490365982,-0.0005745324306190014
1761384868351787000,8.271787109375,-0.000010804855264723301,0.0020453198812901974,0.000947257038205862
1761384868361856000,8.28185595703125,0.00032635137904435396,0.0012234682217240334,-0.0022690428886562586
1761384868371925000,8.291925048828125,0.0007455697050318122,0.001011875458061695,-0.0012369761243462563
1761384868381994000,8.301993896484374,0.001807372085750103,-0.0014126664027571678,0.0017684013582766056
1761384868392063200,8.312063232421876,0.0000161794014275074,0.0004626736044883728,0.0009612841531634331
1761384868402132000,8.322132080078125,-0.001793971168808639,0.001685330644249916,-0.0004342123866081238
1761384868412201200,8.332201171875,-0.0005874123889952898,-0.0002332553267478943,0.0012186598032712936
1761384868422270000,8.34227001953125,0.0008584177121520042,0.0011300165206193924,0.002443980425596237
1761384868432339000,8.3523388671875,0.0011443293187767267,-0.0030828770250082016,-0.000554695725440979
1761384868442408200,8.362408203125,0.000401041004806757,0.0009163920767605305,-0.00043698400259017944
1761384868452477000,8.372476806640625,0.0005593795794993639,-0.00021155644208192825,0.0012021367438137531
1761384868462546200,8.382546142578125,-0.0005599469877779484,-0.0015492616221308708,-0.0004463600926101208
1761384868472615000,8.392614990234375,-0.0005805458640679717,0.0004922952502965927,0.0005027242004871368
1761384868482684200,8.40268408203125,-0.0002998487325385213,0.003578898962587118,0.0022340454161167145
1761384868492753200,8.412753173828126,0.0016228067688643932,0.0002477997913956642,-0.0017610294744372368
1761384868502822100,8.422822265625,0.0001040060305967927,-0.00040760450065135956,-0.00007311813533306122
1761384868512891100,8.43289111328125,0.0021335056517273188,0.0004686545580625534,-0.0006258657667785883
1761384868522960000,8.4429599609375,0.0007414714200422168,-0.0016946308314800262,0.0006095748394727707
1761384868533029000,8.453029052734376,-0.0008268060628324747,-0.0023320280015468597,0.003090658225119114
1761384868543097900,8.463097900390625,0.0020946816075593233,0.001021691132336855,-0.0020095615182071924
1761384868553167000,8.4731669921875,-0.0004914395976811647,-0.0008206740021705627,0.0008359099738299847
1761384868563236000,8.483236083984375,0.0025118072517216206,0.0006659021601080894,0.0006707939319312572
1761384868573305000,8.49330517578125,-0.001890749204903841,-0.0011593084782361984,-0.0027490146458148956
1761384868583374000,8.5033740234375,0.0002024953719228506,-0.0013238918036222458,0.00021668151021003723
1761384868593443000,8.513443115234375,0.003001684322953224,0.0009554806165397167,-0.001612760592252016
1761384868603512600,8.5235126953125,-0.001640471862629056,-0.0014192601665854454,0.00044506415724754333
1761384868613581600,8.53358154296875,0.0005068345926702023,0.001259620301425457,-0.001078529516234994
1761384868623649500,8.5436494140625,0.0007214854122139513,-0.00227306317538023,0.00025464873760938644
1761384868633718800,8.55371875,-0.000013759126886725426,-0.00047887954860925674,-0.0027094106189906597
1761384868643787500,8.56378759765625,0.00039690022822469473,0.0014918595552444458,-0.0006915333215147257
1761384868653856800,8.573856689453125,0.00223933020606637,0.00012278929352760315,-0.0009229928255081177
1761384868663925800,8.58392578125,-0.0004531255690380931,0.0007960363291203976,-0.0017208759672939777
1761384868673994500,8.593994384765624,0.0005566560430452228,0.0005134623497724533,0.0019661723636090755
1761384868684063700,8.604063720703126,-0.0004388336092233658,0.00012171175330877304,-0.0021311009768396616
1761384868694132500,8.614132568359375,0.0011202750029042363,-0.0007614698261022568,-0.00020367233082652092
1761384868704201700,8.62420166015625,0.0005373089807108045,-0.001201423816382885,-0.0011538881808519363
1761384868714270500,8.6342705078125,0.0005288044922053814,-0.0004515610635280609,-0.001573069952428341
1761384868724339700,8.644339599609374,-0.0015868105692788959,-0.0006771311163902283,-0.00039941491559147835
1761384868734408700,8.65440869140625,0.0008030999451875687,0.0007938728667795658,-0.0028816761914640665
1761384868744477700,8.664477783203125,0.0016957914922386408,-0.00051933154463768,0.0012861709110438824
1761384868754546700,8.674546630859375,0.0002518552355468273,-0.0016951831057667732,0.0009646150283515453
1761384868764615400,8.684615478515624,-0.0008887766161933541,0.00042655784636735916,-0.0016953505109995604
1761384868774684700,8.6946845703125,-0.0007312539964914322,-0.0022882698103785515,-0.0015240502543747425
1761384868784753700,8.704753662109376,-0.0013272694777697325,0.00015384890139102936,0.002258170861750841
1761384868794822700,8.71482275390625,-0.000346306711435318,-0.00045910198241472244,-0.001375031191855669
1761384868804891600,8.7248916015625,0.0008931284537538886,-0.0029917676001787186,-0.00017447816208004951
1761384868814960600,8.734960693359374,0.00006797339301556349,0.00047689490020275116,0.001939960289746523
1761384868825029600,8.745029541015626,0.0006650540744885802,-0.0005247201770544052,0.0008826856501400471
1761384868835098600,8.7550986328125,-0.00043902185279875994,0.0012775370851159096,-0.0009746337309479713
1761384868845167600,8.765167724609375,0.0002280999906361103,-0.0010146452113986015,-0.0002105729654431343
1761384868855236600,8.775236572265625,-0.001412455691024661,-0.0014170296490192413,-0.0016446211375296116
1761384868865305600,8.7853056640625,0.0005204665940254927,0.0009214915335178375,0.0010281270369887352
1761384868875374600,8.79537451171875,0.0010058535262942314,-0.0004990724846720695,0.002319932449609041
1761384868885443600,8.805443603515625,0.000801855290774256,-0.00046232063323259354,-0.00022418517619371414
1761384868895512600,8.8155126953125,0.00040922267362475395,0.00020051468163728714,-0.00012934720143675804
1761384868905581800,8.825581787109375,-0.0004528425633907318,-0.00009110104292631149,0.0007883780635893345
1761384868915650600,8.835650634765624,-0.0004930939758196473,0.001104957889765501,-0.0011473298072814941
1761384868925719800,8.8457197265625,0.0003868144704028964,-0.00321868434548378,-0.00006635254248976707
1761384868935788500,8.85578857421875,0.00042711326386779547,-0.0008009439334273338,-0.0008313150610774755
1761384868945857500,8.865857421875,0.00011578970588743687,-0.0014241235330700874,0.00014526629820466042
1761384868955926800,8.8759267578125,-0.001702985493466258,-0.002640130929648876,0.0007659192197024822
1761384868965995500,8.88599560546875,0.0014174404786899686,0.002864356618374586,-0.0005992171354591846
1761384868976064800,8.896064697265626,-0.0009895415278151631,0.001447605900466442,-0.0015577159356325865
1761384868986133500,8.906133544921875,-0.0007621074328199029,0.0018577324226498604,-0.0004189484752714634
1761384868996202800,8.91620263671875,0.00295456824824214,-0.003218020312488079,-0.0025305524468421936
1761384869006271500,8.926271484375,0.0009835626697167754,-0.0004699043929576874,0.0013605919666588306
1761384869016340700,8.9363408203125,-0.0004576637875288725,-0.00008738413453102112,-0.0022071825806051493
1761384869026409700,8.94640966796875,0.001010004198178649,-0.0005358606576919556,-0.0014013098552823067
1761384869036478700,8.956478759765625,-0.0006984195206314325,0.0008810120634734631,-0.0000016060657799243927
1761384869046547700,8.966547607421875,-0.0007077404297888279,-0.0023555271327495575,0.0005821590311825275
1761384869056616400,8.976616455078124,-0.000044032116420567036,-0.0005800463259220123,-0.0008809594437479973
1761384869066685700,8.986685791015624,-0.001889070263132453,-0.000866335816681385,0.000159537885338068
1761384869076754700,8.996754638671876,0.0009013310191221535,-0.0007832888513803482,-0.0004127207212150097
1761384869086823700,9.00682373046875,0.00043128314428031445,0.002370160073041916,0.00020646443590521812
1761384869096891600,9.0168916015625,-0.00019688170868903399,0.000074777752161026,0.0006288723088800907
1761384869106960600,9.026960693359374,0.0010143239051103592,-0.00003494415432214737,0.0008927918970584869
1761384869117029600,9.037029541015626,-0.000564593356102705,0.0010357275605201721,-0.0007142794784158468
1761384869127098600,9.0470986328125,-0.00041305948980152607,0.0014357343316078186,-0.000560881569981575
1761384869137167600,9.057167724609375,-0.0009977410081773996,-0.0009161857888102531,-0.0013720500282943249
1761384869147236600,9.067236572265625,-0.0007918786723166704,0.0005940934643149376,-0.0001533874310553074
1761384869157305600,9.0773056640625,0.00005177990533411503,-0.0015334822237491608,-0.0007199945393949747
1761384869167374600,9.08737451171875,0.0009407430770806968,0.0013592434115707874,-0.0014281291514635086
1761384869177443800,9.09744384765625,-0.0008289923425763845,-0.0006680851802229881,0.00041448650881648064
1761384869187512600,9.1075126953125,0.0006216313922777772,0.000264020636677742,0.0009002471342682838
1761384869197581600,9.11758154296875,0.0002864317502826452,-0.001400102861225605,-0.00025180308148264885
1761384869207650600,9.127650634765626,-0.0019058823818340898,0.0028087571263313293,-0.0011820450890809298
1761384869217719600,9.137719482421875,-0.00015823286958038807,-0.0022393586114048958,0.000267877709120512
1761384869227788800,9.147788818359375,-0.0014578555710613728,0.0006845253519713879,-0.0023060673847794533
1761384869237857500,9.157857421875,0.0005613504908978939,0.00027273688465356827,-0.0016350520309060812
1761384869247925800,9.16792578125,0.0013879957841709256,-0.0006511136889457703,0.0017029540613293648
1761384869257994800,9.177994873046876,-0.00004773156251758337,-0.00046862103044986725,-0.0017544047441333532
1761384869268063500,9.1880634765625,-0.0020490973256528378,-0.00011202413588762283,-0.00017515011131763458
1761384869278132700,9.1981328125,-0.0010477761970832944,-0.000030484981834888458,-0.001776434015482664
1761384869288201500,9.208201416015624,-0.0018336748471483588,-0.0009095948189496994,-0.0002869279123842716
1761384869298270700,9.218270751953124,-0.0016993186436593533,-0.0018710000440478325,-0.00045261625200510025
1761384869308339700,9.228339599609376,-0.001371483551338315,0.0006965533830225468,0.0004153079353272915
1761384869318408700,9.23840869140625,-0.0003677258500829339,-0.0008278768509626389,0.0024430789053440094
1761384869328477700,9.248477783203125,-0.00011792138684540987,-0.00012426916509866714,-0.001575364964082837
1761384869338546700,9.258546630859374,-0.0021465409081429243,-0.00037882477045059204,-0.00208495045080781
1761384869348615700,9.26861572265625,0.0004321980522945523,-0.00019639823585748672,-0.0014556455425918102
1761384869358684400,9.278684326171875,-0.0010044442024081945,0.003323489334434271,0.0021953461691737175
1761384869368753700,9.288753662109375,-0.003216465935111046,0.001374854240566492,0.00008479086682200432
1761384869378822700,9.29882275390625,0.0003928765654563904,0.001635740976780653,0.0004548151046037674
1761384869388891600,9.3088916015625,-0.00021192734129726887,-0.00036855414509773254,0.002913445234298706
1761384869398960600,9.318960693359376,0.0003692267928272486,-0.0014596711844205856,-0.002778261434286833
1761384869409029600,9.329029541015625,0.0000986496452242136,-0.00035898666828870773,-0.0005321516655385494
1761384869419098600,9.3390986328125,0.00005626794882118702,0.002351517789065838,0.002910185605287552
1761384869429167900,9.34916796875,0.0016736056422814727,0.0007933024317026138,-0.0022622060496360064
1761384869439236600,9.359236572265624,0.0017446839483454823,0.00044030509889125824,-0.0011554614175111055
1761384869449305600,9.3693056640625,-0.0026463360991328955,0.0003034193068742752,0.001981742214411497
1761384869459374600,9.37937451171875,0.0010971780866384506,-0.0003600437194108963,-0.0015768168959766626
1761384869469443600,9.389443603515625,-0.0002535771345719695,0.00023304205387830734,-0.0006079589948058128
1761384869479512600,9.3995126953125,0.000013844692148268223,0.0018566781654953957,-0.0006688826251775026
1761384869489581600,9.40958154296875,-0.0018663471564650536,-0.0005071433261036873,0.0018432773649692535
1761384869499650800,9.41965087890625,0.0008023177506402135,0.0010974346660077572,-0.001147567993029952
1761384869509719600,9.429719482421875,0.0008816799381747842,0.0016367249190807343,-0.0006152023561298847
1761384869519788800,9.439788818359375,-0.00031947356183081865,0.0010523805394768715,0.002486357931047678
1761384869529857500,9.449857421875,-0.0003168104449287057,0.00019590836018323898,-0.0002513714134693146
1761384869539926500,9.459926513671874,0.0020487012807279825,0.00012286752462387085,-0.0026755966246128082
1761384869549995800,9.469995849609376,-0.00038542808033525944,-0.0011551827192306519,0.0006307177245616913
1761384869560064500,9.480064453125,-0.0021006299648433924,-0.00011166837066411972,-0.00036930758506059647
1761384869570133800,9.4901337890625,0.000762800860684365,0.000960253644734621,-0.0012353674974292517
1761384869580202500,9.500202392578124,0.00028704828582704067,0.0010703438892960548,-0.0021264604292809963
1761384869590271700,9.510271728515624,0.001183734624646604,-0.001106257550418377,0.0006208564154803753
1761384869600341200,9.52034130859375,-0.00184458470903337,0.0012344690039753914,-0.00031342310830950737
1761384869610410500,9.530410400390625,0.0014670559903606772,-0.001891283318400383,-0.0027177250012755394
1761384869620479200,9.540479248046875,-0.00017450307495892048,0.0014488804154098034,0.0013666404411196709
1761384869630548500,9.550548583984375,-0.00020832521840929985,0.0025405101478099823,-0.00014843186363577843
1761384869640617500,9.560617431640624,0.0007813486736267805,-0.0011729719117283821,0.003392196726053953
1761384869650685200,9.570685302734375,0.00016882154159247875,0.0017591682262718678,0.0008504753932356834
1761384869660754400,9.58075439453125,-0.00007146946154534817,-0.0024082092568278313,-0.0022147495765239
1761384869670823400,9.590823486328125,0.0005975166568532586,0.00029942672699689865,0.0009850384667515755
1761384869680892400,9.600892333984374,0.0000537199666723609,-0.00004910863935947418,0.0013164426200091839
1761384869690961400,9.61096142578125,-0.0002871647011488676,0.00006620679050683975,0.0003686235286295414
1761384869701030400,9.621030517578125,0.0005443160189315677,0.0032484428957104683,0.000051449984312057495
1761384869711099400,9.631099365234375,0.002093210583552718,0.0012382888235151768,-0.00102473353035748
1761384869721168400,9.64116845703125,-0.0026782206259667873,-0.00022669602185487747,-0.0003202292136847973
1761384869731237400,9.6512373046875,0.0006115821888670325,-0.00046877749264240265,-0.0005346136167645454
1761384869741306400,9.661306396484376,-0.0013725955504924059,-0.0010418090969324112,-0.000925704836845398
1761384869751375400,9.671375244140625,-0.0017065559513866901,-0.0013427464291453362,-0.0010255735833197832
1761384869761444400,9.6814443359375,-0.0007255708333104849,-0.0002707308158278465,-0.0017266341019421816
1761384869771513300,9.691513427734375,0.0009660691139288247,0.0017865607514977455,0.0010707504115998745
1761384869781582300,9.701582275390624,0.0010795557172968984,-0.00031869392842054367,0.00014462508261203766
1761384869791651600,9.711651611328126,-0.00008104986045509577,-0.0006049834191799164,0.002432280220091343
1761384869801720300,9.72172021484375,-0.000050366390496492386,-0.001604168675839901,-0.0005873041227459908
1761384869811789300,9.731789306640625,0.001997338142246008,-0.0004496881738305092,0.0020420346409082413
1761384869821858300,9.7418583984375,-0.0004693759838119149,0.002233510836958885,-0.0013645780272781849
1761384869831929300,9.751929443359375,-0.0007090604631230235,-0.0025375420227646828,0.002082351129502058
1761384869841998300,9.761998291015624,0.000904614629689604,0.00042288564145565033,0.0019259345717728138
1761384869852067600,9.772067626953126,0.001561616430990398,0.0006063766777515411,0.0004926212131977081
1761384869862136300,9.78213623046875,0.0005842035170644522,-0.00028165336698293686,0.003090580925345421
1761384869872205600,9.79220556640625,-0.00005309097468852997,0.000051242299377918243,-0.00015048636123538017
1761384869882274300,9.8022744140625,0.0010013446444645524,-0.0027320794761180878,0.00026206206530332565
1761384869892343300,9.81234326171875,-0.0021265381947159767,-0.0010953014716506004,0.0023473170585930347
1761384869902412300,9.822412353515626,-0.00048479659017175436,0.003178651910275221,0.0005729109980165958
1761384869912481300,9.832481201171875,-0.0019777645356953144,0.0006835362873971462,-0.0015493622049689293
1761384869922550500,9.842550537109375,0.0015177499735727906,0.002544846385717392,0.00012459605932235718
1761384869932619300,9.852619384765624,0.0013784666080027819,-0.0006738500669598579,-0.0018773020710796118
1761384869942688500,9.8626884765625,-0.0010645256843417883,0.0015610745176672935,0.003303377889096737
1761384869952757200,9.87275732421875,0.0017464407719671726,-0.00031751953065395355,-0.000892166281118989
1761384869962826500,9.882826416015625,-0.0000023975735530257225,0.001212025061249733,-0.0014271421823650599
1761384869972894500,9.89289453125,0.0018482329323887825,0.0002194652333855629,0.00041922740638256073
1761384869982963200,9.902963134765624,-0.003179310355335474,-0.0004303678870201111,0.0007644272409379482
1761384869993032400,9.913032470703126,-0.0005515690427273512,-0.0005901576951146126,-0.0009874000679701567
1761384870003101400,9.923101318359375,-0.0003893006360158324,-0.00002065766602754593,-0.00041392305865883827
1761384870013170400,9.93317041015625,0.00039766356348991394,-0.0023527871817350388,0.0002017999067902565
1761384870023239400,9.943239501953125,-0.00029675092082470655,-0.0019980352371931076,-0.002216948661953211
1761384870033308400,9.953308349609374,0.0012936887796968222,-0.0008286414667963982,-0.001631053164601326
1761384870043377400,9.96337744140625,0.0014395281905308366,0.0006371494382619858,-0.003848695894703269
1761384870053446400,9.9734462890625,0.0004981007659807801,-0.0010901764035224915,0.0013045207597315311
1761384870063515400,9.983515380859375,0.000524951727129519,0.00014619529247283936,-0.0009848801419138908
1761384870073584400,9.99358447265625,0.0005976560059934855,0.0022583482787013054,-0.00016143079847097397
1761384870083653400,10.0036533203125,-0.00013455026783049107,-0.00036461465060710907,-0.000026275869458913803
1761384870093722400,10.013722412109376,-0.00047170650213956833,0.000022076070308685303,-0.001220437465235591
1761384870103791400,10.023791259765625,0.000113928341306746,0.00016845855861902237,0.0008472097106277943
1761384870113860400,10.0338603515625,-0.001647220109589398,-0.0008517978712916374,-0.0012233981397002935
1761384870123929600,10.0439296875,0.0003157451283186674,-0.00006758421659469604,0.0023936349898576736
1761384870133998300,10.053998291015626,-0.0007668299367651343,-0.002600250765681267,0.0009440765716135502
1761384870144067300,10.0640673828125,-0.00021391105838119984,0.0006886227056384087,0.0002254876308143139
1761384870154136300,10.07413623046875,0.00007450929842889309,-0.0008528148755431175,-0.000980657758191228
1761384870164205300,10.084205322265625,0.0011743614450097084,0.0010615200735628605,-0.0004239608533680439
1761384870174274600,10.094274658203124,-0.0008901209803298116,-0.0005752583965659142,0.0002665966749191284
1761384870184343300,10.10434326171875,0.0014075161889195442,0.00046895723789930344,-0.002829739823937416
1761384870194412500,10.11441259765625,0.0006591679994016886,-0.0005009658634662628,0.0014784554950892925
1761384870204481300,10.124481201171875,0.0009700458031147718,-0.00044908560812473297,-0.0003619091585278511
1761384870214550500,10.134550537109375,-0.0003197230398654938,-0.001587853766977787,0.0012530316598713398
1761384870224619300,10.144619384765624,0.0008539283298887312,0.00004149042069911957,0.0006254520267248154
1761384870234688300,10.154688232421876,0.0011934813810512424,-0.00042829103767871857,0.0006275824271142483
1761384870244757500,10.164757568359375,0.00037003669422119856,-0.0003405073657631874,-0.0009109803941100836
1761384870254826200,10.174826171875,0.0007607223815284669,-0.0008004354313015938,0.0013290042988955975
1761384870264895500,10.1848955078125,-0.0008312414865940809,0.00017471332103013992,0.0006810692138969898
1761384870274964200,10.194964111328124,0.0017996953101828694,-0.0006817597895860672,-0.0028686579316854477
1761384870285033500,10.205033447265626,-0.00029057031497359276,0.0001538032665848732,0.0019785133190453053
1761384870295102500,10.2151025390625,-0.0015696865739300847,-0.0013490179553627968,0.0024488274939358234
1761384870305171500,10.22517138671875,-0.001113669015467167,-0.0021144701167941093,-0.0020919458474963903
1761384870315240400,10.235240478515625,0.0008184543694369495,0.003075764048844576,0.002197341527789831
1761384870325308400,10.245308349609376,0.00007830106187611818,-0.0018878020346164703,-0.0007318900898098946
1761384870335377400,10.25537744140625,-0.00044154783245176077,0.0023769838735461235,0.0009336508810520172
1761384870345446400,10.2654462890625,0.0015823665307834744,0.00014170445501804352,0.0002967170439660549
1761384870355515400,10.275515380859375,-0.00019742397125810385,-0.0012045232579112053,0.0006368025206029415
1761384870365584400,10.28558447265625,-0.0007540681399405003,0.001900961622595787,0.0012040096335113049
1761384870375653600,10.295653564453126,-0.0004089225549250841,-0.0018402468413114548,-0.00035580387338995934
