time,seconds_elapsed,z,y,x
1761818006674603500,0.082603515625,0.002323608146980405,0.07530833780765533,0.13703587651252747
1761818006684532500,0.092532470703125,0.027936825528740883,0.24692083895206451,0.07793687283992767
1761818006694460400,0.10246044921875,0.03567703813314438,0.3657066226005554,0.007352455053478479
1761818006704389400,0.112389404296875,0.030974959954619408,0.44332176446914673,-0.057198572903871536
1761818006714317300,0.1223173828125,0.03647278994321823,0.48201698064804077,-0.09003428369760513
1761818006724245200,0.132245361328125,0.04171202704310417,0.4766397774219513,-0.08503260463476181
1761818006734174500,0.142174560546875,0.04074157029390335,0.42717689275741577,-0.052013933658599854
1761818006744102400,0.152102294921875,0.03604482114315033,0.3378448784351349,-0.009179117158055305
1761818006754031400,0.16203125,0.02401585318148136,0.21837042272090912,0.03199788182973862
1761818006763959300,0.171959228515625,0.00983425509184599,0.07868495583534241,0.0591602586209774
1761818006773888300,0.18188818359375,-0.009698433801531792,-0.06013444438576698,0.0660911351442337
1761818006783816400,0.19181640625,-0.020064521580934525,-0.18648545444011688,0.05585847049951553
1761818006793745400,0.201745361328125,-0.025125326588749886,-0.27466803789138794,0.036082636564970016
1761818006803673600,0.211673583984375,-0.02755040116608143,-0.3323150873184204,0.008726912550628185
1761818006813602600,0.2216025390625,-0.02900794893503189,-0.3425469696521759,-0.021562017500400543
1761818006823530500,0.231530517578125,-0.020906614139676094,-0.3240542411804199,-0.04583593085408211
1761818006833459500,0.24145947265625,-0.0223268773406744,-0.26292189955711365,-0.06090729311108589
1761818006843387400,0.251387451171875,-0.016820792108774185,-0.1742471605539322,-0.058274492621421814
1761818006853316400,0.26131640625,-0.009760485030710697,-0.06709355115890503,-0.03513295203447342
1761818006863244500,0.27124462890625,-0.0016623451374471188,0.04288807883858681,-0.0020929782185703516
1761818006873172500,0.28117236328125,0.004445082042366266,0.15043345093727112,0.031202927231788635
1761818006883101400,0.291101318359375,0.011038269847631454,0.22395746409893036,0.05722866952419281
1761818006893029400,0.301029296875,0.016109727323055267,0.25879374146461487,0.07052823156118393
1761818006902958300,0.310958251953125,0.014283065684139729,0.2516476809978485,0.06174938380718231
1761818006912886300,0.32088623046875,0.013274259865283966,0.20515261590480804,0.04373975843191147
1761818006922815200,0.330815185546875,0.007236873731017113,0.13407523930072784,0.019710054621100426
1761818006932744200,0.340744140625,0.00732422573491931,0.05257106572389603,-0.0015867113834246993
1761818006942673400,0.35067333984375,-0.004080495331436396,-0.034203510731458664,-0.019465576857328415
1761818006952601300,0.360601318359375,-0.004388622939586639,-0.1120746061205864,-0.02359320968389511
1761818006962530300,0.3705302734375,-0.010936536826193333,-0.16835466027259827,-0.02370532974600792
1761818006972458200,0.380458251953125,-0.013192767277359962,-0.19769950211048126,-0.012557070702314377
1761818006982387200,0.39038720703125,-0.018985142931342125,-0.2001061886548996,-0.0033129723742604256
1761818006992315400,0.4003154296875,-0.01901896484196186,-0.1732732504606247,0.012080364860594273
1761818007002243300,0.410243408203125,-0.015058311633765697,-0.12239541858434677,0.02099103480577469
1761818007012172300,0.42017236328125,-0.012557070702314377,-0.06223514303565025,0.028836708515882492
1761818007022100500,0.4301005859375,-0.00583818182349205,0.00811971165239811,0.028665466234087944
1761818007032029400,0.440029541015625,-0.001970206620171666,0.06827892363071442,0.02016039565205574
1761818007041957400,0.449957275390625,0.004975051153451204,0.11976554989814758,0.012091550044715405
1761818007051886300,0.45988623046875,0.013483851216733456,0.15112720429897308,0.0035185683518648148
1761818007061814300,0.469814208984375,0.011535748839378357,0.1092844158411026,0.036369193345308304
1761818007071743200,0.4797431640625,-0.03732473403215408,-0.13233913481235504,0.23635154962539673
1761818007081671200,0.489671142578125,-0.051059722900390625,0.031128624454140663,0.4637538194656372
1761818007091600400,0.499600341796875,0.013559484854340553,0.4326363801956177,0.5807877779006958
1761818007101528300,0.5095283203125,0.08048418909311295,0.23908448219299316,0.4650188088417053
1761818007111457300,0.519457275390625,0.10182037204504013,-0.08313509821891785,0.2446155995130539
1761818007121385200,0.52938525390625,0.09436431527137756,-0.10995552688837051,0.031866852194070816
1761818007131314200,0.539314208984375,0.07118789106607437,0.07288965582847595,-0.1325971931219101
1761818007141242400,0.549242431640625,0.026610571891069412,0.29310405254364014,-0.22173452377319336
1761818007151170300,0.55917041015625,-0.02021925151348114,0.4517211318016052,-0.1866372525691986
1761818007161099500,0.569099609375,-0.0704944059252739,0.40738561749458313,-0.059905678033828735
1761818007171027500,0.57902734375,-0.06983021646738052,0.21146324276924133,0.04875102639198303
1761818007180956400,0.588956298828125,-0.020125774666666985,0.017102554440498352,0.1301036775112152
1761818007190884400,0.59888427734375,0.024690166115760803,-0.16782627999782562,0.17348843812942505
1761818007200813300,0.608813232421875,0.03971012681722641,-0.2804785370826721,0.1783292591571808
1761818007210741200,0.6187412109375,0.06205644831061363,-0.27213725447654724,0.16340038180351257
1761818007220670200,0.628670166015625,0.07564070075750351,-0.15801332890987396,0.12933482229709625
1761818007230598400,0.638598388671875,0.054667770862579346,-0.016752349212765694,0.11102665215730667
1761818007240527400,0.64852734375,0.019935891032218933,0.14781741797924042,0.10808385908603668
1761818007250455300,0.658455322265625,-0.008198807947337627,0.3224584758281708,0.11227460950613022
1761818007260384300,0.66838427734375,-0.021013405174016953,0.554853081703186,0.11360113322734833
1761818007270312200,0.678312255859375,-0.04446200653910637,0.7878062129020691,0.11659665405750275
1761818007280241200,0.6882412109375,-0.10989028215408325,0.9339804649353027,0.1218356266617775
1761818007290169300,0.69816943359375,-0.21239641308784485,0.9646656513214111,0.11256463080644608
1761818007300097300,0.70809716796875,-0.31956014037132263,0.9065831899642944,0.11556121706962585
1761818007310026500,0.718026611328125,-0.3999122381210327,0.7403239011764526,0.15053118765354156
1761818007319954400,0.727954345703125,-0.4411073625087738,0.5746076107025146,0.18725697696208954
1761818007329883400,0.73788330078125,-0.4466105103492737,0.4624033272266388,0.2054266631603241
1761818007339811300,0.747811279296875,-0.41314762830734253,0.4775596261024475,0.1879936009645462
1761818007349740300,0.757740234375,-0.33973413705825806,0.588627815246582,0.14385463297367096
1761818007359668200,0.767668212890625,-0.2439812421798706,0.7558581233024597,0.07643724977970123
1761818007369597400,0.777597412109375,-0.14337287843227386,0.9159537553787231,0.00808935146778822
1761818007379525400,0.787525390625,-0.10966897010803223,1.0165860652923584,-0.0570390522480011
1761818007389454300,0.797454345703125,-0.09928930550813675,0.9537134170532227,-0.1599622368812561
1761818007399382300,0.80738232421875,-0.038844600319862366,0.6647476553916931,-0.2601458430290222
1761818007409311200,0.817311279296875,0.11470900475978851,0.17085057497024536,-0.33090123534202576
1761818007419239200,0.8272392578125,0.34028565883636475,-0.3936136066913605,-0.3507755994796753
1761818007429168000,0.837168212890625,0.5970500707626343,-0.9891691207885742,-0.32053807377815247
1761818007439096600,0.8470966796875,0.8988648056983948,-1.422672152519226,-0.26178765296936035
1761818007449025300,0.857025390625,1.146021842956543,-1.522149920463562,-0.1897374391555786
1761818007458953500,0.866953369140625,1.2963440418243408,-1.3502261638641357,-0.1232026219367981
1761818007468881400,0.87688134765625,1.4399304389953613,-1.082648754119873,-0.09193498641252518
1761818007478810400,0.886810302734375,1.615982174873352,-0.923434853553772,-0.056651294231414795
1761818007488738300,0.89673828125,1.735396146774292,-0.8079492449760437,0.01447215024381876
1761818007498667300,0.906667236328125,1.7943319082260132,-0.6255046129226685,0.11767150461673737
1761818007508595200,0.91659521484375,1.82310950756073,-0.4124554693698883,0.19434817135334015
1761818007518524400,0.9265244140625,1.7596336603164673,-0.17864245176315308,0.20751670002937317
1761818007528452400,0.936452392578125,1.5354492664337158,0.02047038823366165,0.1839032620191574
1761818007538381300,0.94638134765625,1.0938295125961304,0.1396540403366089,0.12458640336990356
1761818007548309200,0.956309326171875,0.41237664222717285,0.2400011420249939,0.027217239141464233
1761818007558238200,0.96623828125,-0.2030939906835556,0.4404338300228119,-0.07988444715738297
1761818007568166100,0.976166259765625,-0.644506573677063,0.6094593405723572,-0.11656363308429718
1761818007578095400,0.986095458984375,-1.0118638277053833,0.6255722641944885,-0.049487125128507614
1761818007588023600,0.9960234375,-1.299424171447754,0.5809465050697327,0.06361333280801773
1761818007597952300,1.0059521484375,-1.542338252067566,0.48387134075164795,0.1685759723186493
1761818007607880400,1.01588037109375,-1.769768476486206,0.37170273065567017,0.2181278020143509
1761818007617809400,1.025809326171875,-1.9981135129928589,0.3081655502319336,0.19236624240875244
1761818007627737300,1.0357373046875,-2.175535202026367,0.2910099923610687,0.1258932203054428
1761818007637666300,1.045666259765625,-2.1975061893463135,0.370859831571579,0.04482739418745041
1761818007647594500,1.055594482421875,-2.157528877258301,0.5069748163223267,-0.0021992383990436792
1761818007657523500,1.0655234375,-2.0364418029785156,0.5381883382797241,0.017531322315335274
1761818007667451400,1.075451416015625,-1.7643990516662598,0.506959855556488,0.04603247344493866
1761818007677380400,1.08538037109375,-1.2256479263305664,0.39234408736228943,0.0675518810749054
1761818007687308300,1.095308349609375,-0.4020046889781952,0.18766070902347565,0.06833697855472565
1761818007697236200,1.105236328125,0.29696428775787354,-0.26761892437934875,0.06066281348466873
1761818007707165200,1.115165283203125,0.8269125819206238,-0.620232105255127,-0.00398701848462224
1761818007717093000,1.125093017578125,1.3593072891235352,-0.7878062129020691,-0.12797820568084717
1761818007727022300,1.135022216796875,1.814137578010559,-0.8074065446853638,-0.23115971684455872
1761818007736950300,1.1449501953125,2.1544806957244873,-0.6850467920303345,-0.31365644931793213
1761818007746879200,1.154879150390625,2.336843490600586,-0.4179953932762146,-0.3422239124774933
1761818007756807400,1.164807373046875,2.234433889389038,0.010350109077990055,-0.241673082113266
1761818007766736400,1.174736328125,1.7391725778579712,0.6047474145889282,-0.07047390192747116
1761818007776664300,1.184664306640625,0.8922918438911438,1.1616098880767822,0.0844256654381752
1761818007786593500,1.194593505859375,-0.04525696113705635,1.5021014213562012,0.18939203023910522
1761818007796521500,1.204521484375,-0.6955329775810242,1.462759017944336,0.2228780835866928
1761818007806450400,1.214450439453125,-1.3027933835983276,1.0218530893325806,0.22090654075145721
1761818007816378400,1.22437841796875,-1.7382864952087402,0.3524145185947418,0.2067960500717163
1761818007826307300,1.234307373046875,-1.9059114456176758,-0.25524163246154785,0.19048872590065002
1761818007836235300,1.2442353515625,-1.8264068365097046,-0.7069342136383057,0.19087673723697662
1761818007846164200,1.254164306640625,-1.5504415035247803,-0.8610785603523254,0.18760983645915985
1761818007856092400,1.264092529296875,-1.0453402996063232,-0.6991154551506042,0.15748363733291626
1761818007866021400,1.274021484375,-0.37286439538002014,-0.5599325299263,0.1085381954908371
1761818007875949300,1.28394921875,0.13477592170238495,-0.43991798162460327,0.03111344389617443
1761818007885878300,1.293878173828125,0.5099852085113525,-0.13872087001800537,-0.09787969291210175
1761818007895806200,1.30380615234375,0.8279315233230591,0.06010008975863457,-0.20180022716522217
1761818007905735200,1.313735107421875,1.1152287721633911,0.1229243278503418,-0.21744337677955627
1761818007915663400,1.323663330078125,1.2548538446426392,0.20359599590301514,-0.17542748153209686
1761818007925592300,1.33359228515625,1.1529098749160767,0.35905563831329346,-0.16438281536102295
1761818007935520500,1.3435205078125,0.8230382204055786,0.5022801756858826,-0.17707118391990662
1761818007945448400,1.353448486328125,0.3206366002559662,0.6027796268463135,-0.1660773903131485
1761818007955377400,1.36337744140625,-0.11959297955036163,0.5999979376792908,-0.10461162775754929
1761818007965305300,1.373305419921875,-0.47865474224090576,0.4266868829727173,0.04261111095547676
1761818007975234300,1.383234375,-0.7598201036453247,0.15278688073158264,0.19719189405441284
1761818007985162200,1.393162353515625,-0.885399580001831,-0.13591761887073517,0.32585638761520386
1761818007995091200,1.40309130859375,-0.8677087426185608,-0.3928511440753937,0.3867732882499695
1761818008005019100,1.41301904296875,-0.6999519467353821,-0.5388597249984741,0.35827159881591797
1761818008014948400,1.4229482421875,-0.4665168523788452,-0.55678790807724,0.2582315504550934
1761818008024876300,1.432876220703125,-0.25146499276161194,-0.46636131405830383,0.12938834726810455
1761818008034805200,1.44280517578125,-0.10990173369646072,-0.2721465528011322,0.008673649281263351
1761818008044733200,1.452733154296875,-0.027636954560875893,-0.08737858384847641,-0.0802527591586113
1761818008054662100,1.462662109375,0.07272373884916306,0.0004040015337523073,-0.1266530156135559
1761818008064590300,1.47259033203125,0.18354426324367523,0.007799333427101374,-0.12648044526576996
1761818008074519300,1.482519287109375,0.24203181266784668,-0.01411475334316492,-0.09191633760929108
1761818008084447500,1.492447509765625,0.23345883190631866,-0.04580770060420036,-0.06751619279384613
1761818008094376400,1.50237646484375,0.21473254263401031,-0.06179439276456833,-0.06879504024982452
1761818008104304400,1.512304443359375,0.232203409075737,-0.051954809576272964,-0.07249976694583893
1761818008114233300,1.5222333984375,0.33282482624053955,-0.0634269118309021,-0.07671581953763962
1761818008124161300,1.532161376953125,0.5284395813941956,-0.15176716446876526,-0.07573390752077103
1761818008134090200,1.54209033203125,0.7760363221168518,-0.2743220925331116,-0.08315826952457428
1761818008144018400,1.552018310546875,0.9866103529930115,-0.341948002576828,-0.11978259682655334
1761818008153947400,1.561947509765625,1.1477454900741577,-0.2792670726776123,-0.1662321239709854
1761818008163875300,1.571875244140625,1.2130157947540283,-0.18384546041488647,-0.16782762110233307
1761818008173804300,1.58180419921875,1.2049826383590698,-0.10167336463928223,-0.07761649787425995
1761818008183732200,1.591732177734375,1.1017491817474365,-0.0030506509356200695,0.08378278464078903
1761818008193660200,1.60166015625,0.8037750124931335,0.17444051802158356,0.22361311316490173
1761818008203589000,1.611589111328125,0.27682921290397644,0.4188910126686096,0.2797863781452179
1761818008213517300,1.621517333984375,-0.24839089810848236,0.6612165570259094,0.2641826570034027
1761818008223446300,1.6314462890625,-0.6661937236785889,0.7598515152931213,0.2254006266593933
1761818008233374500,1.64137451171875,-0.9738530516624451,0.7174611687660217,0.18820372223854065
1761818008243303400,1.651303466796875,-1.1627590656280518,0.6242494583129883,0.15626762807369232
1761818008253231400,1.6612314453125,-1.2526651620864868,0.5167067646980286,0.11172652989625931
1761818008263160300,1.671160400390625,-1.263536810874939,0.42624959349632263,0.03991732373833656
1761818008273088300,1.681088134765625,-1.1767041683197021,0.3748990297317505,0.008443552069365978
1761818008283017500,1.691017578125,-1.062258243560791,0.2905311584472656,0.028730714693665504
1761818008292945400,1.7009453125,-0.9050753116607666,0.1799822896718979,0.07180041819810867
1761818008302874400,1.710874267578125,-0.7098144292831421,0.08715647459030151,0.11522991955280304
1761818008312802300,1.72080224609375,-0.4422471821308136,0.018271414563059807,0.13925562798976898
1761818008322731300,1.730731201171875,-0.17520590126514435,-0.1087629646062851,0.128646120429039
1761818008332659200,1.7406591796875,-0.02311144396662712,-0.26026833057403564,0.08177981525659561
1761818008342588200,1.750588134765625,0.15662743151187897,-0.32825642824172974,-0.009406285360455513
1761818008352516400,1.760516357421875,0.37459543347358704,-0.32243582606315613,-0.1226220577955246
1761818008362445300,1.7704453125,0.6031830906867981,-0.37041082978248596,-0.21703803539276123
1761818008372373200,1.780373291015625,0.8534839749336243,-0.4461412727832794,-0.283892959356308
1761818008382301400,1.790301513671875,1.1058379411697388,-0.4859597980976105,-0.3060464859008789
1761818008392230400,1.80023046875,1.314521074295044,-0.48174771666526794,-0.29236340522766113
1761818008402158300,1.810158447265625,1.4710737466812134,-0.47820812463760376,-0.26977288722991943
1761818008412087300,1.82008740234375,1.5782095193862915,-0.4065653681755066,-0.26076287031173706
1761818008422015200,1.83001513671875,1.6513217687606812,-0.2537134885787964,-0.24162167310714722
1761818008431944400,1.8399443359375,1.6464955806732178,-0.09085134416818619,-0.16098275780677795
1761818008441872400,1.849872314453125,1.5570563077926636,-0.007466704584658146,-0.03143009543418884
1761818008451801300,1.85980126953125,1.3600795269012451,0.05452396348118782,0.0978914126753807
1761818008461729300,1.869729248046875,1.0188164710998535,0.12234269082546234,0.18324466049671173
1761818008471658200,1.879658203125,0.5120227932929993,0.1604679673910141,0.21381507813930511
1761818008481586200,1.889586181640625,-0.05511624738574028,0.24043364822864532,0.20154190063476562
1761818008491515400,1.899515380859375,-0.5061697363853455,0.2323477566242218,0.16271941363811493
1761818008501443300,1.909443359375,-0.960110604763031,0.21117109060287476,0.13929636776447296
1761818008511372300,1.919372314453125,-1.3897418975830078,0.25230440497398376,0.14311455190181732
1761818008521300200,1.92930029296875,-1.695651650428772,0.3805217742919922,0.17500589787960052
1761818008531229200,1.939229248046875,-1.8740339279174805,0.468852698802948,0.20949490368366241
1761818008541157000,1.9491572265625,-1.9287019968032837,0.5196170806884766,0.22103145718574524
1761818008551086000,1.959086181640625,-1.8977041244506836,0.4978790283203125,0.21117003262043
1761818008561014500,1.9690146484375,-1.7730700969696045,0.41650134325027466,0.1776999533176422
1761818008570943200,1.978943115234375,-1.5505077838897705,0.37172695994377136,0.13426992297172546
1761818008580871400,1.988871337890625,-1.280738115310669,0.39062821865081787,0.10505584627389908
1761818008590799400,1.99879931640625,-0.9904847145080566,0.4109387993812561,0.07266008853912354
1761818008600728300,2.008728271484375,-0.6361295580863953,0.38116493821144104,0.030362166464328766
1761818008610656300,2.01865625,-0.16663825511932373,0.2746107876300812,0.0023313311394304037
1761818008620585200,2.028585205078125,0.13490162789821625,0.017907360568642616,-0.022843264043331146
1761818008630513200,2.03851318359375,0.3894319236278534,-0.14524108171463013,-0.09497471898794174
1761818008640442400,2.0484423828125,0.6786954402923584,-0.2220463752746582,-0.1907728761434555
1761818008650370300,2.058370361328125,0.9654430150985718,-0.3268952965736389,-0.24119557440280914
1761818008660299300,2.06829931640625,1.2505325078964233,-0.4380345940589905,-0.2394256442785263
1761818008670227200,2.078227294921875,1.5149247646331787,-0.45946770906448364,-0.20994524657726288
1761818008680156200,2.08815625,1.7099837064743042,-0.44591888785362244,-0.1836550533771515
1761818008690084000,2.098083984375,1.8519408702850342,-0.4426615834236145,-0.18693765997886658
1761818008700013300,2.108013427734375,1.9704850912094116,-0.3735205829143524,-0.19670560956001282
1761818008709941500,2.11794140625,2.017962694168091,-0.30844226479530334,-0.17678622901439667
1761818008719870200,2.1278701171875,1.9958314895629883,-0.293303519487381,-0.14140985906124115
1761818008729798400,2.13779833984375,1.9051631689071655,-0.3188680112361908,-0.09903603792190552
1761818008739726300,2.147726318359375,1.692506194114685,-0.30654820799827576,-0.017002684995532036
1761818008749655300,2.1576552734375,1.3482716083526611,-0.2861683666706085,0.08566936105489731
1761818008759583200,2.167583251953125,0.812852680683136,-0.20136027038097382,0.1797122359275818
1761818008769512200,2.17751220703125,0.0683729350566864,-0.07916326075792313,0.2277309000492096
1761818008779440400,2.1874404296875,-0.528545081615448,0.10873287171125412,0.16933123767375946
1761818008789369300,2.197369384765625,-0.9599257707595825,0.27934348583221436,0.0683542862534523
1761818008799297300,2.20729736328125,-1.4711565971374512,0.40515974164009094,0.01068220566958189
1761818008809226200,2.217226318359375,-1.967085599899292,0.6136476993560791,0.04420820623636246
1761818008819154200,2.227154296875,-2.178421974182129,0.8124516010284424,0.11723235249519348
1761818008829083100,2.237083251953125,-2.210390567779541,0.8346560001373291,0.18836458027362823
1761818008839011000,2.247010986328125,-2.1202449798583984,0.7372876405715942,0.22635963559150696
1761818008848940300,2.256940185546875,-1.9193428754806519,0.6143025755882263,0.22455188632011414
1761818008858868500,2.266868408203125,-1.6594212055206299,0.5237606763839722,0.20167532563209534
1761818008868797200,2.276797119140625,-1.3640021085739136,0.45733585953712463,0.17026200890541077
1761818008878725400,2.286725341796875,-1.001451849937439,0.4604696035385132,0.1345338374376297
1761818008888653300,2.2966533203125,-0.5812021493911743,0.4182071089744568,0.08201976865530014
1761818008898582300,2.306582275390625,-0.06464290618896484,0.28180426359176636,0.015169898048043251
1761818008908510200,2.31651025390625,0.28256937861442566,0.10803326219320297,-0.04073304682970047
1761818008918439400,2.326439453125,0.6100178360939026,0.002305498579517007,-0.13257695734500885
1761818008928367900,2.336367919921875,0.9238042235374451,-0.13791899383068085,-0.19165891408920288
1761818008938296800,2.346296875,1.2164334058761597,-0.2903359532356262,-0.1958584487438202
1761818008948224800,2.356224853515625,1.436818242073059,-0.3898601531982422,-0.17459151148796082
1761818008958153700,2.36615380859375,1.5775506496429443,-0.4545704424381256,-0.18003608286380768
1761818008968081700,2.37608154296875,1.613680362701416,-0.5266494154930115,-0.23013226687908173
1761818008978011000,2.386010986328125,1.5836018323898315,-0.5511486530303955,-0.2993829846382141
1761818008987938800,2.395938720703125,1.5166276693344116,-0.47897085547447205,-0.3188735842704773
1761818008997867800,2.40586767578125,1.361578345298767,-0.4314608573913574,-0.2577548325061798
1761818009007795700,2.415795654296875,1.1298961639404297,-0.43177616596221924,-0.1292213648557663
1761818009017724000,2.425723876953125,0.8732052445411682,-0.442405641078949,0.02449761889874935
1761818009027652900,2.43565283203125,0.5459115505218506,-0.4009772539138794,0.16734318435192108
1761818009037580800,2.445580810546875,0.09382769465446472,-0.24474982917308807,0.2544490694999695
1761818009047510000,2.455510009765625,-0.30853599309921265,-0.07454134523868561,0.24065442383289337
1761818009057438000,2.46543798828125,-0.6877371072769165,0.01666419766843319,0.1770125925540924
1761818009067367000,2.475366943359375,-1.074303150177002,0.16916266083717346,0.13588646054267883
1761818009077294800,2.485294921875,-1.431373119354248,0.4310392737388611,0.12558722496032715
1761818009087223800,2.495223876953125,-1.6780457496643066,0.6812147498130798,0.14528661966323853
1761818009097151700,2.50515185546875,-1.8251409530639648,0.7832788228988647,0.16458149254322052
1761818009107080700,2.515080810546875,-1.875188946723938,0.728052020072937,0.1555991768836975
1761818009117008600,2.525008544921875,-1.8222466707229614,0.605437159538269,0.11646535992622375
1761818009126936800,2.534936767578125,-1.7096868753433228,0.4247789978981018,0.10283476859331131
1761818009136865800,2.54486572265625,-1.5479620695114136,0.2311147153377533,0.10625586658716202
1761818009146793700,2.554793701171875,-1.345005750656128,0.07306036353111267,0.1143750473856926
1761818009156722700,2.56472265625,-1.1132924556732178,-0.018556106835603714,0.11748562008142471
1761818009166651000,2.57465087890625,-0.8186972737312317,-0.05631094425916672,0.12247611582279205
1761818009176579800,2.584579833984375,-0.43187230825424194,-0.09366869926452637,0.13234952092170715
1761818009186507800,2.5945078125,-0.073784738779068,-0.24466700851917267,0.12346547842025757
1761818009196437000,2.60443701171875,0.11192333698272705,-0.3614998757839203,0.08405549079179764
1761818009206365000,2.614364990234375,0.291245698928833,-0.4355629086494446,-0.0010213222121819854
1761818009216294000,2.6242939453125,0.503298282623291,-0.5407111644744873,-0.08634314686059952
1761818009226221800,2.634221923828125,0.768612265586853,-0.7274043560028076,-0.12269929051399231
1761818009236149800,2.644149658203125,1.076465129852295,-0.9140937924385071,-0.11885660886764526
1761818009246078700,2.65407861328125,1.365746021270752,-1.0806455612182617,-0.1245826780796051
1761818009256006700,2.664006591796875,1.5821679830551147,-1.254270076751709,-0.14604003727436066
1761818009265936000,2.673935791015625,1.6826841831207275,-1.3134441375732422,-0.18466438353061676
1761818009275863800,2.68386376953125,1.6955180168151855,-1.2103196382522583,-0.2112099826335907
1761818009285792800,2.693792724609375,1.6652101278305054,-0.9724183678627014,-0.2158430814743042
1761818009295720700,2.703720703125,1.5595338344573975,-0.6978493928909302,-0.17792072892189026
1761818009305649700,2.713649658203125,1.377245545387268,-0.48775315284729004,-0.07185900956392288
1761818009315577900,2.723577880859375,1.0922931432724,-0.39425861835479736,0.10352692753076553
1761818009325505800,2.733505859375,0.6725903749465942,-0.25453826785087585,0.28574973344802856
1761818009335435000,2.74343505859375,0.09971008449792862,0.00714579364284873,0.36835777759552
1761818009345363000,2.753363037109375,-0.38565608859062195,0.2659781575202942,0.3023358881473541
1761818009355292000,2.7632919921875,-0.8177739381790161,0.33498331904411316,0.14500193297863007
1761818009365219800,2.7732197265625,-1.216490387916565,0.36205169558525085,0.00694925244897604
1761818009375148800,2.783148681640625,-1.4802660942077637,0.489996075630188,-0.05115745961666107
1761818009385076700,2.79307666015625,-1.6044584512710571,0.671477735042572,-0.021275727078318596
1761818009395005700,2.803005615234375,-1.6349502801895142,0.7930853962898254,0.04223773628473282
1761818009404933600,2.81293359375,-1.6096051931381226,0.9116194844245911,0.0759059488773346
1761818009414862800,2.82286279296875,-1.5412222146987915,1.0441324710845947,0.0836205929517746
1761818009424790800,2.832790771484375,-1.4341734647750854,1.1532917022705078,0.08536416292190552
1761818009434718700,2.84271875,-1.29157292842865,1.2055461406707764,0.07749053090810776
1761818009444647700,2.852647705078125,-1.1165167093276978,1.1606495380401611,0.07421857118606567
1761818009454575900,2.862575927734375,-0.8935994505882263,1.0171149969100952,0.07647666335105896
1761818009464504800,2.8725048828125,-0.646762490272522,0.8077399730682373,0.06341598927974701
1761818009474432800,2.882432861328125,-0.34738218784332275,0.5162029266357422,0.04060042276978493
1761818009484362000,2.892362060546875,-0.02997494302690029,0.0876195952296257,0.02166907675564289
1761818009494290000,2.9022900390625,0.17069290578365326,-0.29600581526756287,-0.009220129810273647
1761818009504219000,2.912218994140625,0.3552752733230591,-0.5346724390983582,-0.06590684503316879
1761818009514146800,2.922146728515625,0.5579642057418823,-0.6782733201980591,-0.10942582786083221
1761818009524074800,2.93207470703125,0.8058658838272095,-0.7348268628120422,-0.1127297431230545
1761818009534003700,2.942003662109375,1.0725902318954468,-0.7063611149787903,-0.10348564386367798
1761818009543931600,2.951931640625,1.3308992385864258,-0.6397091150283813,-0.09084974229335785
1761818009553860900,2.96186083984375,1.531336784362793,-0.5918838381767273,-0.11930535733699799
1761818009563788800,2.971788818359375,1.6359361410140991,-0.5684618353843689,-0.18546919524669647
1761818009573717800,2.9817177734375,1.660149335861206,-0.5203046798706055,-0.21223902702331543
1761818009583645700,2.991645751953125,1.6314975023269653,-0.44706273078918457,-0.18472164869308472
1761818009593574700,3.00157470703125,1.5214385986328125,-0.3996475338935852,-0.10868600010871887
1761818009603502800,3.0115029296875,1.3146406412124634,-0.38005706667900085,-0.00011185276525793597
1761818009613430800,3.0214306640625,0.9603758454322815,-0.39808160066604614,0.11918871104717255
1761818009623359700,3.03135986328125,0.3806288242340088,-0.4544929265975952,0.22421951591968536
1761818009633288000,3.041287841796875,-0.25357288122177124,-0.4200848937034607,0.25708720088005066
1761818009643217000,3.051216796875,-0.7728610634803772,-0.3628498315811157,0.21413733065128326
1761818009653144800,3.061144775390625,-1.2730649709701538,-0.306640088558197,0.17626957595348358
1761818009663073800,3.07107373046875,-1.6893121004104614,-0.17237523198127747,0.1491982787847519
1761818009673001700,3.081001708984375,-1.9268039464950562,0.0062797339633107185,0.12816515564918518
1761818009682929700,3.0909296875,-2.0086050033569336,0.1269233226776123,0.1190134733915329
1761818009692858600,3.100858642578125,-2.0025882720947266,0.13799887895584106,0.10273943096399307
1761818009702786600,3.11078662109375,-1.976555585861206,0.12346601486206055,0.08527601510286331
1761818009712715800,3.1207158203125,-1.9364768266677856,0.11706297099590302,0.05964628607034683
1761818009722644000,3.13064404296875,-1.8223692178726196,0.1098540648818016,0.036067988723516464
1761818009732572700,3.14057275390625,-1.6451603174209595,0.10054817795753479,0.05625475198030472
1761818009742500900,3.1505009765625,-1.3718363046646118,0.11699160188436508,0.09672414511442184
1761818009752428800,3.1604287109375,-1.017272710800171,0.1064915582537651,0.15787991881370544
1761818009762357800,3.170357666015625,-0.5961177349090576,0.09651748090982437,0.21204407513141632
1761818009772285700,3.18028564453125,-0.1695386916399002,0.0368187353014946,0.21797972917556763
1761818009782215000,3.19021484375,0.08856262266635895,-0.019837353378534317,0.15307477116584778
1761818009792142800,3.200142822265625,0.2925834059715271,0.07345104962587357,0.028751220554113388
1761818009802071800,3.21007177734375,0.5080136656761169,0.27022457122802734,-0.13503877818584442
1761818009811999700,3.219999755859375,0.7625839114189148,0.3740641474723816,-0.2996141314506531
1761818009821928700,3.2299287109375,1.0992748737335205,0.354981005191803,-0.4377395212650299
1761818009831856600,3.239856689453125,1.4150115251541138,0.21738877892494202,-0.4819194972515106
1761818009841784800,3.249784912109375,1.610822081565857,-0.00902758352458477,-0.39059117436408997
1761818009851713800,3.2597138671875,1.6994261741638184,-0.23130671679973602,-0.2985294461250305
1761818009861642000,3.26964208984375,1.733597755432129,-0.3325769007205963,-0.25385305285453796
1761818009871571000,3.279571044921875,1.724416732788086,-0.26512300968170166,-0.20030087232589722
1761818009881499000,3.289498779296875,1.6008572578430176,-0.16179528832435608,-0.10834671556949615
1761818009891427800,3.299427734375,1.3054099082946777,-0.08884305506944656,0.022578014060854912
1761818009901355800,3.309355712890625,0.8118427991867065,-0.03855191916227341,0.16176199913024902
1761818009911283700,3.31928369140625,0.13036678731441498,0.027400998398661613,0.22254785895347595
1761818009921213000,3.329212890625,-0.44402191042900085,0.020111925899982452,0.21194341778755188
1761818009931140400,3.339140380859375,-0.9962970614433289,-0.017739849165081978,0.19339129328727722
1761818009941069300,3.3490693359375,-1.5390352010726929,0.05915253609418869,0.18090559542179108
1761818009950997200,3.358997314453125,-1.9003223180770874,0.18696428835391998,0.19162322580814362
1761818009960926500,3.368926513671875,-2.032017707824707,0.3180256485939026,0.22438383102416992
1761818009970854400,3.3788544921875,-2.016049861907959,0.3926412761211395,0.2348593771457672
1761818009980782600,3.388782470703125,-1.9343223571777344,0.40378448367118835,0.2006649225950241
1761818009990711600,3.398711669921875,-1.8391214609146118,0.37013038992881775,0.14728133380413055
1761818010000639500,3.408639404296875,-1.7093219757080078,0.405752569437027,0.09708047658205032
1761818010010568400,3.418568359375,-1.510636329650879,0.46697303652763367,0.09157092869281769
1761818010020496400,3.428496337890625,-1.2547850608825684,0.44022107124328613,0.09355764836072922
1761818010030425300,3.43842529296875,-1.033198595046997,0.24969851970672607,0.13834615051746368
1761818010040353500,3.448353515625,-0.8064363598823547,0.06460002809762955,0.2106773406267166
1761818010050281500,3.458281494140625,-0.48359808325767517,-0.024994298815727234,0.2437191903591156
1761818010060210400,3.46821044921875,-0.15664473176002502,-0.11430766433477402,0.22508451342582703
1761818010070138400,3.478138427734375,0.0157129168510437,-0.14898735284805298,0.13866093754768372
1761818010080067300,3.4880673828125,0.1873384714126587,-0.06202901527285576,-0.01872042380273342
1761818010089995300,3.497995361328125,0.4145873188972473,0.08781081438064575,-0.18991640210151672
1761818010099924200,3.50792431640625,0.6601515412330627,0.20030567049980164,-0.339891254901886
1761818010109852400,3.517852294921875,0.8990653157234192,0.20425885915756226,-0.4141516387462616
1761818010119780400,3.5277802734375,1.0801384449005127,0.07279457896947861,-0.37744396924972534
1761818010129709600,3.53770947265625,1.239344596862793,-0.16337454319000244,-0.2842112183570862
1761818010139637500,3.547637451171875,1.3808863162994385,-0.41341766715049744,-0.18547451496124268
1761818010149566500,3.55756640625,1.4674363136291504,-0.6024589538574219,-0.10190745443105698
1761818010159494400,3.567494384765625,1.4992456436157227,-0.7093777060508728,-0.04439515992999077
1761818010169423400,3.57742333984375,1.462435007095337,-0.7231720685958862,-0.0019206717843189836
1761818010179351300,3.587351318359375,1.349757194519043,-0.6324629187583923,0.020415525883436203
1761818010189279200,3.597279296875,1.206545114517212,-0.5049566626548767,0.03406369313597679
1761818010199208400,3.60720849609375,0.960868775844574,-0.4062846601009369,0.07860799133777618
1761818010209136400,3.617136474609375,0.509655237197876,-0.39047402143478394,0.15145742893218994
1761818010219065300,3.6270654296875,-0.10311093926429749,-0.30468374490737915,0.2025991827249527
1761818010228993500,3.63699365234375,-0.7268869280815125,-0.18755391240119934,0.21263396739959717
1761818010238922200,3.646922119140625,-1.338182806968689,0.07612965255975723,0.20505434274673462
1761818010248850400,3.656850341796875,-1.8271015882492065,0.43078547716140747,0.19582809507846832
1761818010258778400,3.6667783203125,-2.04487681388855,0.6880289912223816,0.17471188306808472
1761818010268707600,3.67670751953125,-1.9848936796188354,0.7562146782875061,0.15226782858371735
1761818010278635500,3.686635498046875,-1.765787124633789,0.6892231702804565,0.14038853347301483
1761818010288564500,3.696564453125,-1.4792845249176025,0.6023045182228088,0.13833338022232056
1761818010298492400,3.706492431640625,-1.2394641637802124,0.6029921174049377,0.12093201279640198
1761818010308420400,3.71642041015625,-1.0758435726165771,0.6917890906333923,0.07034952938556671
1761818010318349300,3.726349365234375,-0.9572820067405701,0.7859638333320618,0.00911360327154398
1761818010328277200,3.73627734375,-0.8142447471618652,0.8224278092384338,-0.057140249758958817
1761818010338206500,3.74620654296875,-0.5573295950889587,0.782284140586853,-0.13896161317825317
1761818010348134400,3.756134521484375,-0.18822716176509857,0.552452802658081,-0.21752965450286865
1761818010358063400,3.7660634765625,0.11277954280376434,0.19268769025802612,-0.2907399535179138
1761818010367991600,3.775991455078125,0.393537700176239,-0.03811196610331535,-0.3619305193424225
1761818010377919500,3.78591943359375,0.7053512334823608,-0.1678854078054428,-0.40073996782302856
1761818010387848400,3.795848388671875,0.99433434009552,-0.22599345445632935,-0.35162514448165894
1761818010397776400,3.8057763671875,1.239267110824585,-0.27867209911346436,-0.24485822021961212
1761818010407705300,3.815705322265625,1.3954521417617798,-0.37115517258644104,-0.16866332292556763
1761818010417633500,3.825633544921875,1.5200977325439453,-0.4830375015735626,-0.14053207635879517
1761818010427562500,3.8355625,1.6301780939102173,-0.5663150548934937,-0.13090209662914276
1761818010437490400,3.845490478515625,1.6861010789871216,-0.6542225480079651,-0.1149795800447464
1761818010447418400,3.85541845703125,1.7079943418502808,-0.6885003447532654,-0.10047867149114609
1761818010457347300,3.865347412109375,1.6979076862335205,-0.640700101852417,-0.07208670675754547
1761818010467275300,3.875275146484375,1.6347936391830444,-0.533564031124115,-0.02870727889239788
1761818010477204200,3.885204345703125,1.4752693176269531,-0.43430352210998535,0.011089668609201908
1761818010487132400,3.89513232421875,1.2109880447387695,-0.3506389856338501,0.04171149432659149
1761818010497060600,3.905060546875,0.8059234023094177,-0.2670109272003174,0.06885549426078796
1761818010506989600,3.914989501953125,0.20361357927322388,-0.13779088854789734,0.07996327430009842
1761818010516917500,3.92491748046875,-0.29270458221435547,0.016153136268258095,0.0646522268652916
1761818010526846500,3.934846435546875,-0.746953010559082,0.11777962744235992,0.06655558943748474
1761818010536774400,3.9447744140625,-1.2116413116455078,0.20918278396129608,0.09746130555868149
1761818010546703400,3.954703369140625,-1.5511163473129272,0.36342933773994446,0.126442089676857
1761818010556631300,3.96463134765625,-1.7056337594985962,0.5128017663955688,0.15807218849658966
1761818010566559200,3.974559326171875,-1.709680438041687,0.5360128283500671,0.1950208842754364
1761818010576488400,3.984488525390625,-1.5869388580322266,0.45701149106025696,0.2039475440979004
1761818010586416400,3.99441650390625,-1.397238850593567,0.34945306181907654,0.20178398489952087
1761818010596345300,4.004345458984375,-1.2231613397598267,0.28572922945022583,0.1861802637577057
1761818010606273500,4.0142734375,-1.081906795501709,0.2931075096130371,0.15746206045150757
1761818010616201500,4.024201416015625,-0.9041008353233337,0.3538486063480377,0.11862970888614655
1761818010626130400,4.03413037109375,-0.6772301197052002,0.4019535779953003,0.0685681402683258
1761818010636058400,4.044058349609375,-0.3802775740623474,0.3478892743587494,0.028492361307144165
1761818010645987600,4.053987548828125,-0.14121757447719574,0.22151534259319305,-0.013667075894773006
1761818010655915500,4.06391552734375,0.06470975279808044,0.11236515641212463,-0.07909854501485825
1761818010665844500,4.073844482421875,0.2892182171344757,0.014821556396782398,-0.14486317336559296
1761818010675772400,4.0837724609375,0.5301560163497925,-0.09150328487157822,-0.18182599544525146
1761818010685700400,4.093700439453125,0.8307586908340454,-0.23763412237167358,-0.1901286542415619
1761818010695629300,4.10362939453125,1.137107491493225,-0.4185762107372284,-0.160585418343544
1761818010705557200,4.11355712890625,1.3543590307235718,-0.6136569976806641,-0.10802100598812103
1761818010715486500,4.123486572265625,1.4702167510986328,-0.7493272423744202,-0.07360364496707916
1761818010725414400,4.133414306640625,1.552331566810608,-0.7584200501441956,-0.08711119741201401
1761818010735342600,4.143342529296875,1.5658625364303589,-0.6862286925315857,-0.11790133267641068
1761818010745271600,4.153271484375,1.5154377222061157,-0.5467818379402161,-0.14205114543437958
1761818010755199500,4.163199462890625,1.4148924350738525,-0.39780116081237793,-0.1344699263572693
1761818010765128400,4.17312841796875,1.2444640398025513,-0.23737047612667084,-0.10290640592575073
1761818010775056400,4.183056396484375,0.9768711924552917,-0.12447907775640488,-0.06078851595520973
1761818010784984300,4.192984375,0.6004376411437988,-0.01606045849621296,-0.02004428207874298
1761818010794913500,4.20291357421875,0.14089533686637878,0.1560892015695572,0.0034261567052453756
1761818010804841500,4.212841552734375,-0.21927616000175476,0.23265455663204193,0.04121055454015732
1761818010814770400,4.2227705078125,-0.6253251433372498,0.22138512134552002,0.10869718343019485
1761818010824698400,4.232698486328125,-1.1328743696212769,0.32995739579200745,0.17697957158088684
1761818010834626600,4.24262646484375,-1.6261647939682007,0.4924943745136261,0.22055287659168243
1761818010844555300,4.25255517578125,-1.9461158514022827,0.6080278754234314,0.2577090263366699
1761818010854483500,4.2624833984375,-2.0428266525268555,0.5603929758071899,0.29228857159614563
1761818010864412400,4.272412353515625,-2.0416486263275146,0.37190139293670654,0.28702911734580994
1761818010874340600,4.282340576171875,-1.9532946348190308,0.1483396738767624,0.2374546378850937
1761818010884269600,4.29226953125,-1.7544896602630615,0.050462376326322556,0.16926439106464386
1761818010894197500,4.302197509765625,-1.4327607154846191,0.07816963642835617,0.14245222508907318
1761818010904125400,4.31212548828125,-1.0244884490966797,0.14977112412452698,0.14965420961380005
1761818010914054400,4.322054443359375,-0.5664330720901489,0.16011616587638855,0.15685433149337769
1761818010923982300,4.331982421875,-0.18862956762313843,0.058102451264858246,0.1401887983083725
1761818010933911300,4.341911376953125,0.11845847219228745,0.001924666459672153,0.07101212441921234
1761818010943839200,4.351839111328125,0.39335474371910095,-0.004449609667062759,-0.05095692351460457
1761818010953767400,4.361767333984375,0.6651574969291687,-0.03509513661265373,-0.1685706377029419
1761818010963696400,4.3716962890625,0.9567350149154663,-0.15324760973453522,-0.235191211104393
1761818010973624600,4.38162451171875,1.2277207374572754,-0.3268452286720276,-0.23452915251255035
1761818010983553500,4.391553466796875,1.4225597381591797,-0.5146348476409912,-0.18587373197078705
1761818010993481500,4.4014814453125,1.526016116142273,-0.6298239827156067,-0.12688124179840088
1761818011003409400,4.411409423828125,1.536210060119629,-0.6716516017913818,-0.09330891072750092
1761818011013338400,4.42133837890625,1.4330490827560425,-0.6552186012268066,-0.08727205544710159
1761818011023266300,4.431266357421875,1.303002119064331,-0.600956916809082,-0.09770738333463669
1761818011033195500,4.441195556640625,1.1679012775421143,-0.5153184533119202,-0.09599470347166061
1761818011043123500,4.45112353515625,0.9789838790893555,-0.41221871972084045,-0.06996044516563416
1761818011053051400,4.461051513671875,0.7246248126029968,-0.306379109621048,-0.014255900867283344
1761818011062980400,4.47098046875,0.30291619896888733,-0.147865891456604,0.04158339649438858
1761818011072908300,4.480908203125,-0.13737304508686066,0.11158858239650726,0.0473179817199707
1761818011082837200,4.490837158203125,-0.5354546308517456,0.30015477538108826,0.044975731521844864
1761818011092765400,4.500765380859375,-0.9467630982398987,0.42845574021339417,0.06983207911252975
1761818011102693400,4.510693359375,-1.3646577596664429,0.5514570474624634,0.10926976799964905
1761818011112622600,4.52062255859375,-1.6961781978607178,0.6471923589706421,0.12139514088630676
1761818011122550500,4.530550537109375,-1.85567045211792,0.6378446817398071,0.1310834437608719
1761818011132479500,4.5404794921875,-1.8689574003219604,0.5657760500907898,0.13512693345546722
1761818011142407400,4.550407470703125,-1.741361141204834,0.47793087363243103,0.14261387288570404
1761818011152335400,4.56033544921875,-1.5261270999908447,0.39039090275764465,0.17858386039733887
1761818011162264300,4.570264404296875,-1.3001863956451416,0.37032294273376465,0.24487020075321198
1761818011172192300,4.580192138671875,-1.1204091310501099,0.43130719661712646,0.29177114367485046
1761818011182121500,4.59012158203125,-0.9750338792800903,0.5259141325950623,0.2874525487422943
1761818011192049400,4.60004931640625,-0.8013363480567932,0.6619782447814941,0.21805962920188904
1761818011201977600,4.6099775390625,-0.5484932065010071,0.7580943703651428,0.11349140852689743
1761818011211906600,4.619906494140625,-0.22668561339378357,0.654158353805542,-0.010791394859552383
1761818011221834500,4.62983447265625,0.031263381242752075,0.41352713108062744,-0.15250298380851746
1761818011231763500,4.639763427734375,0.26778244972229004,0.24437245726585388,-0.28064098954200745
1761818011241691400,4.64969140625,0.6140226721763611,0.09877265244722366,-0.3753291368484497
1761818011251619300,4.659619384765625,1.020620584487915,-0.06492413580417633,-0.40860694646835327
1761818011261548500,4.669548583984375,1.3741847276687622,-0.2567598819732666,-0.372579962015152
1761818011271476500,4.6794765625,1.5567114353179932,-0.45089074969291687,-0.25860491394996643
1761818011281405400,4.689405517578125,1.5760505199432373,-0.6351921558380127,-0.14550021290779114
1761818011291333400,4.69933349609375,1.5242722034454346,-0.7840260863304138,-0.0956178680062294
1761818011301261300,4.70926123046875,1.4383399486541748,-0.910874605178833,-0.08871015906333923
1761818011311190300,4.719190185546875,1.3757331371307373,-0.9618842601776123,-0.10749609768390656
1761818011321118500,4.729118408203125,1.340488314628601,-0.9018736481666565,-0.10703404247760773
1761818011331047400,4.73904736328125,1.2835237979888916,-0.7899132966995239,-0.07325850427150726
1761818011340975600,4.7489755859375,1.204077124595642,-0.6526454091072083,-0.04241962730884552
1761818011350903600,4.758903564453125,1.0955206155776978,-0.4739702343940735,-0.025311214849352837
1761818011360832500,4.76883251953125,0.9133238792419434,-0.25585174560546875,-0.0005331648280844092
1761818011370760400,4.778760498046875,0.6148442625999451,-0.03242345154285431,0.03404931351542473
1761818011380689400,4.788689453125,0.16651228070259094,0.2151530534029007,0.08572635799646378
1761818011390617300,4.798617431640625,-0.29558050632476807,0.4173112213611603,0.14457103610038757
1761818011400545300,4.808545166015625,-0.8493717908859253,0.5383854508399963,0.18381403386592865
1761818011410474500,4.818474609375,-1.4603859186172485,0.5995995402336121,0.20004014670848846
1761818011420402400,4.82840234375,-1.9580987691879272,0.6710066199302673,0.20055387914180756
1761818011430331400,4.838331298828125,-2.2102718353271484,0.6926096081733704,0.20793135464191437
1761818011440259600,4.848259521484375,-2.2524683475494385,0.5719417929649353,0.22678227722644806
1761818011450187500,4.8581875,-2.1783456802368164,0.37779948115348816,0.23829272389411926
1761818011460116500,4.868116455078125,-1.9814296960830688,0.2706914246082306,0.25464239716529846
1761818011470044400,4.87804443359375,-1.686466932296753,0.25896552205085754,0.263862282037735
1761818011479973400,4.887973388671875,-1.3187696933746338,0.3099975287914276,0.25598037242889404
1761818011489901300,4.8979013671875,-0.923578679561615,0.38763880729675293,0.2255425751209259
1761818011499829500,4.90782958984375,-0.44422805309295654,0.4026510417461395,0.1676313430070877
1761818011509758500,4.917758544921875,-0.009777795523405075,0.2618555724620819,0.0673619955778122
1761818011519686400,4.927686279296875,0.2917082905769348,0.1368318796157837,-0.10664335638284683
1761818011529614300,4.9376142578125,0.5545404553413391,0.10361427813768387,-0.32174766063690186
1761818011539543300,4.947543212890625,0.8502245545387268,0.07056284695863724,-0.5113439559936523
1761818011549471500,4.957471435546875,1.1680206060409546,0.012568255886435509,-0.5811097621917725
1761818011559400400,4.967400390625,1.4310059547424316,-0.11396278440952301,-0.5192610025405884
1761818011569328400,4.977328369140625,1.5455580949783325,-0.3422737121582031,-0.3983471095561981
1761818011579256600,4.987256591796875,1.5055619478225708,-0.6008690595626831,-0.25776761770248413
1761818011589185500,4.997185546875,1.4527902603149414,-0.7850934863090515,-0.15091654658317566
1761818011599113500,5.007113525390625,1.414557695388794,-0.8648421168327332,-0.07118362933397293
1761818011609042400,5.01704248046875,1.3581469058990479,-0.8491299748420715,0.003358512418344617
1761818011618970400,5.026970458984375,1.300599217414856,-0.7785500884056091,0.05694477632641792
1761818011628898300,5.036898193359375,1.2578035593032837,-0.6736175417900085,0.07702793926000595
1761818011638827300,5.0468271484375,1.1951931715011597,-0.5841025710105896,0.07382282614707947
1761818011648755200,5.056755126953125,1.067494511604309,-0.531157374382019,0.07255303114652634
1761818011658684400,5.066684326171875,0.8457059860229492,-0.4213879704475403,0.0811329334974289
1761818011668612600,5.076612548828125,0.46653681993484497,-0.23277679085731506,0.10641006380319595
1761818011678540500,5.08654052734375,-0.10816694796085358,0.09058769047260284,0.11282747983932495
1761818011688469500,5.096469482421875,-0.7720056772232056,0.4002363681793213,0.09469535201787949
1761818011698397400,5.1063974609375,-1.435314416885376,0.6433635354042053,0.09676036238670349
1761818011708325400,5.116325439453125,-1.9489550590515137,0.8238158822059631,0.10132075846195221
1761818011718254300,5.12625439453125,-2.181987762451172,0.873593807220459,0.1274367868900299
1761818011728182300,5.136182373046875,-2.1641037464141846,0.7577944993972778,0.1893763244152069
1761818011738111500,5.146111572265625,-1.9988384246826172,0.5065425634384155,0.2418094277381897
1761818011748039400,5.156039306640625,-1.6832258701324463,0.2384498566389084,0.2616558372974396
1761818011757967400,5.16596728515625,-1.2744394540786743,0.0405503548681736,0.2523731291294098
1761818011767896300,5.175896240234375,-0.8656858205795288,-0.06579845398664474,0.20580323040485382
1761818011777824500,5.185824462890625,-0.4798275828361511,-0.14924673736095428,0.08581237494945526
1761818011787753200,5.195753173828125,-0.17469750344753265,-0.27154362201690674,-0.04492965713143349
1761818011797681400,5.205681396484375,0.0038219024427235126,-0.35312503576278687,-0.1616211235523224
1761818011807609300,5.215609375,0.15603646636009216,-0.3317323923110962,-0.28145724534988403
1761818011817538600,5.22553857421875,0.2984492778778076,-0.25971999764442444,-0.38663744926452637
1761818011827466500,5.235466552734375,0.45907971262931824,-0.19506829977035522,-0.4205773174762726
1761818011837394400,5.24539453125,0.6903808116912842,-0.17985525727272034,-0.37830469012260437
1761818011847323400,5.255323486328125,0.9785814881324768,-0.2593522071838379,-0.2729921042919159
1761818011857251300,5.265251220703125,1.2428416013717651,-0.3886936902999878,-0.13058783113956451
1761818011867180300,5.27518017578125,1.4323087930679321,-0.5320085287094116,-0.010100571438670158
1761818011877108200,5.285108154296875,1.5354281663894653,-0.6124823093414307,0.06758569926023483
1761818011887036400,5.295036376953125,1.5960891246795654,-0.6246084570884705,0.08138007670640945
1761818011896965400,5.30496533203125,1.6035654544830322,-0.5738707184791565,0.06173660233616829
1761818011906893600,5.3148935546875,1.5309394598007202,-0.49498575925827026,0.045582398772239685
1761818011916822500,5.324822509765625,1.3562374114990234,-0.38708221912384033,0.04568413272500038
1761818011926750500,5.33475048828125,0.9808946847915649,-0.26416081190109253,0.05433700978755951
1761818011936678000,5.344677978515625,0.38923510909080505,-0.11960709095001221,0.029950708150863647
1761818011946607000,5.354607177734375,-0.18050533533096313,0.16668644547462463,-0.03580833226442337
1761818011956535000,5.36453515625,-0.625461995601654,0.4047677218914032,-0.07749692350625992
1761818011966463000,5.374462890625,-1.046198844909668,0.5696778297424316,-0.05807715281844139
1761818011976392000,5.384391845703125,-1.3793736696243286,0.5901381373405457,0.014156298711895943
1761818011986320100,5.394320068359375,-1.6047444343566895,0.5294737219810486,0.11896020919084549
1761818011996249000,5.4042490234375,-1.697263479232788,0.46108850836753845,0.2215462327003479
1761818012006177000,5.414177001953125,-1.672913908958435,0.3799760937690735,0.30593836307525635
1761818012016105000,5.42410498046875,-1.6231963634490967,0.35688862204551697,0.3504357635974884
1761818012026034200,5.4340341796875,-1.5628550052642822,0.3940490484237671,0.33366692066192627
1761818012035962000,5.443962158203125,-1.4688140153884888,0.4808124303817749,0.279325395822525
1761818012045891000,5.45389111328125,-1.3294851779937744,0.5632655024528503,0.19653595983982086
1761818012055819000,5.463819091796875,-1.1492056846618652,0.6054025292396545,0.1143430843949318
1761818012065747000,5.473746826171875,-0.9091363549232483,0.5835428237915039,0.036317527294158936
1761818012075676000,5.483676025390625,-0.5998770594596863,0.5117780566215515,-0.025533055886626244
1761818012085603800,5.493603759765625,-0.23947224020957947,0.3403993844985962,-0.07822529971599579
1761818012095532000,5.503531982421875,0.031433556228876114,0.1722940057516098,-0.13370586931705475
1761818012105461200,5.513461181640625,0.24566276371479034,0.11279818415641785,-0.22643792629241943
1761818012115389200,5.52338916015625,0.5067875385284424,0.07370990514755249,-0.33281949162483215
1761818012125318100,5.533318115234375,0.8455190062522888,0.010440124198794365,-0.3817388415336609
1761818012135246000,5.54324609375,1.1990952491760254,-0.09111632406711578,-0.3503305912017822
1761818012145174000,5.553174072265625,1.5012664794921875,-0.2722744047641754,-0.28824350237846375
1761818012155103000,5.56310302734375,1.6978636980056763,-0.5424166917800903,-0.21779410541057587
1761818012165031000,5.573031005859375,1.7743552923202515,-0.7818063497543335,-0.1234457716345787
1761818012174958800,5.582958740234375,1.7936208248138428,-0.9492219686508179,-0.035242144018411636
1761818012184888000,5.59288818359375,1.805260181427002,-1.017509937286377,0.014597850851714611
1761818012194816000,5.60281591796875,1.7881885766983032,-0.972671389579773,0.02653547003865242
1761818012204745000,5.612744873046875,1.691728115081787,-0.8565434217453003,0.03385863080620766
1761818012214673200,5.622673095703125,1.5158385038375854,-0.6830259561538696,0.04322283715009689
1761818012224601000,5.63260107421875,1.2379134893417358,-0.3971627950668335,0.038056571036577225
1761818012234530000,5.642530029296875,0.7912762761116028,-0.11644431948661804,0.018275143578648567
1761818012244458000,5.6524580078125,0.18255436420440674,0.17190411686897278,-0.0012663330417126417
1761818012254386000,5.662385986328125,-0.2873196601867676,0.4749603867530823,-0.0057502975687384605
1761818012264315100,5.672315185546875,-0.7691443562507629,0.5333341956138611,0.03597398102283478
1761818012274243000,5.6822431640625,-1.3090461492538452,0.49069303274154663,0.10905644297599792
1761818012284172000,5.692172119140625,-1.7324765920639038,0.5051752924919128,0.14687013626098633
1761818012294100000,5.702099853515625,-1.9520291090011597,0.5215534567832947,0.16981379687786102
1761818012304028200,5.712028076171875,-1.9898641109466553,0.49979090690612793,0.2110813409090042
1761818012313956900,5.721956787109375,-1.867129921913147,0.4218396544456482,0.2660428583621979
1761818012323885000,5.731885009765625,-1.6671154499053955,0.4083089232444763,0.3109629452228546
1761818012333813000,5.74181298828125,-1.4624370336532593,0.4410988390445709,0.32009997963905334
1761818012343742200,5.7517421875,-1.2709219455718994,0.4917753338813782,0.27641481161117554
1761818012353670100,5.761670166015625,-1.0545350313186646,0.5649459362030029,0.18693873286247253
1761818012363598000,5.77159814453125,-0.7997075915336609,0.6374345421791077,0.0814913958311081
1761818012373527000,5.781527099609375,-0.5003195405006409,0.6451007127761841,-0.0033952640369534492
1761818012383455000,5.791455078125,-0.2086847722530365,0.4827570617198944,-0.06924964487552643
1761818012393384000,5.801384033203125,-0.042632948607206345,0.2473972737789154,-0.10357432812452316
1761818012403311900,5.811311767578125,0.09490706771612167,0.08934878557920456,-0.14893169701099396
1761818012413240000,5.821239990234375,0.2841281294822693,-0.0017142767319455743,-0.20573265850543976
1761818012423169000,5.8311689453125,0.5470987558364868,-0.09553611278533936,-0.2468971312046051
1761818012433097200,5.84109716796875,0.8869921565055847,-0.273540735244751,-0.2482960969209671
1761818012443025200,5.851025146484375,1.2351953983306885,-0.4935569763183594,-0.20980755984783173
1761818012452954000,5.8609541015625,1.5455780029296875,-0.7268608212471008,-0.15948979556560516
1761818012462882000,5.870882080078125,1.8124438524246216,-0.9406495094299316,-0.12804238498210907
1761818012472810000,5.88081005859375,2.0227489471435547,-1.109472632408142,-0.12089712917804718
1761818012482739000,5.890739013671875,2.1636710166931152,-1.1949148178100586,-0.1355288028717041
1761818012492667000,5.9006669921875,2.2170372009277344,-1.158349633216858,-0.16882815957069397
1761818012502596000,5.91059619140625,2.1920158863067627,-0.9777031540870667,-0.2035137116909027
1761818012512524000,5.92052392578125,2.0478060245513916,-0.6956040859222412,-0.219334214925766
1761818012522452200,5.9304521484375,1.797024130821228,-0.3452862799167633,-0.22365333139896393
1761818012532381200,5.940381103515625,1.486738681793213,-0.014269216917455196,-0.19638656079769135
1761818012542309000,5.95030908203125,1.0878230333328247,0.23810923099517822,-0.11856605857610703
1761818012552237000,5.960237060546875,0.5187840461730957,0.3864678144454956,-0.002103098202496767
1761818012562166000,5.970166015625,-0.04254080355167389,0.5256728529930115,0.13412877917289734
1761818012572094000,5.980093994140625,-0.5809499621391296,0.6093773245811462,0.2422456592321396
1761818012582022000,5.99002197265625,-1.1904783248901367,0.7300139665603638,0.3073436915874481
1761818012591951000,5.999951171875,-1.7093312740325928,0.9292925000190735,0.3167009949684143
1761818012601879000,6.009879150390625,-2.018350124359131,1.1100553274154663,0.2672724425792694
1761818012611808000,6.01980810546875,-2.1382765769958496,1.1866343021392822,0.24184618890285492
1761818012621736000,6.02973583984375,-2.1317782402038574,1.1264511346817017,0.21861569583415985
1761818012631664000,6.0396640625,-2.0206520557403564,0.9631995558738708,0.18175621330738068
1761818012641593000,6.049593017578125,-1.8175855875015259,0.7496188282966614,0.145999014377594
1761818012651521000,6.05952099609375,-1.5563087463378906,0.5298532247543335,0.11009906977415085
1761818012661449000,6.069448974609375,-1.2699792385101318,0.32302093505859375,0.10447154939174652
1761818012671378200,6.079378173828125,-0.8780815005302429,0.13001872599124908,0.12617790699005127
1761818012681306000,6.08930615234375,-0.4005948305130005,-0.11696869879961014,0.16049247980117798
1761818012691234000,6.099234130859375,-0.11324373632669449,-0.40556320548057556,0.1770474761724472
1761818012701163000,6.1091630859375,0.10228482633829117,-0.5728914737701416,0.1291729062795639
1761818012711091000,6.119091064453125,0.35858210921287537,-0.6376017928123474,0.028300613164901733
1761818012721020000,6.12902001953125,0.6405048966407776,-0.6824501752853394,-0.09535794705152512
1761818012730948000,6.138947998046875,0.9311249852180481,-0.7469136118888855,-0.17136162519454956
1761818012740876000,6.1488759765625,1.2292797565460205,-0.7926331758499146,-0.20825360715389252
1761818012750805200,6.15880517578125,1.4761683940887451,-0.8216927647590637,-0.21609768271446228
1761818012760733200,6.168733154296875,1.6171449422836304,-0.8503108620643616,-0.19332125782966614
1761818012770661000,6.1786611328125,1.665889859199524,-0.8986155390739441,-0.19755461812019348
1761818012780590000,6.188590087890625,1.6721693277359009,-0.853800356388092,-0.2185099720954895
1761818012790518000,6.19851806640625,1.6244536638259888,-0.6675199866294861,-0.2083207219839096
1761818012800446000,6.208446044921875,1.477097511291504,-0.42789995670318604,-0.14441390335559845
1761818012810375000,6.218375,1.153411626815796,-0.13798902928829193,-0.03297818824648857
1761818012820302800,6.228302734375,0.6146003007888794,0.10615786164999008,0.0808972492814064
1761818012830231000,6.23823095703125,-0.07543004304170609,0.3321896493434906,0.14293132722377777
1761818012840160300,6.24816015625,-0.6077418923377991,0.5031678080558777,0.16850538551807404
1761818012850088200,6.258088134765625,-1.118678331375122,0.5529114007949829,0.20349054038524628
1761818012860016000,6.26801611328125,-1.583254098892212,0.5214391946792603,0.22748614847660065
1761818012869945000,6.277945068359375,-1.9078973531723022,0.47336888313293457,0.24930143356323242
1761818012879873000,6.287873046875,-2.0342304706573486,0.37701892852783203,0.24640418589115143
1761818012889802000,6.297802001953125,-1.9559674263000488,0.26784342527389526,0.24177534878253937
1761818012899730000,6.30772998046875,-1.739036202430725,0.1818121373653412,0.25713831186294556
1761818012909657900,6.317657958984375,-1.4468538761138916,0.14761927723884583,0.28161436319351196
1761818012919587000,6.327587158203125,-1.111938714981079,0.1987099051475525,0.27879223227500916
1761818012929515000,6.337514892578125,-0.7488766312599182,0.2935927212238312,0.2515629827976227
1761818012939444000,6.34744384765625,-0.3938540816307068,0.35481056571006775,0.18221162259578705
1761818012949373000,6.357373046875,-0.15139351785182953,0.335554301738739,0.09486179798841476
1761818012959301000,6.367301025390625,0.025070732459425926,0.31846052408218384,-0.02636156603693962
1761818012969229000,6.37722900390625,0.2440592646598816,0.2811664342880249,-0.16456525027751923
1761818012979158300,6.387158203125,0.5239644050598145,0.19138140976428986,-0.2938220202922821
1761818012989086200,6.397086181640625,0.838556170463562,0.04279566556215286,-0.36517930030822754
1761818012999014100,6.40701416015625,1.1202826499938965,-0.10616984218358994,-0.37461116909980774
1761818013008943000,6.416943115234375,1.3084964752197266,-0.21806415915489197,-0.33801719546318054
1761818013018871000,6.42687109375,1.3721340894699097,-0.3282764256000519,-0.29501086473464966
1761818013028799000,6.436799072265625,1.337146282196045,-0.4615519046783447,-0.25641927123069763
1761818013038728000,6.44672802734375,1.2349146604537964,-0.5412387251853943,-0.23550279438495636
1761818013048656000,6.45665576171875,1.097395420074463,-0.5308601260185242,-0.20770126581192017
1761818013058584000,6.466583984375,0.9206081628799438,-0.42488205432891846,-0.15799681842327118
1761818013068513300,6.47651318359375,0.6984896063804626,-0.2619019150733948,-0.06337018311023712
1761818013078441200,6.486441162109375,0.4119342863559723,-0.08853865414857864,0.051236554980278015
1761818013088369200,6.496369140625,0.06676944345235825,0.12008805572986603,0.13248427212238312
1761818013098298000,6.506298095703125,-0.18872064352035522,0.3039356470108032,0.15344654023647308
1761818013108226000,6.51622607421875,-0.4383366107940674,0.3818637430667877,0.1846502721309662
1761818013118155000,6.526155029296875,-0.7204535007476807,0.4127308428287506,0.21323877573013306
1761818013128083000,6.5360830078125,-0.998157799243927,0.4419337511062622,0.21779917180538177
1761818013138011000,6.546010986328125,-1.2664039134979248,0.4355751872062683,0.19578787684440613
1761818013147940000,6.555940185546875,-1.4583510160446167,0.37246251106262207,0.17568448185920715
1761818013157868000,6.565867919921875,-1.5323528051376343,0.27030232548713684,0.18769879639148712
1761818013167796200,6.575796142578125,-1.5366785526275635,0.20540322363376617,0.22640810906887054
1761818013177725200,6.58572509765625,-1.4942150115966797,0.1857946366071701,0.2713257670402527
1761818013187653000,6.595653076171875,-1.3544511795043945,0.22667202353477478,0.2848077714443207
1761818013197581000,6.6055810546875,-1.1619808673858643,0.27316734194755554,0.2869340479373932
1761818013207510000,6.615510009765625,-0.9455268383026123,0.30908113718032837,0.2667568624019623
1761818013217438000,6.62543798828125,-0.6674842834472656,0.32745856046676636,0.22715085744857788
1761818013227366000,6.635365966796875,-0.34900033473968506,0.2809094190597534,0.16985508799552917
1761818013237295000,6.645295166015625,-0.08356306701898575,0.21961811184883118,0.09552092850208282
1761818013247223000,6.65522314453125,0.10409151762723923,0.22797004878520966,-0.015335546806454659
1761818013257151200,6.665151123046875,0.31999796628952026,0.27518123388290405,-0.15520823001861572
1761818013267080200,6.675080078125,0.614782452583313,0.2470308244228363,-0.2899934649467468
1761818013277008100,6.685008056640625,0.8850033283233643,0.09808928519487381,-0.3570409417152405
1761818013286936000,6.69493603515625,1.1048197746276855,-0.10429071635007858,-0.33997300267219543
1761818013296865000,6.704864990234375,1.299859881401062,-0.24129889905452728,-0.29299646615982056
1761818013306793000,6.71479296875,1.400949239730835,-0.35902392864227295,-0.24766145646572113
1761818013316721000,6.724720947265625,1.3978463411331177,-0.4875715374946594,-0.2041054666042328
1761818013326650000,6.734650146484375,1.3353781700134277,-0.5500274300575256,-0.15632516145706177
1761818013336578000,6.744578125,1.2350534200668335,-0.519210696220398,-0.10184726864099503
1761818013346506200,6.75450634765625,1.1030299663543701,-0.42003801465034485,-0.048770468682050705
1761818013356435000,6.76443505859375,0.930672824382782,-0.2664109170436859,-0.007927165366709232
1761818013366363100,6.774363037109375,0.7222607135772705,-0.10893873125314713,0.02430161088705063
1761818013376291000,6.784291015625,0.4186907410621643,0.04529158025979996,0.0441027469933033
1761818013386220000,6.794219970703125,0.06523146480321884,0.23569002747535706,0.025490712374448776
1761818013396148000,6.80414794921875,-0.23482529819011688,0.41113772988319397,-0.011721903458237648
1761818013406076000,6.814075927734375,-0.6241245865821838,0.5814016461372375,-0.029765352606773376
1761818013416005000,6.824005126953125,-1.0313043594360352,0.7374679446220398,-0.01637258194386959
1761818013425933000,6.83393310546875,-1.382957935333252,0.8351870179176331,0.02334766648709774
1761818013435861000,6.843861083984375,-1.6021825075149536,0.7985107898712158,0.0962570309638977
1761818013445790000,6.8537900390625,-1.6494839191436768,0.6544526815414429,0.1830875277519226
1761818013455718100,6.86371826171875,-1.5726946592330933,0.49806705117225647,0.26439356803894043
1761818013465647000,6.873647216796875,-1.4260205030441284,0.3686597943305969,0.31397631764411926
1761818013475575000,6.883574951171875,-1.2606298923492432,0.33226528763771057,0.3145613968372345
1761818013485503000,6.8935029296875,-1.075191617012024,0.3423810601234436,0.25581446290016174
1761818013495432200,6.90343212890625,-0.8315568566322327,0.437691330909729,0.16716821491718292
1761818013505360100,6.913360107421875,-0.5335784554481506,0.48484712839126587,0.08074677735567093
1761818013515288000,6.9232880859375,-0.2326287180185318,0.3357953131198883,0.008041947148740292
1761818013525217000,6.933217041015625,0.00003222424857085571,0.11817191541194916,-0.07322068512439728
1761818013535145000,6.94314501953125,0.23997904360294342,-0.02978958748281002,-0.18488089740276337
1761818013545073200,6.9530732421875,0.5187733769416809,-0.20323140919208527,-0.2873777151107788
1761818013555001900,6.963001953125,0.8293605446815491,-0.4136248528957367,-0.3273909091949463
1761818013564930000,6.972929931640625,1.1305524110794067,-0.5914494395256042,-0.3049631118774414
1761818013574858000,6.98285791015625,1.3288891315460205,-0.7506210207939148,-0.23888927698135376
1761818013584787200,6.992787109375,1.3738542795181274,-0.9128578305244446,-0.16932404041290283
1761818013594715100,7.002715087890625,1.3005603551864624,-1.0583237409591675,-0.1263323724269867
1761818013604643000,7.01264306640625,1.2108128070831299,-1.0705840587615967,-0.10545851290225983
1761818013614572000,7.022572021484375,1.10378897190094,-0.949815034866333,-0.09091232717037201
1761818013624500000,7.0325,0.9857613444328308,-0.772351086139679,-0.05964868143200874
1761818013634428000,7.042427978515625,0.8453704118728638,-0.5838258862495422,-0.005351622123271227
1761818013644356900,7.05235693359375,0.6881869435310364,-0.4112381339073181,0.05222805216908455
1761818013654285000,7.06228515625,0.5267484784126282,-0.2668761610984802,0.09701283276081085
1761818013664213000,7.072212890625,0.3116809129714966,-0.19391487538814545,0.11967047303915024
1761818013674142200,7.08214208984375,0.05136891454458237,-0.05953443422913551,0.10860743373632431
1761818013684070100,7.092070068359375,-0.1483689695596695,0.08813252300024033,0.07103955745697021
1761818013693998000,7.101998046875,-0.3777278661727905,0.2098429799079895,0.051715124398469925
1761818013703927000,7.111927001953125,-0.6482552289962769,0.30079659819602966,0.04712836444377899
1761818013713855000,7.12185498046875,-0.9343599677085876,0.37009575963020325,0.0565602146089077
1761818013723783000,7.131782958984375,-1.1872507333755493,0.4296499192714691,0.07544202357530594
1761818013733712000,7.1417119140625,-1.359411597251892,0.46016573905944824,0.1166113018989563
1761818013743640000,7.15164013671875,-1.4089254140853882,0.4778491258621216,0.16762788593769073
1761818013753568000,7.161568115234375,-1.3509987592697144,0.49046826362609863,0.20964057743549347
1761818013763497200,7.171497314453125,-1.2514302730560303,0.4733845889568329,0.22025354206562042
1761818013773425200,7.181425048828125,-1.1118154525756836,0.4486219882965088,0.19214360415935516
1761818013783353000,7.19135302734375,-0.9356310963630676,0.452008992433548,0.16539934277534485
1761818013793282000,7.201281982421875,-0.6476660966873169,0.4354260265827179,0.12023799121379852
1761818013803210000,7.2112099609375,-0.2444899082183838,0.3298521935939789,0.05271114781498909
1761818013813138000,7.221137939453125,0.0905541330575943,0.1996140480041504,-0.021404890343546867
1761818013823067000,7.23106689453125,0.3940458297729492,0.06644000858068466,-0.10741673409938812
1761818013832994800,7.240994873046875,0.7274243235588074,-0.08577003329992294,-0.18852649629116058
1761818013842923300,7.25092333984375,1.0396331548690796,-0.23122629523277283,-0.2350524663925171
1761818013852852200,7.260852294921875,1.2532603740692139,-0.3703213334083557,-0.2211478352546692
1761818013862780200,7.2707802734375,1.3514010906219482,-0.5029608607292175,-0.185578390955925
1761818013872708000,7.2807080078125,1.3522586822509766,-0.6807430982589722,-0.17261704802513123
1761818013882637000,7.290636962890625,1.3321168422698975,-0.8411844372749329,-0.1703469604253769
1761818013892565000,7.30056494140625,1.2852466106414795,-0.8953278660774231,-0.15320180356502533
1761818013902493000,7.310492919921875,1.1725994348526,-0.8812256455421448,-0.10706546902656555
1761818013912420900,7.3204208984375,1.0296217203140259,-0.7785516977310181,-0.04890762269496918
1761818013922349800,7.330349853515625,0.8622236847877502,-0.5921322703361511,-0.0070794811472296715
1761818013932278300,7.3402783203125,0.6577544212341309,-0.3498504161834717,0.029395705088973045
1761818013942205400,7.350205322265625,0.3569733202457428,-0.12002973258495331,0.09035306423902512
1761818013952134400,7.360134521484375,-0.005763080436736345,0.09314113110303879,0.11813835799694061
1761818013962062300,7.370062255859375,-0.24748410284519196,0.26659494638442993,0.10563614964485168
1761818013971990300,7.379990234375,-0.5309046506881714,0.3800216317176819,0.0893317461013794
1761818013981919500,7.38991943359375,-0.825096845626831,0.45346495509147644,0.07403401285409927
1761818013991847400,7.399847412109375,-1.095873475074768,0.5207446813583374,0.06358110904693604
1761818014001775600,7.409775634765625,-1.3482519388198853,0.6146535873413086,0.06960677355527878
1761818014011704300,7.419704345703125,-1.5130805969238281,0.685158371925354,0.08731599897146225
1761818014021632500,7.429632568359375,-1.571678638458252,0.6918461322784424,0.12510891258716583
1761818014031560400,7.439560546875,-1.551222562789917,0.6739395260810852,0.14979588985443115
1761818014041489400,7.449489501953125,-1.4620192050933838,0.6204198598861694,0.14829732477664948
1761818014051417300,7.459417236328125,-1.320253849029541,0.5477613806724548,0.12054399400949478
1761818014061345500,7.469345458984375,-1.111406922340393,0.5081409811973572,0.0991249829530716
1761818014071274500,7.4792744140625,-0.8416353464126587,0.5120579600334167,0.07748173922300339
1761818014081202400,7.489202392578125,-0.5034170746803284,0.4789561927318573,0.05609309673309326
1761818014091130400,7.49913037109375,-0.13128958642482758,0.31599152088165283,0.02532506361603737
1761818014101059300,7.509059326171875,0.13233646750450134,0.08025941997766495,-0.0309270229190588
1761818014110987500,7.518987548828125,0.40046992897987366,-0.12935025990009308,-0.12287691980600357
1761818014120915500,7.52891552734375,0.7013946175575256,-0.30205652117729187,-0.21158787608146667
1761818014130844400,7.538844482421875,0.9652185440063477,-0.4136520326137543,-0.2569260597229004
1761818014140772600,7.548772705078125,1.170822024345398,-0.46733418107032776,-0.24197348952293396
1761818014150700500,7.558700439453125,1.298232913017273,-0.5142923593521118,-0.1905164122581482
1761818014160629500,7.56862939453125,1.3355350494384766,-0.5754590630531311,-0.14267726242542267
1761818014170557400,7.578557373046875,1.2686569690704346,-0.6715261936187744,-0.1263800412416458
1761818014180485400,7.5884853515625,1.2075294256210327,-0.7304856181144714,-0.14365597069263458
1761818014190414300,7.598414306640625,1.165284276008606,-0.7069949507713318,-0.16811363399028778
1761818014200342500,7.608342529296875,1.1263365745544434,-0.604538083076477,-0.15507933497428894
1761818014210270500,7.6182705078125,1.0431724786758423,-0.5326633453369141,-0.10543907433748245
1761818014220199400,7.628199462890625,0.937476396560669,-0.4489341080188751,-0.05446164309978485
1761818014230127600,7.638127685546875,0.8181737065315247,-0.2985544800758362,-0.001014664419926703
1761818014240055600,7.6480556640625,0.611638605594635,-0.10068053752183914,0.07407795637845993
1761818014249984500,7.657984619140625,0.2185128927230835,0.17274753749370575,0.1436391919851303
1761818014259912400,7.667912353515625,-0.17606104910373688,0.47175103425979614,0.1593044400215149
1761818014269840400,7.67784033203125,-0.5968205332756042,0.6372768878936768,0.15848684310913086
1761818014279769300,7.687769287109375,-1.0533246994018555,0.6972746849060059,0.14886298775672913
1761818014289697500,7.697697509765625,-1.4283260107040405,0.6438007950782776,0.12292512506246567
1761818014299625500,7.70762548828125,-1.6357444524765015,0.5184172987937927,0.09732495248317719
1761818014309554700,7.7175546875,-1.6713535785675049,0.41263335943222046,0.09649910777807236
1761818014319482600,7.727482666015625,-1.5955581665039062,0.3438548445701599,0.1343279778957367
1761818014329410600,7.73741064453125,-1.4297446012496948,0.3051077127456665,0.18166646361351013
1761818014339339500,7.747339599609375,-1.210717797279358,0.3475915193557739,0.20867465436458588
1761818014349267500,7.757267333984375,-0.9572750926017761,0.4229661822319031,0.21256579458713531
1761818014359195400,7.7671953125,-0.6872894167900085,0.4464866816997528,0.19644807279109955
1761818014369123600,7.77712353515625,-0.38868996500968933,0.4000411331653595,0.1584106832742691
1761818014379052300,7.78705224609375,-0.10591045022010803,0.2676285207271576,0.10514292865991592
1761818014388980500,7.79698046875,0.10140039026737213,0.09007556736469269,0.05727527290582657
1761818014398908400,7.806908447265625,0.347212553024292,-0.11171694099903107,-0.01906956546008587
1761818014408837600,7.816837646484375,0.6209514141082764,-0.35458552837371826,-0.10561084747314453
1761818014418765600,7.826765625,0.8672786355018616,-0.5916262865066528,-0.16721774637699127
1761818014428693500,7.836693603515625,1.0520734786987305,-0.7745777368545532,-0.20142684876918793
1761818014438622500,7.84662255859375,1.169324517250061,-0.8478698134422302,-0.21195858716964722
1761818014448550400,7.85655029296875,1.2379193305969238,-0.8384352922439575,-0.205060213804245
1761818014458478300,7.866478271484375,1.2399630546569824,-0.8050629496574402,-0.18976940214633942
1761818014468407300,7.8764072265625,1.2049466371536255,-0.7529667019844055,-0.18075859546661377
1761818014478335500,7.88633544921875,1.175978422164917,-0.7015655636787415,-0.17649488151073456
1761818014488263400,7.896263427734375,1.160271406173706,-0.6436508893966675,-0.1544489562511444
1761818014498192600,7.906192626953125,1.146909236907959,-0.5785853266716003,-0.10559619963169098
1761818014508120600,7.91612060546875,1.09169602394104,-0.5014569759368896,-0.04446600005030632
1761818014518048500,7.926048583984375,1.0019479990005493,-0.4341181516647339,-0.007638745009899139
1761818014527977500,7.9359775390625,0.8976767659187317,-0.32126644253730774,0.04039003327488899
1761818014537905400,7.945905517578125,0.6467739939689636,-0.2411005049943924,0.12061749398708344
1761818014547833300,7.955833251953125,0.18924236297607422,-0.18007682263851166,0.1656845659017563
1761818014557762300,7.96576220703125,-0.27002614736557007,-0.03808187320828438,0.16564568877220154
1761818014567690500,7.9756904296875,-0.7826114296913147,0.11163251847028732,0.14791622757911682
1761818014577618400,7.985618408203125,-1.3034721612930298,0.2636774480342865,0.12469851970672607
1761818014587547600,7.995547607421875,-1.6792644262313843,0.38460707664489746,0.11224052309989929
1761818014597475600,8.0054755859375,-1.8615690469741821,0.4593915641307831,0.10697705298662186
1761818014607403500,8.015403564453125,-1.8663424253463745,0.500004231929779,0.12432408332824707
1761818014617332500,8.02533251953125,-1.7590160369873047,0.4920395016670227,0.16223230957984924
1761818014627260400,8.035260498046876,-1.5600932836532593,0.45805516839027405,0.1809476763010025
1761818014637188400,8.045188232421875,-1.2849664688110352,0.41100403666496277,0.1806424856185913
1761818014647116500,8.055116455078124,-0.9545365571975708,0.308548241853714,0.16300064325332642
1761818014657045200,8.065045166015626,-0.6052228212356567,0.20341889560222626,0.13082832098007202
1761818014666973400,8.074973388671875,-0.2559795677661896,0.10080570727586746,0.09623625129461288
1761818014676901600,8.084901611328124,-0.008321579545736313,-0.01200047042220831,0.06444849818944931
1761818014686830600,8.09483056640625,0.20340397953987122,-0.09716809540987015,0.021256553009152412
1761818014696758500,8.104758544921875,0.4545416831970215,-0.16567924618721008,-0.06528499722480774
1761818014706686500,8.1146865234375,0.7264245748519897,-0.27941620349884033,-0.1564551144838333
1761818014716615400,8.124615478515626,0.971100389957428,-0.44591328501701355,-0.189015194773674
1761818014726543400,8.13454345703125,1.1419833898544312,-0.6371663212776184,-0.17351773381233215
1761818014736471300,8.14447119140625,1.2662409543991089,-0.7482331991195679,-0.16803933680057526
1761818014746400300,8.154400146484376,1.3198893070220947,-0.7502068877220154,-0.17303729057312012
1761818014756328400,8.164328369140625,1.2903633117675781,-0.7065076231956482,-0.19730880856513977
1761818014766256600,8.174256591796874,1.2174696922302246,-0.6483332514762878,-0.2250421643257141
1761818014776185600,8.184185546875,1.14018976688385,-0.5578563213348389,-0.23188516497612
1761818014786113500,8.194113525390625,1.0365397930145264,-0.4278067350387573,-0.18955981731414795
1761818014796041500,8.20404150390625,0.8897714614868164,-0.3010895252227783,-0.10696639865636826
1761818014805970400,8.213970458984376,0.6778578758239746,-0.19272683560848236,-0.005813946947455406
1761818014815898400,8.2238984375,0.33559319376945496,-0.1159854605793953,0.10686653107404709
1761818014825826300,8.233826416015624,-0.06406313925981522,0.006268282420933247,0.20009101927280426
1761818014835755300,8.24375537109375,-0.45217305421829224,0.061399444937705994,0.25622671842575073
1761818014845683500,8.253683349609375,-0.8900089859962463,0.05168076977133751,0.25680384039878845
1761818014855611600,8.263611572265624,-1.32330322265625,0.09714119881391525,0.21158601343631744
1761818014865539600,8.27353955078125,-1.645789623260498,0.23486390709877014,0.15808391571044922
1761818014875468500,8.283468505859375,-1.7932970523834229,0.3803286850452423,0.10531949996948242
1761818014885396500,8.293396484375,-1.7692921161651611,0.4728016257286072,0.0874190628528595
1761818014895324400,8.303324462890625,-1.5900472402572632,0.5406832098960876,0.1044987142086029
1761818014905253400,8.31325341796875,-1.316076397895813,0.604248583316803,0.14199654757976532
1761818014915181300,8.323181396484374,-1.0148643255233765,0.6588199734687805,0.18102943897247314
1761818014925109500,8.333109619140625,-0.7264038324356079,0.7031059265136719,0.18190935254096985
1761818014935038500,8.34303857421875,-0.4517520070075989,0.7132970690727234,0.12515631318092346
1761818014944966700,8.352966552734374,-0.20983977615833282,0.6666586995124817,0.04952733963727951
1761818014954894600,8.36289453125,-0.036551352590322495,0.561504602432251,-0.02443397045135498
1761818014964823600,8.372823486328125,0.1267520785331726,0.4394623339176178,-0.09531906247138977
1761818014974751500,8.38275146484375,0.3267131447792053,0.28336086869239807,-0.18066245317459106
1761818014984679700,8.3926796875,0.5762465596199036,0.08899911493062973,-0.25463175773620605
1761818014994608600,8.402608642578125,0.8640588521957397,-0.11350605636835098,-0.2968399226665497
1761818015004536600,8.41253662109375,1.1126798391342163,-0.30353057384490967,-0.30302831530570984
1761818015014464500,8.422464599609375,1.2679840326309204,-0.456296443939209,-0.2660881280899048
1761818015024393500,8.4323935546875,1.3335976600646973,-0.5623533725738525,-0.20080554485321045
1761818015034321700,8.44232177734375,1.282668948173523,-0.6558185815811157,-0.144147589802742
1761818015044249600,8.45224951171875,1.1947526931762695,-0.7084525227546692,-0.1375647932291031
1761818015054177500,8.462177490234374,1.126072883605957,-0.6934027075767517,-0.1650504767894745
1761818015064106800,8.472106689453126,1.0830285549163818,-0.5709614753723145,-0.18429207801818848
1761818015074034700,8.48203466796875,1.0316673517227173,-0.39427754282951355,-0.14488820731639862
1761818015083962600,8.491962646484374,0.9240362048149109,-0.2860400080680847,-0.05976080149412155
1761818015093891600,8.5018916015625,0.7538405060768127,-0.21419964730739594,0.032409340143203735
1761818015103819500,8.511819580078125,0.48790788650512695,-0.2112421989440918,0.1269124150276184
1761818015113747700,8.521747802734374,0.12263217568397522,-0.18959257006645203,0.20625783503055573
1761818015123676400,8.531676513671876,-0.19189965724945068,-0.16388188302516937,0.2540019154548645
1761818015133604600,8.5416044921875,-0.5548549890518188,-0.15919817984104156,0.28994980454444885
1761818015143532500,8.551532470703124,-0.9981780648231506,-0.10579593479633331,0.30400222539901733
1761818015153461800,8.561461669921876,-1.3611221313476562,0.13520468771457672,0.27009567618370056
1761818015163389700,8.5713896484375,-1.5391316413879395,0.42201516032218933,0.05736049637198448
1761818015173317600,8.581317626953124,-1.7252604961395264,0.4792715311050415,-0.21329763531684875
1761818015183246600,8.59124658203125,-1.8211363554000854,0.5233492255210876,-0.30515724420547485
1761818015193174500,8.601174560546875,-1.7728532552719116,0.5639933347702026,-0.23478294909000397
1761818015203102500,8.6111025390625,-1.6327697038650513,0.5532945990562439,-0.10835310816764832
1761818015213030700,8.62103076171875,-1.4056683778762817,0.456005334854126,0.013158412650227547
1761818015222959600,8.630959716796875,-1.082217812538147,0.29837682843208313,0.10397779941558838
1761818015232887600,8.640887451171874,-0.6748330593109131,0.1270061582326889,0.17119917273521423
1761818015242815500,8.6508154296875,-0.21085764467716217,-0.10428193211555481,0.22079123556613922
1761818015252744700,8.66074462890625,0.07551392912864685,-0.3621816635131836,0.24431413412094116
1761818015262672600,8.670672607421874,0.25658145546913147,-0.48990392684936523,0.21126483380794525
1761818015272600600,8.6806005859375,0.44408664107322693,-0.4717850983142853,0.09249264746904373
1761818015282529500,8.690529541015625,0.650628387928009,-0.4193921983242035,-0.060070525854825974
1761818015292457500,8.70045751953125,0.8234070539474487,-0.3883586525917053,-0.17473240196704865
1761818015302385700,8.7103857421875,0.9771319031715393,-0.38727980852127075,-0.23587031662464142
1761818015312314600,8.720314697265625,1.0875407457351685,-0.388603150844574,-0.2385241538286209
1761818015322242600,8.73024267578125,1.1189745664596558,-0.4186233580112457,-0.24035587906837463
1761818015332170500,8.74017041015625,1.0762842893600464,-0.43189895153045654,-0.2630939483642578
1761818015342099700,8.750099609375,1.0434560775756836,-0.38985827565193176,-0.27774134278297424
1761818015352027600,8.760027587890624,0.9580990672111511,-0.3135012090206146,-0.22566455602645874
1761818015361955600,8.76995556640625,0.7451649904251099,-0.25444266200065613,-0.1291944682598114
1761818015371884500,8.779884521484375,0.3797401487827301,-0.19902148842811584,-0.04779095947742462
1761818015381812500,8.7898125,0.00986488163471222,-0.07588783651590347,-0.004464257042855024
1761818015391740700,8.79974072265625,-0.27594876289367676,0.02875920943915844,0.06581389904022217
1761818015401668600,8.809668701171875,-0.5994783639907837,0.05898023024201393,0.16046318411827087
1761818015411597600,8.81959765625,-0.9068667888641357,0.05164375156164169,0.23477362096309662
1761818015421525500,8.829525390625,-1.1177124977111816,0.08892907202243805,0.25532975792884827
1761818015431453700,8.83945361328125,-1.207566499710083,0.21315622329711914,0.20477259159088135
1761818015441382700,8.849382568359376,-1.1870936155319214,0.3618921637535095,0.12811775505542755
1761818015451310600,8.859310546875,-1.1031337976455688,0.5455632209777832,0.09566234052181244
1761818015461238500,8.869238525390625,-1.004571557044983,0.7195227146148682,0.09476512670516968
1761818015471167500,8.87916748046875,-0.9088878631591797,0.8637539744377136,0.11963053047657013
1761818015481095700,8.889095703125,-0.8088493943214417,0.9211839437484741,0.13424915075302124
1761818015491023600,8.899023681640625,-0.6921331882476807,0.9066500067710876,0.11411165446043015
1761818015500952600,8.90895263671875,-0.5564824342727661,0.8192179203033447,0.05872456729412079
1761818015510880500,8.918880615234375,-0.3919094502925873,0.6400771737098694,-0.006678142584860325
1761818015520808700,8.92880859375,-0.2175365835428238,0.3754788041114807,-0.06017865240573883
1761818015530737700,8.938737548828126,-0.09689485281705856,0.12768791615962982,-0.08219660073518753
1761818015540665600,8.94866552734375,-0.0031334753148257732,-0.07331522554159164,-0.07904448360204697
1761818015550593500,8.958593505859374,0.11445653438568115,-0.29478102922439575,-0.07932784408330917
1761818015560521700,8.968521728515626,0.2965312600135803,-0.5287418961524963,-0.08692717552185059
1761818015570450400,8.978450439453125,0.5329901576042175,-0.7375744581222534,-0.09601841121912003
1761818015580378600,8.988378662109374,0.7907697558403015,-0.9090418219566345,-0.0768340602517128
1761818015590306600,8.998306640625,1.0268847942352295,-1.0070769786834717,-0.05248717591166496
1761818015600235800,9.00823583984375,1.2601591348648071,-1.0029014348983765,-0.06918226927518845
1761818015610163700,9.018163818359374,1.4091980457305908,-0.9075344800949097,-0.1109054759144783
1761818015620091600,9.028091552734375,1.4831883907318115,-0.7568914294242859,-0.17998601496219635
1761818015630020600,9.0380205078125,1.4699392318725586,-0.5491824150085449,-0.21503986418247223
1761818015639948500,9.047948486328124,1.312420129776001,-0.2661139667034149,-0.1968076080083847
1761818015649876500,9.05787646484375,1.0325003862380981,0.0279216468334198,-0.14690768718719482
1761818015659805400,9.067805419921875,0.6882721185684204,0.27315405011177063,-0.0862499326467514
1761818015669733600,9.077733642578124,0.2798561453819275,0.4124078154563904,-0.018381936475634575
1761818015679661600,9.08766162109375,-0.08310926705598831,0.49881112575531006,-0.0027949875220656395
1761818015689590800,9.0975908203125,-0.36503177881240845,0.41413700580596924,0.018817896023392677
1761818015699518700,9.107518798828124,-0.6383303999900818,0.3135581910610199,0.04291577637195587
1761818015709446700,9.11744677734375,-0.9178200960159302,0.2421196848154068,0.06296325474977493
1761818015719374600,9.12737451171875,-1.169988989830017,0.15073038637638092,0.0830160602927208
1761818015729303600,9.137303466796874,-1.315765619277954,0.12242764234542847,0.14626799523830414
1761818015739231500,9.1472314453125,-1.3066504001617432,0.17819716036319733,0.22728988528251648
1761818015749159700,9.15715966796875,-1.20917546749115,0.2395540028810501,0.2589527368545532
1761818015759088600,9.167088623046874,-1.0536147356033325,0.3320932686328888,0.24850675463676453
1761818015769016600,9.1770166015625,-0.8467094302177429,0.48034530878067017,0.2073633074760437
1761818015778944500,9.186944580078125,-0.6050465106964111,0.6131009459495544,0.1461324393749237
1761818015788873700,9.196873779296874,-0.3488091230392456,0.6246779561042786,0.08994746953248978
1761818015798801700,9.2068017578125,-0.1675698161125183,0.5133314728736877,0.03520911931991577
1761818015808729600,9.2167294921875,-0.060382917523384094,0.41292205452919006,-0.03033313900232315
1761818015818658600,9.226658447265624,0.03392627462744713,0.32959839701652527,-0.09139915555715561
1761818015828586500,9.23658642578125,0.1850726455450058,0.1977176070213318,-0.13761964440345764
1761818015838514700,9.2465146484375,0.39422640204429626,-0.021560952067375183,-0.16595914959907532
1761818015848442600,9.256442626953126,0.6575584411621094,-0.2661163806915283,-0.16436630487442017
1761818015858371600,9.26637158203125,0.9424386620521545,-0.4850068986415863,-0.1389826536178589
1761818015868299500,9.276299560546875,1.182860255241394,-0.6852164268493652,-0.10190931707620621
1761818015878227500,9.2862275390625,1.3265154361724854,-0.8172410130500793,-0.0856776237487793
1761818015888156700,9.29615673828125,1.3745990991592407,-0.8300569653511047,-0.09463462978601456
1761818015898084600,9.306084716796875,1.3625975847244263,-0.7306457161903381,-0.12102362513542175
1761818015908012500,9.316012451171876,1.2834031581878662,-0.5432094931602478,-0.13211409747600555
1761818015917941500,9.32594140625,1.074794054031372,-0.3268108665943146,-0.11825580149888992
1761818015927869400,9.335869384765624,0.7817608118057251,-0.10937096178531647,-0.08413538336753845
1761818015937797000,9.345797119140625,0.43455490469932556,0.12311660498380661,-0.04860774800181389
1761818015947726000,9.35572607421875,0.04159244894981384,0.2811752259731293,-0.011243599466979504
1761818015957654000,9.365654052734374,-0.23023533821105957,0.3563306927680969,0.021707160398364067
1761818015967582000,9.37558203125,-0.42419254779815674,0.2870493531227112,0.06396966427564621
1761818015977511000,9.385510986328125,-0.6363232135772705,0.13146747648715973,0.10576211661100388
1761818015987439000,9.395439208984374,-0.8796186447143555,-0.04098391905426979,0.151228129863739
1761818015997367000,9.405366943359375,-1.1030900478363037,-0.12619921565055847,0.18912625312805176
1761818016007296000,9.4152958984375,-1.2519307136535645,-0.10189653933048248,0.21025364100933075
1761818016017224200,9.42522412109375,-1.284987449645996,-0.05654130503535271,0.21735015511512756
1761818016027152100,9.435152099609375,-1.232616901397705,-0.03688637912273407,0.24481400847434998
1761818016037080000,9.445080078125,-1.1066656112670898,0.03172437474131584,0.26037779450416565
1761818016047009000,9.455009033203124,-0.8700448870658875,0.1419222503900528,0.23379838466644287
1761818016056937000,9.46493701171875,-0.6031481623649597,0.2149120420217514,0.16959302127361298
1761818016066865000,9.474864990234375,-0.3318314552307129,0.19031375646591187,0.1055128425359726
1761818016076794000,9.484794189453124,-0.14107535779476166,0.15840747952461243,0.06033631041646004
1761818016086722000,9.49472216796875,-0.011663047596812248,0.19162295758724213,0.015767777338624
1761818016096650200,9.504650146484375,0.1430804580450058,0.2247345745563507,-0.055261123925447464
1761818016106579000,9.514578857421874,0.3616061508655548,0.1647242307662964,-0.1251203715801239
1761818016116507100,9.524507080078125,0.6140357255935669,0.003065032185986638,-0.16972512006759644
1761818016126435000,9.53443505859375,0.8698312640190125,-0.1883733719587326,-0.1866484433412552
1761818016136364000,9.544364013671874,1.0788276195526123,-0.4046364426612854,-0.18924635648727417
1761818016146292000,9.5542919921875,1.1841095685958862,-0.5964977741241455,-0.1697070151567459
1761818016156220000,9.564219970703125,1.1704387664794922,-0.6455174684524536,-0.13811711966991425
1761818016166147800,9.57414794921875,1.0523645877838135,-0.577498197555542,-0.11309512704610825
1761818016176077000,9.5840771484375,0.8714898824691772,-0.4248436987400055,-0.09178292006254196
1761818016186005000,9.5940048828125,0.6576127409934998,-0.27520066499710083,-0.07035379111766815
1761818016195933200,9.60393310546875,0.42116373777389526,-0.11537479609251022,-0.03473987057805061
1761818016205862100,9.613862060546875,0.1907379925251007,0.029646575450897217,0.010124272666871548
1761818016215790000,9.6237900390625,0.00960042979568243,0.1578729897737503,0.03248577192425728
1761818016225718000,9.633718017578126,-0.08617962896823883,0.20621095597743988,0.04536881297826767
1761818016235647000,9.64364697265625,-0.23201139271259308,0.23655422031879425,0.043584227561950684
1761818016245575000,9.653574951171874,-0.4470747113227844,0.3569645285606384,0.0223308727145195
1761818016255502800,9.6635029296875,-0.6809516549110413,0.46478205919265747,0.017786987125873566
1761818016265432000,9.67343212890625,-0.9125515818595886,0.495633989572525,0.03567410632967949
1761818016275360000,9.683360107421874,-1.07435941696167,0.44801241159439087,0.07584816217422485
1761818016285288200,9.6932880859375,-1.1409105062484741,0.3684014678001404,0.1214422732591629
1761818016295217200,9.703217041015625,-1.142419457435608,0.330400288105011,0.16086611151695251
1761818016305145000,9.71314501953125,-1.121185541152954,0.3396718204021454,0.17905044555664062
1761818016315073000,9.723072998046876,-1.0643134117126465,0.3659098148345947,0.1765289604663849
1761818016325001000,9.7330009765625,-0.9634392857551575,0.3999287486076355,0.15961043536663055
1761818016334930000,9.742929931640624,-0.7909921407699585,0.41467148065567017,0.13401931524276733
1761818016344857900,9.75285791015625,-0.5677555799484253,0.3808320462703705,0.10103979706764221
1761818016354786000,9.7627861328125,-0.2910049557685852,0.2828918993473053,0.058990348130464554
1761818016364715000,9.772715087890624,-0.06632895767688751,0.10014764219522476,0.02972886711359024
1761818016374643200,9.782643310546876,0.06840489059686661,-0.027569308876991272,-0.012643356807529926
1761818016384571100,9.792571044921875,0.24092553555965424,-0.08532075583934784,-0.07087071239948273
1761818016394500000,9.8025,0.47644004225730896,-0.18538451194763184,-0.12977184355258942
1761818016404428000,9.812427978515625,0.7723851799964905,-0.3293619155883789,-0.15959659218788147
1761818016414356000,9.82235595703125,1.0654939413070679,-0.4978177845478058,-0.14455212652683258
1761818016424285000,9.832284912109374,1.3007928133010864,-0.6528488993644714,-0.12101297080516815
1761818016434213000,9.842213134765625,1.4213171005249023,-0.7388471961021423,-0.09924536198377609
1761818016444141000,9.85214111328125,1.4237905740737915,-0.7538785934448242,-0.10668649524450302
1761818016454069200,9.8620693359375,1.3832615613937378,-0.7073822021484375,-0.13475222885608673
1761818016463998000,9.871998046875,1.2806020975112915,-0.5977528691291809,-0.15007099509239197
1761818016473926100,9.881926025390625,1.0971078872680664,-0.43522337079048157,-0.14642645418643951
1761818016483854000,9.89185400390625,0.8626916408538818,-0.2335997074842453,-0.109816774725914
1761818016493783000,9.901782958984375,0.6211554408073425,-0.04679600149393082,-0.04585830122232437
1761818016503711000,9.9117109375,0.3161129653453827,0.05179715156555176,0.04974891245365143
1761818016513639000,9.921638916015626,-0.024282969534397125,0.17172116041183472,0.08826301991939545
1761818016523568000,9.931568115234375,-0.22273747622966766,0.28514012694358826,0.09751243889331818
1761818016533496000,9.94149609375,-0.4556080102920532,0.3276026248931885,0.11249565333127975
1761818016543424300,9.95142431640625,-0.7315722107887268,0.3174583911895752,0.13549017906188965
1761818016553353000,9.96135302734375,-0.9834536910057068,0.2793959677219391,0.15152961015701294
1761818016563281200,9.97128125,-1.1477779150009155,0.26919978857040405,0.13723215460777283
1761818016573209000,9.981208984375,-1.1838583946228027,0.23020391166210175,0.11960362643003464
1761818016583138000,9.991137939453125,-1.1329294443130493,0.1772618591785431,0.13765452802181244
1761818016593066000,10.00106591796875,-1.0675408840179443,0.19317105412483215,0.15100708603858948
1761818016602994000,10.010993896484376,-0.9492997527122498,0.2605671286582947,0.12047075480222702
1761818016612921900,10.020921875,-0.7395318746566772,0.3635595738887787,0.09824534505605698
1761818016622851000,10.03085107421875,-0.468405544757843,0.39739397168159485,0.08059444278478622
1761818016632779000,10.040779052734376,-0.1953388750553131,0.3233868479728699,0.04856407269835472
1761818016642707200,10.050707275390625,-0.024994298815727234,0.1934477537870407,0.016448747366666794
1761818016652636200,10.06063623046875,0.07079241424798965,0.09701602905988693,-0.038974564522504807
1761818016662564000,10.070564208984376,0.17689861357212067,0.06676837801933289,-0.10976111888885498
1761818016672492000,10.080491943359375,0.30998796224594116,0.025237446650862694,-0.1649588644504547
1761818016682421000,10.0904208984375,0.48442792892456055,-0.05103175714612007,-0.1891358345746994
1761818016692349000,10.100348876953126,0.6895672082901001,-0.16987664997577667,-0.1776008903980255
1761818016702276900,10.11027685546875,0.87395840883255,-0.32504013180732727,-0.14527170360088348
1761818016712206000,10.1202060546875,1.0072687864303589,-0.4764288663864136,-0.0942884162068367
1761818016722134000,10.130134033203126,1.1032410860061646,-0.5784772038459778,-0.05247306078672409
1761818016732062200,10.140062255859375,1.1553328037261963,-0.6215682029724121,-0.05574102699756622
1761818016741991200,10.1499912109375,1.188295602798462,-0.5669925808906555,-0.07607479393482208
1761818016751919000,10.159919189453126,1.146180272102356,-0.46551015973091125,-0.04927833378314972
1761818016761847000,10.169846923828125,1.0043925046920776,-0.3565075099468231,0.0027363980188965797
1761818016771775000,10.17977490234375,0.7581979632377625,-0.21335382759571075,0.01221645250916481
1761818016781704000,10.189703857421875,0.4039325714111328,-0.035885296761989594,0.003037335118278861
1761818016791632000,10.1996318359375,-0.04313069209456444,0.1498723179101944,0.005114068277180195
1761818016801560000,10.20956005859375,-0.3675417900085449,0.286088228225708,0.016477243974804878
1761818016811489000,10.219489013671875,-0.623823881149292,0.26120468974113464,0.05228504166007042
1761818016821417200,10.229417236328125,-0.8156697750091553,0.159392848610878,0.10569074004888535
1761818016831345200,10.23934521484375,-0.9838516116142273,0.070775106549263,0.14833220839500427
1761818016841274000,10.249274169921875,-1.12232506275177,0.057373277842998505,0.16380544006824493
1761818016851202000,10.2592021484375,-1.186645746231079,0.10335221886634827,0.1770554631948471
1761818016861130000,10.2691298828125,-1.198781967163086,0.19319529831409454,0.19325920939445496
1761818016871059000,10.279058837890625,-1.1829090118408203,0.3155214786529541,0.20274032652378082
1761818016880987000,10.28898681640625,-1.134883999824524,0.4197107255458832,0.1705632209777832
1761818016890915000,10.2989150390625,-1.0701508522033691,0.5308127403259277,0.12948103249073029
1761818016900844000,10.308843994140625,-0.9674094915390015,0.609916090965271,0.09615129977464676
1761818016910772000,10.31877197265625,-0.8196640014648438,0.594374418258667,0.05325629562139511
1761818016920700200,10.3287001953125,-0.6280612349510193,0.4825570583343506,0.012626845389604568
1761818016930628000,10.338628173828125,-0.3814546763896942,0.31510522961616516,-0.013178120367228985
1761818016940556800,10.348556884765625,-0.11134915798902512,0.0914207249879837,-0.02431732416152954
1761818016950484700,10.358484619140626,0.07273891568183899,-0.11813702434301376,-0.026248648762702942
1761818016960412700,10.36841259765625,0.25204983353614807,-0.2409162074327469,-0.062193065881729126
1761818016970341600,10.378341552734375,0.46354901790618896,-0.3444782793521881,-0.11407890170812607
1761818016980269600,10.38826953125,0.7160398364067078,-0.43768972158432007,-0.1458733230829239
1761818016990197800,10.39819775390625,0.9748905897140503,-0.5087420344352722,-0.1356409192085266
1761818017000126700,10.408126708984375,1.1798986196517944,-0.5562483072280884,-0.1001010313630104
1761818017010054700,10.4180546875,1.3230628967285156,-0.5863063335418701,-0.06982968002557755
1761818017019982600,10.427982666015625,1.4012525081634521,-0.5999220609664917,-0.08497560769319534
1761818017029911800,10.437911865234375,1.436431884765625,-0.5591237545013428,-0.12951724231243134
1761818017039839700,10.44783984375,1.4165146350860596,-0.4770269989967346,-0.16089381277561188
1761818017049767700,10.457767578125,1.346267819404602,-0.3792210817337036,-0.1465500295162201
1761818017059695600,10.467695556640624,1.2024034261703491,-0.27522650361061096,-0.09472917020320892
1761818017069624600,10.47762451171875,0.9849442839622498,-0.06915909796953201,-0.04868071898818016
1761818017079552800,10.487552734375,0.6752095818519592,0.17639687657356262,-0.01606631837785244
1761818017089480700,10.497480712890624,0.24098359048366547,0.30901750922203064,0.018382735550403595
1761818017099409700,10.50740966796875,-0.16208690404891968,0.42331159114837646,0.049909237772226334
1761818017109337600,10.517337646484375,-0.4734053611755371,0.36784353852272034,0.08571916818618774
1761818017119265500,10.527265625,-0.7672950625419617,0.16894720494747162,0.11065834015607834
1761818017129194800,10.53719482421875,-1.0236685276031494,0.008865662850439548,0.13056014478206635
1761818017139122700,10.547122802734375,-1.1636309623718262,-0.019625632092356682,0.16050338745117188
1761818017149050600,10.557050537109374,-1.2284139394760132,0.0032650355715304613,0.18998537957668304
1761818017158979600,10.5669794921875,-1.2295364141464233,0.10325554758310318,0.2113093137741089
1761818017168907500,10.576907470703125,-1.2137020826339722,0.24275405704975128,0.2167232483625412
1761818017178835700,10.586835693359374,-1.1944820880889893,0.46290481090545654,0.20034454762935638
1761818017188764700,10.5967646484375,-1.1311742067337036,0.661552369594574,0.1777883768081665
1761818017198692600,10.606692626953125,-1.0050493478775024,0.7313815355300903,0.1521085798740387
1761818017208620800,10.616620849609374,-0.8203499913215637,0.6702033877372742,0.11881932616233826
1761818017218549800,10.6265498046875,-0.5869633555412292,0.5132958292961121,0.08457028120756149
1761818017228477700,10.636477783203125,-0.30034783482551575,0.23695209622383118,0.07080386579036713
1761818017238405600,10.646405517578126,-0.08273082971572876,-0.10214155167341232,0.06366286426782608
1761818017248333600,10.65633349609375,0.07404999434947968,-0.320987343788147,0.030647657811641693
1761818017258262500,10.666262451171875,0.24624386429786682,-0.3770836293697357,-0.04314640536904335
1761818017268190700,10.676190673828126,0.4440637230873108,-0.3691599369049072,-0.13144883513450623
1761818017278118700,10.68611865234375,0.7143492698669434,-0.40409234166145325,-0.18264278769493103
1761818017288047600,10.696047607421875,1.0429325103759766,-0.47551485896110535,-0.18679144978523254
1761818017297975800,10.705975830078126,1.3250528573989868,-0.5696237683296204,-0.17187269032001495
1761818017307903700,10.71590380859375,1.4993144273757935,-0.6318114995956421,-0.14415664970874786
1761818017317832700,10.725832763671875,1.5757468938827515,-0.604461133480072,-0.11390872299671173
1761818017327760600,10.7357607421875,1.5548170804977417,-0.5323954820632935,-0.12871989607810974
1761818017337688600,10.7456884765625,1.4676425457000732,-0.4486129581928253,-0.17011207342147827
1761818017347617500,10.755617431640625,1.301429271697998,-0.33560144901275635,-0.16976213455200195
1761818017357545700,10.765545654296876,1.0444238185882568,-0.13283954560756683,-0.1103571355342865
1761818017367473700,10.7754736328125,0.697328507900238,0.11243892461061478,-0.06277763098478317
1761818017377401600,10.785401611328124,0.3232012391090393,0.3242901861667633,-0.03188789263367653
1761818017387330800,10.795330810546876,-0.00418435875326395,0.5099868178367615,0.018565693870186806
1761818017397258800,10.8052587890625,-0.203754723072052,0.542229950428009,0.06094031408429146
1761818017407186700,10.815186767578124,-0.4255366623401642,0.4657098948955536,0.11610396951436996
1761818017417115600,10.82511572265625,-0.702643871307373,0.42715001106262207,0.17125403881072998
1761818017427043600,10.835043701171875,-1.017419457435608,0.4840497672557831,0.20179569721221924
1761818017436971800,10.8449716796875,-1.2176505327224731,0.5822333097457886,0.20502744615077972
1761818017446900500,10.854900390625,-1.2728216648101807,0.6339199542999268,0.202558696269989
1761818017456828700,10.86482861328125,-1.2241020202636719,0.6370108127593994,0.2241968810558319
1761818017466756600,10.874756591796874,-1.1094883680343628,0.5929983258247375,0.26612409949302673
1761818017476685800,10.884685791015626,-0.9898895025253296,0.5714893341064453,0.27636927366256714
1761818017486613800,10.89461376953125,-0.857826292514801,0.5820165276527405,0.21619434654712677
1761818017496541700,10.904541748046874,-0.6963295340538025,0.5904286503791809,0.13274233043193817
1761818017506470700,10.914470703125,-0.4964214861392975,0.5719087719917297,0.04791612550616264
1761818017516398600,10.924398681640625,-0.24276816844940186,0.47952425479888916,-0.01708045043051243
1761818017526326800,10.934326904296874,-0.041908834129571915,0.2763548791408539,-0.03994155675172806
1761818017536254700,10.944254638671875,0.14700250327587128,0.07294238358736038,-0.05739165470004082
1761818017546183700,10.95418359375,0.390138179063797,-0.11723075062036514,-0.10409444570541382
1761818017556111600,10.964111572265624,0.6494964957237244,-0.304396390914917,-0.16112683713436127
1761818017566039600,10.97403955078125,0.9433784484863281,-0.4412098824977875,-0.19954213500022888
1761818017575968800,10.98396875,1.2121920585632324,-0.5358602404594421,-0.20971301198005676
1761818017585896700,10.993896728515624,1.3905876874923706,-0.5705982446670532,-0.19001814723014832
1761818017595824600,11.00382470703125,1.4512810707092285,-0.5697824954986572,-0.18717016279697418
1761818017605753600,11.013753662109375,1.4082814455032349,-0.5421764254570007,-0.22271323204040527
1761818017615681500,11.023681640625,1.3117914199829102,-0.46175751090049744,-0.25648024678230286
1761818017625609700,11.033609619140625,1.1688930988311768,-0.34302952885627747,-0.24992914497852325
1761818017635538700,11.04353857421875,0.9415978789329529,-0.19527308642864227,-0.19230766594409943
1761818017645466600,11.053466552734376,0.643019437789917,-0.04177088290452957,-0.0987825021147728
1761818017655394600,11.06339453125,0.2360713928937912,0.10803619027137756,-0.003338272450491786
1761818017665323800,11.07332373046875,-0.1369248330593109,0.24700099229812622,0.048658616840839386
1761818017675251700,11.083251708984376,-0.3875384032726288,0.27087756991386414,0.0950535461306572
1761818017685179600,11.0931796875,-0.6628178954124451,0.23958835005760193,0.16017556190490723
1761818017695107600,11.103107666015624,-0.9145374894142151,0.18895713984966278,0.23625648021697998
1761818017705036500,11.11303662109375,-1.0883852243423462,0.10292984545230865,0.2912323772907257
1761818017714964700,11.12296484375,-1.1443206071853638,-0.010098174214363098,0.2965554893016815
1761818017724892700,11.132892578125,-1.1034677028656006,-0.05397375300526619,0.2639208734035492
1761818017734821600,11.142821533203126,-0.9980244040489197,-0.0288204625248909,0.22136487066745758
1761818017744749800,11.152749755859375,-0.8753275275230408,0.03524027764797211,0.19468267261981964
1761818017754677800,11.162677734375,-0.748521089553833,0.12869273126125336,0.17090517282485962
1761818017764606700,11.172606689453126,-0.5790729522705078,0.20952792465686798,0.14398513734340668
1761818017774534700,11.18253466796875,-0.39899933338165283,0.26033759117126465,0.1194683387875557
1761818017784462600,11.192462646484374,-0.24978692829608917,0.2778380215167999,0.08236411213874817
1761818017794391600,11.2023916015625,-0.12710335850715637,0.25327807664871216,0.03935805708169937
1761818017804319700,11.21231982421875,-0.004739361349493265,0.15894144773483276,-0.012536564841866493
1761818017814247700,11.22224755859375,0.1683298945426941,0.050882887095212936,-0.067880779504776
1761818017824177000,11.232177001953126,0.4312959909439087,-0.13666117191314697,-0.1344350427389145
1761818017834104800,11.242104736328125,0.7399489283561707,-0.3351239264011383,-0.19326400756835938
1761818017844032800,11.25203271484375,1.0341120958328247,-0.48305240273475647,-0.2108278125524521
1761818017853960700,11.261960693359375,1.2307977676391602,-0.5692378878593445,-0.19657963514328003
1761818017863889700,11.2718896484375,1.3555200099945068,-0.568824291229248,-0.1750759482383728
1761818017873817600,11.281817626953124,1.3852394819259644,-0.49287015199661255,-0.15817126631736755
1761818017883745800,11.291745849609375,1.268996238708496,-0.3867676854133606,-0.15897473692893982
1761818017893674500,11.301674560546875,1.0517768859863281,-0.2653701603412628,-0.17166869342327118
1761818017903602700,11.311602783203124,0.7864152193069458,-0.11253853142261505,-0.17372198402881622
1761818017913530600,11.321530517578125,0.49070367217063904,0.08964359760284424,-0.15064144134521484
1761818017923459800,11.3314599609375,0.16141419112682343,0.25486689805984497,-0.0920761302113533
1761818017933387800,11.3413876953125,-0.08399130403995514,0.3815494775772095,-0.031746212393045425
1761818017943316700,11.351316650390626,-0.21048666536808014,0.41554686427116394,0.02165975607931614
1761818017953245700,11.36124560546875,-0.29371124505996704,0.409751832485199,0.08975785225629807
1761818017963173600,11.371173583984374,-0.360699862241745,0.40009841322898865,0.13677862286567688
1761818017973101600,11.3811015625,-0.4663426876068115,0.36105698347091675,0.16836291551589966
1761818017983030500,11.391030517578125,-0.675900399684906,0.36293959617614746,0.16789685189723969
1761818017992958500,11.40095849609375,-0.9256964325904846,0.490705281496048,0.1235155463218689
1761818018002886700,11.41088671875,-1.130990743637085,0.6583541631698608,0.08608188480138779
1761818018012815400,11.4208154296875,-1.251291275024414,0.7600587010383606,0.07838188856840134
1761818018022743800,11.430743896484374,-1.2643934488296509,0.7774976491928101,0.09602373093366623
1761818018032671700,11.440671630859375,-1.2029660940170288,0.749488353729248,0.0962090939283371
1761818018042599700,11.450599609375,-1.0651030540466309,0.6935558319091797,0.09355418384075165
1761818018052528600,11.460528564453124,-0.8954695463180542,0.600349485874176,0.07034100592136383
1761818018062456600,11.47045654296875,-0.7088591456413269,0.4966545104980469,0.03292306140065193
1761818018072384500,11.480384521484375,-0.514274537563324,0.39521336555480957,-0.002017610939219594
1761818018082313500,11.4903134765625,-0.2748190462589264,0.22432950139045715,-0.002457564929500222
1761818018092241400,11.500241455078125,-0.08240938931703568,-0.11240377277135849,0.022916235029697418
1761818018102169600,11.510169677734375,0.04399222508072853,-0.3893469572067261,0.051903411746025085
1761818018112098800,11.520098876953124,0.21547450125217438,-0.5677566528320312,0.06508046388626099
1761818018122026800,11.53002685546875,0.40418741106987,-0.6951342821121216,0.033120933920145035
1761818018131954700,11.53995458984375,0.5990114808082581,-0.7872349619865417,0.008920790627598763
1761818018141883600,11.549883544921874,0.8213739991188049,-0.8429045677185059,-0.02117799036204815
1761818018151811600,11.5598115234375,1.0366003513336182,-0.8928122520446777,-0.03368818759918213
1761818018161739500,11.569739501953125,1.1746673583984375,-0.951832115650177,-0.03140745684504509
1761818018171668500,11.57966845703125,1.1985268592834473,-0.9894332885742188,-0.01528547890484333
1761818018181596400,11.589596435546875,1.1427654027938843,-0.9585800766944885,-0.018805645406246185
1761818018191524600,11.599524658203125,1.0127689838409424,-0.8453477621078491,-0.05281314626336098
1761818018201453600,11.60945361328125,0.8101645112037659,-0.6644107699394226,-0.08048711717128754
1761818018211381800,11.6193818359375,0.551859974861145,-0.41414177417755127,-0.07037483155727386
1761818018221309700,11.629309814453125,0.2515861690044403,-0.1675298810005188,-0.04156555235385895
1761818018231238700,11.63923876953125,-0.04077539220452309,0.075651615858078,-0.01967410184442997
1761818018241166600,11.64916650390625,-0.156738743185997,0.23456084728240967,-0.010178867727518082
1761818018251094500,11.659094482421875,-0.23888395726680756,0.25918737053871155,0.022772690281271935
1761818018261023500,11.6690234375,-0.3509734570980072,0.23953376710414886,0.06313609331846237
1761818018270951400,11.678951416015625,-0.43869319558143616,0.23487749695777893,0.11043383181095123
1761818018280879600,11.688879638671875,-0.5444886088371277,0.18439726531505585,0.1089046448469162
1761818018290807600,11.6988076171875,-0.6956879496574402,0.08677563816308975,0.0735626369714737
1761818018300736800,11.70873681640625,-0.8613789677619934,0.09701123088598251,0.08394204080104828
1761818018310664700,11.718664794921875,-0.9708647131919861,0.14080213010311127,0.1191282570362091
1761818018320592600,11.728592529296876,-0.973482072353363,0.10188828408718109,0.14307327568531036
1761818018330521600,11.738521484375,-0.9079035520553589,0.025045165792107582,0.1571749746799469
1761818018340449500,11.748449462890624,-0.7900315523147583,0.04282283037900925,0.16161872446537018
1761818018350377500,11.75837744140625,-0.5985561013221741,0.15301884710788727,0.13174977898597717
1761818018360306400,11.768306396484375,-0.35952141880989075,0.24469603598117828,0.08889605104923248
1761818018370234400,11.778234375,-0.15300126373767853,0.2366602122783661,0.06429802626371384
1761818018380162600,11.78816259765625,0.002752643311396241,0.1800302267074585,0.05651440843939781
1761818018390091800,11.798091796875,0.25400298833847046,0.11182932555675507,0.02642681449651718
1761818018400019700,11.808019775390624,0.5646013617515564,-0.022956714034080505,-0.0453011691570282
1761818018409947600,11.81794775390625,0.8693990707397461,-0.2027893364429474,-0.0972844734787941
1761818018419876600,11.827876708984375,1.099839448928833,-0.3944961726665497,-0.1077783927321434
1761818018429804500,11.837804443359374,1.1602966785430908,-0.4900072515010834,-0.09278745949268341
1761818018439732500,11.847732421875,1.0313754081726074,-0.40498238801956177,-0.08824650198221207
1761818018449661400,11.857661376953125,0.7843922972679138,-0.21360816061496735,-0.09490653872489929
1761818018459589400,11.86758935546875,0.5366884469985962,0.01016661711037159,-0.09053176641464233
1761818018469517600,11.877517578125,0.28615185618400574,0.18291735649108887,-0.08654501289129257
1761818018479446500,11.887446533203125,0.05777834355831146,0.30149832367897034,-0.09411238133907318
1761818018489374700,11.897374755859374,-0.1353626251220703,0.07607026398181915,-0.04172134771943092
1761818018499302700,11.907302734375,-0.2246679961681366,-0.3792160153388977,0.0017608820926398039
1761818018509231600,11.917231689453125,-0.13370905816555023,-0.7265865206718445,-0.01979128085076809
1761818018519159600,11.92715966796875,0.0003968109958805144,-0.9139183163642883,-0.06468764692544937
1761818018529087500,11.93708740234375,0.07827829569578171,-0.8767057061195374,-0.0829087346792221
1761818018539016400,11.947016357421875,0.09106919169425964,-0.7730168700218201,-0.08940284699201584
1761818018548944400,11.9569443359375,0.1042579635977745,-0.9381195306777954,-0.21155965328216553
1761818018558872600,11.96687255859375,0.11885900795459747,-0.9624517560005188,-0.248978391289711
1761818018568801500,11.976801513671875,0.104838527739048,-0.831305205821991,-0.1954675018787384
1761818018578729700,11.986729736328124,0.027643078938126564,-0.7009932398796082,-0.07286408543586731
1761818018588657700,11.99665771484375,-0.08254733681678772,-0.46495091915130615,0.04513392224907875
1761818018598586600,12.006586669921875,-0.19592583179473877,-0.19947342574596405,0.11383388936519623
1761818018608514600,12.0165146484375,-0.31130728125572205,-0.10449311882257462,0.13194365799427032
1761818018618442500,12.0264423828125,-0.3743879795074463,-0.02424089051783085,0.11382696777582169
1761818018628371500,12.036371337890625,-0.36147192120552063,0.08240193128585815,0.0756835788488388
1761818018638299600,12.046299560546874,-0.297861248254776,0.19002826511859894,0.03616439551115036
1761818018648227600,12.0562275390625,-0.19022586941719055,0.2938827574253082,0.01805942691862583
1761818018658156500,12.066156494140625,-0.06083032861351967,0.3732055425643921,0.015043930150568485
1761818018668084700,12.076084716796874,0.05112816393375397,0.40089017152786255,0.016288425773382187
1761818018678012700,12.0860126953125,0.09191474318504333,0.37164998054504395,0.011700332164764404
1761818018687941600,12.095941650390625,0.0667654499411583,0.2878440320491791,0.006164685357362032
1761818018697869600,12.10586962890625,0.02027837373316288,0.155596524477005,-0.0046179210767149925
1761818018707797500,12.115797607421875,-0.010789263993501663,-0.000060986389144090936,-0.011427091434597969
1761818018717726500,12.1257265625,-0.014789865352213383,-0.1510997712612152,-0.010341853834688663
1761818018727654700,12.135654541015626,-0.0023616913240402937,-0.2602779269218445,-0.0025358619168400764
1761818018737582600,12.14558251953125,0.005592105444520712,-0.3108105957508087,-0.0002812298189383
1761818018747511600,12.155511474609375,0.0030154972337186337,-0.31129902601242065,0.005419266410171986
1761818018757439500,12.165439453125,-0.0038365498185157776,-0.26404309272766113,0.0005589975044131279
1761818018767367700,12.17536767578125,-0.002834934974089265,-0.1854707896709442,0.0030306773260235786
1761818018777296600,12.185296630859375,0.0016261261189356446,-0.09178344905376434,0.003765976056456566
1761818018787224600,12.195224609375,0.011653993278741837,0.00008948221511673182,0.011769307777285576
1761818018797152500,12.205152587890625,0.020960409194231033,0.07577678561210632,0.013652695342898369
1761818018807081700,12.215081787109375,0.02570190094411373,0.1262335628271103,0.023907730355858803
1761818018817009700,12.225009765625,0.03327886015176773,0.1325705647468567,0.028895031660795212
1761818018826937600,12.2349375,0.03098294883966446,0.10476822406053543,0.029229789972305298
1761818018836865500,12.244865478515624,0.019106583669781685,0.052491169422864914,0.014314224012196064
1761818018846794500,12.25479443359375,0.005544168874621391,0.00914183259010315,0.00008628641808172688
1761818018856722700,12.26472265625,-0.006721019744873047,-0.02707982063293457,-0.010699516162276268
1761818018866650600,12.274650634765624,-0.007665909361094236,-0.047631967812776566,-0.007954861968755722
1761818018876579600,12.28457958984375,-0.004315386060625315,-0.05386136844754219,-0.00001304948909819359
1761818018886507500,12.294507568359375,-0.005075452383607626,-0.05167411267757416,0.006686664652079344
1761818018896435500,12.304435546875,-0.008607069961726665,-0.04953719303011894,0.0046842340379953384
1761818018906364700,12.31436474609375,-0.014214089140295982,-0.03989708051085472,0.005708485841751099
1761818018916292600,12.324292724609375,0.0002924150903709233,-0.1476733535528183,0.008251804858446121
1761818018926220500,12.334220458984374,0.16875998675823212,-0.5791954398155212,0.03711408004164696
1761818018936149500,12.3441494140625,0.3083386719226837,-0.693450927734375,0.004535363521426916
