time,seconds_elapsed,z,y,x
1761838389070893800,0.077893798828125,0.1186700314283371,0.00330736069008708,-0.14226233959197998
1761838389080962800,0.087962890625,0.1221861019730568,0.03800997883081436,-0.11195141822099686
1761838389091032800,0.09803271484375,0.11768215894699097,0.0689212903380394,-0.08742289990186691
1761838389101101800,0.108101806640625,0.1161765605211258,0.09746838361024857,-0.09089094400405884
1761838389111171800,0.118171875,0.12192845344543457,0.123326875269413,-0.14069657027721405
1761838389121240800,0.12824072265625,0.12366627156734467,0.10854044556617737,-0.16059081256389618
1761838389131310800,0.138310791015625,0.12373577803373337,0.10595185309648514,-0.14987532794475555
1761838389141379800,0.1483798828125,0.1242607980966568,0.11498232930898666,-0.11886535584926605
1761838389151448800,0.15844873046875,0.10496459156274796,0.12124848365783691,-0.10114973783493042
1761838389161518800,0.168518798828125,0.07471141964197159,0.13304543495178223,-0.10610722005367279
1761838389171587800,0.178587890625,0.039859697222709656,0.15468549728393555,-0.12576082348823547
1761838389181657900,0.188657958984375,0.01762002520263195,0.16935059428215027,-0.14466679096221924
1761838389191726800,0.198726806640625,0.02507900632917881,0.18634314835071564,-0.16745838522911072
1761838389201796900,0.208796875,0.03543122485280037,0.18645942211151123,-0.20288050174713135
1761838389211865900,0.218865966796875,0.05395590886473656,0.18317362666130066,-0.23114623129367828
1761838389221935900,0.228935791015625,0.06317675113677979,0.18973658978939056,-0.24219746887683868
1761838389232004900,0.2390048828125,0.06658746302127838,0.2103893905878067,-0.23639310896396637
1761838389242073900,0.249073974609375,0.07005376368761063,0.23646679520606995,-0.22883053123950958
1761838389252143900,0.259143798828125,0.0852084830403328,0.25129714608192444,-0.21613897383213043
1761838389262212900,0.269212890625,0.10015951842069626,0.25414103269577026,-0.22033338248729706
1761838389272283000,0.279282958984375,0.12435087561607361,0.24718698859214783,-0.23765137791633606
1761838389282351600,0.2893515625,0.14197935163974762,0.2145189344882965,-0.26161375641822815
1761838389292422000,0.299421875,0.1549271047115326,0.1719626933336258,-0.26676005125045776
1761838389302491000,0.309490966796875,0.1636662781238556,0.1460902988910675,-0.2573026716709137
1761838389312559900,0.319559814453125,0.17605850100517273,0.126889169216156,-0.23712708055973053
1761838389322630000,0.3296298828125,0.18799816071987152,0.1180250272154808,-0.20393812656402588
1761838389332699000,0.339698974609375,0.19825558364391327,0.10929518938064575,-0.15571679174900055
1761838389342769000,0.349768798828125,0.2007984071969986,0.0888088271021843,-0.10152508318424225
1761838389352838000,0.359837890625,0.19572696089744568,0.061192914843559265,-0.04135042428970337
1761838389362908000,0.369907958984375,0.1909959316253662,0.057535722851753235,0.022664958611130714
1761838389372977000,0.379976806640625,0.1787392646074295,0.05306800454854965,0.07624483108520508
1761838389383046000,0.3900458984375,0.16631633043289185,0.040853288024663925,0.11377977579832077
1761838389393115600,0.40011572265625,0.15981395542621613,0.01795862428843975,0.12653686106204987
1761838389403185000,0.410184814453125,0.15486639738082886,-0.013127592392265797,0.13500067591667175
1761838389413254700,0.420254638671875,0.14916802942752838,-0.03822309151291847,0.12377172708511353
1761838389423324000,0.430323974609375,0.14888784289360046,-0.0578879751265049,0.11126931011676788
1761838389433394000,0.440393798828125,0.1496039628982544,-0.0748043805360794,0.10772597789764404
1761838389443463000,0.450462890625,0.14735227823257446,-0.0771065205335617,0.10500072687864304
1761838389453531600,0.46053173828125,0.14947135746479034,-0.07891321182250977,0.09925282001495361
1761838389463602000,0.470601806640625,0.1498257964849472,-0.0780879557132721,0.08898112922906876
1761838389473671000,0.4806708984375,0.15350762009620667,-0.0832022950053215,0.0716085284948349
1761838389483741000,0.490740966796875,0.1612185835838318,-0.09755256772041321,0.05192013084888458
1761838389493810000,0.500809814453125,0.15761452913284302,-0.11143722385168076,0.031537625938653946
1761838389503879700,0.510879638671875,0.15139968693256378,-0.12011877447366714,0.02820284478366375
1761838389513949000,0.520948974609375,0.14777645468711853,-0.12060000747442245,0.044363707304000854
1761838389524018000,0.531017822265625,0.14010556042194366,-0.11208458244800568,0.07046080380678177
1761838389534088000,0.541087890625,0.1272539496421814,-0.09876424819231033,0.09786713123321533
1761838389544156700,0.55115673828125,0.11363492906093597,-0.07892677187919617,0.11571997404098511
1761838389554227000,0.56122705078125,0.09852095693349838,-0.06665252894163132,0.12867465615272522
1761838389564295700,0.571295654296875,0.0768284797668457,-0.06046024709939957,0.12743130326271057
1761838389574366000,0.581365966796875,0.06213822215795517,-0.044085532426834106,0.11506384611129761
1761838389584434700,0.5914345703125,0.04782102257013321,-0.046601854264736176,0.09995779395103455
1761838389594504000,0.60150390625,0.03885096311569214,-0.04102626070380211,0.07862880080938339
1761838389604573700,0.61157373046875,0.03668332099914551,-0.05402863398194313,0.05508365482091904
1761838389614643000,0.621642822265625,0.031913600862026215,-0.0661420226097107,0.04806249588727951
1761838389624713000,0.631712890625,0.02797999419271946,-0.07245490700006485,0.05312349647283554
1761838389634782000,0.641781982421875,0.024662494659423828,-0.06873153895139694,0.06347546726465225
1761838389644852000,0.65185205078125,0.020902520045638084,-0.060810841619968414,0.06940281391143799
1761838389654920700,0.661920654296875,0.017283016815781593,-0.049560319632291794,0.064852274954319
1761838389664990000,0.671989990234375,0.012106592766940594,-0.054390452802181244,0.04887240752577782
1761838389675059700,0.682059814453125,0.012633099220693111,-0.06697415560483932,0.033819954842329025
1761838389685129000,0.69212890625,0.012370362877845764,-0.07301061600446701,0.02837545797228813
1761838389695198700,0.70219873046875,0.010295494459569454,-0.06555269658565521,0.029130466282367706
1761838389705268000,0.71226806640625,0.012797928415238857,-0.05572932958602905,0.03340430185198784
1761838389715337700,0.722337646484375,0.012533742003142834,-0.042203664779663086,0.032546497881412506
1761838389725407000,0.732406982421875,0.018760034814476967,-0.03612168878316879,0.026195071637630463
1761838389735475700,0.742475830078125,0.024883173406124115,-0.04123389348387718,0.0022508567199110985
1761838389745546000,0.7525458984375,0.03397047147154808,-0.05159538984298706,-0.029078001156449318
1761838389755611100,0.762611083984375,0.03909359127283096,-0.06619110703468323,-0.05338786914944649
1761838389765681200,0.77268115234375,0.049242470413446426,-0.07049054652452469,-0.0641903355717659
1761838389775750100,0.782750244140625,0.05785646662116051,-0.06882128119468689,-0.05626796558499336
1761838389785820000,0.79281982421875,0.06082017347216606,-0.06202629581093788,-0.04323370009660721
1761838389795889200,0.80288916015625,0.06183057650923729,-0.060556765645742416,-0.021908974274992943
1761838389805958100,0.812958251953125,0.060840338468551636,-0.05436323583126068,-0.0033213766291737556
1761838389816028200,0.823028076171875,0.05658966675400734,-0.05754544585943222,0.004800199531018734
1761838389826097000,0.833096923828125,0.054892685264348984,-0.07138445228338242,0.0031978185288608074
1761838389836167200,0.843167236328125,0.04560491070151329,-0.03939563035964966,0.014792157337069511
1761838389846236000,0.85323583984375,0.03561621531844139,-0.01769240014255047,0.032075151801109314
1761838389856306200,0.86330615234375,0.031735457479953766,-0.0026351548731327057,0.03867579624056816
1761838389866375200,0.873375244140625,0.02861752361059189,-0.0003801928833127022,0.0323035754263401
1761838389876444200,0.883444091796875,0.028728045523166656,-0.008804038166999817,0.02230500802397728
1761838389886514200,0.89351416015625,0.02684672921895981,-0.012939990498125553,0.007554253563284874
1761838389896583200,0.903583251953125,0.02150469459593296,-0.007641100324690342,-0.004496816545724869
1761838389906653200,0.913653076171875,0.01914026029407978,-0.001697358675301075,-0.01766771636903286
1761838389916722200,0.92372216796875,0.017232904210686684,0.0034859515726566315,-0.02320815622806549
1761838389926792200,0.933792236328125,0.019612614065408707,0.009402886964380741,-0.032421521842479706
1761838389936861000,0.94386083984375,0.02311520464718342,0.0013502873480319977,-0.036027174443006516
1761838389946930200,0.95393017578125,0.027925288304686546,-0.004283757880330086,-0.039398543536663055
1761838389957000000,0.964,0.02884887158870697,-0.005009202286601067,-0.04229366406798363
1761838389967069200,0.974069091796875,0.031063459813594818,-0.0023665698245167732,-0.043271180242300034
1761838389977139000,0.984138916015625,0.03119129128754139,-0.0027500642463564873,-0.03264357149600983
1761838389987208200,0.994208251953125,0.0346255823969841,-0.008344374597072601,-0.014222536236047745
1761838389997278000,1.00427783203125,0.037840284407138824,-0.018426835536956787,0.00013456493616104126
1761838390007347200,1.01434716796875,0.03893156722187996,-0.039691295474767685,0.016008134931325912
1761838390017416000,1.024416015625,0.036448437720537186,-0.05685509741306305,0.027996620163321495
1761838390027486200,1.034486328125,0.029289573431015015,-0.06985782831907272,0.05071797966957092
1761838390037555000,1.044554931640625,0.02318986877799034,-0.05758677423000336,0.0722549632191658
1761838390047625000,1.054625,0.01330573856830597,-0.058105744421482086,0.08101922273635864
1761838390057694200,1.064694091796875,0.001281033968552947,-0.06905373185873032,0.0764969065785408
1761838390067764000,1.074763916015625,-0.01471918635070324,-0.07126031070947647,0.06867099553346634
1761838390077833200,1.084833251953125,-0.03640024736523628,-0.06443409621715546,0.06479503214359283
1761838390087902000,1.09490185546875,-0.061872292309999466,-0.048077695071697235,0.07322727888822556
1761838390097972200,1.10497216796875,-0.08945172280073166,-0.029420919716358185,0.08326181024312973
1761838390108041000,1.115041015625,-0.11300425976514816,-0.009780555963516235,0.08945532143115997
1761838390118111200,1.125111328125,-0.12529902160167694,0.006994961760938168,0.08517508953809738
1761838390128180000,1.135179931640625,-0.13587839901447296,0.015974940732121468,0.07402883470058441
1761838390138250200,1.145250244140625,-0.14449132978916168,0.015578395687043667,0.05779100954532623
1761838390148319000,1.155319091796875,-0.13902780413627625,0.010572090744972229,0.03665517643094063
1761838390158388200,1.16538818359375,-0.14102065563201904,0.0055557601153850555,0.02433379553258419
1761838390168458000,1.1754580078125,-0.1353411078453064,-0.004967019893229008,0.012893091887235641
1761838390178527200,1.18552734375,-0.1234852522611618,-0.020804040133953094,0.006695384159684181
1761838390188597200,1.19559716796875,-0.11236058920621872,-0.02314845286309719,0.0006911363452672958
1761838390198666000,1.205666015625,-0.11155232042074203,-0.015418892726302147,-0.011628646403551102
1761838390208735000,1.21573486328125,-0.0973876565694809,-0.004056601785123348,-0.025914281606674194
1761838390218805000,1.225804931640625,-0.05855211243033409,-0.0023047737777233124,-0.039453256875276566
1761838390228874200,1.235874267578125,-0.020711624994874,-0.014348355121910572,-0.045996494591236115
1761838390238944000,1.245944091796875,0.01786080189049244,-0.022897634655237198,-0.041438229382038116
1761838390249013200,1.25601318359375,0.05077655613422394,-0.030110400170087814,-0.035418491810560226
1761838390259083000,1.2660830078125,0.07682760059833527,-0.038304682821035385,-0.0391106978058815
1761838390269152300,1.27615234375,0.10063016414642334,-0.042480506002902985,-0.04534183815121651
1761838390279221000,1.286220947265625,0.10755597800016403,-0.04057128727436066,-0.04408269748091698
1761838390289291300,1.296291259765625,0.10693106055259705,-0.02687084674835205,-0.03216686472296715
1761838390299360000,1.306360107421875,0.09565497189760208,-0.008102751336991787,-0.019040144979953766
1761838390309430000,1.316429931640625,0.07839641720056534,0.012323170900344849,-0.004487020429223776
1761838390319499000,1.3264990234375,0.056605901569128036,0.0364769771695137,-0.001476316712796688
1761838390329569000,1.336569091796875,0.03090868517756462,0.04420022666454315,-0.015912074595689774
1761838390339638000,1.346637939453125,0.010198080912232399,0.042902737855911255,-0.03997240215539932
1761838390349707000,1.35670703125,-0.004722426645457745,0.04554179310798645,-0.05417656898498535
1761838390359777000,1.366777099609375,-0.01396652590483427,0.04810961335897446,-0.0649690255522728
1761838390369846000,1.376845947265625,-0.023871079087257385,0.0336533859372139,-0.06837789714336395
1761838390379916300,1.386916259765625,-0.0196896493434906,0.023048678413033485,-0.074761763215065
1761838390389985000,1.396985107421875,-0.0008962486172094941,0.012327004224061966,-0.0786377415060997
1761838390400054000,1.407053955078125,0.07529732584953308,-0.042321592569351196,-0.04874296113848686
1761838390410124000,1.4171240234375,0.10922089219093323,-0.06242707371711731,-0.010543782263994217
1761838390420193300,1.427193359375,0.13139916956424713,-0.07408266514539719,0.010714901611208916
1761838390430263000,1.437262939453125,0.143960639834404,-0.06988268345594406,0.019636208191514015
1761838390440332300,1.447332275390625,0.13908998668193817,-0.03869253396987915,0.020617850124835968
1761838390450402000,1.457402099609375,0.11573563516139984,0.0020468528382480145,0.012971735559403896
1761838390460471000,1.467470947265625,0.09859712421894073,0.02688056230545044,0.0012604841031134129
1761838390470540000,1.4775400390625,0.10753581672906876,0.0351942703127861,0.009175189770758152
1761838390480610000,1.487610107421875,0.11163628101348877,0.04060395061969757,0.020885374397039413
1761838390490679000,1.497678955078125,0.104363352060318,0.043091945350170135,0.02440362051129341
1761838390500749000,1.5077490234375,0.09304225444793701,0.04577348381280899,0.013362154364585876
1761838390510818000,1.517818115234375,0.08200187981128693,0.041505567729473114,0.009726284071803093
1761838390520888000,1.52788818359375,0.06416002660989761,0.043974585831165314,-0.0005705617368221283
1761838390530957000,1.53795703125,0.04408326745033264,0.04559367895126343,-0.009655446745455265
1761838390541026000,1.548026123046875,0.03035121224820614,0.04604801535606384,-0.018187150359153748
1761838390551096300,1.558096435546875,0.009597974829375744,0.04352536052465439,-0.02031628228724003
1761838390561165000,1.5681650390625,-0.006273133680224419,0.04921067878603935,-0.022448675706982613
1761838390571235000,1.578235107421875,-0.014431282877922058,0.04462011158466339,-0.028329357504844666
1761838390581304000,1.588303955078125,-0.02202954888343811,0.0242764912545681,-0.041214000433683395
1761838390591373300,1.598373291015625,-0.02480250597000122,0.0006441771984100342,-0.04543829709291458
1761838390601443000,1.608443115234375,-0.028245173394680023,-0.01499417144805193,-0.04375491291284561
1761838390611512000,1.618511962890625,-0.028787408024072647,-0.02018749713897705,-0.020132895559072495
1761838390621582000,1.62858203125,-0.029780233278870583,-0.01975126937031746,0.0028238175436854362
1761838390631651000,1.638651123046875,-0.02909024804830551,-0.018496612086892128,0.030107267200946808
1761838390641721000,1.64872119140625,-0.029727807268500328,-0.01188797876238823,0.05557188019156456
1761838390651790000,1.6587900390625,-0.028111165389418602,-0.012373771518468857,0.07345245778560638
1761838390661859000,1.668859130859375,-0.022233834490180016,-0.008161980658769608,0.07939743250608444
1761838390671929000,1.67892919921875,-0.015383281745016575,-0.010944484733045101,0.07760284841060638
1761838390681998000,1.688998046875,-0.008814861997961998,-0.011612937785685062,0.07041098177433014
1761838390692068000,1.699068115234375,-0.00185867038089782,-0.0000746333971619606,0.06241932511329651
1761838390702137000,1.70913720703125,0.00009768770541995764,0.013065403327345848,0.04985612630844116
1761838390712206000,1.7192060546875,0.007351539563387632,0.023543599992990494,0.027926577255129814
1761838390722276000,1.729276123046875,0.014236344024538994,0.009800358675420284,0.0021157548762857914
1761838390732345000,1.739344970703125,0.02078337036073208,-0.019044946879148483,-0.015786705538630486
1761838390742415000,1.7494150390625,0.016186486929655075,0.005016712471842766,-0.06401468813419342
1761838390752484000,1.759484130859375,0.020787052810192108,0.00018982775509357452,-0.10365378856658936
1761838390762557400,1.769557373046875,0.026665715500712395,-0.01567089557647705,-0.11838878691196442
1761838390772626400,1.77962646484375,0.02592240460216999,-0.01778554916381836,-0.10797496885061264
1761838390782695400,1.7896953125,0.025481384247541428,-0.01869954541325569,-0.08706409484148026
1761838390792765400,1.799765380859375,0.01900496333837509,-0.018262125551700592,-0.06379518657922745
1761838390802834400,1.80983447265625,0.008332610130310059,-0.024487797170877457,-0.042309604585170746
1761838390812904400,1.819904541015625,-0.0019623409025371075,-0.027337104082107544,-0.016458973288536072
1761838390822973400,1.829973388671875,-0.017964743077754974,-0.037935420870780945,0.012448042631149292
1761838390833042400,1.84004248046875,-0.03501785174012184,-0.05194105952978134,0.03869839385151863
1761838390843112400,1.850112548828125,-0.05581261217594147,-0.058743566274642944,0.07077084481716156
1761838390853181400,1.860181396484375,-0.07286451756954193,-0.06584476679563522,0.10360341519117355
1761838390863251500,1.87025146484375,-0.09022140502929688,-0.07110344618558884,0.12908081710338593
1761838390873320700,1.88032080078125,-0.10839143395423889,-0.07607836276292801,0.14529556035995483
1761838390883389400,1.890389404296875,-0.1261802762746811,-0.07727918028831482,0.1582808494567871
1761838390893459500,1.90045947265625,-0.1427004039287567,-0.08191362023353577,0.1519148349761963
1761838390903528400,1.910528564453125,-0.15638478100299835,-0.07883899658918381,0.1437128484249115
1761838390913598500,1.920598388671875,-0.16342364251613617,-0.07169998437166214,0.13382044434547424
1761838390923667500,1.93066748046875,-0.17117583751678467,-0.05409516394138336,0.12782993912696838
1761838390933737500,1.940737548828125,-0.17787618935108185,-0.0366460457444191,0.11475532501935959
1761838390943806500,1.950806396484375,-0.17808818817138672,-0.02070276439189911,0.10224805772304535
1761838390953875500,1.96087548828125,-0.1755315065383911,-0.0018892250955104828,0.08048291504383087
1761838390963945500,1.970945556640625,-0.16737690567970276,0.007414261810481548,0.059568051248788834
1761838390974014500,1.981014404296875,-0.15232326090335846,0.007964330725371838,0.025492176413536072
1761838390984084500,1.99108447265625,-0.13668358325958252,0.030621707439422607,0.0006219800561666489
1761838390994153500,2.001153564453125,-0.1181400939822197,0.03856322914361954,-0.013903569430112839
1761838391004222500,2.011222412109375,-0.09744706749916077,0.0493604838848114,-0.0403229258954525
1761838391014292500,2.02129248046875,-0.07851333916187286,0.04769638553261757,-0.05408423766493797
1761838391024361500,2.031361572265625,-0.06031249836087227,0.046589575707912445,-0.06522983312606812
1761838391034431500,2.041431396484375,-0.04329504445195198,0.03796585276722908,-0.07117100059986115
1761838391044500200,2.051500244140625,-0.027670545503497124,0.03614584729075432,-0.060224082320928574
1761838391054570500,2.061570556640625,-0.013797125779092312,0.031143249943852425,-0.04097533971071243
1761838391064639500,2.071639404296875,0.000010565272532403469,0.01793849840760231,-0.01756402663886547
1761838391074708500,2.08170849609375,0.0074608176946640015,0.0043638963252305984,0.006903001572936773
1761838391084778500,2.091778564453125,0.012838538736104965,-0.006628567352890968,0.03524622321128845
1761838391094847500,2.101847412109375,0.014605339616537094,-0.017419898882508278,0.06230504438281059
1761838391104917500,2.11191748046875,0.020676014944911003,-0.03085980750620365,0.08058817684650421
1761838391114986500,2.121986572265625,0.026303837075829506,-0.04594607278704643,0.08638893067836761
1761838391125055500,2.132055419921875,0.026659633964300156,-0.05969756841659546,0.09491158276796341
1761838391135125500,2.14212548828125,0.026736585423350334,-0.07031334936618805,0.09779928624629974
1761838391145194500,2.152194580078125,0.024860654026269913,-0.07519812136888504,0.09871780872344971
1761838391155264300,2.16226416015625,0.023726405575871468,-0.08257125318050385,0.09671972692012787
1761838391165333500,2.17233349609375,0.018648024648427963,-0.08746987581253052,0.09157982468605042
1761838391175402500,2.182402587890625,0.019169464707374573,-0.08322421461343765,0.09224003553390503
1761838391185472500,2.192472412109375,0.01692947931587696,-0.09492667764425278,0.08367610722780228
1761838391195541500,2.20254150390625,0.015366329811513424,-0.09887208044528961,0.07572556287050247
1761838391205611500,2.212611572265625,0.009406442753970623,-0.08963117003440857,0.07178568094968796
1761838391215680300,2.22268017578125,0.006213918328285217,-0.08098423480987549,0.07073020935058594
1761838391225749500,2.23274951171875,-0.0008980534039437771,-0.07173161953687668,0.0627756118774414
1761838391235819500,2.242819580078125,0.0005770863499492407,-0.06785468757152557,0.05449872836470604
1761838391245888500,2.252888427734375,-0.007139955647289753,-0.05948730930685997,0.03379611298441887
1761838391255958500,2.26295849609375,-0.02143230475485325,-0.05073806643486023,0.012525280006229877
1761838391266027500,2.273027587890625,-0.03342238813638687,-0.04520481824874878,0.004958707839250565
1761838391276097500,2.28309765625,-0.046781595796346664,-0.03005841001868248,-0.007973890751600266
1761838391286166500,2.29316650390625,-0.05559053272008896,-0.017771117389202118,-0.012139873579144478
1761838391296235500,2.303235595703125,-0.06631296128034592,-0.0071317339316010475,-0.014563861303031445
1761838391306305500,2.313305419921875,-0.0740201473236084,-0.0047303615137934685,-0.02196105569601059
1761838391316374500,2.32337451171875,-0.07868830114603043,-0.0007907794788479805,-0.027711238712072372
1761838391326444300,2.3334443359375,-0.08338958024978638,0.0016987435519695282,-0.026423867791891098
1761838391336513500,2.343513427734375,-0.08106980472803116,0.0015317951329052448,-0.02196531742811203
1761838391346582500,2.35358251953125,-0.07702339440584183,-0.010558689944446087,-0.02564527466893196
1761838391356652500,2.363652587890625,-0.06767100840806961,-0.019529249519109726,-0.027316255494952202
1761838391366721300,2.37372119140625,-0.06094440072774887,-0.018733495846390724,-0.01743779331445694
1761838391376791600,2.38379150390625,-0.05156082287430763,-0.02006659284234047,-0.004232444334775209
1761838391386860300,2.3938603515625,-0.04306427389383316,-0.02741585113108158,0.010353955440223217
1761838391396929500,2.403929443359375,-0.03603925555944443,-0.03358801454305649,0.028462624177336693
1761838391406999300,2.413999267578125,-0.025071825832128525,-0.031339772045612335,0.04154912754893303
1761838391417068500,2.424068603515625,-0.024662747979164124,-0.03115399368107319,0.05284275487065315
1761838391427138600,2.434138671875,-0.020820606499910355,-0.02934943325817585,0.04895586892962456
1761838391437207600,2.44420751953125,-0.01886921189725399,-0.028177089989185333,0.04604730382561684
1761838391447276300,2.4542763671875,-0.018233248963952065,-0.03198780491948128,0.03271711617708206
1761838391457346600,2.4643466796875,-0.01586347259581089,-0.03560994565486908,0.01674840785562992
1761838391467415600,2.47441552734375,-0.013323349878191948,-0.029403185471892357,0.00885666161775589
1761838391477485300,2.4844853515625,-0.008755997754633427,-0.02567923441529274,0.004316418431699276
1761838391487554600,2.494554443359375,-0.006617746315896511,-0.024940207600593567,-0.003342833137139678
1761838391497623600,2.50462353515625,-0.0006326991133391857,-0.026393193751573563,-0.006959945894777775
1761838391507693600,2.514693603515625,0.0037684410344809294,-0.028937045484781265,-0.010348551906645298
1761838391517762300,2.52476220703125,0.0103234201669693,-0.027863599359989166,-0.006653732620179653
1761838391527832600,2.53483251953125,0.014741071499884129,-0.02771153301000595,0.008701521903276443
1761838391537901300,2.5449013671875,0.01772945001721382,-0.02224571816623211,0.02622978575527668
1761838391547970600,2.554970458984375,0.02458362653851509,-0.03463980555534363,0.029169917106628418
1761838391558040300,2.565040283203125,0.03395077958703041,-0.047102175652980804,0.03345170244574547
1761838391568109600,2.575109619140625,0.03449646010994911,-0.043427541851997375,0.044079843908548355
1761838391578179300,2.585179443359375,0.036300111562013626,-0.039357349276542664,0.045890435576438904
1761838391588248600,2.59524853515625,0.0438523031771183,-0.06009591743350029,0.025805406272411346
1761838391598318600,2.605318603515625,0.04170641303062439,-0.03133929520845413,0.01700728014111519
1761838391608387600,2.6153876953125,0.041309334337711334,-0.028534185141324997,0.013684454374015331
1761838391618456300,2.625456298828125,0.039851944893598557,-0.028918394818902016,0.008788404986262321
1761838391628526300,2.6355263671875,0.03873208537697792,-0.03565911948680878,0.0022346321493387222
1761838391638595600,2.645595703125,0.034644998610019684,-0.029510673135519028,-0.0006580790504813194
1761838391648665300,2.655665283203125,0.0245169959962368,-0.02674764394760132,-0.0012644806411117315
1761838391658734600,2.665734619140625,0.01579410210251808,-0.017506103962659836,-0.0020009095314890146
1761838391668803300,2.67580322265625,0.005168088711798191,-0.010523827746510506,-0.005438784137368202
1761838391678873600,2.68587353515625,-0.001321998774074018,-0.013633642345666885,-0.012708580121397972
1761838391688942300,2.6959423828125,-0.0063316710293293,-0.010566214099526405,-0.017229029908776283
1761838391699012600,2.7060126953125,-0.012847870588302612,-0.013932344503700733,-0.017956670373678207
1761838391709081300,2.716081298828125,-0.013743758201599121,-0.012787184678018093,-0.013320373371243477
1761838391719150600,2.726150634765625,-0.017346439883112907,-0.020132049918174744,-0.0024160388857126236
1761838391729220400,2.736220458984375,-0.016892902553081512,-0.02100183814764023,0.009307729080319405
1761838391739289600,2.74628955078125,-0.015998804941773415,-0.02099389210343361,0.01997687667608261
1761838391749359400,2.756359375,-0.016947954893112183,-0.021184042096138,0.02977251447737217
1761838391759425300,2.76642529296875,-0.020218051970005035,-0.02062797360122204,0.034742243587970734
1761838391769494300,2.776494384765625,-0.016422513872385025,-0.015992742031812668,0.03364795073866844
1761838391779564300,2.786564208984375,-0.014021504670381546,-0.017731277272105217,0.035190850496292114
1761838391789633300,2.79663330078125,-0.00850876048207283,-0.015749884769320488,0.032848067581653595
1761838391799703300,2.806703369140625,-0.0017679823795333505,-0.007429253309965134,0.02838173508644104
1761838391809772300,2.816772216796875,0.0008866566931828856,-0.010431434959173203,0.014521313831210136
1761838391819841300,2.82684130859375,0.001980905421078205,-0.01015170756727457,-0.006095894146710634
1761838391829911300,2.836911376953125,0.0058760447427630424,-0.01062761340290308,-0.021682044491171837
1761838391839980300,2.846980224609375,0.003482609987258911,-0.01383870467543602,-0.03978680074214935
1761838391850050600,2.857050537109375,-0.0008623370667919517,-0.021555747836828232,-0.04650568962097168
1761838391860119300,2.867119384765625,-0.004917687736451626,-0.027124768123030663,-0.04394949972629547
1761838391870188300,2.877188232421875,-0.015299222432076931,-0.02452738769352436,-0.03160521388053894
1761838391880258300,2.88725830078125,-0.02627432346343994,-0.03754639998078346,-0.0317620150744915
1761838391890327600,2.89732763671875,-0.03488511964678764,-0.05204571411013603,-0.029072489589452744
1761838391900397300,2.907397216796875,-0.044456321746110916,-0.05008856952190399,-0.004439328797161579
1761838391910466600,2.917466552734375,-0.06283879280090332,-0.04186685383319855,0.028715960681438446
1761838391920535300,2.927535400390625,-0.07329762727022171,-0.038489408791065216,0.043975118547677994
1761838391930605300,2.937605224609375,-0.07643643021583557,-0.042627159506082535,0.049094781279563904
1761838391940674300,2.94767431640625,-0.07783261686563492,-0.05363510176539421,0.04604264348745346
1761838391950744300,2.957744384765625,-0.07486159354448318,-0.06506378948688507,0.03431142121553421
1761838391960813300,2.967813232421875,-0.06706774979829788,-0.08315503597259521,0.0254343431442976
1761838391970882300,2.97788232421875,-0.05879782885313034,-0.0875343382358551,0.02478133514523506
1761838391980952300,2.987952392578125,-0.052192509174346924,-0.10060948133468628,0.028788581490516663
1761838391991021300,2.998021240234375,-0.04694794490933418,-0.1024518609046936,0.041321948170661926
1761838392001091300,3.00809130859375,-0.04336888715624809,-0.10198290646076202,0.05120237544178963
1761838392011160300,3.018160400390625,-0.03795468062162399,-0.12942492961883545,0.052200797945261
1761838392021229300,3.028229248046875,-0.021749407052993774,-0.12812748551368713,0.05403807759284973
1761838392031299300,3.03829931640625,-0.021268704906105995,-0.13993807137012482,0.0598544180393219
1761838392041368300,3.048368408203125,-0.020164936780929565,-0.150553897023201,0.06539609283208847
1761838392051438300,3.058438232421875,-0.01934974268078804,-0.1807488203048706,0.06491406261920929
1761838392061507300,3.06850732421875,-0.014402424916625023,-0.20890210568904877,0.051332373172044754
1761838392071576300,3.078576416015625,-0.02394373156130314,-0.17228630185127258,0.06684236228466034
1761838392081646300,3.088646240234375,-0.0352901816368103,-0.1608358919620514,0.08010484278202057
1761838392091715300,3.09871533203125,-0.04783926159143448,-0.13198347389698029,0.09182807803153992
1761838392101784300,3.108784423828125,-0.06351032853126526,-0.10600683093070984,0.09559573233127594
1761838392111854300,3.118854248046875,-0.07632918655872345,-0.10756292194128036,0.07982635498046875
1761838392121923300,3.12892333984375,-0.07890838384628296,-0.10349146276712418,0.06393875181674957
1761838392131993300,3.138993408203125,-0.0841662660241127,-0.10225043445825577,0.055766042321920395
1761838392142062300,3.149062255859375,-0.08407336473464966,-0.09318556636571884,0.042247939854860306
1761838392152131300,3.15913134765625,-0.08680389821529388,-0.08275316655635834,0.027693236246705055
1761838392162201300,3.169201416015625,-0.08845778554677963,-0.06253121793270111,0.01561584323644638
1761838392172270300,3.179270263671875,-0.09810162335634232,-0.04786732420325279,0.004321643617004156
1761838392182340400,3.18934033203125,-0.10537164658308029,-0.04280681908130646,-0.002282189903780818
1761838392192409300,3.199409423828125,-0.11287856847047806,-0.035933997482061386,-0.010759031400084496
1761838392202478300,3.209478271484375,-0.11882267147302628,-0.025822006165981293,-0.013727966696023941
1761838392212548400,3.21954833984375,-0.12591761350631714,-0.015072421170771122,-0.014365794137120247
1761838392222617300,3.229617431640625,-0.13244378566741943,-0.01301397942006588,-0.02399774082005024
1761838392232687400,3.239687255859375,-0.13663479685783386,-0.0017687808722257614,-0.02954910136759281
1761838392242756400,3.24975634765625,-0.14215344190597534,-0.00030698440968990326,-0.031983084976673126
1761838392252825300,3.259825439453125,-0.14251190423965454,0.009162683971226215,-0.015444057062268257
1761838392262895400,3.269895263671875,-0.14948110282421112,0.0053717405535280704,-0.01216210052371025
1761838392272964400,3.27996435546875,-0.1433023065328598,0.003961330279707909,-0.02737247943878174
1761838392283034400,3.290034423828125,-0.1329784393310547,-0.00592558179050684,-0.02730904519557953
1761838392293103400,3.300103271484375,-0.12834453582763672,-0.00631972961127758,-0.022955309599637985
1761838392303172400,3.31017236328125,-0.12462197244167328,-0.008309909142553806,-0.01901995576918125
1761838392313242400,3.320242431640625,-0.11875289678573608,-0.02346063405275345,-0.006887925323098898
1761838392323311400,3.330311279296875,-0.11214226484298706,-0.010546984151005745,0.005729570519179106
1761838392333381400,3.34038134765625,-0.11080934852361679,0.001672930084168911,0.026859356090426445
1761838392343450400,3.350450439453125,-0.10706547647714615,0.002411158289760351,0.032581157982349396
1761838392353519400,3.360519287109375,-0.10067176073789597,0.0017877123318612576,0.03205838054418564
1761838392363589400,3.37058935546875,-0.09626661241054535,0.0009178160689771175,0.02947933040559292
1761838392373658400,3.380658447265625,-0.08395455777645111,0.002423300873488188,0.02208639681339264
1761838392383728400,3.390728271484375,-0.07516956329345703,0.0018537547439336777,0.008557740598917007
1761838392393797400,3.40079736328125,-0.06977373361587524,0.0007914192974567413,-0.008897149935364723
1761838392403866400,3.410866455078125,-0.06845805794000626,0.0051466720178723335,-0.02335365302860737
1761838392413936400,3.420936279296875,-0.07071082293987274,0.010023718699812889,-0.03474665433168411
1761838392424005400,3.43100537109375,-0.06928063184022903,0.003651262726634741,-0.044841375201940536
1761838392434074400,3.441074462890625,-0.0676845982670784,-0.008170508779585361,-0.0490100234746933
1761838392444144000,3.45114404296875,-0.06557316333055496,-0.013418101705610752,-0.04108581691980362
1761838392454213400,3.46121337890625,-0.06904858350753784,-0.017383549362421036,-0.02129027247428894
1761838392464283100,3.471283203125,-0.06593744456768036,-0.025501437485218048,0.007718311157077551
1761838392474352400,3.481352294921875,-0.07350534945726395,-0.01607491262257099,0.04552188515663147
1761838392484421400,3.49142138671875,-0.08439241349697113,-0.015660587698221207,0.08428655564785004
1761838392494491400,3.501491455078125,-0.09341520071029663,-0.018240924924612045,0.1107005849480629
1761838392504560000,3.51156005859375,-0.10050366818904877,-0.01885051280260086,0.1302548497915268
1761838392514630400,3.52163037109375,-0.10442011058330536,-0.020265981554985046,0.14036421477794647
1761838392524699400,3.531699462890625,-0.10403798520565033,-0.0208418071269989,0.14808186888694763
1761838392534768400,3.541768310546875,-0.10361693799495697,-0.017375437542796135,0.14496730268001556
1761838392544838400,3.55183837890625,-0.09611324965953827,0.009630654938519001,0.13868534564971924
1761838392554907400,3.561907470703125,-0.08982019871473312,-0.03275595232844353,0.1019022986292839
1761838392564977400,3.571977294921875,-0.08057344704866409,-0.03636980801820755,0.0705483928322792
1761838392575046400,3.58204638671875,-0.07880084216594696,-0.015829643234610558,0.06416372954845428
1761838392585115400,3.592115478515625,-0.07976727932691574,0.0025686430744826794,0.06187095120549202
1761838392595185200,3.60218505859375,-0.0792599469423294,0.021562572568655014,0.05988982692360878
1761838392605254400,3.61225439453125,-0.0822596549987793,0.03636428713798523,0.05430535227060318
1761838392615324200,3.62232421875,-0.07858822494745255,0.053306519985198975,0.0483984649181366
1761838392625393400,3.632393310546875,-0.07949525862932205,0.06358282268047333,0.039679110050201416
1761838392635462400,3.64246240234375,-0.07758470624685287,0.07171663641929626,0.02713002823293209
1761838392645532400,3.652532470703125,-0.07752066105604172,0.0682641938328743,0.007003237958997488
1761838392655601200,3.66260107421875,-0.07370488345623016,0.06713288277387619,-0.009088912978768349
1761838392665671400,3.67267138671875,-0.07795301824808121,0.06295079737901688,-0.019520588219165802
1761838392675740200,3.682740234375,-0.07488372176885605,0.05034419149160385,-0.025556907057762146
1761838392685809400,3.692809326171875,-0.0768662616610527,0.03917982056736946,-0.025260411202907562
1761838392695879400,3.70287939453125,-0.08114995807409286,0.034328874200582504,-0.01753458008170128
1761838392705948400,3.712948486328125,-0.08180377632379532,0.03287196531891823,-0.006234745495021343
1761838392716017200,3.72301708984375,-0.08790667355060577,0.03521581366658211,0.013235891237854958
1761838392726087400,3.73308740234375,-0.08891361206769943,0.037718601524829865,0.025860849767923355
1761838392736156200,3.74315625,-0.0878765732049942,0.03600778430700302,0.03907758742570877
1761838392746226400,3.753226318359375,-0.08559184521436691,0.030300309881567955,0.048321932554244995
1761838392756295400,3.76329541015625,-0.08101946115493774,0.023133743554353714,0.052108146250247955
1761838392766364400,3.773364501953125,-0.0756867304444313,0.021261699497699738,0.05035148188471794
1761838392776434400,3.783434326171875,-0.0697055384516716,0.01538090780377388,0.046225178986787796
1761838392786503400,3.79350341796875,-0.059113796800374985,0.01571499928832054,0.03778553754091263
1761838392796573400,3.803573486328125,-0.05552998185157776,0.010721039026975632,0.026341933757066727
1761838392806642400,3.813642333984375,-0.048268429934978485,0.01515885442495346,0.02699052169919014
1761838392816711400,3.82371142578125,-0.041528504341840744,0.013083718717098236,0.01778903231024742
1761838392826781400,3.833781494140625,-0.03351771831512451,0.01697518303990364,0.00881473533809185
1761838392836850400,3.843850341796875,-0.022346293553709984,0.011496528051793575,0.0004449523985385895
1761838392846920400,3.85392041015625,-0.011400219984352589,0.009362953715026379,-0.006421000696718693
1761838392856989400,3.863989501953125,-0.0015696933260187507,0.00700978422537446,-0.008140071295201778
1761838392867058400,3.874058349609375,0.003008570522069931,0.01107786688953638,-0.007311893627047539
1761838392877128400,3.88412841796875,0.012437758967280388,0.01290479488670826,-0.0007818227168172598
1761838392887197400,3.894197509765625,0.010341783054172993,0.01841619797050953,0.0022179479710757732
1761838392897266400,3.904266357421875,0.01902555301785469,0.018700623884797096,-0.00455793272703886
1761838392907336400,3.91433642578125,0.023188486695289612,0.017062652856111526,-0.009587118402123451
1761838392917405400,3.924405517578125,0.03250981867313385,0.01822379231452942,-0.02017691172659397
1761838392927475500,3.934475341796875,0.03642449900507927,0.017029065638780594,-0.023091359063982964
1761838392937544400,3.94454443359375,0.033638834953308105,0.01255522109568119,-0.02017253451049328
1761838392947613400,3.954613525390625,0.03588966280221939,0.0103155467659235,-0.010303652845323086
1761838392957683200,3.96468310546875,0.03239213302731514,0.008383690379559994,-0.0009152109269052744
1761838392967752400,3.97475244140625,0.029702046886086464,0.005010517779737711,0.004912461619824171
1761838392977822500,3.984822509765625,0.024729924276471138,-0.000594370998442173,0.009350087493658066
1761838392987891500,3.994891357421875,0.023663077503442764,-0.004227031022310257,0.014059845358133316
1761838392997960400,4.00496044921875,0.02224867418408394,-0.0034352727234363556,0.016639117151498795
1761838393008028400,4.0150283203125,0.02009851671755314,-0.004318779334425926,0.017035573720932007
1761838393018097400,4.025097412109375,0.017360519617795944,-0.004348873160779476,0.009505486115813255
1761838393028167400,4.03516748046875,0.017714018002152443,-0.010341230779886246,0.005945243407040834
1761838393038236400,4.045236328125,0.013058546930551529,-0.01337643526494503,0.00009800679981708527
1761838393048305400,4.055305419921875,0.01602676510810852,-0.010263126343488693,-0.004182441625744104
1761838393058375400,4.06537548828125,0.01824864186346531,-0.009845810011029243,-0.01202225498855114
1761838393068444400,4.0754443359375,0.013196704909205437,-0.010990039445459843,-0.018542293459177017
1761838393078513400,4.085513427734375,0.010669099166989326,-0.0037017660215497017,-0.017922308295965195
1761838393088583400,4.09558349609375,0.00933948066085577,-0.0005197618156671524,-0.016786808148026466
1761838393098652400,4.10565234375,0.008933881297707558,0.002015567384660244,-0.01427917554974556
1761838393108722400,4.115722412109375,0.011726973578333855,0.0038557620719075203,-0.010602328926324844
1761838393118791400,4.12579150390625,0.013998117297887802,0.004340190906077623,-0.00705739576369524
1761838393128860400,4.1358603515625,0.018820123746991158,-0.0005317199975252151,-0.004520843271166086
1761838393138930400,4.145930419921875,0.02177410200238228,0.0024685971438884735,-0.0009151895064860582
1761838393148999400,4.15599951171875,0.02890227735042572,0.001270041335374117,-0.0058007799088954926
1761838393159068400,4.166068359375,0.03150871396064758,0.002292162738740444,-0.010369699448347092
1761838393169138400,4.176138427734375,0.03405233472585678,0.0035728351213037968,-0.01401892863214016
1761838393179207400,4.18620751953125,0.03640124574303627,0.001916615292429924,-0.02449367195367813
1761838393189277400,4.19627734375,0.03656068071722984,-0.001916106790304184,-0.027538437396287918
1761838393199346400,4.206346435546875,0.042831894010305405,-0.004010682925581932,-0.02061847783625126
1761838393209415400,4.21641552734375,0.04650523513555527,-0.003270328976213932,-0.013397159054875374
1761838393219485400,4.2264853515625,0.053285907953977585,-0.006673848256468773,-0.013693036511540413
1761838393229554400,4.236554443359375,0.052969206124544144,-0.00902820099145174,-0.008108179084956646
1761838393239624400,4.24662451171875,0.05297426879405975,-0.004187106154859066,-0.0002092430368065834
1761838393249693400,4.256693359375,0.0467660017311573,0.0011919690296053886,0.002720903605222702
1761838393259762400,4.266762451171875,0.044553712010383606,-0.003390531986951828,0.007934307679533958
1761838393269832400,4.27683251953125,0.04657736048102379,-0.0027357377111911774,0.011120621114969254
1761838393279901400,4.2869013671875,0.04564152657985687,-0.0044321706518530846,0.012430363334715366
1761838393289971500,4.296971435546875,0.046070441603660583,-0.01043479610234499,0.016429027542471886
1761838393300040400,4.30704052734375,0.041258107870817184,-0.00504988431930542,0.02042483538389206
1761838393310109400,4.317109375,0.03896573558449745,0.005389928352087736,0.029307536780834198
1761838393320179500,4.327179443359375,0.037304457277059555,0.00897614099085331,0.024056315422058105
1761838393330248400,4.33724853515625,0.039357129484415054,0.006517663598060608,0.01698753610253334
1761838393340317400,4.3473173828125,0.03897150233387947,0.0030339830555021763,0.011434845626354218
1761838393350387500,4.357387451171875,0.036101002246141434,0.0020026671700179577,0.006594622507691383
1761838393360456400,4.36745654296875,0.036279432475566864,-0.0004892526194453239,-0.00010482547804713249
1761838393370526200,4.377526123046875,0.03236672654747963,0.0007828855887055397,0.0016768076457083225
1761838393380595500,4.387595458984375,0.026486732065677643,0.006138502154499292,0.009939530864357948
1761838393390664400,4.39766455078125,0.02042195200920105,0.010675689205527306,0.015930678695440292
1761838393400734500,4.407734375,0.011773335747420788,0.014293060638010502,0.014376725070178509
1761838393410803200,4.41780322265625,0.01060152892023325,0.013591691851615906,0.01710997149348259
1761838393420873500,4.42787353515625,0.006546333432197571,0.008792143315076828,0.010500270873308182
1761838393430942500,4.4379423828125,0.0024955468252301216,0.010612020269036293,0.012422734871506691
1761838393441011500,4.448011474609375,-0.00008186034392565489,0.013297019526362419,0.011843496933579445
1761838393451081500,4.45808154296875,0.0010580914095044136,0.01548413373529911,0.004837324842810631
1761838393461150500,4.468150390625,0.0026639774441719055,0.006998770404607058,-0.005437949672341347
1761838393471220500,4.478220458984375,0.004998528398573399,0.00697357440367341,-0.008092386648058891
1761838393481289500,4.48828955078125,0.010115792974829674,0.0009130188263952732,-0.006687568966299295
1761838393491358500,4.4983583984375,0.011283003725111485,0.004222678020596504,0.0042433179914951324
1761838393501428500,4.508428466796875,0.013203409500420094,0.011328523978590965,0.02329557202756405
1761838393511497500,4.51849755859375,0.013296945951879025,0.020284000784158707,0.035587161779403687
1761838393521566500,4.52856640625,0.011770155280828476,0.027374133467674255,0.03938456252217293
1761838393531636500,4.538636474609375,0.011340977624058723,0.02544417604804039,0.02348708175122738
1761838393541705500,4.54870556640625,0.01222860999405384,0.021727468818426132,0.0065195499919354916
1761838393551775500,4.558775390625,0.014177887700498104,0.01307503879070282,-0.012030871585011482
1761838393561844200,4.56884423828125,0.01875133439898491,0.004386209417134523,-0.023011084645986557
1761838393571913500,4.57891357421875,0.02348867803812027,0.00744529627263546,-0.02748030610382557
1761838393581983200,4.588983154296875,0.026602178812026978,0.01736290752887726,-0.020003749057650566
1761838393592052500,4.599052490234375,0.028691088780760765,0.026544239372015,-0.013840330764651299
1761838393602123500,4.60912353515625,0.032966528087854385,0.043295785784721375,-0.007717456668615341
1761838393612193300,4.619193359375,0.03907930850982666,0.0529998280107975,-0.00945158489048481
1761838393622262500,4.629262451171875,0.04522775113582611,0.0617363266646862,-0.019284775480628014
1761838393632332300,4.639332275390625,0.05459269881248474,0.05880385637283325,-0.04161514714360237
1761838393642401500,4.649401611328125,0.06828826665878296,0.04671603441238403,-0.06397877633571625
1761838393652470300,4.65947021484375,0.08020436018705368,0.0394204780459404,-0.08428077399730682
1761838393662540500,4.66954052734375,0.0839434415102005,0.029628831893205643,-0.1011846587061882
1761838393672609300,4.679609375,0.0837913528084755,0.01625969633460045,-0.10361253470182419
1761838393682679300,4.68967919921875,0.08141181617975235,0.01602453924715519,-0.09332261234521866
1761838393692748300,4.699748291015625,0.07385905832052231,0.013583702966570854,-0.07842214405536652
1761838393702817500,4.709817626953125,0.06336114555597305,0.014439109712839127,-0.05188534036278725
1761838393712887600,4.719887451171875,0.051413629204034805,0.017686929553747177,-0.02810472436249256
1761838393722956500,4.72995654296875,0.03825095668435097,0.023647349327802658,-0.012768644839525223
1761838393733026600,4.740026611328125,0.02315562777221203,0.02090216428041458,-0.003293384797871113
1761838393743095300,4.75009521484375,0.013804202899336815,0.008846300654113293,0.00681757228448987
1761838393753164500,4.76016455078125,0.014804908074438572,0.003358941525220871,0.013181369751691818
1761838393763233800,4.77023388671875,0.014019008725881577,-0.0047000497579574585,0.022412417456507683
1761838393773302800,4.780302734375,0.01695295423269272,-0.014053666032850742,0.03139548748731613
1761838393783371800,4.790371826171875,0.0164826400578022,-0.023386716842651367,0.038157254457473755
1761838393793441800,4.80044189453125,0.0220418032258749,-0.019781462848186493,0.04136840999126434
1761838393803510800,4.8105107421875,0.02106309123337269,-0.02410483919084072,0.04146428406238556
1761838393813580800,4.820580810546875,0.019724134355783463,-0.03107283264398575,0.03821492940187454
1761838393823649800,4.83064990234375,0.019390175119042397,-0.039898548275232315,0.030645694583654404
1761838393833718800,4.84071875,0.01608867757022381,-0.04448440670967102,0.023443909361958504
1761838393843788800,4.850788818359375,0.012761324644088745,-0.04213070496916771,0.026029307395219803
1761838393853857800,4.86085791015625,0.010535777546465397,-0.04299114644527435,0.025986675173044205
1761838393863927800,4.870927734375,0.00929128285497427,-0.040955159813165665,0.028030116111040115
1761838393873996800,4.880996826171875,0.008232973515987396,-0.04174686595797539,0.035450663417577744
1761838393884065800,4.891065673828125,0.0034573927987366915,-0.0425570011138916,0.035349730402231216
1761838393894135800,4.9011357421875,0.010879659093916416,-0.04903225228190422,0.032630208879709244
1761838393904204800,4.911204833984375,0.023677479475736618,-0.0472244992852211,0.0334150455892086
1761838393914273800,4.921273681640625,0.02864142134785652,-0.048686884343624115,0.03297721594572067
1761838393924343800,4.93134375,0.02906220033764839,-0.05023578181862831,0.030532697215676308
1761838393934412800,4.941412841796875,0.029287658631801605,-0.054851219058036804,0.026060890406370163
1761838393944482800,4.95148291015625,0.038668110966682434,-0.052562497556209564,0.028948288410902023
1761838393954551800,4.9615517578125,0.039345815777778625,-0.04523029178380966,0.04389553144574165
1761838393964620800,4.971620849609375,0.03933063521981239,-0.035258885473012924,0.051853589713573456
1761838393974690800,4.98169091796875,0.04577742516994476,-0.033395249396562576,0.05534578859806061
1761838393984759800,4.991759765625,0.04847201332449913,-0.04118392989039421,0.050093237310647964
1761838393994829800,5.001829833984375,0.04948892071843147,-0.04729596897959709,0.03705395758152008
1761838394004898800,5.01189892578125,0.050402916967868805,-0.045094866305589676,0.03542197123169899
1761838394014967800,5.0219677734375,0.04328784719109535,-0.040524862706661224,0.027967924252152443
1761838394025037800,5.032037841796875,0.042933911085128784,-0.04108039662241936,0.01705881580710411
1761838394035106800,5.04210693359375,0.03779725730419159,-0.04905085265636444,0.004227230791002512
1761838394045175800,5.05217578125,0.029895924031734467,-0.051247693598270416,-0.002268219366669655
1761838394055245800,5.062245849609375,0.023952746763825417,-0.050788842141628265,0.013682236894965172
1761838394065314800,5.072314697265625,0.02005547657608986,-0.03735479339957237,0.019584866240620613
1761838394075384800,5.082384765625,0.013279922306537628,-0.02725096046924591,0.024687252938747406
1761838394085453800,5.092453857421875,0.008705942891538143,-0.02261599525809288,0.02458472177386284
1761838394095522800,5.102522705078125,0.0032171239145100117,-0.016948428004980087,0.018949659541249275
1761838394105592800,5.1125927734375,0.00624700216576457,-0.019890422001481056,0.004219184163957834
1761838394115661800,5.122661865234375,0.006102141924202442,-0.028216373175382614,-0.01771092414855957
1761838394125731600,5.132731689453125,0.005715983919799328,-0.027123942971229553,-0.027181126177310944
1761838394135800800,5.14280078125,0.0024911980144679546,-0.02052493765950203,-0.025330128148198128
1761838394145869800,5.152869873046875,-0.0025682756677269936,-0.009007296524941921,-0.025908300653100014
1761838394155939800,5.16293994140625,-0.004856530576944351,0.00451356265693903,-0.023666732013225555
1761838394166008800,5.1730087890625,-0.007216357626020908,0.01429588533937931,-0.020482657477259636
1761838394176077800,5.183077880859375,-0.010618546046316624,0.018281038850545883,-0.02898266911506653
1761838394186147600,5.193147705078125,-0.0055689262226223946,0.020526884123682976,-0.0380195714533329
1761838394196216800,5.203216796875,-0.003957296721637249,0.012560480274260044,-0.04089127480983734
1761838394206286800,5.213286865234375,0.00214507058262825,0.010908255353569984,-0.04622478783130646
1761838394216355800,5.22335595703125,0.0053666727617383,0.008536339737474918,-0.04564867913722992
1761838394226424600,5.233424560546875,0.009820010513067245,0.005736025981605053,-0.03878731280565262
1761838394236494800,5.243494873046875,0.012732050381600857,0.005191337317228317,-0.026621242985129356
1761838394246563800,5.253563720703125,0.014004775322973728,-0.0005456442013382912,-0.01292087696492672
1761838394256633900,5.2636337890625,0.01468724012374878,-0.00024946965277194977,0.00747589161619544
1761838394266702800,5.273702880859375,0.013837957754731178,-0.0023427139967679977,0.019006313756108284
1761838394276771800,5.283771728515625,0.01090861577540636,-0.000889941118657589,0.02941104769706726
1761838394286841900,5.293841796875,0.012556579895317554,-0.0043872045353055,0.03548278659582138
1761838394296910800,5.303910888671875,0.013201366178691387,-0.005941465497016907,0.03487009555101395
1761838394306980900,5.31398095703125,0.01474946178495884,-0.00466794241219759,0.029035907238721848
1761838394317049900,5.3240498046875,0.011883590370416641,-0.003996997140347958,0.024184614419937134
1761838394327118800,5.334118896484375,0.009806324727833271,-0.004817251116037369,0.014293367974460125
1761838394337188600,5.344188720703125,0.007546514272689819,-0.007505306042730808,0.00816403143107891
1761838394347257900,5.3542578125,0.0076727475970983505,-0.008383615873754025,0.0018187835812568665
1761838394357326800,5.364326904296875,0.004059776663780212,-0.007897395640611649,0.002575336955487728
1761838394367396900,5.37439697265625,0.0023705335333943367,-0.00772695429623127,0.000717781949788332
1761838394377465600,5.384465576171875,0.0017774036386981606,-0.002308657392859459,0.000940343365073204
1761838394387536000,5.394535888671875,-0.0029236082918941975,0.0048403325490653515,0.005298073869198561
1761838394397604600,5.4046044921875,-0.003318281378597021,0.008310377597808838,0.007940973155200481
1761838394407673900,5.414673828125,-0.005907672923058271,0.014900635927915573,0.002375765237957239
1761838394417743600,5.42474365234375,-0.006208077073097229,0.012431885115802288,-0.007332788780331612
1761838394427812900,5.434812744140625,-0.0020093373022973537,0.00820571556687355,-0.010118188336491585
1761838394437883000,5.4448828125,0.00020426663104444742,0.00365527905523777,-0.007356713525950909
1761838394447952000,5.454951904296875,0.0012724604457616806,-0.0010537225753068924,-0.00509542366489768
1761838394458020600,5.4650205078125,0.0037891115061938763,-0.005020991899073124,0.008485531434416771
1761838394468091000,5.4750908203125,0.0032271845266222954,0.002986601088196039,0.01810060814023018
1761838394478160000,5.485159912109375,0.001487201894633472,0.00693241273984313,0.029774358496069908
1761838394488229600,5.495229736328125,-0.000020413543097674847,-0.0004581250250339508,0.02641930989921093
1761838394498299000,5.505298828125,0.0002860050881281495,-0.0004623010754585266,0.026387523859739304
1761838394508368000,5.515367919921875,-0.0017960543045774102,-0.007353763096034527,0.01975012570619583
1761838394518438000,5.52543798828125,-0.0062999720685184,-0.009910330176353455,0.01697499118745327
1761838394528507000,5.5355068359375,-0.01124998927116394,-0.0016990061849355698,0.021867219358682632
1761838394538577000,5.545576904296875,-0.014447920955717564,0.002558643463999033,0.019419794902205467
1761838394548645600,5.555645751953125,-0.0158921517431736,0.0037437500432133675,0.014895349740982056
1761838394558715000,5.56571484375,-0.015021386556327343,-0.00223352387547493,0.005815144162625074
1761838394568784600,5.57578466796875,-0.013276750221848488,-0.008985969237983227,-0.009834389202296734
1761838394578854000,5.58585400390625,-0.012234218418598175,-0.0030705779790878296,-0.01433020830154419
1761838394588922600,5.595922607421875,-0.015133602544665337,0.004037665203213692,-0.014408238232135773
1761838394598993000,5.605992919921875,-0.01933799311518669,0.0038085700944066048,-0.01548046339303255
1761838394609061600,5.6160615234375,-0.01988367550075054,0.002912948839366436,-0.012564568780362606
1761838394619132000,5.6261318359375,-0.01642838679254055,0.002223158720880747,-0.011093588545918465
1761838394629200600,5.63620068359375,-0.012662677094340324,-0.000017092563211917877,-0.011114628054201603
1761838394639270000,5.646269775390625,-0.006627452559769154,-0.008520083501935005,-0.005836955271661282
1761838394649340000,5.65633984375,-0.008259703405201435,-0.007000484503805637,0.002936562057584524
1761838394659409000,5.666408935546875,-0.002759187947958708,-0.007107173092663288,0.02087741531431675
1761838394669479000,5.67647900390625,-0.004511814098805189,-0.004655466414988041,0.03280757740139961
1761838394679548000,5.6865478515625,-0.0005180862499400973,0.003183132503181696,0.03445293754339218
1761838394689617000,5.696616943359375,0.005004510749131441,-0.004795964807271957,0.028704768046736717
1761838394699686700,5.706686767578125,0.01746147871017456,-0.015252816490828991,0.01869865506887436
1761838394709756000,5.716755859375,0.024340422824025154,-0.02970791980624199,0.0107621680945158
1761838394719825700,5.72682568359375,0.021139761433005333,-0.03707737475633621,0.00406752061098814
1761838394729895000,5.73689501953125,0.02058555744588375,-0.03622622787952423,0.00355512835085392
1761838394739963600,5.746963623046875,0.00669664703309536,-0.01933305524289608,0.011513963341712952
1761838394750034000,5.757033935546875,0.0002430090680718422,-0.003331984393298626,0.025377048179507256
1761838394760102700,5.7671025390625,-0.0005447330186143517,0.004318812396377325,0.02671756036579609
1761838394770172700,5.777172607421875,-0.006073188968002796,0.009473361074924469,0.023759055882692337
1761838394780241700,5.78724169921875,-0.006407754495739937,0.005057123024016619,0.015474293380975723
1761838394790310700,5.797310546875,-0.006106817629188299,0.00013959594070911407,0.0003030626103281975
1761838394800380700,5.807380615234375,-0.003804848063737154,-0.006490086205303669,-0.008498964831233025
1761838394810449700,5.81744970703125,-0.0028812638483941555,-0.01407796423882246,-0.01683945208787918
1761838394820518700,5.8275185546875,-0.004685555584728718,-0.010175368748605251,-0.0040155332535505295
1761838394830588700,5.837588623046875,-0.006547371856868267,-0.002151796594262123,0.006097554694861174
1761838394840657700,5.84765771484375,-0.012588235549628735,0.003136815968900919,0.017305243760347366
1761838394850727700,5.857727783203125,-0.018708178773522377,0.008171788416802883,0.021744467318058014
1761838394860796700,5.867796630859375,-0.022892847657203674,0.004955850541591644,0.019563525915145874
1761838394870865700,5.87786572265625,-0.023380739614367485,-0.003759610466659069,0.005185385700315237
1761838394880935700,5.887935791015625,-0.02232280559837818,-0.0104483338072896,-0.0028623705729842186
1761838394891004700,5.898004638671875,-0.02405652403831482,-0.016749903559684753,-0.010354908183217049
1761838394901074700,5.90807470703125,-0.02907565049827099,-0.020218688994646072,-0.014087622985243797
1761838394911143700,5.918143798828125,-0.03157849237322807,-0.01575363427400589,-0.0176546610891819
1761838394921212700,5.928212646484375,-0.03450867533683777,-0.011995800770819187,-0.015961740165948868
1761838394931282700,5.93828271484375,-0.039486657828092575,-0.012086882255971432,-0.013169415295124054
1761838394941351700,5.9483515625,-0.03754998371005058,-0.004424101673066616,-0.004341158550232649
1761838394951421700,5.958421630859375,-0.034380022436380386,-0.0035644331946969032,0.0006125872023403645
1761838394961490700,5.96849072265625,-0.028919661417603493,-0.0031594643369317055,0.0024245730601251125
1761838394971559700,5.9785595703125,-0.027326293289661407,-0.01933284103870392,-0.009225957095623016
1761838394981629700,5.988629638671875,-0.024000070989131927,-0.018071044236421585,-0.002315335441380739
1761838394991698700,5.99869873046875,-0.008122039027512074,-0.011971873231232166,-0.008910920470952988
1761838395001768700,6.008768798828125,0.004611775279045105,-0.01616513542830944,-0.0006936860736459494
1761838395011837700,6.018837646484375,0.010991111397743225,-0.02573280781507492,0.002023004461079836
1761838395021906700,6.02890673828125,0.012372471392154694,-0.02577282302081585,0.010559624060988426
1761838395031976700,6.038976806640625,0.01649797521531582,-0.020793244242668152,0.019025545567274094
1761838395042045700,6.049045654296875,0.018994340673089027,-0.015942463651299477,0.02485177293419838
1761838395052115700,6.05911572265625,0.021015146747231483,-0.011132527142763138,0.02748829871416092
1761838395062184400,6.069184326171875,0.020877031609416008,-0.007429433986544609,0.032568130642175674
1761838395072253700,6.079253662109375,0.020852796733379364,-0.004323922097682953,0.0329018235206604
1761838395082323700,6.08932373046875,0.02309270016849041,0.0016190577298402786,0.03330085426568985
1761838395092392700,6.099392822265625,0.01930195651948452,0.0025042924098670483,0.03180761635303497
1761838395102461700,6.109461669921875,0.025304129347205162,0.007445458322763443,0.026677802205085754
1761838395112531700,6.11953173828125,0.02740642987191677,0.005410803481936455,0.023631945252418518
1761838395122600700,6.1296005859375,0.02877509407699108,0.005104816053062677,0.011777428910136223
1761838395132670700,6.139670654296875,0.02979402057826519,0.00034414976835250854,-0.003158377017825842
1761838395142739700,6.14973974609375,0.028061965480446815,0.0016898163594305515,-0.013002529740333557
1761838395152808700,6.15980859375,0.02394818142056465,-0.0031177224591374397,-0.02385650761425495
1761838395162878700,6.169878662109375,0.021290237084031105,-0.002496817149221897,-0.029742661863565445
1761838395172947700,6.17994775390625,0.01771600916981697,-0.0033527566120028496,-0.028899239376187325
1761838395183017700,6.190017822265625,0.013456187210977077,-0.0023785941302776337,-0.026761922985315323
1761838395193086700,6.200086669921875,0.007003880571573973,0.0026246868073940277,-0.015990234911441803
1761838395203155700,6.21015576171875,0.0021420137491077185,0.004097148310393095,-0.0001691947691142559
1761838395213225700,6.220225830078125,-0.0003957123262807727,0.009651437401771545,0.011725547723472118
1761838395223294700,6.230294677734375,0.0017561940476298332,0.0017987578175961971,0.018629994243383408
1761838395233364500,6.240364501953125,0.005238809622824192,-0.007119901478290558,0.02297654002904892
1761838395243433700,6.250433837890625,0.005892571993172169,-0.009887363761663437,0.02687293104827404
1761838395253502700,6.260502685546875,0.0048893592320382595,-0.014395829290151596,0.027907835319638252
1761838395263572700,6.27057275390625,0.003960306756198406,-0.015180095098912716,0.0172868762165308
1761838395273641500,6.280641357421875,0.0062943012453615665,-0.010222622193396091,0.011591173708438873
1761838395283711700,6.290711669921875,0.0036543477326631546,-0.005179130472242832,0.003782676998525858
1761838395293780500,6.300780517578125,0.009385736659169197,-0.008369863033294678,-0.0034834914840757847
1761838395303849700,6.310849609375,0.0037730135954916477,-0.0017331792041659355,-0.002125904895365238
1761838395313919700,6.320919677734375,0.004529351368546486,0.0007760506123304367,0.004232924897223711
1761838395323988700,6.33098876953125,-0.0034983414225280285,0.009394233115017414,0.004503450822085142
1761838395334058800,6.341058837890625,-0.004637109115719795,0.013537579216063023,-0.0020657686982303858
1761838395344127700,6.351127685546875,-0.00437867920845747,0.020007431507110596,-0.01668480969965458
1761838395354196700,6.36119677734375,-0.005921448580920696,0.02153821662068367,-0.028755852952599525
1761838395364266800,6.371266845703125,-0.0024162991903722286,0.018982145935297012,-0.03811138868331909
1761838395374335700,6.381335693359375,-0.0012021639849990606,0.018449779599905014,-0.03783761337399483
1761838395384405500,6.391405517578125,0.0015470171347260475,0.01811528578400612,-0.030347473919391632
1761838395394474800,6.401474853515625,0.0040085772052407265,0.01835976541042328,-0.02606750652194023
1761838395404543700,6.411543701171875,0.005480803083628416,0.016495604068040848,-0.014814939349889755
1761838395414613800,6.42161376953125,0.0053716134279966354,0.01902693882584572,-0.008178342133760452
1761838395424682500,6.4316826171875,0.0043053640983998775,0.01639533042907715,-0.006418345496058464
1761838395434752800,6.441752685546875,0.006869722157716751,0.014860285446047783,-0.004684095270931721
1761838395444821500,6.451821533203125,0.005880838260054588,0.015208510681986809,-0.0021360397804528475
1761838395454890800,6.461890869140625,0.001486090011894703,0.014364554546773434,0.006748531479388475
1761838395464960500,6.47196044921875,0.0019234406063333154,0.012761926278471947,0.013009126298129559
1761838395475029800,6.48202978515625,-0.004840189591050148,0.011137397959828377,0.013824853114783764
1761838395485099800,6.492099853515625,-0.004838814027607441,0.00464824540540576,0.012372177094221115
1761838395495168800,6.502168701171875,-0.0051607899367809296,0.002489753533154726,0.011125019751489162
1761838395505237500,6.512237548828125,-0.01020847074687481,-0.005152498371899128,0.014219338074326515
1761838395515307800,6.522307861328125,-0.015073534101247787,-0.005326136946678162,0.009284235537052155
1761838395525376500,6.53237646484375,-0.021655604243278503,-0.008991453796625137,0.013650740496814251
1761838395535446500,6.542446533203125,-0.023750977590680122,-0.008782129734754562,0.014522393234074116
1761838395545515800,6.552515869140625,-0.02936832420527935,-0.0066028013825416565,0.021778210997581482
1761838395555584800,6.562584716796875,-0.031817369163036346,-0.01098929438740015,0.023186223581433296
1761838395565654800,6.57265478515625,-0.03698240593075752,0.0021885912865400314,0.038840703666210175
1761838395575723800,6.582723876953125,-0.03774620220065117,0.016409339383244514,0.0461079366505146
1761838395585793800,6.592793701171875,-0.035944826900959015,0.013250150717794895,0.03818732872605324
1761838395595862500,6.602862548828125,-0.026190996170043945,0.01680440455675125,0.031366173177957535
1761838395605931800,6.612931884765625,-0.022726939991116524,0.017169427126646042,0.021083947271108627
1761838395616001500,6.62300146484375,-0.015474088490009308,0.01877504773437977,0.005749464966356754
1761838395626070800,6.63307080078125,-0.008318551816046238,0.015835801139473915,-0.012901278212666512
1761838395636140500,6.643140625,0.002507197903469205,0.006697430275380611,-0.024767259135842323
1761838395646209800,6.653209716796875,0.008950796909630299,0.013636427000164986,-0.028374861925840378
1761838395656278500,6.663278564453125,0.0166326854377985,0.02419373020529747,-0.02737404592335224
1761838395666348800,6.673348876953125,0.01998729072511196,0.027289997786283493,-0.029109204187989235
1761838395676417500,6.68341748046875,0.0243183895945549,0.020260849967598915,-0.02913530357182026
1761838395686487600,6.693487548828125,0.027533432468771935,0.017698578536510468,-0.023789813742041588
1761838395696556500,6.703556640625,0.030833622440695763,0.013457760214805603,-0.019913848489522934
1761838395706625800,6.713625732421875,0.026539510115981102,0.011364237405359745,-0.015512298792600632
1761838395716695800,6.72369580078125,0.024444667622447014,0.010832671076059341,-0.006261009722948074
1761838395726764800,6.733764892578125,0.01782483421266079,0.010060194879770279,0.0021445024758577347
1761838395736834800,6.743834716796875,0.008708035573363304,0.010626915842294693,0.00653951708227396
1761838395746903600,6.753903564453125,0.003946258686482906,0.007186738774180412,0.009897682815790176
1761838395756972800,6.763972900390625,-0.0006551507394760847,0.0005277711898088455,0.012353384867310524
1761838395767046700,6.774046630859375,-0.007023234851658344,-0.0013332366943359375,0.023228950798511505
1761838395777115600,6.78411572265625,-0.01195620745420456,-0.0014946246519684792,0.03275028243660927
1761838395787185700,6.794185546875,-0.013826604932546616,-0.0012680524960160255,0.03779027983546257
1761838395797254700,6.804254638671875,-0.015457791276276112,0.0004025483503937721,0.03837324678897858
1761838395807323600,6.81432373046875,-0.014569584280252457,0.006044093519449234,0.03190690279006958
1761838395817393700,6.8243935546875,-0.011690972372889519,0.0033156853169202805,0.021644944325089455
1761838395827462700,6.834462646484375,-0.00708727678284049,0.004146144725382328,0.010688606649637222
1761838395837532400,6.844532470703125,-0.007560786325484514,0.01146877184510231,0.010326683521270752
1761838395847601700,6.8546015625,-0.010531460866332054,0.013197598978877068,0.008115431293845177
1761838395857671400,6.86467138671875,-0.007297850213944912,0.01765573024749756,-0.002282347995787859
1761838395867740700,6.87474072265625,-0.0017672351095825434,0.013462861999869347,-0.01520814374089241
1761838395877809400,6.884809326171875,0.006456606090068817,0.010651628486812115,-0.029180418699979782
1761838395887879700,6.894879638671875,0.00886316504329443,0.007951522246003151,-0.03360867500305176
1761838395897948400,6.904948486328125,0.011488242074847221,0.007971229963004589,-0.02903975360095501
1761838395908018700,6.915018798828125,0.012039301916956902,0.009580124169588089,-0.01906381919980049
1761838395918087400,6.92508740234375,0.013519220985472202,0.012755943462252617,-0.004842804744839668
1761838395928156700,6.93515673828125,0.010197911411523819,0.0117318294942379,0.0013142437674105167
1761838395938226700,6.945226806640625,0.013622736558318138,0.007722706533968449,0.004115356598049402
1761838395948295700,6.955295654296875,0.013014174997806549,0.004289308562874794,0.004989226348698139
1761838395958365700,6.96536572265625,0.012069817632436752,-0.0024703266099095345,0.006621210835874081
1761838395968434700,6.9754345703125,0.009131159633398056,-0.002101513557136059,0.012626913376152515
1761838395978503700,6.985503662109375,0.0071396478451788425,-0.000055140815675258636,0.02513684704899788
1761838395988573400,6.995573486328125,0.0069313813000917435,0.0022778422571718693,0.0351245179772377
1761838395998642700,7.005642578125,0.002963537350296974,-0.0013765469193458557,0.043940380215644836
1761838396008712400,7.01571240234375,-0.0008702973136678338,0.0007804632186889648,0.04551570117473602
1761838396018781700,7.02578173828125,-0.004595526959747076,0.004157617688179016,0.04002372920513153
1761838396028850400,7.035850341796875,-0.0023402515798807144,0.006849456112831831,0.03341678902506828
1761838396038920700,7.045920654296875,-0.0031213564798235893,0.010096915066242218,0.023846982046961784
1761838396048989400,7.055989501953125,-0.0017595269018784165,0.01050473004579544,0.009765425696969032
1761838396059059700,7.066059814453125,0.0000032194657251238823,0.004502497147768736,-0.003958376124501228
1761838396069128400,7.07612841796875,0.0016929286066442728,0.009496181271970272,-0.01706114411354065
1761838396079197700,7.08619775390625,-0.0007840775651857257,0.008325455710291862,-0.028720196336507797
1761838396089267500,7.096267333984375,-0.004531921818852425,0.013502745889127254,-0.03515099734067917
1761838396099336700,7.106336669921875,-0.006097594276070595,0.016353126615285873,-0.042232874780893326
1761838396109406700,7.11640673828125,-0.009514185599982738,0.02287137508392334,-0.04346718266606331
1761838396119475700,7.126475830078125,-0.012902525253593922,0.022797074168920517,-0.043803274631500244
1761838396129544400,7.13654443359375,-0.01521880179643631,0.02700136974453926,-0.04369727522134781
1761838396139614500,7.146614501953125,-0.017244402319192886,0.03752405196428299,-0.04586801677942276
1761838396149683500,7.156683349609375,-0.013612650334835052,0.044542014598846436,-0.05422235280275345
1761838396159753500,7.16675341796875,-0.01260277908295393,0.03891928493976593,-0.0664992555975914
1761838396169822700,7.17682275390625,-0.0057638781145215034,0.03639933839440346,-0.0777028352022171
1761838396179892500,7.186892578125,-0.008260857313871384,0.025801822543144226,-0.07872495800256729
1761838396189961700,7.196961669921875,-0.0041917250491678715,0.015070728957653046,-0.07397393137216568
1761838396200030500,7.207030517578125,0.00422626081854105,0.005771237425506115,-0.05663462355732918
1761838396210100700,7.217100830078125,0.005748146213591099,0.003506836947053671,-0.03140738978981972
1761838396220169500,7.22716943359375,0.00861051119863987,0.004075155593454838,-0.005211738869547844
1761838396230239700,7.23723974609375,0.01128880213946104,0.0015173000283539295,0.015175176784396172
1761838396240308500,7.24730859375,0.009817671962082386,-0.006394951604306698,0.039383843541145325
1761838396250377700,7.257377685546875,0.012772249057888985,-0.010740421712398529,0.054693836718797684
1761838396260447500,7.267447509765625,0.011286204680800438,-0.015638507902622223,0.061141353100538254
1761838396270516700,7.277516845703125,0.011999724432826042,-0.02322019822895527,0.06090063974261284
1761838396280586500,7.28758642578125,0.012760856188833714,-0.031553491950035095,0.06016320362687111
1761838396290655500,7.297655517578125,0.012451870366930962,-0.034115783870220184,0.05292576551437378
1761838396300724500,7.307724365234375,0.010704570449888706,-0.04294869303703308,0.046453751623630524
1761838396310794500,7.31779443359375,0.011060982011258602,-0.047657258808612823,0.043558333069086075
1761838396320863500,7.327863525390625,0.008526451885700226,-0.03892076015472412,0.04525796324014664
1761838396330933500,7.33793359375,0.003517549019306898,-0.03832266479730606,0.04187770187854767
1761838396341002800,7.348002685546875,0.0017212469829246402,-0.03869603946805,0.039216671139001846
1761838396351071500,7.358071533203125,-0.0025578984059393406,-0.04129624366760254,0.03257521241903305
1761838396361141800,7.368141845703125,-0.0025413865223526955,-0.039956141263246536,0.034280966967344284
1761838396371210500,7.37821044921875,-0.004518894478678703,-0.03051728382706642,0.04228793457150459
1761838396381280800,7.38828076171875,-0.006910679861903191,-0.023314498364925385,0.045066408812999725
1761838396391349500,7.398349609375,-0.005782557651400566,-0.015253427438437939,0.04608504846692085
1761838396401419500,7.40841943359375,-0.005697868764400482,-0.014799359254539013,0.03793391212821007
1761838396411488500,7.418488525390625,-0.0038336559664458036,-0.012934613041579723,0.02566099911928177
1761838396421557800,7.428557861328125,-0.004053100012242794,-0.00978249590843916,0.018998567014932632
1761838396431627500,7.43862744140625,-0.0029787071980535984,-0.007372912019491196,0.010142220184206963
1761838396441696800,7.44869677734375,0.0015737004578113556,-0.005647183395922184,-0.005470029078423977
1761838396451766500,7.4587666015625,0.0038901621010154486,-0.006071787327528,-0.009400776587426662
1761838396461835500,7.46883544921875,0.006856124848127365,-0.011979210190474987,-0.009851383045315742
1761838396471904500,7.478904541015625,0.008745711296796799,-0.016049135476350784,-0.007767790462821722
1761838396481974500,7.488974609375,0.0064255655743181705,-0.013830190524458885,0.0033373250626027584
1761838396492043500,7.49904345703125,0.00037462671753019094,-0.00732723344117403,0.01698833517730236
1761838396502113500,7.509113525390625,-0.004365000873804092,0.0005679745227098465,0.030496153980493546
1761838396512182500,7.5191826171875,-0.011156395077705383,0.004119556862860918,0.027985844761133194
1761838396522251500,7.52925146484375,-0.01173829473555088,0.004311038181185722,0.0272982157766819
1761838396532321800,7.53932177734375,-0.01288463082164526,0.0033859419636428356,0.02188338339328766
1761838396542390500,7.549390625,-0.012835362926125526,0.0006428863853216171,0.011767899617552757
1761838396552460500,7.55946044921875,-0.01618475280702114,0.0019036363810300827,0.004679111298173666
1761838396562529500,7.569529541015625,-0.018752306699752808,0.0046253870241343975,-0.0009156572632491589
1761838396572599600,7.579599609375,-0.01999078132212162,0.0067532844841480255,-0.004486006684601307
1761838396582668500,7.58966845703125,-0.021508516743779182,0.005881898105144501,-0.0038833331782370806
1761838396592737800,7.59973779296875,-0.020061325281858444,0.004572700709104538,-0.006102155894041061
1761838396602807600,7.6098076171875,-0.01992310769855976,0.0015651928260922432,-0.010781063698232174
1761838396612876500,7.61987646484375,-0.017796941101551056,-0.0022417642176151276,-0.008266622200608253
1761838396622946600,7.629946533203125,-0.01855594292283058,0.00233168201521039,0.0010179565288126469
1761838396633015600,7.640015625,-0.018332919105887413,0.0021432568319141865,0.005196527577936649
1761838396643084500,7.65008447265625,-0.02191753312945366,0.005695114843547344,0.013011307455599308
1761838396653154600,7.660154541015625,-0.02472529746592045,0.005521688610315323,0.017557302489876747
1761838396663223600,7.6702236328125,-0.027763696387410164,0.00024516787379980087,0.0140810776501894
1761838396673293600,7.68029345703125,-0.029278887435793877,-0.0005672229453921318,0.013322272337973118
1761838396683362600,7.690362548828125,-0.028786202892661095,-0.00819904264062643,0.009548839181661606
1761838396693431600,7.700431640625,-0.028174925595521927,-0.006195379421114922,0.016317233443260193
1761838396703501800,7.710501708984375,-0.03012862056493759,-0.002019808627665043,0.029692161828279495
1761838396713570600,7.720570556640625,-0.025900823995471,0.007485824171453714,0.0418621301651001
1761838396723640600,7.730640625,-0.01880509778857231,0.011848348192870617,0.04998929798603058
1761838396733709600,7.74070947265625,-0.012880147434771061,0.012138515710830688,0.04752448573708534
1761838396743779600,7.750779541015625,-0.002685567131265998,0.00934512633830309,0.03398684039711952
1761838396753848600,7.7608486328125,0.006260775029659271,0.008176637813448906,0.013238461688160896
1761838396763914200,7.770914306640625,0.014270764775574207,0.009364940226078033,-0.0014185123145580292
1761838396773984300,7.780984375,0.02284907177090645,0.005522265564650297,-0.013797417283058167
1761838396784053200,7.79105322265625,0.029742397367954254,0.0022364575415849686,-0.021144013851881027
1761838396794123500,7.80112353515625,0.03662898764014244,0.008566929027438164,-0.018755070865154266
1761838396804192300,7.811192138671875,0.039061252027750015,0.011500933207571507,-0.013684412464499474
1761838396814261200,7.82126123046875,0.04017137363553047,0.01219264417886734,-0.010726692155003548
1761838396824331300,7.831331298828125,0.033450353890657425,0.010603269562125206,-0.013180794194340706
1761838396834400500,7.841400390625,0.03404995799064636,0.010591625235974789,-0.008455231785774231
1761838396844470300,7.85147021484375,0.02772015705704689,0.010524513199925423,-0.003532112343236804
1761838396854539500,7.86153955078125,0.023858757689595222,0.01541737001389265,0.007703261449933052
1761838396864609300,7.871609375,0.014422114007174969,0.017155881971120834,0.01512229535728693
1761838396874678300,7.88167822265625,0.006842032074928284,0.020492248237133026,0.02277514711022377
1761838396884747300,7.891747314453125,-0.003224716754630208,0.022585224360227585,0.013123585842549801
1761838396894817300,7.9018173828125,-0.011402484960854053,0.02430722489953041,0.007607646286487579
1761838396904886300,7.91188623046875,-0.018318714573979378,0.017699390649795532,-0.007931899279356003
1761838396914956300,7.921956298828125,-0.022392338141798973,0.013619309291243553,-0.01978382095694542
1761838396925025300,7.932025390625,-0.02676498144865036,0.005127287469804287,-0.023487480357289314
1761838396935094300,7.94209423828125,-0.029688850045204163,0.006445444654673338,-0.022690705955028534
1761838396945164300,7.952164306640625,-0.03196452185511589,0.014197640120983124,-0.011256422847509384
1761838396955233300,7.9622333984375,-0.0302615724503994,0.02713131718337536,0.00505836121737957
1761838396965303300,7.97230322265625,-0.030823498964309692,0.030408335849642754,0.00734308734536171
1761838396975372300,7.982372314453125,-0.0240704994648695,0.024540431797504425,0.007287094835191965
1761838396985442300,7.9924423828125,-0.015296715311706066,0.017903834581375122,0.009728148579597473
1761838396995511300,8.00251123046875,-0.008032402954995632,0.010757986456155777,0.0033117723651230335
1761838397005580300,8.012580322265626,-0.0016362889437004924,0.004775195382535458,0.003424157854169607
1761838397015648300,8.022648193359375,0.001403036992996931,0.002939778845757246,0.0013761809095740318
1761838397025717200,8.03271728515625,0.007451341953128576,-0.00038757454603910446,-0.002410567831248045
1761838397035787300,8.042787353515624,0.0107883270829916,-0.0005463548004627228,-0.007725302129983902
1761838397045856300,8.052856201171876,0.014773746952414513,-0.0021224142983555794,-0.008414794690907001
1761838397055925200,8.06292529296875,0.01578817516565323,-0.0033240197226405144,-0.0032555966172367334
1761838397065995300,8.072995361328125,0.018759731203317642,-0.0053826430812478065,0.0076132966205477715
1761838397076064300,8.083064208984375,0.021056504920125008,0.002063564956188202,0.019991682842373848
1761838397086134300,8.09313427734375,0.021927891299128532,0.006077215075492859,0.03162064030766487
1761838397096203300,8.103203369140624,0.021942006424069405,0.011399542912840843,0.03184914216399193
1761838397106272300,8.113272216796876,0.026521045714616776,0.01125866174697876,0.025882860645651817
1761838397116342300,8.12334228515625,0.029907751828432083,0.0066223666071891785,0.021455198526382446
1761838397126411300,8.133411376953125,0.033818069845438004,0.00816913042217493,0.016048450022935867
1761838397136481300,8.143481201171875,0.033621225506067276,0.0062261298298835754,0.009661821648478508
1761838397146550500,8.153550537109375,0.03549475967884064,0.0016537485644221306,0.0021578329615294933
1761838397156620300,8.163620361328125,0.03273517265915871,-0.0020726509392261505,-0.00544622540473938
1761838397166689300,8.173689208984374,0.03223263472318649,-0.006989379413425922,-0.006497375201433897
1761838397176758300,8.18375830078125,0.02904382348060608,-0.0019452888518571854,-0.007488301955163479
1761838397186828300,8.193828369140626,0.027919169515371323,-0.002864079549908638,-0.0010908562690019608
1761838397196897300,8.203897216796875,0.02897614799439907,0.0007719220593571663,0.0125425411388278
1761838397206967300,8.21396728515625,0.022922251373529434,0.006122212391346693,0.018388710916042328
1761838397217036300,8.224036376953125,0.019688034430146217,0.00893961451947689,0.019520830363035202
1761838397227106300,8.234106201171874,0.015894094482064247,0.005209591239690781,0.012105257250368595
1761838397237175300,8.24417529296875,0.01254332810640335,0.004758557304739952,-0.0009083440527319908
1761838397247244300,8.254244384765625,0.003785522188991308,0.004586783703416586,-0.010641931556165218
1761838397257314300,8.264314208984375,0.004582769237458706,0.005388160236179829,-0.013902287930250168
1761838397267383300,8.27438330078125,0.0018024288583546877,0.009236960671842098,-0.005080034490674734
1761838397277453300,8.284453369140625,-0.0024883896112442017,0.01303703524172306,0.0043781958520412445
1761838397287522300,8.294522216796874,-0.0011512164492160082,0.010804240591824055,0.012792454101145267
1761838397297591300,8.30459130859375,-0.002936185337603092,0.009506886824965477,0.017263829708099365
1761838397307661300,8.314661376953126,-0.0006964668864384294,0.0072906045243144035,0.017639601603150368
1761838397317730300,8.324730224609375,0.0013501509092748165,0.0044292001985013485,0.011240356601774693
1761838397327800300,8.33480029296875,0.004924645647406578,0.0030904291197657585,0.0028580576181411743
1761838397337869300,8.344869384765625,0.004072817973792553,-0.0003185560926795006,-0.00042714644223451614
1761838397347939300,8.354939208984375,0.0034270016476511955,0.009414498694241047,-0.0028996248729526997
1761838397358008300,8.36500830078125,0.007147274911403656,0.014713358134031296,0.0009080115705728531
1761838397368077300,8.375077392578126,0.006191200111061335,0.020370444282889366,0.0015732687897980213
1761838397378147300,8.385147216796875,0.007347396574914455,0.023373018950223923,-0.0008943444117903709
1761838397388216300,8.39521630859375,0.011423630639910698,0.02817656472325325,-0.008897409774363041
1761838397398286300,8.405286376953125,0.01367765013128519,0.029112495481967926,-0.018086351454257965
1761838397408355300,8.415355224609375,0.01810568757355213,0.022319037467241287,-0.031495898962020874
1761838397418424300,8.42542431640625,0.02081211656332016,0.022025099024176598,-0.03975031524896622
1761838397428494300,8.435494384765626,0.02074420638382435,0.01993425190448761,-0.046002086251974106
1761838397438563300,8.445563232421875,0.02175690233707428,0.011151177808642387,-0.04245061054825783
1761838397448633000,8.455633056640625,0.02344587817788124,0.0057811797596514225,-0.03456712141633034
1761838397458702300,8.465702392578125,0.022670848295092583,0.006537931971251965,-0.0184318870306015
1761838397468772400,8.4757724609375,0.020814092829823494,0.0022497097961604595,0.0013588625006377697
1761838397478841300,8.48584130859375,0.016821037977933884,0.008364403620362282,0.009794583544135094
1761838397488910000,8.49591015625,0.014814346097409725,0.0036974800750613213,0.0140724191442132
1761838397498980400,8.50598046875,0.014120333828032017,-0.0016978709027171135,0.009913871064782143
1761838397509049300,8.51604931640625,0.014893182553350925,-0.010028505697846413,0.003529475536197424
1761838397519119400,8.526119384765625,0.014939403161406517,-0.01448490098118782,0.007632803171873093
1761838397529188400,8.536188232421875,0.012563597410917282,-0.008413160219788551,0.01615225523710251
1761838397539258400,8.54625830078125,0.007824094966053963,-0.004869483411312103,0.01970762386918068
1761838397549327400,8.556327392578124,0.00596973579376936,0.0023181214928627014,0.021600864827632904
1761838397559396400,8.566396240234376,0.003807131201028824,0.0018170536495745182,0.022509997710585594
1761838397569466400,8.57646630859375,0.000457939924672246,0.0006846776232123375,0.022264987230300903
1761838397579535400,8.586535400390625,-0.002779073314741254,0.008619362488389015,0.020194681361317635
1761838397589605400,8.59660546875,-0.0032238212879747152,0.004332738928496838,0.01204647310078144
1761838397599674000,8.606674072265625,-0.005358344875276089,0.0033407113514840603,0.00467324536293745
1761838397609743400,8.616743408203124,-0.004094941541552544,0.003140707965940237,-0.011017033830285072
1761838397619813000,8.626813232421876,-0.0016609819140285254,0.00046824850142002106,-0.020210929214954376
1761838397629882400,8.63688232421875,-0.0005706837400794029,-0.011758857406675816,-0.02974078431725502
1761838397639952100,8.6469521484375,0.00006303691770881414,-0.007590885274112225,-0.023380126804113388
1761838397650021400,8.657021484375,-0.007026830688118935,0.0015328377485275269,-0.007764681242406368
1761838397660091400,8.66709130859375,-0.013185381889343262,0.012375007383525372,0.0032729781232774258
1761838397670160400,8.677160400390624,-0.019702136516571045,0.023506488651037216,0.007272247225046158
1761838397680229000,8.68722900390625,-0.023398220539093018,0.02853412926197052,0.00972082931548357
1761838397690299400,8.69729931640625,-0.020980870351195335,0.027068592607975006,0.0025574583560228348
1761838397700368400,8.707368408203125,-0.011065409518778324,0.016769511625170708,-0.008162499405443668
1761838397710438100,8.717438232421875,0.018214715644717216,0.0009647156111896038,-0.010632314719259739
1761838397720507400,8.72750732421875,0.022220980376005173,-0.0034817419946193695,-0.0047195726074278355
1761838397730577200,8.7375771484375,0.012303102761507034,-0.0030375272035598755,-0.001359462272375822
1761838397740646400,8.747646484375,0.006568992044776678,0.005236318334937096,-0.0005088839679956436
1761838397750715100,8.757715087890626,-0.0002484341384842992,0.007285621017217636,0.002492498606443405
1761838397760785400,8.767785400390625,-0.0008566621690988541,0.006142283324152231,0.006138467695564032
1761838397770857700,8.777857666015626,-0.0005938082467764616,0.006815530359745026,0.015751678496599197
1761838397780928000,8.787927978515626,-0.0001787699293345213,0.009651392698287964,0.01811078004539013
1761838397790996700,8.797996826171875,-0.005286180414259434,0.012163818813860416,0.02100190706551075
1761838397801065700,8.808065673828125,-0.007744907401502132,0.014200049452483654,0.01681421510875225
1761838397811135700,8.8181357421875,-0.011190771125257015,0.016527384519577026,0.013038652017712593
1761838397821205000,8.828205078125,-0.00992604997009039,0.012567639350891113,0.0038009891286492348
1761838397831274800,8.838274658203124,-0.011482667177915573,0.006339570507407188,-0.009830933064222336
1761838397841344000,8.848343994140626,-0.007428945042192936,0.0020860438235104084,-0.02081003226339817
1761838397851413800,8.858413818359375,-0.006963957101106644,0.0028732740320265293,-0.021124817430973053
1761838397861482800,8.868482666015625,-0.009088841266930103,0.007314744405448437,-0.022912006825208664
1761838397871551700,8.8785517578125,-0.009745577350258827,0.00392134441062808,-0.018898889422416687
1761838397881621800,8.888621826171875,-0.007817219011485577,0.0031975391320884228,-0.013608621433377266
1761838397891690800,8.898690673828124,-0.004196918103843927,0.004773331806063652,-0.0059885187074542046
1761838397901760800,8.9087607421875,-0.0016603830736130476,0.007903004996478558,0.0065125757828354836
1761838397911829800,8.918829833984375,0.0013750880025327206,0.005497638136148453,0.01554841548204422
1761838397921899800,8.928899658203125,0.004930999595671892,0.009000822901725769,0.0200800858438015
1761838397931968800,8.93896875,0.00563913444057107,0.0019844593480229378,0.020730961114168167
1761838397942037800,8.949037841796875,0.007450314704328775,0.0005953563377261162,0.013126948848366737
1761838397952108000,8.95910791015625,0.009456740692257881,-0.005229243077337742,0.005824293475598097
1761838397962176800,8.9691767578125,0.00784687977284193,-0.009968233294785023,-0.0020107917953282595
1761838397972246800,8.979246826171876,0.006227145902812481,-0.00742731150239706,0.00018604984506964684
1761838397982315800,8.989315673828125,0.0004076957702636719,-0.006459975615143776,0.0018195253796875477
1761838397992385800,8.9993857421875,0.0024929509963840246,-0.004698826931416988,0.009346417151391506
1761838398002454800,9.009454833984375,-0.0028709738980978727,0.00010353419929742813,0.014338986948132515
1761838398012523800,9.019523681640624,-0.006118965335190296,0.006869294680655003,0.01678004115819931
1761838398022593800,9.02959375,-0.006426642648875713,0.006696060299873352,0.009208760224282742
1761838398032662800,9.039662841796876,-0.007254885509610176,0.0018698801286518574,-0.0034724141005426645
1761838398042732800,9.04973291015625,-0.00819824356585741,0.0007007420063018799,-0.011077350936830044
1761838398052801800,9.0598017578125,-0.00924619659781456,-0.003305983729660511,-0.01799837499856949
1761838398062871800,9.069871826171875,-0.00903249066323042,0.0029687765054404736,-0.01820794865489006
1761838398072940800,9.07994091796875,-0.009316382929682732,0.016784988343715668,-0.010250955820083618
1761838398083009800,9.090009765625,-0.011284653097391129,0.01161335501819849,-0.016706999391317368
1761838398093079800,9.100079833984376,-0.013537421822547913,0.011838925071060658,-0.019111301749944687
1761838398103148800,9.110148681640625,-0.01641266793012619,0.015129238367080688,-0.02084249258041382
1761838398113218800,9.12021875,-0.022106505930423737,0.028039976954460144,-0.01765388995409012
1761838398123287800,9.130287841796875,-0.028373748064041138,0.02156631276011467,-0.017954207956790924
1761838398133357800,9.14035791015625,-0.0314803272485733,0.02096337080001831,-0.01942213997244835
1761838398143426800,9.1504267578125,-0.0341934971511364,0.013344398699700832,-0.015645209699869156
1761838398153495800,9.160495849609376,-0.04357181861996651,0.022792495787143707,-0.01229974813759327
1761838398163565800,9.17056591796875,-0.04538503289222717,0.027458108961582184,0.0034845699556171894
1761838398173634800,9.180634765625,-0.05097474530339241,0.030943654477596283,0.010678300634026527
1761838398183704800,9.190704833984375,-0.05749679356813431,0.03662019222974777,0.014378085732460022
1761838398193773800,9.20077392578125,-0.0551670603454113,0.03196898102760315,0.015499543398618698
1761838398203843800,9.21084375,-0.05310012400150299,0.02436758577823639,0.011157029308378696
1761838398213912800,9.220912841796874,-0.0526718869805336,0.01369017269462347,0.016843412071466446
1761838398223981800,9.23098193359375,-0.04594683647155762,0.023298855870962143,0.023965392261743546
1761838398234051600,9.241051513671875,-0.04662194848060608,0.0294283889234066,0.030869638547301292
1761838398244120800,9.251120849609375,-0.04330644756555557,0.03444794565439224,0.032424651086330414
1761838398254190600,9.261190673828125,-0.03798358887434006,0.03443223610520363,0.029841652140021324
1761838398264259800,9.271259765625,-0.03125200793147087,0.033689938485622406,0.02027994766831398
1761838398274329900,9.281329833984374,-0.02926262654364109,0.03540128469467163,0.005413382314145565
1761838398284398800,9.29139892578125,-0.027397582307457924,0.021687081083655357,-0.01124483346939087
1761838398294467600,9.301467529296875,-0.021741028875112534,0.02741340920329094,-0.01810433715581894
1761838398304537900,9.311537841796875,-0.02256430871784687,0.024105742573738098,-0.015834929421544075
1761838398314606800,9.32160693359375,-0.019400473684072495,0.024525722488760948,-0.01707196794450283
1761838398324676900,9.3316767578125,-0.015364454127848148,0.02526448480784893,-0.005852602422237396
1761838398334745900,9.341745849609374,-0.01709470897912979,0.03612964600324631,0.004290845710784197
1761838398344815600,9.351815673828124,-0.017069948837161064,0.0361587293446064,0.010959954932332039
1761838398354884900,9.361884765625,-0.014315973967313766,0.03615100681781769,0.008263505063951015
1761838398364953900,9.371953857421875,-0.016285641118884087,0.03433600813150406,-0.004424615763127804
1761838398375023900,9.38202392578125,-0.008562208153307438,0.02658168412744999,-0.016661042347550392
1761838398385092600,9.392092529296875,-0.004981632344424725,0.016119282692670822,-0.019290726631879807
1761838398395163000,9.402162841796875,-0.005325979087501764,0.0069300467148423195,-0.02135361172258854
1761838398405231600,9.412231689453124,-0.006313665304332972,0.0030300160869956017,-0.01120326854288578
1761838398415302000,9.422302001953126,-0.010543297976255417,0.002174608875066042,0.0017213188111782074
1761838398425370600,9.43237060546875,-0.0117317084223032,0.006582451984286308,0.024966837838292122
1761838398435439900,9.44243994140625,-0.0176367349922657,0.0076437219977378845,0.04385025054216385
1761838398445510000,9.452510009765625,-0.021732516586780548,0.004550532903522253,0.05549033358693123
1761838398455579000,9.462578857421875,-0.026096105575561523,0.010146633721888065,0.0729055404663086
1761838398465649000,9.47264892578125,-0.02616037428379059,0.009876206517219543,0.0750206708908081
1761838398475718000,9.4827177734375,-0.022043393924832344,0.006610372103750706,0.07049116492271423
1761838398485788000,9.492787841796876,-0.018936004489660263,0.004389986861497164,0.06653473526239395
1761838398495856600,9.502856689453125,-0.014067213982343674,0.00013638567179441452,0.05022500455379486
1761838398505926000,9.51292578125,-0.012712132185697556,-0.003049810416996479,0.03158555179834366
1761838398515995600,9.52299560546875,-0.007663576863706112,-0.005070083774626255,0.014700047671794891
1761838398526065000,9.53306494140625,-0.006801245734095573,-0.0039608776569366455,-0.002091183327138424
1761838398536134700,9.543134765625,-0.0022736054379493,-0.00961130578070879,-0.016217121854424477
1761838398546204000,9.553203857421876,0.0015371737536042929,-0.009612880647182465,-0.024197038263082504
1761838398556273700,9.563273681640625,0.0022194755729287863,-0.0025235451757907867,-0.024211952462792397
1761838398566343000,9.573343017578125,0.0038029528222978115,0.004000442568212748,-0.02237633615732193
1761838398576411600,9.58341162109375,0.003432773519307375,0.013222437351942062,-0.020521443337202072
1761838398586482000,9.59348193359375,0.0016154677141457796,0.014009132981300354,-0.032544128596782684
1761838398596550700,9.603550537109374,0.012213517911732197,0.009778700768947601,-0.048560380935668945
1761838398606620700,9.61362060546875,0.012224718928337097,0.011822795495390892,-0.04885369539260864
1761838398616689700,9.623689697265625,0.016678057610988617,0.012177795171737671,-0.046254713088274
1761838398626759700,9.633759765625,0.01795361377298832,0.01389577891677618,-0.03556066006422043
1761838398636829000,9.643828857421875,0.015400974079966545,0.03150806203484535,-0.011033213697373867
1761838398646898000,9.65389794921875,0.01518765464425087,0.024302879348397255,0.0008852314203977585
1761838398656968000,9.663968017578124,0.019205300137400627,0.025946583598852158,0.009046487510204315
1761838398667036700,9.67403662109375,0.013310140930116177,0.029049059376120567,0.01684604398906231
1761838398677107000,9.68410693359375,0.012950347736477852,0.03365233540534973,0.01661275140941143
1761838398687175700,9.69417578125,0.012253554537892342,0.03645459562540054,0.011804320849478245
1761838398697246000,9.704245849609375,0.01789386197924614,0.03837340325117111,0.0015463568270206451
1761838398707314700,9.714314697265625,0.01479769591242075,0.018834121525287628,-0.01184467040002346
1761838398717384700,9.724384765625,0.01356571726500988,-0.00012971460819244385,-0.022536197677254677
1761838398727453700,9.73445361328125,0.005524212494492531,-0.002684027887880802,-0.01736343279480934
1761838398737523000,9.74452294921875,-0.004621366038918495,-0.006499272771179676,-0.006210646592080593
1761838398747592700,9.7545927734375,-0.011771316640079021,-0.0017618071287870407,0.011841440573334694
1761838398757661700,9.76466162109375,-0.0165474284440279,0.002110695466399193,0.03041645511984825
1761838398767728600,9.774728759765624,-0.02545119635760784,-0.0008228830993175507,0.03983665630221367
1761838398777797400,9.78479736328125,-0.023617874830961227,-0.009827298112213612,0.04398825764656067
1761838398787867600,9.79486767578125,-0.017514800652861595,-0.018500488251447678,0.043197136372327805
1761838398797936400,9.804936279296875,-0.015164561569690704,-0.02139374613761902,0.03909320756793022
1761838398808005600,9.815005615234375,-0.010667736642062664,-0.02498084306716919,0.030518829822540283
1761838398818075600,9.82507568359375,0.0008176781702786684,-0.03128134831786156,0.006006563547998667
1761838398828144600,9.83514453125,0.010593578219413757,-0.03745270147919655,-0.0055756475776433945
1761838398838214700,9.845214599609376,0.014736125245690346,-0.033221203833818436,-0.010528061538934708
1761838398848283600,9.85528369140625,0.01684732362627983,-0.02246878109872341,-0.010490951128304005
1761838398858353700,9.865353759765625,0.01714613102376461,-0.011980986222624779,-0.0070360321551561356
1761838398868422400,9.87542236328125,0.023254571482539177,0.0011562714353203773,-0.001144111854955554
1761838398878491600,9.88549169921875,0.02868502214550972,0.013467798940837383,0.002227716613560915
1761838398888561400,9.8955615234375,0.029479989781975746,0.01819746568799019,0.0009541492909193039
1761838398898630700,9.905630615234376,0.029418203979730606,0.026499338448047638,0.000023640692234039307
1761838398908700400,9.915700439453126,0.027012711390852928,0.022046726197004318,-0.008088929578661919
1761838398918769700,9.925769775390625,0.023990023881196976,0.017563827335834503,-0.016367366537451744
1761838398928839400,9.93583935546875,0.01927071064710617,0.009778563864529133,-0.017898425459861755
1761838398938908700,9.94590869140625,0.011239415034651756,0.01250271126627922,-0.014107149094343185
1761838398948977400,9.955977294921874,0.005817440338432789,0.006280863657593727,-0.012878446839749813
1761838398959047700,9.966047607421874,0.0008429221343249083,0.014017879031598568,-0.009416869841516018
1761838398969116400,9.976116455078126,-0.006941141560673714,0.013056820258498192,-0.007869680412113667
1761838398979186400,9.9861865234375,-0.012565204873681068,0.013755367137491703,-0.008656378835439682
1761838398989255700,9.996255615234375,-0.0157079566270113,0.007927474565804005,-0.006982236169278622
1761838398999325400,10.006325439453125,-0.02299702726304531,0.011309689842164516,-0.00027506519109010696
1761838399009394700,10.016394775390625,-0.024880895391106606,0.00969939399510622,0.012392318807542324
1761838399019464400,10.02646435546875,-0.025379439815878868,0.013804124668240547,0.028853584080934525
1761838399029533700,10.03653369140625,-0.02639414370059967,0.019660457968711853,0.04212268069386482
1761838399039602400,10.0466025390625,-0.030077826231718063,0.04053910821676254,0.06803470849990845
1761838399049672700,10.056672607421875,-0.03862634301185608,0.029169540852308273,0.08164463192224503
1761838399059741400,10.066741455078125,-0.02725677378475666,0.030251316726207733,0.10103750973939896
1761838399069811500,10.0768115234375,-0.02263273112475872,0.014138167724013329,0.10876898467540741
1761838399079880400,10.08688037109375,-0.01456655003130436,0.00036642979830503464,0.11795049905776978
1761838399089950500,10.096950439453124,-0.0012105134082958102,-0.019893448799848557,0.1159205436706543
1761838399100019500,10.10701953125,0.006502800155431032,-0.03127020597457886,0.10638616234064102
1761838399110088700,10.117088623046875,0.0128585584461689,-0.039807431399822235,0.08625483512878418
1761838399120158500,10.127158447265625,0.010371965356171131,-0.047148965299129486,0.06007436662912369
1761838399130227500,10.1372275390625,0.006380242761224508,-0.04929220303893089,0.02703268639743328
1761838399140297700,10.147297607421875,0.003074194770306349,-0.04078739508986473,-0.0055351098999381065
1761838399150366500,10.157366455078124,-0.0053063686937093735,-0.014232519082725048,-0.021022450178861618
1761838399160436700,10.167436767578126,-0.013490795157849789,0.011755673214793205,-0.02308347076177597
