time,seconds_elapsed,z,y,x
1761838740654817800,0.06381787109375,-0.87994384765625,-0.53131103515625,-0.00274658203125
1761838740664887000,0.073886962890625,-0.8784332275390625,-0.5326995849609375,0.0064697265625
1761838740674956800,0.083956787109375,-0.869110107421875,-0.531982421875,0.0165557861328125
1761838740685026800,0.09402685546875,-0.8656158447265625,-0.5287017822265625,0.0268096923828125
1761838740695095800,0.104095703125,-0.870208740234375,-0.5223541259765625,0.038421630859375
1761838740705165800,0.114165771484375,-0.868682861328125,-0.508392333984375,0.045989990234375
1761838740715235800,0.12423583984375,-0.86785888671875,-0.4937286376953125,0.04095458984375
1761838740725304800,0.134304931640625,-0.86724853515625,-0.4825592041015625,0.0350494384765625
1761838740735374800,0.144374755859375,-0.865264892578125,-0.4745025634765625,0.0275115966796875
1761838740745444900,0.15444482421875,-0.85894775390625,-0.4702606201171875,0.0164794921875
1761838740755513900,0.164513916015625,-0.8516845703125,-0.469970703125,0.00677490234375
1761838740765584000,0.174583984375,-0.8459625244140625,-0.47021484375,-0.00384521484375
1761838740775654000,0.18465380859375,-0.8381500244140625,-0.47137451171875,-0.0142822265625
1761838740785723000,0.194722900390625,-0.83526611328125,-0.47869873046875,-0.022003173828125
1761838740795793000,0.20479296875,-0.8329925537109375,-0.48907470703125,-0.0277099609375
1761838740805863000,0.21486279296875,-0.8307342529296875,-0.50164794921875,-0.031036376953125
1761838740815932000,0.224931884765625,-0.8285980224609375,-0.51739501953125,-0.0326690673828125
1761838740826002000,0.235001953125,-0.823638916015625,-0.532470703125,-0.0303802490234375
1761838740836072000,0.245072021484375,-0.8218536376953125,-0.54559326171875,-0.026641845703125
1761838740846141000,0.255140869140625,-0.82379150390625,-0.5543975830078125,-0.01666259765625
1761838740856211000,0.2652109375,-0.8346710205078125,-0.557891845703125,-0.0048675537109375
1761838740866280700,0.27528076171875,-0.848480224609375,-0.5499267578125,0.0026092529296875
1761838740876350000,0.285349853515625,-0.865966796875,-0.5379180908203125,0.0086669921875
1761838740886419700,0.295419677734375,-0.8799896240234375,-0.5257720947265625,0.013916015625
1761838740896490000,0.305489990234375,-0.8934326171875,-0.5121917724609375,0.0197296142578125
1761838740906559000,0.31555908203125,-0.90521240234375,-0.4983978271484375,0.027435302734375
1761838740916628700,0.325628662109375,-0.90673828125,-0.49407958984375,0.0394439697265625
1761838740926699000,0.335698974609375,-0.9047088623046875,-0.4955291748046875,0.0496368408203125
1761838740936767700,0.345767822265625,-0.899200439453125,-0.49432373046875,0.0531768798828125
1761838740946838000,0.355838134765625,-0.893524169921875,-0.4937286376953125,0.0496673583984375
1761838740956908000,0.365907958984375,-0.8850250244140625,-0.4994659423828125,0.04150390625
1761838740966976800,0.375976806640625,-0.8736114501953125,-0.51025390625,0.03167724609375
1761838740977047000,0.386047119140625,-0.8582000732421875,-0.5252532958984375,0.024139404296875
1761838740987116800,0.39611669921875,-0.8463134765625,-0.5414886474609375,0.0179290771484375
1761838740997186000,0.40618603515625,-0.832794189453125,-0.55706787109375,0.009613037109375
1761838741007255800,0.416255859375,-0.817657470703125,-0.566192626953125,-0.0001373291015625
1761838741017325800,0.426325927734375,-0.8089447021484375,-0.57220458984375,-0.00592041015625
1761838741027394800,0.436394775390625,-0.80712890625,-0.5731201171875,-0.0059356689453125
1761838741037464800,0.44646484375,-0.8087005615234375,-0.566558837890625,-0.002044677734375
1761838741047534800,0.456534912109375,-0.8118896484375,-0.5543670654296875,0.0053253173828125
1761838741057603800,0.466603759765625,-0.816436767578125,-0.5461273193359375,0.0142669677734375
1761838741067673900,0.476673828125,-0.819610595703125,-0.5424957275390625,0.0243988037109375
1761838741077743900,0.486743896484375,-0.816925048828125,-0.538330078125,0.0313873291015625
1761838741087812900,0.496812744140625,-0.816253662109375,-0.53497314453125,0.03411865234375
1761838741097883400,0.50688330078125,-0.815216064453125,-0.5362396240234375,0.0355987548828125
1761838741107953400,0.516953369140625,-0.812103271484375,-0.53643798828125,0.0323944091796875
1761838741118022400,0.5270224609375,-0.812103271484375,-0.535308837890625,0.030517578125
1761838741128092400,0.537092529296875,-0.81549072265625,-0.5374755859375,0.029754638671875
1761838741138162400,0.547162353515625,-0.821075439453125,-0.5418548583984375,0.0285797119140625
1761838741148231200,0.557231201171875,-0.8279876708984375,-0.5447998046875,0.02825927734375
1761838741158301400,0.567301513671875,-0.837066650390625,-0.546112060546875,0.0287933349609375
1761838741168371500,0.577371337890625,-0.8414459228515625,-0.5431671142578125,0.0261077880859375
1761838741178440400,0.5874404296875,-0.8407745361328125,-0.5367431640625,0.025787353515625
1761838741188510500,0.597510498046875,-0.8416748046875,-0.533294677734375,0.0261383056640625
1761838741198580200,0.607580322265625,-0.8398590087890625,-0.53228759765625,0.02288818359375
1761838741208649500,0.6176494140625,-0.8419647216796875,-0.5317535400390625,0.0225372314453125
1761838741218719500,0.627719482421875,-0.84454345703125,-0.5348663330078125,0.02435302734375
1761838741228789200,0.637789306640625,-0.8407745361328125,-0.5346832275390625,0.0206451416015625
1761838741238858500,0.6478583984375,-0.84033203125,-0.5332489013671875,0.0184478759765625
1761838741248928300,0.65792822265625,-0.8411102294921875,-0.53375244140625,0.0179595947265625
1761838741258998300,0.667998291015625,-0.8411102294921875,-0.5356597900390625,0.0177459716796875
1761838741269067300,0.6780673828125,-0.8394317626953125,-0.536407470703125,0.0174102783203125
1761838741279137300,0.68813720703125,-0.8361968994140625,-0.5372772216796875,0.016265869140625
1761838741289207600,0.69820751953125,-0.833160400390625,-0.5398712158203125,0.013153076171875
1761838741299276300,0.7082763671875,-0.83001708984375,-0.5401458740234375,0.0091094970703125
1761838741309346600,0.7183466796875,-0.8377685546875,-0.53692626953125,0.0059051513671875
1761838741319416300,0.728416259765625,-0.8447265625,-0.529632568359375,0.0062103271484375
1761838741329485300,0.7384853515625,-0.8530731201171875,-0.5238494873046875,0.01263427734375
1761838741339555300,0.748555419921875,-0.8591156005859375,-0.5221405029296875,0.018951416015625
1761838741349625300,0.758625244140625,-0.858367919921875,-0.52508544921875,0.0200653076171875
1761838741359694600,0.768694580078125,-0.860687255859375,-0.523895263671875,0.0167388916015625
1761838741369764400,0.778764404296875,-0.8560333251953125,-0.5199737548828125,0.0101776123046875
1761838741379834400,0.78883447265625,-0.8560791015625,-0.5204925537109375,0.00982666015625
1761838741389903400,0.7989033203125,-0.8608856201171875,-0.5217132568359375,0.0112457275390625
1761838741399973400,0.808973388671875,-0.86090087890625,-0.51922607421875,0.0118560791015625
1761838741410043400,0.81904345703125,-0.8558807373046875,-0.519989013671875,0.0143585205078125
1761838741420113400,0.829113525390625,-0.8527069091796875,-0.5210418701171875,0.014434814453125
1761838741430182400,0.839182373046875,-0.846466064453125,-0.5204315185546875,0.0097808837890625
1761838741440252400,0.84925244140625,-0.842987060546875,-0.521331787109375,0.0037384033203125
1761838741450322400,0.859322509765625,-0.8367462158203125,-0.5233306884765625,0.00537109375
1761838741460391200,0.86939111328125,-0.828125,-0.519989013671875,0.006866455078125
1761838741470461400,0.87946142578125,-0.8255615234375,-0.5172882080078125,0.0054779052734375
1761838741480531500,0.889531494140625,-0.8164215087890625,-0.519378662109375,0.00201416015625
1761838741490600400,0.899600341796875,-0.8111724853515625,-0.52252197265625,-0.0025482177734375
1761838741500670500,0.90967041015625,-0.800201416015625,-0.530853271484375,-0.0050506591796875
1761838741510740200,0.919740234375,-0.799560546875,-0.542572021484375,-0.0025177001953125
1761838741520809500,0.9298095703125,-0.8028106689453125,-0.5480194091796875,0.0017547607421875
1761838741530879200,0.939879150390625,-0.8010101318359375,-0.5472869873046875,0.0069732666015625
1761838741540949200,0.94994921875,-0.8020172119140625,-0.5428619384765625,0.0097503662109375
1761838741551018500,0.9600185546875,-0.81097412109375,-0.539642333984375,0.0075836181640625
1761838741561088300,0.970088134765625,-0.8206024169921875,-0.5354156494140625,0.00390625
1761838741571158500,0.980158447265625,-0.8384246826171875,-0.53070068359375,0.0030059814453125
1761838741581227300,0.990227294921875,-0.8553314208984375,-0.522979736328125,-0.0015106201171875
1761838741591297300,1.00029736328125,-0.864105224609375,-0.518646240234375,-0.01300048828125
1761838741601367600,1.010367431640625,-0.8741455078125,-0.5150909423828125,-0.0178070068359375
1761838741611436300,1.020436279296875,-0.886962890625,-0.5045166015625,-0.0185089111328125
1761838741621506600,1.030506591796875,-0.888885498046875,-0.4942474365234375,-0.0184326171875
1761838741631576300,1.040576416015625,-0.8877410888671875,-0.4885406494140625,-0.0166778564453125
1761838741641645300,1.050645263671875,-0.8847503662109375,-0.482818603515625,-0.0153045654296875
1761838741651715300,1.06071533203125,-0.8800811767578125,-0.4757843017578125,-0.0196533203125
1761838741661785300,1.070785400390625,-0.87481689453125,-0.4716644287109375,-0.0233154296875
1761838741671855400,1.08085546875,-0.87518310546875,-0.47320556640625,-0.021575927734375
1761838741681924400,1.09092431640625,-0.8759765625,-0.479095458984375,-0.0201568603515625
1761838741691994400,1.100994384765625,-0.8661956787109375,-0.4792633056640625,-0.0235595703125
1761838741702064400,1.111064453125,-0.860687255859375,-0.4781036376953125,-0.0228729248046875
1761838741712133400,1.12113330078125,-0.8521575927734375,-0.47802734375,-0.0208892822265625
1761838741722203400,1.131203369140625,-0.8494873046875,-0.4821929931640625,-0.015167236328125
1761838741732273400,1.1412734375,-0.8430938720703125,-0.48883056640625,-0.013946533203125
1761838741742342400,1.15134228515625,-0.8438873291015625,-0.4932708740234375,-0.0123138427734375
1761838741752412400,1.161412353515625,-0.850830078125,-0.4991455078125,-0.013824462890625
1761838741762482400,1.171482421875,-0.8583526611328125,-0.503021240234375,-0.01617431640625
1761838741772551400,1.181551513671875,-0.85662841796875,-0.5005645751953125,-0.020843505859375
1761838741782621400,1.191621337890625,-0.86395263671875,-0.498565673828125,-0.0179595947265625
1761838741792691500,1.20169140625,-0.8593292236328125,-0.49945068359375,-0.0108642578125
1761838741802760400,1.211760498046875,-0.8545684814453125,-0.5012054443359375,-0.0112457275390625
1761838741812830500,1.22183056640625,-0.8634033203125,-0.50616455078125,-0.008941650390625
1761838741822900200,1.231900146484375,-0.8784637451171875,-0.5124359130859375,-0.0078125
1761838741832969500,1.241969482421875,-0.8846588134765625,-0.5150909423828125,-0.015838623046875
1761838741843039200,1.252039306640625,-0.8876953125,-0.514678955078125,-0.020904541015625
1761838741853109200,1.262109130859375,-0.90032958984375,-0.5125885009765625,-0.02362060546875
1761838741863178500,1.272178466796875,-0.90411376953125,-0.513092041015625,-0.0281524658203125
1761838741873248300,1.282248291015625,-0.898223876953125,-0.5155029296875,-0.036865234375
1761838741883318500,1.292318603515625,-0.896331787109375,-0.5202178955078125,-0.0439300537109375
1761838741893388300,1.30238818359375,-0.8894195556640625,-0.5284576416015625,-0.0478973388671875
1761838741903457300,1.312457275390625,-0.879119873046875,-0.536773681640625,-0.0514678955078125
1761838741913527600,1.322527587890625,-0.8782806396484375,-0.54400634765625,-0.0562591552734375
1761838741923597300,1.332597412109375,-0.8787994384765625,-0.5457916259765625,-0.0594024658203125
1761838741933666600,1.34266650390625,-0.8795318603515625,-0.5496826171875,-0.0637664794921875
1761838741943736300,1.352736328125,-0.87896728515625,-0.557464599609375,-0.068023681640625
1761838741953806300,1.362806396484375,-0.8852081298828125,-0.556488037109375,-0.0730743408203125
1761838741963875300,1.372875244140625,-0.88299560546875,-0.547393798828125,-0.0759735107421875
1761838741973945300,1.3829453125,-0.871551513671875,-0.542938232421875,-0.0808258056640625
1761838741984015400,1.393015380859375,-0.8610687255859375,-0.5447235107421875,-0.085479736328125
1761838741994084400,1.40308447265625,-0.8677215576171875,-0.544097900390625,-0.0791015625
1761838742004154400,1.413154296875,-0.876953125,-0.5440826416015625,-0.0708160400390625
1761838742014224400,1.423224365234375,-0.881378173828125,-0.5320281982421875,-0.0669403076171875
1761838742024293400,1.43329345703125,-0.9028778076171875,-0.5111846923828125,-0.06109619140625
1761838742034363400,1.44336328125,-0.9330902099609375,-0.4874114990234375,-0.050872802734375
1761838742044433400,1.453433349609375,-0.962005615234375,-0.4598846435546875,-0.0428924560546875
1761838742054503400,1.46350341796875,-0.9744415283203125,-0.430206298828125,-0.047882080078125
1761838742064572400,1.473572509765625,-0.974609375,-0.3976898193359375,-0.05767822265625
1761838742074642400,1.483642333984375,-0.9703369140625,-0.3711700439453125,-0.0654754638671875
1761838742084712200,1.493712158203125,-0.956634521484375,-0.34954833984375,-0.072509765625
1761838742094781200,1.50378125,-0.9388885498046875,-0.340606689453125,-0.0761566162109375
1761838742104851200,1.513851318359375,-0.925201416015625,-0.339080810546875,-0.073394775390625
1761838742114921200,1.523921142578125,-0.91259765625,-0.34124755859375,-0.070770263671875
1761838742124990200,1.533990234375,-0.8945159912109375,-0.3419952392578125,-0.0696563720703125
1761838742135060000,1.54406005859375,-0.8844757080078125,-0.342498779296875,-0.0710906982421875
1761838742145130200,1.554130126953125,-0.872711181640625,-0.3438720703125,-0.079864501953125
1761838742155199000,1.564198974609375,-0.85760498046875,-0.3360595703125,-0.090911865234375
1761838742165269200,1.574269287109375,-0.8506011962890625,-0.326263427734375,-0.10443115234375
1761838742175339300,1.58433935546875,-0.8399505615234375,-0.320648193359375,-0.1196441650390625
1761838742185409000,1.594408935546875,-0.8304901123046875,-0.31591796875,-0.1283111572265625
1761838742195478300,1.604478271484375,-0.8219146728515625,-0.3132781982421875,-0.1285400390625
1761838742205548300,1.61454833984375,-0.814727783203125,-0.3122100830078125,-0.121063232421875
1761838742215618000,1.6246181640625,-0.8153839111328125,-0.309112548828125,-0.108917236328125
1761838742225687300,1.634687255859375,-0.81817626953125,-0.306182861328125,-0.09283447265625
1761838742235757000,1.644757080078125,-0.8191375732421875,-0.3040008544921875,-0.077362060546875
1761838742245827000,1.6548271484375,-0.8284149169921875,-0.3060760498046875,-0.066650390625
1761838742255896000,1.66489599609375,-0.837860107421875,-0.3123931884765625,-0.0573272705078125
1761838742265966000,1.674966064453125,-0.8377685546875,-0.31744384765625,-0.0496063232421875
1761838742276036400,1.685036376953125,-0.843414306640625,-0.3240203857421875,-0.0478973388671875
1761838742286105000,1.69510498046875,-0.8496856689453125,-0.3318939208984375,-0.0474395751953125
1761838742296175400,1.70517529296875,-0.8531341552734375,-0.3359527587890625,-0.0497283935546875
1761838742306245000,1.7152451171875,-0.85638427734375,-0.337158203125,-0.0528106689453125
1761838742316315100,1.725315185546875,-0.8615875244140625,-0.33807373046875,-0.055267333984375
1761838742326384000,1.735384033203125,-0.8633880615234375,-0.3396453857421875,-0.0596771240234375
1761838742336454100,1.7454541015625,-0.864105224609375,-0.34075927734375,-0.0681304931640625
1761838742346524200,1.755524169921875,-0.8670806884765625,-0.334930419921875,-0.0770111083984375
1761838742356593200,1.76559326171875,-0.8641357421875,-0.3172760009765625,-0.090972900390625
1761838742366663200,1.7756630859375,-0.859283447265625,-0.28985595703125,-0.104156494140625
1761838742376733200,1.785733154296875,-0.8594207763671875,-0.2607269287109375,-0.1101531982421875
1761838742386802200,1.79580224609375,-0.851715087890625,-0.2397003173828125,-0.1126251220703125
1761838742396872200,1.8058720703125,-0.8224639892578125,-0.21484375,-0.1207122802734375
1761838742406942200,1.815942138671875,-0.7980499267578125,-0.1922607421875,-0.11920166015625
1761838742417012200,1.82601220703125,-0.7883148193359375,-0.1840972900390625,-0.0987396240234375
1761838742427081200,1.836081298828125,-0.775909423828125,-0.1804046630859375,-0.0761871337890625
1761838742437151200,1.846151123046875,-0.740234375,-0.16961669921875,-0.0483551025390625
1761838742447221200,1.85622119140625,-0.6922149658203125,-0.1827545166015625,-0.0265655517578125
1761838742457290200,1.866290283203125,-0.6837615966796875,-0.20281982421875,0.02850341796875
1761838742467360300,1.8763603515625,-0.72381591796875,-0.231658935546875,0.07904052734375
1761838742477430000,1.886429931640625,-0.7444610595703125,-0.2570648193359375,0.077911376953125
1761838742487499300,1.896499267578125,-0.7653350830078125,-0.2284088134765625,0.073089599609375
1761838742497569000,1.906569091796875,-0.7313079833984375,-0.2144775390625,0.08990478515625
1761838742507639300,1.916639404296875,-0.5368194580078125,-0.0796661376953125,0.0589141845703125
1761838742517708000,1.9267080078125,-0.230987548828125,0.1785430908203125,0.0485076904296875
1761838742527778000,1.936778076171875,0.01556396484375,0.3569183349609375,-0.077301025390625
1761838742537848300,1.946848388671875,-0.0094146728515625,0.3689117431640625,-0.1680145263671875
1761838742547918000,1.95691796875,-0.3855743408203125,0.1649932861328125,-0.099395751953125
1761838742557987300,1.9669873046875,-0.4036102294921875,0.039886474609375,0.0924835205078125
1761838742568057000,1.97705712890625,-0.3984375,0.058837890625,0.1666412353515625
1761838742578127000,1.987127197265625,-0.3692474365234375,0.09259033203125,0.2154693603515625
1761838742588196400,1.9971962890625,-0.4091796875,0.072723388671875,0.2929229736328125
1761838742598266000,2.00726611328125,-0.4709014892578125,-0.0110321044921875,0.3487548828125
1761838742608336100,2.017336181640625,-0.4788818359375,-0.0843658447265625,0.3492279052734375
1761838742618405000,2.027405029296875,-0.5158538818359375,-0.1174774169921875,0.3315582275390625
1761838742628475100,2.03747509765625,-0.63330078125,-0.196533203125,0.3092498779296875
1761838742638545200,2.047545166015625,-0.811309814453125,-0.3158721923828125,0.32940673828125
1761838742648615200,2.057615234375,-1.071197509765625,-0.430328369140625,0.4034423828125
1761838742658684200,2.06768408203125,-1.412017822265625,-0.5187835693359375,0.4703369140625
1761838742668754200,2.077754150390625,-1.7639007568359375,-0.525054931640625,0.4472808837890625
1761838742678824200,2.08782421875,-2.1584320068359375,-0.444671630859375,0.3433685302734375
1761838742688893200,2.09789306640625,-2.4905242919921875,-0.340423583984375,0.1865997314453125
1761838742698963200,2.107963134765625,-2.7606964111328125,-0.2305755615234375,-0.0082550048828125
1761838742709033200,2.118033203125,-2.918792724609375,-0.145782470703125,-0.2322998046875
1761838742719102200,2.128102294921875,-2.9585113525390625,-0.138427734375,-0.3926239013671875
1761838742729172200,2.138172119140625,-3.0066375732421875,-0.2486114501953125,-0.3899993896484375
1761838742739242000,2.148241943359375,-3.1291961669921875,-0.323577880859375,-0.2646331787109375
1761838742749312300,2.158312255859375,-3.3175506591796875,-0.4091339111328125,-0.1081085205078125
1761838742759381000,2.168381103515625,-3.4997100830078125,-0.4779205322265625,-0.0308074951171875
1761838742769451300,2.178451171875,-3.545135498046875,-0.416229248046875,-0.06829833984375
1761838742779521300,2.188521240234375,-3.4532928466796875,-0.418853759765625,-0.22540283203125
1761838742789590000,2.198590087890625,-3.499847412109375,-0.529937744140625,-0.54949951171875
1761838742799660300,2.208660400390625,-3.6540374755859375,-0.1622772216796875,-0.72467041015625
1761838742809730000,2.21872998046875,-3.546142578125,0.2630462646484375,-0.8538665771484375
1761838742819800000,2.228800048828125,-3.2688751220703125,0.391326904296875,-0.965423583984375
1761838742829869300,2.238869384765625,-2.72662353515625,0.533203125,-1.0357666015625
1761838742839939000,2.24893896484375,-2.0312957763671875,0.6684112548828125,-1.07733154296875
1761838742850009000,2.259009033203125,-1.575469970703125,0.6885986328125,-1.005279541015625
1761838742860078000,2.269078125,-1.414215087890625,0.6155853271484375,-0.8377838134765625
1761838742870148000,2.279148193359375,-1.1288299560546875,0.5680999755859375,-0.686004638671875
1761838742880218400,2.28921826171875,-0.5499267578125,0.49700927734375,-0.635345458984375
1761838742890287000,2.299287109375,-0.07568359375,0.3553314208984375,-0.6020660400390625
1761838742900357000,2.309357177734375,0.1739044189453125,0.298583984375,-0.463409423828125
1761838742910427100,2.31942724609375,0.3466796875,0.214630126953125,-0.276824951171875
1761838742920497200,2.3294970703125,0.518829345703125,0.2189483642578125,-0.1151123046875
1761838742930566100,2.339566162109375,0.695159912109375,0.366302490234375,-0.0015106201171875
1761838742940636200,2.34963623046875,0.805877685546875,0.3780059814453125,0.280242919921875
1761838742950706200,2.3597060546875,0.57818603515625,0.1301727294921875,0.487579345703125
1761838742960775200,2.369775146484375,0.4305877685546875,0.1968994140625,0.68634033203125
1761838742970845200,2.37984521484375,0.3531646728515625,0.1995391845703125,0.8031463623046875
1761838742980915000,2.3899150390625,0.2641754150390625,0.1969757080078125,0.8495330810546875
1761838742990984200,2.399984130859375,0.268096923828125,0.2213287353515625,0.8305511474609375
1761838743001054200,2.41005419921875,0.3200531005859375,0.206756591796875,0.766510009765625
1761838743011124200,2.420124267578125,0.3632354736328125,0.21234130859375,0.67999267578125
1761838743021194200,2.4301943359375,0.3767852783203125,0.2132415771484375,0.572052001953125
1761838743031263200,2.44026318359375,0.3678131103515625,0.13946533203125,0.442047119140625
1761838743041333200,2.450333251953125,0.3623046875,0.048919677734375,0.2878570556640625
1761838743051403300,2.4604033203125,0.364501953125,-0.0148162841796875,0.138763427734375
1761838743061472300,2.47047216796875,0.343017578125,-0.047607421875,0.0228271484375
1761838743071542300,2.480542236328125,0.314544677734375,-0.053131103515625,-0.049346923828125
1761838743081612000,2.490612060546875,0.264129638671875,-0.0556793212890625,-0.06671142578125
1761838743091682300,2.500682373046875,0.1982269287109375,-0.0869903564453125,-0.0383148193359375
1761838743101752300,2.51075244140625,0.1009063720703125,-0.1234130859375,-0.0251617431640625
1761838743111822300,2.520822265625,0.0100250244140625,-0.16461181640625,-0.028045654296875
1761838743121892000,2.53089208984375,-0.06988525390625,-0.2201385498046875,-0.0329742431640625
1761838743131961300,2.54096142578125,-0.1504364013671875,-0.2805328369140625,-0.0401611328125
1761838743142031000,2.551031005859375,-0.227874755859375,-0.3177032470703125,-0.062164306640625
1761838743152101400,2.561101318359375,-0.2771148681640625,-0.313690185546875,-0.10028076171875
1761838743162170000,2.571170166015625,-0.3307952880859375,-0.280731201171875,-0.1555023193359375
1761838743172240400,2.581240478515625,-0.3860626220703125,-0.2423858642578125,-0.2013702392578125
1761838743182310400,2.591310302734375,-0.430633544921875,-0.210845947265625,-0.2541656494140625
1761838743192380200,2.601380126953125,-0.4615325927734375,-0.178009033203125,-0.3124847412109375
1761838743202449400,2.611449462890625,-0.48724365234375,-0.148956298828125,-0.35040283203125
1761838743212519200,2.621519287109375,-0.518890380859375,-0.115936279296875,-0.359649658203125
1761838743222589200,2.631589111328125,-0.5488739013671875,-0.0590972900390625,-0.350250244140625
1761838743232658200,2.641658203125,-0.549407958984375,-0.009857177734375,-0.331451416015625
1761838743242728200,2.651728271484375,-0.528411865234375,0.004364013671875,-0.290496826171875
1761838743252798200,2.661798095703125,-0.5109710693359375,0.0056610107421875,-0.219146728515625
1761838743262868200,2.6718681640625,-0.531219482421875,0.002044677734375,-0.104888916015625
1761838743272937200,2.681937255859375,-0.6078643798828125,0.043304443359375,0.0389404296875
1761838743283007200,2.69200732421875,-0.728546142578125,0.0850372314453125,0.21075439453125
1761838743293077200,2.7020771484375,-0.8756256103515625,0.0316009521484375,0.367279052734375
1761838743303146200,2.712146240234375,-0.909637451171875,-0.096923828125,0.4519195556640625
1761838743313216300,2.72221630859375,-0.8885345458984375,-0.3024139404296875,0.4553680419921875
1761838743323286300,2.732286376953125,-0.9460906982421875,-0.481842041015625,0.357696533203125
1761838743333356000,2.74235595703125,-1.0240325927734375,-0.5999755859375,0.14337158203125
1761838743343425300,2.75242529296875,-1.2106781005859375,-0.5072021484375,-0.3055419921875
1761838743353495300,2.762495361328125,-1.3781890869140625,-0.317626953125,-0.73388671875
1761838743363565300,2.7725654296875,-1.6407012939453125,-0.101531982421875,-0.9808197021484375
1761838743373634300,2.78263427734375,-1.8682403564453125,0.0843048095703125,-1.052093505859375
1761838743383704000,2.7927041015625,-1.95208740234375,0.184295654296875,-0.9441680908203125
1761838743393774300,2.8027744140625,-2.0265960693359375,0.2068328857421875,-0.666412353515625
1761838743403844400,2.81284423828125,-2.174224853515625,0.18243408203125,-0.3492889404296875
1761838743413913300,2.822913330078125,-2.2255859375,0.1059722900390625,-0.0602569580078125
1761838743423983400,2.8329833984375,-2.3402557373046875,-0.0266571044921875,0.14166259765625
1761838743434053000,2.84305322265625,-2.4749298095703125,-0.087860107421875,0.1798553466796875
1761838743444122400,2.853122314453125,-2.4816741943359375,-0.0424041748046875,0.020294189453125
1761838743454192000,2.863192138671875,-2.4151458740234375,0.0092010498046875,-0.2788543701171875
1761838743464262100,2.87326220703125,-2.38812255859375,0.0941925048828125,-0.6015472412109375
1761838743474332400,2.88333251953125,-2.476318359375,0.2670440673828125,-0.784454345703125
1761838743484401200,2.893401123046875,-2.5944366455078125,0.42205810546875,-0.8353424072265625
1761838743494471400,2.903471435546875,-2.5768280029296875,0.471923828125,-0.9023895263671875
1761838743504541200,2.913541259765625,-2.417877197265625,0.5112152099609375,-0.979705810546875
1761838743514610200,2.923610107421875,-2.3151702880859375,0.583038330078125,-0.9840240478515625
1761838743524680200,2.93368017578125,-2.1767425537109375,0.676055908203125,-0.9420318603515625
1761838743534750200,2.943750244140625,-2.0001220703125,0.6943206787109375,-0.8364715576171875
1761838743544820200,2.9538203125,-1.8213348388671875,0.653594970703125,-0.6732330322265625
1761838743554889200,2.96388916015625,-1.6031646728515625,0.6016082763671875,-0.509124755859375
1761838743564959200,2.973959228515625,-1.403411865234375,0.5355072021484375,-0.36773681640625
1761838743575029200,2.984029296875,-1.1608123779296875,0.480499267578125,-0.2649993896484375
1761838743585098200,2.99409814453125,-0.91363525390625,0.3957366943359375,-0.1906585693359375
1761838743595168300,3.004168212890625,-0.70751953125,0.3113861083984375,-0.1390838623046875
1761838743605238300,3.01423828125,-0.53900146484375,0.242462158203125,-0.102569580078125
1761838743615308300,3.024308349609375,-0.40704345703125,0.1816253662109375,-0.069976806640625
1761838743625377300,3.034377197265625,-0.33538818359375,0.1231536865234375,-0.04150390625
1761838743635447300,3.044447265625,-0.291656494140625,0.0813140869140625,-0.022552490234375
1761838743645517300,3.054517333984375,-0.2651214599609375,0.056427001953125,-0.0127410888671875
1761838743655586300,3.06458642578125,-0.255523681640625,0.030975341796875,-0.0101776123046875
1761838743665656300,3.07465625,-0.2592926025390625,-0.0035858154296875,-0.0151214599609375
1761838743675726000,3.08472607421875,-0.269561767578125,-0.045501708984375,-0.0149078369140625
1761838743685795300,3.09479541015625,-0.291656494140625,-0.071929931640625,-0.0062713623046875
1761838743695865000,3.104864990234375,-0.29248046875,-0.0650634765625,0.01678466796875
1761838743705935400,3.114935302734375,-0.32470703125,-0.04693603515625,0.0560455322265625
1761838743716005400,3.12500537109375,-0.388580322265625,-0.027008056640625,0.095489501953125
1761838743726074000,3.13507421875,-0.4250030517578125,0.0027618408203125,0.11077880859375
1761838743736144400,3.145144287109375,-0.4344482421875,0.045989990234375,0.1089935302734375
1761838743746214100,3.155214111328125,-0.435333251953125,0.0603485107421875,0.09954833984375
1761838743756284200,3.1652841796875,-0.44244384765625,0.0362396240234375,0.08575439453125
1761838743766353400,3.175353515625,-0.4528656005859375,-0.0016937255859375,0.06207275390625
1761838743776423200,3.185423095703125,-0.4931640625,-0.0447540283203125,0.0124359130859375
1761838743786493200,3.1954931640625,-0.5475616455078125,-0.0872955322265625,-0.069061279296875
1761838743796562200,3.205562255859375,-0.59991455078125,-0.1306610107421875,-0.17584228515625
1761838743806632200,3.215632080078125,-0.6495208740234375,-0.14923095703125,-0.288482666015625
1761838743816702500,3.225702392578125,-0.685546875,-0.14007568359375,-0.3747406005859375
1761838743826772200,3.235772216796875,-0.715179443359375,-0.12890625,-0.4262542724609375
1761838743836841500,3.245841552734375,-0.7225189208984375,-0.1311492919921875,-0.442047119140625
1761838743846911200,3.2559111328125,-0.732635498046875,-0.1281585693359375,-0.4312744140625
1761838743856981200,3.265981201171875,-0.798492431640625,-0.1171722412109375,-0.4065704345703125
1761838743867050200,3.27605029296875,-0.883148193359375,-0.103302001953125,-0.3832550048828125
1761838743877120300,3.286120361328125,-0.9646148681640625,-0.085418701171875,-0.3824310302734375
1761838743887190300,3.296190185546875,-1.0599517822265625,-0.079498291015625,-0.38153076171875
1761838743897260300,3.30626025390625,-1.1670074462890625,-0.0618896484375,-0.369781494140625
1761838743907329300,3.316329345703125,-1.2433319091796875,0.0006256103515625,-0.338409423828125
1761838743917399300,3.3263994140625,-1.3153228759765625,0.084228515625,-0.287567138671875
1761838743927469300,3.33646923828125,-1.39715576171875,0.057891845703125,-0.2756805419921875
1761838743937538000,3.3465380859375,-1.4615478515625,0.008575439453125,-0.284393310546875
1761838743947608300,3.3566083984375,-1.4869842529296875,0.022125244140625,-0.325439453125
1761838743957678300,3.36667822265625,-1.4143218994140625,0.1098175048828125,-0.354248046875
1761838743967748000,3.376748046875,-1.355987548828125,0.152008056640625,-0.3747406005859375
1761838743977817300,3.3868173828125,-1.332061767578125,0.1213836669921875,-0.3475494384765625
1761838743987887000,3.39688720703125,-1.2807159423828125,0.093505859375,-0.3140411376953125
1761838743997957000,3.40695703125,-1.22491455078125,0.077545166015625,-0.2978973388671875
1761838744008026400,3.4170263671875,-1.160888671875,0.0764007568359375,-0.2841796875
1761838744018096000,3.42709619140625,-1.0870819091796875,0.0889129638671875,-0.2823333740234375
1761838744028166400,3.43716650390625,-1.0034027099609375,0.0940704345703125,-0.2716064453125
1761838744038236200,3.447236083984375,-0.9011077880859375,0.0792083740234375,-0.2523040771484375
1761838744048305200,3.45730517578125,-0.81005859375,0.054718017578125,-0.248504638671875
1761838744058375400,3.46737548828125,-0.7348785400390625,0.033782958984375,-0.243438720703125
1761838744068445200,3.477445068359375,-0.65826416015625,-0.0193023681640625,-0.236297607421875
1761838744078514400,3.487514404296875,-0.5690460205078125,-0.059722900390625,-0.203765869140625
1761838744088584200,3.497584228515625,-0.5063323974609375,-0.0557098388671875,-0.1943511962890625
1761838744098653400,3.5076533203125,-0.463470458984375,-0.070465087890625,-0.1894378662109375
1761838744108723500,3.517723388671875,-0.4452056884765625,-0.073638916015625,-0.173126220703125
1761838744118792200,3.527792236328125,-0.4393157958984375,-0.0584564208984375,-0.1510467529296875
1761838744128862500,3.537862548828125,-0.423187255859375,-0.0321044921875,-0.1336822509765625
1761838744138932500,3.547932373046875,-0.4139862060546875,-0.01666259765625,-0.11602783203125
1761838744149001500,3.55800146484375,-0.406768798828125,-0.011077880859375,-0.0899505615234375
1761838744159071500,3.568071533203125,-0.4082489013671875,0.0030364990234375,-0.0571746826171875
1761838744169141200,3.578141357421875,-0.4136505126953125,0.0261383056640625,-0.034820556640625
1761838744179211300,3.588211181640625,-0.4016876220703125,0.0617828369140625,-0.03302001953125
1761838744189280300,3.5982802734375,-0.344024658203125,0.0984344482421875,-0.05780029296875
1761838744199350300,3.608350341796875,-0.291259765625,0.1134796142578125,-0.0746307373046875
1761838744209420500,3.618420654296875,-0.278106689453125,0.1098785400390625,-0.0576324462890625
1761838744219489300,3.6284892578125,-0.2860870361328125,0.1073150634765625,-0.03692626953125
1761838744229559300,3.638559326171875,-0.281341552734375,0.1026153564453125,-0.0389556884765625
1761838744239629300,3.64862939453125,-0.26885986328125,0.111175537109375,-0.0265655517578125
1761838744249699300,3.65869921875,-0.29583740234375,0.1240081787109375,0.008087158203125
1761838744259768600,3.6687685546875,-0.3839111328125,0.10809326171875,0.0632781982421875
1761838744269838300,3.67883837890625,-0.5052032470703125,0.067230224609375,0.107879638671875
1761838744279908400,3.688908447265625,-0.66326904296875,0.0322265625,0.16143798828125
1761838744289977300,3.698977294921875,-0.8381500244140625,-0.007171630859375,0.240020751953125
1761838744300047400,3.70904736328125,-1.020904541015625,-0.074066162109375,0.321075439453125
1761838744310117400,3.719117431640625,-1.29437255859375,-0.2347564697265625,0.4561767578125
1761838744320187400,3.7291875,-1.6922607421875,-0.451019287109375,0.6334228515625
1761838744330256400,3.73925634765625,-2.1453857421875,-0.5782928466796875,0.71270751953125
1761838744340326400,3.749326416015625,-2.6815338134765625,-0.5245819091796875,0.636505126953125
1761838744350396400,3.759396484375,-3.1236419677734375,-0.375732421875,0.4829254150390625
1761838744360465400,3.76946533203125,-3.4752044677734375,-0.3054656982421875,0.33551025390625
1761838744370535400,3.779535400390625,-3.76531982421875,-0.15557861328125,0.1261444091796875
1761838744380605400,3.78960546875,-3.7209625244140625,0.082489013671875,-0.1527557373046875
1761838744390675200,3.79967529296875,-3.5032196044921875,0.208465576171875,-0.358978271484375
1761838744400744400,3.809744384765625,-3.1735382080078125,0.2565460205078125,-0.5240631103515625
1761838744410814200,3.819814208984375,-2.9332427978515625,0.3475341796875,-0.6523895263671875
1761838744420884500,3.829884521484375,-2.856719970703125,0.4063568115234375,-0.751800537109375
1761838744430954500,3.83995458984375,-2.869537353515625,0.384521484375,-0.7567138671875
1761838744441023200,3.850023193359375,-2.885528564453125,0.210540771484375,-0.66851806640625
1761838744451093500,3.860093505859375,-2.839752197265625,0.045166015625,-0.59088134765625
1761838744461163300,3.870163330078125,-2.706390380859375,-0.0724639892578125,-0.59014892578125
1761838744471232500,3.880232421875,-2.3916778564453125,-0.3049774169921875,-0.8117828369140625
1761838744481302300,3.89030224609375,-1.885955810546875,-0.81280517578125,-1.449127197265625
1761838744491372300,3.900372314453125,-1.4619598388671875,-0.76654052734375,-2.152069091796875
1761838744501442600,3.910442626953125,-1.30914306640625,0.0121307373046875,-2.1582489013671875
1761838744511511300,3.92051123046875,-1.6845245361328125,0.0916748046875,-1.34576416015625
1761838744521581300,3.930581298828125,-1.768035888671875,0.056427001953125,-0.6956024169921875
1761838744531651300,3.9406513671875,-1.3584747314453125,0.240753173828125,-0.450439453125
1761838744541720300,3.95072021484375,-1.13714599609375,0.2848358154296875,-0.296966552734375
1761838744551790600,3.96079052734375,-1.0396881103515625,0.3214569091796875,-0.169219970703125
1761838744561860400,3.9708603515625,-0.99847412109375,0.3345184326171875,-0.012481689453125
1761838744571930400,3.980930419921875,-0.940948486328125,0.316925048828125,0.098663330078125
1761838744581999400,3.990999267578125,-0.723663330078125,0.3545074462890625,0.0959625244140625
1761838744592069400,4.0010693359375,-0.3937530517578125,0.41595458984375,0.0385589599609375
1761838744602139400,4.011139404296875,-0.1064605712890625,0.4431610107421875,0.0322265625
1761838744612208400,4.02120849609375,0.078887939453125,0.398193359375,0.073822021484375
1761838744622276400,4.0312763671875,0.214599609375,0.33245849609375,0.134124755859375
1761838744632346400,4.041346435546875,0.333343505859375,0.281646728515625,0.194183349609375
1761838744642416400,4.05141650390625,0.42803955078125,0.2563934326171875,0.223175048828125
1761838744652485400,4.0614853515625,0.4810028076171875,0.2297515869140625,0.22149658203125
1761838744662555400,4.071555419921875,0.550079345703125,0.237274169921875,0.2151947021484375
1761838744672625400,4.08162548828125,0.59027099609375,0.2544708251953125,0.23223876953125
1761838744682694400,4.0916943359375,0.6240081787109375,0.294036865234375,0.297637939453125
1761838744692764200,4.10176416015625,0.5711517333984375,0.1913909912109375,0.36114501953125
1761838744702834400,4.11183447265625,0.532012939453125,0.0328521728515625,0.414764404296875
1761838744712904400,4.121904541015625,0.60211181640625,-0.0767059326171875,0.393890380859375
1761838744722973400,4.131973388671875,0.7038421630859375,0.028656005859375,0.244171142578125
1761838744733043500,4.14204345703125,0.7599029541015625,0.07952880859375,0.1390533447265625
1761838744743113200,4.15211328125,0.7282257080078125,0.0822296142578125,0.0337066650390625
1761838744753182500,4.162182373046875,0.6763153076171875,0.157684326171875,-0.0557403564453125
1761838744763252200,4.172252197265625,0.6274261474609375,0.2103729248046875,-0.0888519287109375
1761838744773322200,4.182322265625,0.55645751953125,0.20916748046875,-0.0854034423828125
1761838744783392500,4.192392578125,0.48858642578125,0.191131591796875,-0.0442657470703125
1761838744793461200,4.202461181640625,0.4501190185546875,0.09844970703125,0.05810546875
1761838744803531500,4.212531494140625,0.4151611328125,-0.214019775390625,0.166717529296875
1761838744813601500,4.2226015625,0.390106201171875,-0.2446441650390625,0.168212890625
1761838744823670300,4.232670166015625,0.4117889404296875,-0.2265625,0.1879730224609375
1761838744833740500,4.242740478515625,0.3534698486328125,-0.31884765625,0.1773834228515625
1761838744843810300,4.252810302734375,0.2557525634765625,-0.406982421875,0.134918212890625
1761838744853880300,4.26288037109375,0.147674560546875,-0.5200653076171875,0.026031494140625
1761838744863949300,4.27294921875,0.0570831298828125,-0.6783905029296875,-0.1942138671875
1761838744874019300,4.283019287109375,-0.0261993408203125,-0.7452392578125,-0.464874267578125
1761838744884089300,4.29308935546875,-0.1358642578125,-0.6060333251953125,-0.559814453125
1761838744894159400,4.303159423828125,-0.2804718017578125,-0.3939056396484375,-0.409820556640625
1761838744904228400,4.313228271484375,-0.3621063232421875,-0.2562255859375,-0.2131805419921875
1761838744914298400,4.32329833984375,-0.3950653076171875,-0.12982177734375,-0.0487518310546875
1761838744924368400,4.333368408203125,-0.4478912353515625,-0.0673370361328125,0.104522705078125
1761838744934437400,4.343437255859375,-0.5547943115234375,-0.030242919921875,0.283203125
1761838744944507400,4.35350732421875,-0.6657562255859375,-0.01153564453125,0.46539306640625
1761838744954577400,4.363577392578125,-0.826568603515625,0.002227783203125,0.635833740234375
1761838744964647200,4.373647216796875,-1.0243377685546875,-0.06768798828125,0.78094482421875
1761838744974716400,4.38371630859375,-1.21990966796875,-0.1908111572265625,0.850341796875
1761838744984786200,4.3937861328125,-1.3277587890625,-0.325531005859375,0.82110595703125
1761838744994856400,4.4038564453125,-1.296356201171875,-0.686126708984375,0.72802734375
1761838745004925400,4.413925537109375,-1.5143890380859375,-1.167694091796875,0.2639617919921875
1761838745014995500,4.423995361328125,-1.8735504150390625,-1.2242889404296875,-0.4194793701171875
1761838745025065500,4.4340654296875,-2.114227294921875,-0.4190216064453125,-0.722686767578125
1761838745035135200,4.44413525390625,-2.3505401611328125,0.2089691162109375,-0.6507415771484375
1761838745045204500,4.45420458984375,-2.785186767578125,0.1944427490234375,-0.3334197998046875
1761838745055274500,4.4642744140625,-2.8857574462890625,0.3590545654296875,-0.0134429931640625
1761838745065344300,4.47434423828125,-2.643646240234375,0.5626678466796875,0.2301483154296875
1761838745075414500,4.48441455078125,-2.40966796875,0.433807373046875,0.4911346435546875
1761838745085483300,4.494483154296875,-2.228424072265625,0.183990478515625,0.6725921630859375
1761838745095553300,4.50455322265625,-2.120819091796875,-0.0047454833984375,0.730194091796875
1761838745105623800,4.514623779296875,-2.17822265625,-0.0779876708984375,0.6491241455078125
1761838745115692800,4.52469287109375,-2.2527313232421875,-0.07305908203125,0.453155517578125
1761838745125762800,4.5347626953125,-2.27484130859375,-0.105560302734375,0.11859130859375
1761838745135832800,4.544832763671875,-2.22125244140625,-0.263916015625,-0.4300689697265625
1761838745145902600,4.554902587890625,-2.061859130859375,-0.45513916015625,-1.127166748046875
1761838745155971800,4.564971923828125,-1.8339385986328125,-0.3346099853515625,-1.5145416259765625
1761838745166041900,4.575041748046875,-1.8538665771484375,-0.302459716796875,-1.414093017578125
1761838745176111600,4.585111572265625,-1.95849609375,-0.192230224609375,-1.1417236328125
1761838745186182000,4.595181884765625,-1.93121337890625,-0.071685791015625,-0.8718719482421875
1761838745196250600,4.605250732421875,-1.7971343994140625,-0.072723388671875,-0.64569091796875
1761838745206320600,4.615320556640625,-1.62408447265625,-0.0167083740234375,-0.454254150390625
1761838745216391000,4.625390869140625,-1.4773406982421875,0.00506591796875,-0.301239013671875
1761838745226459600,4.635459716796875,-1.2915802001953125,0.0116119384765625,-0.2045745849609375
1761838745236530000,4.645530029296875,-1.1084136962890625,0.013092041015625,-0.1605682373046875
1761838745246601700,4.655601806640625,-0.9630279541015625,0.012847900390625,-0.16644287109375
1761838745256671700,4.665671630859375,-0.8541259765625,0.0597381591796875,-0.1945343017578125
1761838745266740700,4.67574072265625,-0.777008056640625,0.1141357421875,-0.2199249267578125
1761838745276810800,4.685810791015625,-0.7416534423828125,0.1278533935546875,-0.216339111328125
1761838745286880800,4.695880859375,-0.7501068115234375,0.1226654052734375,-0.1871795654296875
1761838745296950800,4.70595068359375,-0.7686614990234375,0.129791259765625,-0.1571807861328125
1761838745307019800,4.716019775390625,-0.76580810546875,0.14544677734375,-0.1534271240234375
1761838745317089800,4.72608984375,-0.7451629638671875,0.1674957275390625,-0.173248291015625
1761838745327159600,4.73615966796875,-0.694671630859375,0.18896484375,-0.212158203125
1761838745337229800,4.746229736328125,-0.567474365234375,0.190338134765625,-0.2535247802734375
1761838745347298800,4.756298828125,-0.4779205322265625,0.1646728515625,-0.27203369140625
1761838745357368800,4.766368896484375,-0.438140869140625,0.1134185791015625,-0.2676544189453125
1761838745367438800,4.77643896484375,-0.4056243896484375,0.0567474365234375,-0.2609710693359375
1761838745377507600,4.786507568359375,-0.389617919921875,0.0006866455078125,-0.2474822998046875
1761838745387577900,4.796577880859375,-0.413177490234375,-0.052703857421875,-0.2389373779296875
1761838745397648000,4.80664794921875,-0.4033050537109375,-0.10589599609375,-0.228179931640625
1761838745407717600,4.816717529296875,-0.383758544921875,-0.161834716796875,-0.222259521484375
1761838745417787000,4.826786865234375,-0.3820037841796875,-0.2147369384765625,-0.22625732421875
1761838745427856600,4.836856689453125,-0.4131927490234375,-0.2384490966796875,-0.2156524658203125
1761838745437926700,4.8469267578125,-0.456756591796875,-0.234222412109375,-0.20013427734375
1761838745447995600,4.85699560546875,-0.5017242431640625,-0.2357635498046875,-0.1790618896484375
1761838745458065700,4.867065673828125,-0.5483245849609375,-0.2458038330078125,-0.14410400390625
1761838745468136000,4.877135986328125,-0.6098785400390625,-0.252838134765625,-0.0980987548828125
1761838745478205700,4.887205810546875,-0.6614227294921875,-0.260894775390625,-0.046966552734375
1761838745488274700,4.897274658203125,-0.70245361328125,-0.272369384765625,-0.00201416015625
1761838745498344700,4.9073447265625,-0.78045654296875,-0.2767333984375,0.02764892578125
1761838745508414700,4.917414794921875,-0.8641815185546875,-0.270660400390625,0.025970458984375
1761838745518484700,4.927484619140625,-0.9417266845703125,-0.2613372802734375,0.00494384765625
1761838745528553700,4.9375537109375,-1.01593017578125,-0.242462158203125,-0.00823974609375
1761838745538623700,4.947623779296875,-1.0812530517578125,-0.22161865234375,-0.0240631103515625
1761838745548693800,4.95769384765625,-1.1221466064453125,-0.202880859375,-0.0425567626953125
1761838745558762800,4.9677626953125,-1.1534271240234375,-0.19195556640625,-0.0711212158203125
1761838745568832500,4.97783251953125,-1.184967041015625,-0.21856689453125,-0.106048583984375
1761838745578902800,4.98790283203125,-1.20562744140625,-0.22711181640625,-0.15118408203125
1761838745588972800,4.997972900390625,-1.2116851806640625,-0.2002716064453125,-0.212982177734375
1761838745599041800,5.008041748046875,-1.2104949951171875,-0.1721649169921875,-0.2783203125
1761838745609111800,5.01811181640625,-1.184173583984375,-0.1671600341796875,-0.3332366943359375
1761838745619181600,5.028181640625,-1.1319732666015625,-0.174407958984375,-0.3657379150390625
1761838745629251800,5.038251953125,-1.0604400634765625,-0.17926025390625,-0.380462646484375
1761838745639320800,5.04832080078125,-0.961517333984375,-0.18341064453125,-0.37744140625
1761838745649390600,5.058390625,-0.86444091796875,-0.19012451171875,-0.3567047119140625
1761838745659460900,5.0684609375,-0.78253173828125,-0.1955108642578125,-0.3159942626953125
1761838745669529600,5.078529541015625,-0.7269744873046875,-0.2002716064453125,-0.26068115234375
1761838745679599900,5.088599853515625,-0.691650390625,-0.206024169921875,-0.2050628662109375
1761838745689670000,5.098669921875,-0.669769287109375,-0.2092437744140625,-0.1524658203125
1761838745699739600,5.10873974609375,-0.6729888916015625,-0.212005615234375,-0.1046295166015625
1761838745709809000,5.118808837890625,-0.6841583251953125,-0.2051544189453125,-0.0738677978515625
1761838745719878700,5.128878662109375,-0.688873291015625,-0.188385009765625,-0.066650390625
1761838745729948700,5.13894873046875,-0.7117462158203125,-0.1744232177734375,-0.086669921875
1761838745740019000,5.14901904296875,-0.728729248046875,-0.154327392578125,-0.1166229248046875
1761838745750087700,5.159087646484375,-0.743316650390625,-0.122833251953125,-0.1396026611328125
1761838745760157700,5.16915771484375,-0.75439453125,-0.102264404296875,-0.1488037109375
1761838745770227700,5.179227783203125,-0.7716522216796875,-0.0936431884765625,-0.143310546875
1761838745780296700,5.189296630859375,-0.78173828125,-0.0846405029296875,-0.1295928955078125
1761838745790366700,5.19936669921875,-0.7759246826171875,-0.072479248046875,-0.11614990234375
1761838745800436700,5.209436767578125,-0.7528228759765625,-0.0680389404296875,-0.109283447265625
1761838745810506800,5.2195068359375,-0.712738037109375,-0.061279296875,-0.105743408203125
1761838745820575700,5.22957568359375,-0.6590118408203125,-0.05413818359375,-0.11199951171875
1761838745830645800,5.239645751953125,-0.6120758056640625,-0.0467529296875,-0.134307861328125
1761838745840715500,5.249715576171875,-0.5665283203125,-0.02862548828125,-0.1647796630859375
1761838745850785800,5.259785888671875,-0.5186004638671875,0.0088653564453125,-0.1957855224609375
1761838745860854800,5.269854736328125,-0.4602203369140625,0.042388916015625,-0.2084808349609375
1761838745870924800,5.2799248046875,-0.42498779296875,0.0547943115234375,-0.2064666748046875
1761838745880994800,5.289994873046875,-0.4245147705078125,0.04766845703125,-0.1851348876953125
1761838745891063800,5.300063720703125,-0.4526824951171875,0.0375213623046875,-0.1468505859375
1761838745901133800,5.3101337890625,-0.510772705078125,0.017608642578125,-0.0816650390625
1761838745911203800,5.320203857421875,-0.5729217529296875,-0.0455780029296875,0.0137481689453125
1761838745921273600,5.330273681640625,-0.682952880859375,-0.1543731689453125,0.1147003173828125
1761838745931342800,5.3403427734375,-0.845733642578125,-0.2791900634765625,0.22003173828125
1761838745941412600,5.35041259765625,-1.0612945556640625,-0.4334869384765625,0.3471221923828125
1761838745951483000,5.36048291015625,-1.527496337890625,-0.5639495849609375,0.44219970703125
1761838745961553000,5.370552978515625,-2.1528778076171875,-0.550201416015625,0.49114990234375
1761838745971621600,5.38062158203125,-2.613555908203125,-0.4799041748046875,0.53802490234375
1761838745981692000,5.39069189453125,-3.025299072265625,-0.3713226318359375,0.5270538330078125
1761838745991761700,5.40076171875,-3.439971923828125,-0.0590362548828125,0.3861236572265625
1761838746001831000,5.410830810546875,-3.62957763671875,0.3514862060546875,0.226593017578125
1761838746011900700,5.420900634765625,-3.6544036865234375,0.648406982421875,0.1788330078125
1761838746021970700,5.430970703125,-3.683319091796875,0.76483154296875,0.1583251953125
1761838746032041000,5.441041015625,-3.658050537109375,0.915252685546875,0.054901123046875
1761838746042109700,5.451109619140625,-3.6392364501953125,0.9867095947265625,-0.029144287109375
1761838746052179700,5.4611796875,-3.53948974609375,0.883514404296875,-0.0097503662109375
1761838746062249700,5.471249755859375,-3.273681640625,0.699951171875,0.073822021484375
1761838746072319700,5.48131982421875,-2.8898468017578125,0.512359619140625,0.17132568359375
1761838746082388700,5.491388671875,-2.4625701904296875,0.34283447265625,0.23907470703125
1761838746092458800,5.501458740234375,-2.0693359375,0.1728363037109375,0.2834014892578125
1761838746102532600,5.51153271484375,-1.702728271484375,-0.0026092529296875,0.303070068359375
1761838746112601600,5.5216015625,-1.33587646484375,-0.172027587890625,0.2694854736328125
1761838746122671600,5.531671630859375,-1.0493927001953125,-0.2419281005859375,0.184326171875
1761838746132741400,5.541741455078125,-0.829193115234375,-0.261505126953125,0.0882110595703125
1761838746142811600,5.551811767578125,-0.6616973876953125,-0.2244720458984375,-0.00018310546875
1761838746152880400,5.56188037109375,-0.5603485107421875,-0.1593475341796875,-0.0848236083984375
1761838746162950400,5.571950439453125,-0.527191162109375,-0.07525634765625,-0.1660919189453125
1761838746173020700,5.582020751953125,-0.5064849853515625,0.02130126953125,-0.2107391357421875
1761838746183090400,5.59209033203125,-0.461883544921875,0.03399658203125,-0.2099456787109375
1761838746193159700,5.60215966796875,-0.4177398681640625,-0.058135986328125,-0.1696014404296875
1761838746203229400,5.6122294921875,-0.423858642578125,-0.2139129638671875,-0.1319122314453125
1761838746213299500,5.622299560546875,-0.421478271484375,-0.1964263916015625,-0.1668243408203125
1761838746223369500,5.632369384765625,-0.316375732421875,0.094818115234375,-0.2941436767578125
1761838746233438500,5.6424384765625,-0.0916595458984375,0.3127593994140625,-0.379364013671875
1761838746243508500,5.652508544921875,0.102020263671875,0.3585357666015625,-0.3353271484375
1761838746253578500,5.66257861328125,0.1536865234375,0.3228759765625,-0.201629638671875
1761838746263647500,5.6726474609375,0.1318511962890625,0.24658203125,-0.025360107421875
1761838746273717800,5.6827177734375,0.124053955078125,0.20916748046875,0.099517822265625
1761838746283787500,5.69278759765625,0.2025909423828125,0.20880126953125,0.182464599609375
1761838746293857500,5.702857421875,0.3148651123046875,0.1943817138671875,0.2356109619140625
1761838746303926500,5.712926513671875,0.4170989990234375,0.1825408935546875,0.251708984375
1761838746313996500,5.72299658203125,0.5125732421875,0.23675537109375,0.1999664306640625
1761838746324066600,5.733066650390625,0.573883056640625,0.312255859375,0.1278533935546875
1761838746334136600,5.743136474609375,0.5951385498046875,0.357452392578125,0.06427001953125
1761838746344205600,5.75320556640625,0.552886962890625,0.33917236328125,-0.001678466796875
1761838746354275600,5.763275634765625,0.488922119140625,0.302734375,-0.07373046875
1761838746364345600,5.773345703125,0.4478759765625,0.2892303466796875,-0.1521148681640625
1761838746374414300,5.783414306640625,0.4332122802734375,0.2584991455078125,-0.202850341796875
1761838746384484600,5.793484619140625,0.412139892578125,0.2034759521484375,-0.20849609375
1761838746394554600,5.8035546875,0.3673248291015625,0.1019134521484375,-0.1569061279296875
1761838746404624400,5.813624267578125,0.325836181640625,-0.0526123046875,-0.0764923095703125
1761838746414693600,5.823693603515625,0.3158721923828125,-0.1941070556640625,0.0003662109375
1761838746424763400,5.833763427734375,0.30755615234375,-0.31964111328125,0.06011962890625
1761838746434833400,5.84383349609375,0.2852020263671875,-0.4546661376953125,0.0865325927734375
1761838746444903700,5.853903564453125,0.2312774658203125,-0.5516204833984375,0.07708740234375
1761838746454972400,5.863972412109375,0.1371612548828125,-0.5911407470703125,0.030548095703125
1761838746465042700,5.874042724609375,0.0192108154296875,-0.5990753173828125,-0.03729248046875
1761838746475112400,5.884112548828125,-0.065887451171875,-0.6054534912109375,-0.10003662109375
1761838746485182500,5.894182373046875,-0.149169921875,-0.573211669921875,-0.157745361328125
1761838746495251700,5.904251708984375,-0.2094268798828125,-0.499786376953125,-0.20806884765625
1761838746505321500,5.914321533203125,-0.22015380859375,-0.395782470703125,-0.2578887939453125
1761838746515391500,5.9243916015625,-0.2210540771484375,-0.2865142822265625,-0.284515380859375
1761838746525460500,5.93446044921875,-0.2533416748046875,-0.186431884765625,-0.244537353515625
1761838746535530500,5.944530517578125,-0.357818603515625,-0.1400604248046875,-0.14215087890625
1761838746545600800,5.954600830078125,-0.4949188232421875,-0.1510772705078125,-0.0094757080078125
1761838746555670500,5.96467041015625,-0.63836669921875,-0.1793060302734375,0.130950927734375
1761838746565739500,5.974739501953125,-0.7582244873046875,-0.235595703125,0.275054931640625
1761838746575809500,5.9848095703125,-0.845947265625,-0.305328369140625,0.4215850830078125
1761838746585879600,5.994879638671875,-0.921051025390625,-0.40802001953125,0.566497802734375
1761838746595949600,6.004949462890625,-0.9751434326171875,-0.579864501953125,0.747039794921875
1761838746606018600,6.0150185546875,-1.1410369873046875,-0.7873687744140625,0.8762359619140625
1761838746616088600,6.025088623046875,-1.4563140869140625,-0.9358367919921875,0.872467041015625
1761838746626158600,6.03515869140625,-1.7002105712890625,-0.8534698486328125,0.6800537109375
1761838746636227600,6.0452275390625,-1.85101318359375,-0.6051483154296875,0.420806884765625
1761838746646297300,6.05529736328125,-1.934844970703125,-0.53594970703125,0.23089599609375
1761838746656367600,6.06536767578125,-2.0433197021484375,-0.5189056396484375,0.0504302978515625
1761838746666437600,6.075437744140625,-2.0238494873046875,-0.3967437744140625,-0.149261474609375
1761838746676506600,6.085506591796875,-1.9167022705078125,-0.29425048828125,-0.292510986328125
1761838746686576600,6.09557666015625,-1.93701171875,-0.287841796875,-0.314300537109375
1761838746696646400,6.105646484375,-2.0821685791015625,-0.326385498046875,-0.2441864013671875
1761838746706716400,6.11571630859375,-2.182891845703125,-0.3255615234375,-0.1539306640625
1761838746716785400,6.125785400390625,-2.223602294921875,-0.2945404052734375,-0.0442657470703125
1761838746726855400,6.13585546875,-2.304931640625,-0.3131561279296875,0.08526611328125
1761838746736925700,6.14592578125,-2.324615478515625,-0.3349761962890625,0.140411376953125
1761838746746995500,6.155995361328125,-2.294219970703125,-0.2718048095703125,0.0806732177734375
1761838746757064700,6.166064697265625,-2.3251800537109375,-0.11553955078125,-0.051605224609375
1761838746767134500,6.176134521484375,-2.4392547607421875,0.06439208984375,-0.2090301513671875
1761838746777204500,6.18620458984375,-2.4372406005859375,0.234893798828125,-0.3584747314453125
1761838746787273700,6.196273681640625,-2.372039794921875,0.3473052978515625,-0.4361572265625
1761838746797343500,6.206343505859375,-2.262420654296875,0.3462677001953125,-0.436798095703125
1761838746807413500,6.21641357421875,-2.053985595703125,0.269073486328125,-0.3783721923828125
1761838746817483500,6.2264833984375,-1.7952423095703125,0.14691162109375,-0.2819061279296875
1761838746827552500,6.236552490234375,-1.5386810302734375,0.0287628173828125,-0.1996917724609375
1761838746837622500,6.24662255859375,-1.3133544921875,-0.07879638671875,-0.1353759765625
1761838746847692500,6.256692626953125,-1.118682861328125,-0.16387939453125,-0.1063079833984375
1761838746857762600,6.266762451171875,-0.9556121826171875,-0.2075958251953125,-0.0998992919921875
1761838746867831600,6.27683154296875,-0.8384857177734375,-0.2275238037109375,-0.11053466796875
1761838746877901600,6.286901611328125,-0.7880706787109375,-0.22015380859375,-0.1221771240234375
1761838746887971600,6.2969716796875,-0.773406982421875,-0.191375732421875,-0.126129150390625
1761838746898041600,6.30704150390625,-0.77935791015625,-0.171875,-0.107086181640625
1761838746908110600,6.317110595703125,-0.823760986328125,-0.158721923828125,-0.08087158203125
1761838746918180400,6.327180419921875,-0.85858154296875,-0.145263671875,-0.055419921875
1761838746928250600,6.337250732421875,-0.8674774169921875,-0.136505126953125,-0.02508544921875
1761838746938319400,6.3473193359375,-0.8792572021484375,-0.1338043212890625,0.005584716796875
1761838746948389600,6.3573896484375,-0.8765869140625,-0.1319732666015625,0.0299224853515625
1761838746958459600,6.367459716796875,-0.8565521240234375,-0.128021240234375,0.05194091796875
1761838746968529400,6.377529296875,-0.8570709228515625,-0.1192779541015625,0.0680694580078125
1761838746978598700,6.3875986328125,-0.86865234375,-0.097686767578125,0.0699920654296875
1761838746988668400,6.39766845703125,-0.8591461181640625,-0.0754241943359375,0.0606536865234375
1761838746998738400,6.407738525390625,-0.825714111328125,-0.0431671142578125,0.0377197265625
1761838747008808700,6.41780859375,-0.779571533203125,-0.013397216796875,-0.0069732666015625
1761838747018877400,6.42787744140625,-0.74237060546875,-0.008697509765625,-0.046722412109375
1761838747028947700,6.43794775390625,-0.7186126708984375,-0.0182037353515625,-0.0866851806640625
1761838747039017500,6.448017578125,-0.7153167724609375,-0.0269775390625,-0.123504638671875
1761838747049087500,6.45808740234375,-0.71539306640625,-0.022216796875,-0.1493072509765625
1761838747059156700,6.46815673828125,-0.73138427734375,-0.027618408203125,-0.16009521484375
1761838747069226500,6.4782265625,-0.757415771484375,-0.04791259765625,-0.1635589599609375
1761838747079296500,6.488296630859375,-0.7816009521484375,-0.05377197265625,-0.1705322265625
1761838747089365500,6.498365478515625,-0.8126220703125,-0.041534423828125,-0.1825714111328125
1761838747099431400,6.508431396484375,-0.82647705078125,-0.0299530029296875,-0.20166015625
1761838747109501700,6.518501708984375,-0.82794189453125,-0.0140380859375,-0.2137908935546875
1761838747119571500,6.528571533203125,-0.8322296142578125,-0.0007171630859375,-0.219390869140625
1761838747129640700,6.538640625,-0.844268798828125,-0.0013427734375,-0.2252197265625
1761838747139710500,6.54871044921875,-0.8497161865234375,-0.0017852783203125,-0.2198944091796875
1761838747149780500,6.558780517578125,-0.8591461181640625,0.003021240234375,-0.2130126953125
1761838747159850500,6.5688505859375,-0.866180419921875,-0.0061492919921875,-0.203094482421875
1761838747169919500,6.57891943359375,-0.8599700927734375,-0.0200347900390625,-0.1824798583984375
1761838747179989500,6.588989501953125,-0.8505706787109375,-0.0353851318359375,-0.1618194580078125
1761838747190059800,6.599059814453125,-0.8469085693359375,-0.0593719482421875,-0.1428985595703125
1761838747200129500,6.609129638671875,-0.849700927734375,-0.0819549560546875,-0.1283721923828125
1761838747210198500,6.619198486328125,-0.8558502197265625,-0.0939178466796875,-0.114105224609375
1761838747220268500,6.6292685546875,-0.8740692138671875,-0.108978271484375,-0.1046295166015625
1761838747230338600,6.639338623046875,-0.8902740478515625,-0.1171112060546875,-0.103973388671875
1761838747240408600,6.64940869140625,-0.9169158935546875,-0.1229248046875,-0.1108551025390625
1761838747250477600,6.6594775390625,-0.9359588623046875,-0.1288299560546875,-0.119140625
1761838747260547600,6.669547607421875,-0.9486846923828125,-0.1391754150390625,-0.126678466796875
1761838747270617600,6.67961767578125,-0.9470672607421875,-0.1577911376953125,-0.1389312744140625
1761838747280686600,6.6896865234375,-0.9561004638671875,-0.1745758056640625,-0.150970458984375
1761838747290756400,6.69975634765625,-0.972259521484375,-0.19189453125,-0.1609954833984375
1761838747300826600,6.70982666015625,-0.9761810302734375,-0.2008514404296875,-0.174896240234375
1761838747310896600,6.719896728515625,-0.963226318359375,-0.20404052734375,-0.17803955078125
1761838747320965600,6.729965576171875,-0.9635162353515625,-0.2148590087890625,-0.159912109375
1761838747331035600,6.74003564453125,-0.9740753173828125,-0.2328643798828125,-0.1358489990234375
1761838747341105400,6.75010546875,-0.979461669921875,-0.2492218017578125,-0.1109619140625
1761838747351175400,6.760175537109375,-0.9762115478515625,-0.2687225341796875,-0.095306396484375
1761838747361244400,6.770244384765625,-0.9702911376953125,-0.2769012451171875,-0.091094970703125
1761838747371314400,6.780314453125,-0.965301513671875,-0.2774200439453125,-0.0916900634765625
1761838747381384700,6.790384765625,-0.953857421875,-0.277191162109375,-0.09661865234375
1761838747391453400,6.800453369140625,-0.953948974609375,-0.2752838134765625,-0.095001220703125
1761838747401523700,6.810523681640625,-0.9630889892578125,-0.2774810791015625,-0.0882110595703125
1761838747411593500,6.820593505859375,-0.964447021484375,-0.2794189453125,-0.084228515625
1761838747421663500,6.83066357421875,-0.961517333984375,-0.286285400390625,-0.0825042724609375
1761838747431732700,6.840732666015625,-0.9610595703125,-0.2971649169921875,-0.0796051025390625
1761838747441802500,6.850802490234375,-0.9483489990234375,-0.3040313720703125,-0.0797119140625
1761838747451872500,6.86087255859375,-0.9332275390625,-0.303436279296875,-0.07855224609375
1761838747461942500,6.870942626953125,-0.9232635498046875,-0.2989349365234375,-0.078033447265625
1761838747472011500,6.881011474609375,-0.914154052734375,-0.2956085205078125,-0.0772552490234375
1761838747482081500,6.89108154296875,-0.9169769287109375,-0.29083251953125,-0.0752105712890625
1761838747492151600,6.901151611328125,-0.9158935546875,-0.2822723388671875,-0.074554443359375
1761838747502221600,6.9112216796875,-0.9088592529296875,-0.275421142578125,-0.0744171142578125
1761838747512290600,6.92129052734375,-0.901611328125,-0.272216796875,-0.0764923095703125
1761838747522360600,6.931360595703125,-0.8943023681640625,-0.267669677734375,-0.0826416015625
1761838747532430600,6.9414306640625,-0.8892974853515625,-0.261077880859375,-0.094451904296875
1761838747542500600,6.95150048828125,-0.8829345703125,-0.25567626953125,-0.103851318359375
1761838747552569600,6.961569580078125,-0.881591796875,-0.2466888427734375,-0.113616943359375
1761838747562639400,6.971639404296875,-0.8856964111328125,-0.2365875244140625,-0.122344970703125
1761838747572709600,6.981709716796875,-0.8934478759765625,-0.2296142578125,-0.1315765380859375
1761838747582778400,6.9917783203125,-0.905792236328125,-0.215850830078125,-0.148193359375
1761838747592848600,7.0018486328125,-0.91748046875,-0.1975860595703125,-0.160736083984375
1761838747602918700,7.011918701171875,-0.9261932373046875,-0.1892547607421875,-0.1692962646484375
1761838747612988400,7.021988525390625,-0.932525634765625,-0.1833953857421875,-0.1735992431640625
1761838747623057700,7.0320576171875,-0.9340667724609375,-0.17218017578125,-0.1734161376953125
1761838747633127400,7.04212744140625,-0.929931640625,-0.1593017578125,-0.1790008544921875
1761838747643197400,7.052197509765625,-0.9171905517578125,-0.1472015380859375,-0.18206787109375
1761838747653267700,7.062267822265625,-0.8974456787109375,-0.1339874267578125,-0.1704559326171875
1761838747663336400,7.07233642578125,-0.863189697265625,-0.129486083984375,-0.1498870849609375
1761838747673406700,7.08240673828125,-0.820343017578125,-0.1360626220703125,-0.1099853515625
1761838747683476500,7.0924765625,-0.7783660888671875,-0.1361083984375,-0.058380126953125
1761838747693546500,7.10254638671875,-0.7371063232421875,-0.136627197265625,-0.0051727294921875
1761838747703615500,7.112615478515625,-0.700103759765625,-0.1414947509765625,0.0472259521484375
1761838747713685500,7.122685546875,-0.667266845703125,-0.140625,0.1039276123046875
1761838747723755500,7.132755615234375,-0.651763916015625,-0.1383056640625,0.14508056640625
1761838747733824500,7.142824462890625,-0.6413116455078125,-0.1619110107421875,0.1717681884765625
1761838747743894500,7.15289453125,-0.628570556640625,-0.1772918701171875,0.1902313232421875
1761838747753964500,7.162964599609375,-0.615203857421875,-0.17706298828125,0.1904449462890625
1761838747764034600,7.17303466796875,-0.5753173828125,-0.1659698486328125,0.17626953125
1761838747774103600,7.183103515625,-0.5138702392578125,-0.1357574462890625,0.13873291015625
1761838747784173600,7.193173583984375,-0.4397735595703125,-0.1177520751953125,0.091064453125
1761838747794243600,7.20324365234375,-0.37908935546875,-0.1123809814453125,0.0418243408203125
1761838747804313600,7.213313720703125,-0.3388671875,-0.095672607421875,-0.012359619140625
1761838747814382600,7.223382568359375,-0.3097991943359375,-0.0806732177734375,-0.06634521484375
1761838747824452600,7.23345263671875,-0.2876434326171875,-0.0829315185546875,-0.0908660888671875
1761838747834522400,7.2435224609375,-0.3234100341796875,-0.1063690185546875,-0.0890960693359375
1761838747844592600,7.253592529296875,-0.40997314453125,-0.1570892333984375,-0.056793212890625
1761838747854661400,7.263661376953125,-0.5269927978515625,-0.2127532958984375,-0.015899658203125
1761838747864731600,7.273731689453125,-0.642059326171875,-0.265411376953125,0.042816162109375
1761838747874801700,7.2838017578125,-0.7844696044921875,-0.3320465087890625,0.1186370849609375
1761838747884871400,7.293871337890625,-0.968231201171875,-0.4470672607421875,0.2031707763671875
1761838747894940700,7.303940673828125,-1.161712646484375,-0.5811309814453125,0.2751007080078125
1761838747905010400,7.314010498046875,-1.3738250732421875,-0.660125732421875,0.3322601318359375
1761838747915080400,7.32408056640625,-1.6555938720703125,-0.7024078369140625,0.3838043212890625
1761838747925149400,7.3341494140625,-1.9595794677734375,-0.7135467529296875,0.4221649169921875
1761838747935219500,7.344219482421875,-2.2679443359375,-0.6290283203125,0.4175872802734375
1761838747945289700,7.354289794921875,-2.605712890625,-0.461181640625,0.2773284912109375
1761838747955359500,7.364359375,-2.739044189453125,-0.25421142578125,0.01123046875
1761838747965428500,7.374428466796875,-2.6688690185546875,-0.0499725341796875,-0.2285919189453125
1761838747975498500,7.38449853515625,-2.7311248779296875,-0.0401153564453125,-0.2883453369140625
1761838747985568500,7.394568603515625,-2.8047943115234375,-0.2297821044921875,-0.1861572265625
1761838747995638500,7.404638427734375,-2.7742156982421875,-0.377655029296875,-0.036712646484375
1761838748005707500,7.41470751953125,-2.8077850341796875,-0.5074005126953125,0.11260986328125
1761838748015777500,7.424777587890625,-2.8581695556640625,-0.559173583984375,0.183502197265625
1761838748025847600,7.43484765625,-2.85748291015625,-0.509918212890625,0.166351318359375
1761838748035917600,7.44491748046875,-2.7835693359375,-0.53448486328125,0.110687255859375
1761838748045986600,7.454986572265625,-2.661712646484375,-0.583343505859375,0.0074310302734375
1761838748056056600,7.465056640625,-2.410491943359375,-0.61981201171875,-0.1369171142578125
1761838748066126600,7.475126708984375,-2.1159515380859375,-0.6884307861328125,-0.2752532958984375
1761838748076196400,7.4851962890625,-1.865966796875,-0.7490692138671875,-0.3812103271484375
1761838748086265600,7.495265625,-1.695770263671875,-0.8092803955078125,-0.4787445068359375
1761838748096335600,7.505335693359375,-1.5562896728515625,-0.8613739013671875,-0.6173095703125
1761838748106405400,7.5154052734375,-1.3942108154296875,-0.81036376953125,-0.787689208984375
1761838748116474000,7.52547412109375,-1.25823974609375,-0.6961669921875,-0.9747314453125
1761838748126544100,7.535544189453125,-1.1402740478515625,-0.520263671875,-1.135162353515625
1761838748136614100,7.5456142578125,-0.9976654052734375,-0.3422698974609375,-1.2315521240234375
1761838748146684200,7.55568408203125,-0.8279571533203125,-0.220245361328125,-1.2589263916015625
1761838748156753200,7.565753173828125,-0.643280029296875,-0.1548614501953125,-1.2391357421875
1761838748166823200,7.5758232421875,-0.4520111083984375,-0.0593719482421875,-1.14239501953125
1761838748176893200,7.58589306640625,-0.2559814453125,0.0943603515625,-0.95147705078125
1761838748186963200,7.595963134765625,-0.154296875,0.27545166015625,-0.6467132568359375
1761838748197032200,7.6060322265625,-0.1414947509765625,0.547393798828125,-0.246307373046875
1761838748207102000,7.61610205078125,-0.15985107421875,0.83795166015625,0.1739501953125
1761838748217172200,7.626172119140625,-0.2360992431640625,0.9714813232421875,0.5444183349609375
1761838748227242200,7.6362421875,-0.3160858154296875,0.9753265380859375,0.80206298828125
1761838748237311200,7.646311279296875,-0.324462890625,0.81805419921875,0.9715118408203125
1761838748247381200,7.65638134765625,-0.2858734130859375,0.5583648681640625,1.0382843017578125
1761838748257451000,7.666450927734375,-0.1341094970703125,0.3259429931640625,0.9908599853515625
1761838748267521000,7.67652099609375,0.041748046875,0.1565093994140625,0.8049468994140625
1761838748277590300,7.68659033203125,0.2031097412109375,0.04718017578125,0.551513671875
1761838748287660000,7.696659912109375,0.3569183349609375,-0.009674072265625,0.284759521484375
1761838748297730300,7.706730224609375,0.5617523193359375,-0.0042572021484375,0.0472259521484375
1761838748307799000,7.716799072265625,0.7030487060546875,0.0858917236328125,-0.05596923828125
1761838748317869300,7.726869384765625,0.712188720703125,0.13616943359375,-0.047027587890625
1761838748327939300,7.736939208984375,0.672821044921875,0.1020050048828125,0.0321197509765625
1761838748338009000,7.747009033203125,0.6194610595703125,0.1143341064453125,0.10699462890625
1761838748348078300,7.757078369140625,0.580322265625,0.1585235595703125,0.1625213623046875
1761838748358148000,7.767148193359375,0.4987335205078125,0.1664276123046875,0.1938629150390625
1761838748368218000,7.777218017578125,0.4257354736328125,0.1280670166015625,0.2005615234375
1761838748378288400,7.787288330078125,0.440704345703125,0.0685882568359375,0.1884918212890625
1761838748388357000,7.797357177734375,0.480010986328125,0.0245208740234375,0.144287109375
1761838748398427100,7.80742724609375,0.4608612060546875,-0.0243682861328125,0.114288330078125
1761838748408497200,7.8174970703125,0.4094696044921875,-0.114501953125,0.1014404296875
1761838748418567200,7.827567138671875,0.3559417724609375,-0.1970062255859375,0.09027099609375
1761838748428636200,7.83763623046875,0.29913330078125,-0.26617431640625,0.0914764404296875
1761838748438706200,7.8477060546875,0.2427520751953125,-0.330352783203125,0.0919036865234375
1761838748448776200,7.857776123046875,0.1815948486328125,-0.3746490478515625,0.1068267822265625
1761838748458846200,7.86784619140625,0.1143035888671875,-0.4102783203125,0.118865966796875
1761838748468915200,7.877915283203125,0.0456390380859375,-0.4122772216796875,0.0859832763671875
1761838748478985000,7.88798486328125,-0.0101470947265625,-0.37384033203125,0.0401611328125
1761838748489055200,7.89805517578125,-0.059326171875,-0.3481292724609375,-0.0075225830078125
1761838748499124000,7.9081240234375,-0.1421051025390625,-0.3588104248046875,-0.0340728759765625
1761838748509194200,7.9181943359375,-0.244293212890625,-0.3781280517578125,-0.0605316162109375
1761838748519264300,7.92826416015625,-0.3213043212890625,-0.375152587890625,-0.0981292724609375
1761838748529334000,7.938333984375,-0.389495849609375,-0.35894775390625,-0.1260833740234375
1761838748539403300,7.9484033203125,-0.4977264404296875,-0.331512451171875,-0.1282196044921875
1761838748549473300,7.958473388671875,-0.6194000244140625,-0.287750244140625,-0.1055145263671875
1761838748559543000,7.96854296875,-0.787322998046875,-0.2476348876953125,-0.049713134765625
1761838748569613300,7.97861328125,-0.9866943359375,-0.225250244140625,0.051666259765625
1761838748579682000,7.98868212890625,-1.1639862060546875,-0.281158447265625,0.1882476806640625
1761838748589752300,7.99875244140625,-1.381805419921875,-0.41748046875,0.3659210205078125
1761838748599822300,8.008822265625,-1.53125,-0.618072509765625,0.58837890625
1761838748609892000,8.01889208984375,-1.76397705078125,-0.8644866943359375,0.6973876953125
1761838748619959000,8.028958984375,-2.0386505126953125,-0.92340087890625,0.52764892578125
1761838748630029300,8.039029296875,-2.0688323974609375,-0.7142486572265625,0.118621826171875
1761838748640099300,8.049099365234374,-2.0424041748046875,-0.347625732421875,-0.3200836181640625
1761838748650168000,8.05916796875,-1.9043121337890625,-0.1451416015625,-0.6285247802734375
1761838748660238300,8.06923828125,-1.786346435546875,-0.1237030029296875,-0.7891082763671875
1761838748670308000,8.07930810546875,-1.679473876953125,-0.2132110595703125,-0.7596588134765625
1761838748680378000,8.089378173828125,-1.568115234375,-0.2824249267578125,-0.555511474609375
1761838748690447000,8.099447021484375,-1.5791168212890625,-0.3637847900390625,-0.295562744140625
1761838748700517000,8.10951708984375,-1.6994171142578125,-0.417724609375,-0.049896240234375
1761838748710587100,8.119587158203124,-1.9010772705078125,-0.4487762451171875,0.1050872802734375
1761838748720657200,8.1296572265625,-2.1327056884765625,-0.4794464111328125,0.149139404296875
1761838748730726100,8.13972607421875,-2.391937255859375,-0.433563232421875,0.091461181640625
1761838748740796200,8.149796142578126,-2.507904052734375,-0.3692626953125,-0.1142425537109375
1761838748750866200,8.1598662109375,-2.58349609375,-0.3350982666015625,-0.397125244140625
1761838748760936200,8.169936279296875,-2.555389404296875,-0.436279296875,-0.8074951171875
1761838748771005200,8.180005126953125,-2.4875030517578125,-0.3894195556640625,-1.156280517578125
1761838748781075200,8.1900751953125,-2.7203521728515625,0.0644378662109375,-1.0183258056640625
1761838748791145000,8.20014501953125,-2.89630126953125,0.1842498779296875,-0.787994384765625
1761838748801215200,8.21021533203125,-2.7078094482421875,0.1678466796875,-0.6586151123046875
1761838748811284000,8.220283935546876,-2.384185791015625,0.14410400390625,-0.5166473388671875
1761838748821354200,8.230354248046876,-2.0889892578125,0.062042236328125,-0.3543243408203125
1761838748831424300,8.24042431640625,-1.8267974853515625,0.0466461181640625,-0.2022857666015625
1761838748841493200,8.2504931640625,-1.6038665771484375,0.0552825927734375,-0.0879974365234375
1761838748851563300,8.260563232421875,-1.40472412109375,0.0653076171875,-0.0141448974609375
1761838748861633000,8.270633056640625,-1.214752197265625,0.060791015625,0.01519775390625
1761838748871703000,8.280703125,-1.063232421875,0.05633544921875,0.026275634765625
1761838748881772300,8.290772216796874,-0.9514923095703125,0.0681610107421875,0.021331787109375
1761838748891842000,8.300842041015626,-0.8538970947265625,0.0819091796875,0.003082275390625
1761838748901912300,8.310912353515626,-0.7944793701171875,0.0937042236328125,0.0013885498046875
1761838748911982000,8.320982177734376,-0.761871337890625,0.1031494140625,0.0035247802734375
1761838748922051000,8.331051025390625,-0.7239227294921875,0.11199951171875,0.0069122314453125
1761838748932121300,8.341121337890625,-0.68157958984375,0.1208343505859375,0.0201568603515625
1761838748942191000,8.351191162109375,-0.657012939453125,0.1177978515625,0.0466766357421875
1761838748952261000,8.36126123046875,-0.631256103515625,0.100555419921875,0.0697784423828125
1761838748962330000,8.371330078125,-0.600738525390625,0.0780181884765625,0.0837249755859375
1761838748972400000,8.381400146484374,-0.567474365234375,0.0602569580078125,0.0896453857421875
1761838748982470400,8.391470458984376,-0.531402587890625,0.04583740234375,0.0838470458984375
1761838748992540200,8.4015400390625,-0.491912841796875,0.0245513916015625,0.0690765380859375
1761838749002609200,8.411609130859375,-0.4559783935546875,-0.00592041015625,0.0548858642578125
1761838749012679200,8.42167919921875,-0.4496917724609375,-0.0401763916015625,0.0414276123046875
1761838749022749200,8.431749267578125,-0.4532012939453125,-0.0719757080078125,0.024810791015625
1761838749032819200,8.441819091796875,-0.4319915771484375,-0.0970001220703125,0.0063018798828125
1761838749042888200,8.45188818359375,-0.4319915771484375,-0.1170196533203125,-0.0165557861328125
1761838749052958200,8.461958251953124,-0.4480743408203125,-0.1369476318359375,-0.039276123046875
1761838749063028200,8.4720283203125,-0.4851531982421875,-0.1385345458984375,-0.064361572265625
1761838749073097200,8.48209716796875,-0.5436248779296875,-0.1104583740234375,-0.08074951171875
1761838749083167000,8.4921669921875,-0.60626220703125,-0.060943603515625,-0.0946807861328125
1761838749093237200,8.5022373046875,-0.6376953125,-0.046844482421875,-0.160430908203125
1761838749103307300,8.512307373046875,-0.647430419921875,0.0128021240234375,-0.221405029296875
1761838749113377000,8.522376953125,-0.7471466064453125,0.0214691162109375,-0.285308837890625
1761838749123447300,8.532447265625,-0.7708740234375,-0.003631591796875,-0.33477783203125
1761838749133517000,8.54251708984375,-0.7864227294921875,-0.018890380859375,-0.3754730224609375
1761838749143587000,8.552587158203124,-0.8740386962890625,-0.0542144775390625,-0.4094085693359375
1761838749153656300,8.56265625,-0.9349212646484375,-0.0735321044921875,-0.383544921875
1761838749163726000,8.57272607421875,-0.968719482421875,-0.041778564453125,-0.2385711669921875
1761838749173796000,8.582796142578125,-1.046478271484375,-0.0351715087890625,-0.1006011962890625
1761838749183866000,8.5928662109375,-0.9836883544921875,-0.08740234375,-0.0255889892578125
1761838749193935000,8.60293505859375,-0.896820068359375,-0.175140380859375,-0.01837158203125
1761838749204005000,8.613005126953125,-0.9111480712890625,-0.2604522705078125,-0.029541015625
1761838749214075100,8.6230751953125,-0.935943603515625,-0.332733154296875,-0.0129852294921875
1761838749224145200,8.633145263671874,-0.949859619140625,-0.399993896484375,-0.0575408935546875
1761838749234214100,8.643214111328126,-0.9712677001953125,-0.431976318359375,-0.0886688232421875
1761838749244284200,8.6532841796875,-0.9821624755859375,-0.4305419921875,-0.103302001953125
1761838749254355200,8.663355224609376,-0.96038818359375,-0.39947509765625,-0.1236572265625
1761838749264425000,8.673425048828125,-0.936614990234375,-0.376953125,-0.1416015625
1761838749274495200,8.6834951171875,-0.9026336669921875,-0.3472747802734375,-0.1534271240234375
1761838749284564000,8.69356396484375,-0.91143798828125,-0.318817138671875,-0.1822052001953125
1761838749294634000,8.703634033203125,-0.9400177001953125,-0.334869384765625,-0.2022705078125
1761838749304704300,8.713704345703125,-0.9688262939453125,-0.3503265380859375,-0.217987060546875
1761838749314774000,8.72377392578125,-0.952728271484375,-0.344329833984375,-0.2249298095703125
1761838749324843300,8.73384326171875,-0.9369659423828125,-0.3467254638671875,-0.212005615234375
1761838749334913000,8.7439130859375,-0.9284820556640625,-0.3550872802734375,-0.1862030029296875
1761838749344983000,8.753983154296876,-0.909820556640625,-0.353118896484375,-0.1562347412109375
1761838749355053300,8.76405322265625,-0.9007415771484375,-0.355743408203125,-0.1333160400390625
1761838749365122000,8.7741220703125,-0.9227752685546875,-0.370452880859375,-0.1009521484375
1761838749375192000,8.784192138671875,-0.9234771728515625,-0.364776611328125,-0.069580078125
1761838749385262000,8.794261962890625,-0.92047119140625,-0.355255126953125,-0.0517120361328125
1761838749395332000,8.80433203125,-0.9764404296875,-0.404449462890625,-0.03912353515625
1761838749405401300,8.8144013671875,-0.943939208984375,-0.413330078125,-0.020294189453125
1761838749415471000,8.82447119140625,-0.8982696533203125,-0.3966064453125,-0.028411865234375
1761838749425541000,8.834541015625,-0.916473388671875,-0.415557861328125,-0.050079345703125
1761838749435611100,8.844611083984375,-0.915130615234375,-0.4293212890625,-0.055206298828125
1761838749445680000,8.85468017578125,-0.928009033203125,-0.4296722412109375,-0.06756591796875
1761838749455750100,8.864750244140625,-0.9194488525390625,-0.425384521484375,-0.072357177734375
1761838749465820200,8.874820068359375,-0.8517913818359375,-0.4097747802734375,-0.0650634765625
1761838749475890200,8.88489013671875,-0.8558197021484375,-0.4146881103515625,-0.0551910400390625
1761838749485959200,8.894959228515624,-0.8956298828125,-0.4508209228515625,-0.0194854736328125
1761838749496029200,8.905029296875,-0.86126708984375,-0.4629058837890625,0.024932861328125
1761838749506099200,8.91509912109375,-0.8556976318359375,-0.4505615234375,0.0421905517578125
1761838749516168200,8.925168212890625,-0.8682861328125,-0.44244384765625,0.05133056640625
1761838749526238200,8.93523828125,-0.871978759765625,-0.43927001953125,0.0572509765625
1761838749536308000,8.945307861328125,-0.8742523193359375,-0.43121337890625,0.052703857421875
1761838749546378200,8.955378173828125,-0.87701416015625,-0.425323486328125,0.042266845703125
1761838749556447000,8.965447021484374,-0.885101318359375,-0.419158935546875,0.0349273681640625
1761838749566517000,8.97551708984375,-0.8905029296875,-0.4152069091796875,0.029052734375
1761838749576587300,8.985587158203124,-0.9091644287109375,-0.42132568359375,0.02630615234375
1761838749586657000,8.995656982421876,-0.9227142333984375,-0.4294586181640625,0.037506103515625
1761838749596726300,9.005726318359375,-0.9201812744140625,-0.4267730712890625,0.057159423828125
1761838749606796000,9.015796142578125,-0.91973876953125,-0.4208984375,0.073455810546875
1761838749616866000,9.025865966796875,-0.8894500732421875,-0.415802001953125,0.0883331298828125
1761838749626936300,9.035936279296875,-0.8890838623046875,-0.41583251953125,0.0823974609375
1761838749637005000,9.046005126953125,-0.908203125,-0.432342529296875,0.072296142578125
1761838749647075000,9.056074951171874,-0.876434326171875,-0.43621826171875,0.073455810546875
1761838749657145000,9.06614501953125,-0.8708953857421875,-0.4204254150390625,0.06671142578125
1761838749667215000,9.076215087890626,-0.88031005859375,-0.4100189208984375,0.06585693359375
1761838749677284400,9.086284423828126,-0.8834381103515625,-0.4079437255859375,0.0646820068359375
1761838749687354000,9.09635400390625,-0.88677978515625,-0.4061126708984375,0.0661468505859375
1761838749697424100,9.106424072265625,-0.888641357421875,-0.40032958984375,0.068267822265625
1761838749707494100,9.116494140625,-0.8907470703125,-0.39129638671875,0.0694732666015625
1761838749717563100,9.126563232421875,-0.8806915283203125,-0.4089813232421875,0.0757293701171875
1761838749727633200,9.136633056640624,-0.901580810546875,-0.4193878173828125,0.0947265625
1761838749737703200,9.146703125,-0.9180755615234375,-0.4148712158203125,0.1103973388671875
1761838749747773200,9.156773193359374,-0.9168701171875,-0.4220123291015625,0.123687744140625
1761838749757842200,9.16684228515625,-0.9278106689453125,-0.4273681640625,0.1338958740234375
1761838749767912200,9.176912109375,-0.9493560791015625,-0.4103851318359375,0.13214111328125
1761838749777982200,9.186982177734375,-0.9518280029296875,-0.400238037109375,0.1250457763671875
1761838749788052000,9.197052001953125,-0.9504547119140625,-0.394989013671875,0.119720458984375
1761838749798121200,9.207121337890625,-0.950286865234375,-0.382843017578125,0.1174468994140625
1761838749808191000,9.21719091796875,-0.94683837890625,-0.380462646484375,0.1125030517578125
1761838749818261200,9.22726123046875,-0.9561309814453125,-0.3892974853515625,0.116790771484375
1761838749828331300,9.237331298828124,-0.9549713134765625,-0.39227294921875,0.121612548828125
1761838749838400000,9.24739990234375,-0.9425506591796875,-0.3946990966796875,0.1240997314453125
1761838749848470300,9.25747021484375,-0.9342041015625,-0.3972625732421875,0.125946044921875
1761838749858540000,9.2675400390625,-0.9185943603515625,-0.4020843505859375,0.1204681396484375
1761838749868609300,9.277609375,-0.9049835205078125,-0.4042205810546875,0.1146240234375
1761838749878679000,9.287678955078125,-0.8899383544921875,-0.4054718017578125,0.1095733642578125
1761838749888749000,9.2977490234375,-0.878387451171875,-0.412384033203125,0.107666015625
1761838749898819300,9.3078193359375,-0.8787384033203125,-0.4224700927734375,0.10858154296875
1761838749908888000,9.31788818359375,-0.8720855712890625,-0.434539794921875,0.10693359375
1761838749918958000,9.3279580078125,-0.855072021484375,-0.4427032470703125,0.10748291015625
1761838749929028000,9.338028076171875,-0.8542633056640625,-0.4421539306640625,0.113189697265625
1761838749939098000,9.34809814453125,-0.8570556640625,-0.446624755859375,0.1213226318359375
1761838749949167000,9.3581669921875,-0.853485107421875,-0.4488983154296875,0.12298583984375
1761838749959237000,9.368237060546875,-0.8481292724609375,-0.4462738037109375,0.1187896728515625
1761838749969307100,9.37830712890625,-0.847869873046875,-0.449615478515625,0.1151123046875
1761838749979377200,9.388377197265624,-0.8430633544921875,-0.4517669677734375,0.1171417236328125
1761838749989446100,9.398446044921876,-0.8412933349609375,-0.4519805908203125,0.12445068359375
1761838749999516000,9.408515869140626,-0.852294921875,-0.4553985595703125,0.13641357421875
1761838750009586200,9.418586181640626,-0.8675537109375,-0.4600982666015625,0.149200439453125
1761838750019656200,9.42865625,-0.8717193603515625,-0.4661407470703125,0.1560211181640625
1761838750029725200,9.43872509765625,-0.8642578125,-0.46533203125,0.1556243896484375
1761838750039795200,9.448795166015625,-0.8477783203125,-0.459564208984375,0.14898681640625
1761838750049865200,9.458865234375,-0.8409423828125,-0.458892822265625,0.1429443359375
1761838750059935000,9.46893505859375,-0.84307861328125,-0.4580535888671875,0.137725830078125
1761838750070004200,9.479004150390624,-0.84716796875,-0.459930419921875,0.1384124755859375
1761838750080074000,9.489073974609376,-0.865753173828125,-0.4632415771484375,0.1511383056640625
1761838750090144300,9.499144287109376,-0.874298095703125,-0.4640350341796875,0.160064697265625
1761838750100214300,9.50921435546875,-0.8668670654296875,-0.457275390625,0.156158447265625
1761838750110282800,9.51928271484375,-0.862030029296875,-0.4462890625,0.153533935546875
1761838750120352800,9.529352783203125,-0.8674163818359375,-0.4485931396484375,0.15362548828125
1761838750130422500,9.539422607421875,-0.8731842041015625,-0.4527130126953125,0.1542205810546875
1761838750140492800,9.549492919921875,-0.881622314453125,-0.4502716064453125,0.1527862548828125
1761838750150561500,9.5595615234375,-0.886566162109375,-0.452484130859375,0.1483306884765625
1761838750160631600,9.569631591796876,-0.881500244140625,-0.45880126953125,0.1456298828125
1761838750170701800,9.579701904296876,-0.8737335205078125,-0.4599761962890625,0.136627197265625
1761838750180771600,9.589771484375,-0.869293212890625,-0.4640045166015625,0.121490478515625
1761838750190840800,9.5998408203125,-0.86395263671875,-0.4685821533203125,0.1121063232421875
1761838750200910600,9.60991064453125,-0.856353759765625,-0.4728851318359375,0.107330322265625
1761838750210980600,9.619980712890625,-0.852386474609375,-0.4787139892578125,0.102935791015625
1761838750221049900,9.6300498046875,-0.8531036376953125,-0.48052978515625,0.0969696044921875
1761838750231119600,9.64011962890625,-0.84942626953125,-0.4803924560546875,0.09124755859375
1761838750241189600,9.650189697265626,-0.8423919677734375,-0.4810943603515625,0.0843963623046875
1761838750251259600,9.660259765625,-0.8448028564453125,-0.48260498046875,0.0794219970703125
1761838750261328600,9.67032861328125,-0.8459320068359375,-0.480010986328125,0.078216552734375
1761838750271398700,9.680398681640625,-0.8548583984375,-0.4710540771484375,0.080413818359375
1761838750281468700,9.69046875,-0.8529052734375,-0.467620849609375,0.082000732421875
1761838750291538700,9.70053857421875,-0.8555145263671875,-0.4670562744140625,0.0814361572265625
1761838750301607700,9.710607666015624,-0.85028076171875,-0.47039794921875,0.0761260986328125
1761838750311677700,9.720677734375,-0.8497772216796875,-0.4653167724609375,0.0691986083984375
1761838750321747700,9.730747802734374,-0.859954833984375,-0.4503173828125,0.0695648193359375
1761838750331817700,9.740817626953126,-0.8638458251953125,-0.442230224609375,0.077362060546875
1761838750341886700,9.75088671875,-0.8605804443359375,-0.4434967041015625,0.08404541015625
1761838750351956500,9.76095654296875,-0.86065673828125,-0.4517364501953125,0.0936737060546875
1761838750362026800,9.77102685546875,-0.8638916015625,-0.45526123046875,0.096710205078125
1761838750372096800,9.7810966796875,-0.878570556640625,-0.44696044921875,0.1024932861328125
1761838750382165800,9.791165771484375,-0.889678955078125,-0.44256591796875,0.1060333251953125
1761838750392235800,9.80123583984375,-0.892822265625,-0.43585205078125,0.1041412353515625
1761838750402305500,9.811305419921876,-0.8982391357421875,-0.4297943115234375,0.1070098876953125
1761838750412375800,9.821375732421876,-0.9039306640625,-0.4274749755859375,0.1107177734375
1761838750422444500,9.831444580078125,-0.902984619140625,-0.4196014404296875,0.114501953125
1761838750432514600,9.8415146484375,-0.9007720947265625,-0.414886474609375,0.1188201904296875
1761838750442584800,9.851584716796875,-0.9040985107421875,-0.4109954833984375,0.124542236328125
1761838750452654600,9.861654541015625,-0.909515380859375,-0.4112396240234375,0.1261749267578125
1761838750462723800,9.871723876953125,-0.916961669921875,-0.4123687744140625,0.126312255859375
1761838750472793600,9.881793701171874,-0.9224853515625,-0.4084625244140625,0.12603759765625
1761838750482863600,9.891863525390624,-0.9229583740234375,-0.3961181640625,0.1269683837890625
1761838750492933600,9.90193359375,-0.928924560546875,-0.38983154296875,0.13214111328125
1761838750503002600,9.912002685546875,-0.9311981201171875,-0.3879547119140625,0.1405487060546875
1761838750513072600,9.92207275390625,-0.93438720703125,-0.391632080078125,0.1515655517578125
1761838750523142700,9.932142578125,-0.931915283203125,-0.395599365234375,0.1591339111328125
1761838750533212700,9.942212646484375,-0.92523193359375,-0.3926849365234375,0.157470703125
1761838750543281700,9.95228173828125,-0.922576904296875,-0.395721435546875,0.151336669921875
1761838750553351700,9.9623515625,-0.9109039306640625,-0.4008331298828125,0.1475677490234375
1761838750563421700,9.972421630859374,-0.911407470703125,-0.4006500244140625,0.143280029296875
1761838750573491500,9.982491455078126,-0.911865234375,-0.4067840576171875,0.1450347900390625
1761838750583560700,9.992560791015626,-0.9097442626953125,-0.415679931640625,0.1517181396484375
1761838750593630500,10.00263037109375,-0.900848388671875,-0.420623779296875,0.15118408203125
1761838750603700700,10.01270068359375,-0.8900604248046875,-0.4210662841796875,0.146209716796875
1761838750613769700,10.022769775390625,-0.885284423828125,-0.4224090576171875,0.148468017578125
1761838750623839700,10.03283984375,-0.8771820068359375,-0.4291534423828125,0.153778076171875
1761838750633909800,10.04290966796875,-0.872283935546875,-0.43072509765625,0.155548095703125
1761838750643979500,10.0529794921875,-0.872406005859375,-0.42889404296875,0.1561279296875
1761838750654048800,10.063048828125,-0.875213623046875,-0.4269561767578125,0.155181884765625
1761838750664118800,10.073118896484376,-0.8797760009765625,-0.4271392822265625,0.1577606201171875
1761838750674188500,10.0831884765625,-0.88006591796875,-0.42724609375,0.1547393798828125
1761838750684258800,10.0932587890625,-0.87744140625,-0.4250946044921875,0.1486053466796875
1761838750694327600,10.10332763671875,-0.88397216796875,-0.4203643798828125,0.147613525390625
1761838750704397600,10.1133974609375,-0.876983642578125,-0.4129180908203125,0.1489410400390625
1761838750714467800,10.1234677734375,-0.881805419921875,-0.4060821533203125,0.155059814453125
1761838750724537600,10.13353759765625,-0.9000701904296875,-0.4183502197265625,0.1638336181640625
1761838750734606800,10.14360693359375,-0.89471435546875,-0.4271087646484375,0.1649627685546875
1761838750744676600,10.153676513671876,-0.8927154541015625,-0.4280242919921875,0.1669464111328125
1761838750754746600,10.16374658203125,-0.892578125,-0.429718017578125,0.1688385009765625
1761838750764816600,10.173816650390625,-0.886810302734375,-0.4322357177734375,0.1678314208984375
1761838750774885600,10.1838857421875,-0.8804473876953125,-0.4323577880859375,0.1658935546875
1761838750784955600,10.19395556640625,-0.8703765869140625,-0.4333953857421875,0.1617279052734375
1761838750795025700,10.204025634765625,-0.8654327392578125,-0.4340667724609375,0.158416748046875
1761838750805095700,10.214095703125,-0.866455078125,-0.433746337890625,0.1583099365234375
1761838750815164700,10.22416455078125,-0.87054443359375,-0.4281463623046875,0.15911865234375
1761838750825234700,10.234234619140626,-0.8806610107421875,-0.4154205322265625,0.165130615234375
