time,seconds_elapsed,z,y,x
1761838740673695700,0.08269580078125,-0.11353402472138405,-0.3372358126014471,-0.09061124989865348
1761838740683766000,0.09276611328125,-0.027763620716333388,-0.3203849233046174,0.007915595430135727
1761838740693836000,0.1028359375,0.001983282771706581,-0.2803694315195083,0.10878778004236518
1761838740703904800,0.11290478515625,-0.046565351819992065,-0.21199498347342013,0.22451704978570342
1761838740713975000,0.12297509765625,-0.03457622334063053,-0.06983575277030468,0.3021074352707714
1761838740724044800,0.133044921875,-0.029450550889968872,0.07919979344308375,0.2573316885476
1761838740734114000,0.143114013671875,-0.027005495825409887,0.1949742905676365,0.20440050975643098
1761838740744183800,0.153183837890625,-0.011717325800657272,0.2812742714047432,0.13520426959921605
1761838740754252800,0.163252685546875,0.045215106254816055,0.3315758871436119,0.030610096188634632
1761838740764322800,0.17332275390625,0.1103986493051052,0.3448164769887924,-0.062318043217109514
1761838740774392800,0.183392822265625,0.1597030707001686,0.35404373953938484,-0.16622542167361826
1761838740784462000,0.193462158203125,0.22909984753131865,0.35491876880824563,-0.2695021832095459
1761838740794531800,0.20353173828125,0.25040917754173275,0.29487492673397064,-0.34649083994179963
1761838740804601900,0.213601806640625,0.2666173850208521,0.20338088438510893,-0.40343057852089403
1761838740814670800,0.2236708984375,0.28406711699366566,0.0879646991789341,-0.43722387132290746
1761838740824740900,0.233740966796875,0.3020323972731829,-0.061492287316918366,-0.4551627750521525
1761838740834811000,0.243810791015625,0.3499567624866962,-0.20824410650730132,-0.4364182174958288
1761838740844880000,0.2538798828125,0.3691390173405409,-0.33989071102440355,-0.40479982104748485
1761838740854950000,0.263949951171875,0.3541226499944925,-0.4330874656379223,-0.3118155401408672
1761838740865020000,0.27402001953125,0.25302900465130806,-0.4769271918863058,-0.20031203486640006
1761838740875089000,0.2840888671875,0.1237310090869665,-0.4093149603843689,-0.1313720801583491
1761838740885158700,0.29415869140625,-0.042567222094535825,-0.30053719027936454,-0.0778211802999489
1761838740895229000,0.30422900390625,-0.17706453986763954,-0.1868161185532808,-0.03404019850147888
1761838740905298000,0.3142978515625,-0.308688348031044,-0.054290393114089966,0.014426694357208907
1761838740915368000,0.324367919921875,-0.42725393717885013,0.08583528593480587,0.08120377194294706
1761838740925438000,0.33443798828125,-0.44888300066292286,0.1391775845438242,0.1908796599314548
1761838740935507000,0.3445068359375,-0.4391027804046869,0.14180851756930352,0.2843220781354234
1761838740945577000,0.354576904296875,-0.39817981838583943,0.1755062045097351,0.31557861900143325
1761838740955647000,0.36464697265625,-0.3581044131070375,0.20738485932946205,0.2812249158376828
1761838740965716000,0.374716064453125,-0.29228958641588687,0.18033084818720815,0.20466118825292215
1761838740975786000,0.384785888671875,-0.1993389155179262,0.10597031146883965,0.11401146950740366
1761838740985855700,0.394855712890625,-0.06759352680146694,-0.009233692291378975,0.047345451080705966
1761838740995926000,0.404926025390625,0.030609657797217367,-0.13846797496974467,-0.005727309871930628
1761838741005994800,0.414994873046875,0.14676000249683857,-0.26467034260630606,-0.08117282881541177
1761838741016064800,0.425064697265625,0.28195173227488995,-0.3329302243620157,-0.17393334743613376
1761838741026133800,0.4351337890625,0.3578700198292732,-0.3767734577417373,-0.23070976694598794
1761838741036203800,0.445203857421875,0.36951544943749903,-0.3760778766930103,-0.23305824803458525
1761838741046274000,0.455274169921875,0.35047815601229665,-0.3061182052820921,-0.1980720921861939
1761838741056342800,0.4653427734375,0.3170551943600178,-0.18326923972666262,-0.12870516250403596
1761838741066412800,0.475412841796875,0.27129005300700665,-0.10067337410449981,-0.04266162237972021
1761838741076482800,0.48548291015625,0.2395101823866367,-0.06402618970870971,0.056733493683580306
1761838741086552800,0.495552734375,0.26586510534882546,-0.02313771448135376,0.12722040383899583
1761838741096622600,0.50562255859375,0.2731079160839319,0.00884790784418583,0.1570137768172659
1761838741106692400,0.5156923828125,0.28399405175745485,-0.004619476494193077,0.17366616613361985
1761838741116761300,0.52576123046875,0.3153361154824495,-0.007814473143219947,0.1433325305324979
1761838741126831400,0.535831298828125,0.31678865237832066,0.0009638765960931778,0.12481814673654734
1761838741136901400,0.5459013671875,0.2864373532563448,-0.024849779096245764,0.11617673951620236
1761838741146971400,0.555971435546875,0.23570611392855642,-0.07423018833696841,0.10299586223531514
1761838741157040400,0.566040283203125,0.1727612897157669,-0.11082593480646609,0.09836778230955824
1761838741167110400,0.5761103515625,0.08876549416780471,-0.13174948036968706,0.10182701938534156
1761838741177180400,0.586180419921875,0.050557636326551435,-0.1104857430666685,0.07315618416359648
1761838741187249400,0.59624951171875,0.061299395093321794,-0.054199207699298854,0.0675466919850558
1761838741197319200,0.606319091796875,0.05615267985463142,-0.026333295652270317,0.06883243921296671
1761838741207389400,0.616389404296875,0.07751753944456577,-0.022193711629509925,0.03556483251918107
1761838741217458400,0.62645849609375,0.06056172846853733,-0.022865911802649498,0.03222111158184707
1761838741227528400,0.636528564453125,0.0390349563151598,-0.05939852990806102,0.05072093712948263
1761838741237598500,0.646598388671875,0.07963993842601776,-0.06343056190311909,0.01505366714913398
1761838741247667200,0.656667236328125,0.08744038304388523,-0.05490004944503307,-0.005625566530507058
1761838741257737500,0.666737548828125,0.08343582357764244,-0.06560673689842224,-0.008358827419299632
1761838741267807500,0.676807373046875,0.08755962550938129,-0.09085515992343425,-0.007400960438884795
1761838741277876500,0.68687646484375,0.10918109020888805,-0.10640402671098709,-0.007000891738012433
1761838741287946500,0.696946533203125,0.1472246973991394,-0.12507073325812815,-0.015130129918828606
1761838741298016300,0.707016357421875,0.18427052572369573,-0.16228841101825237,-0.04467075197873637
1761838741308085500,0.71708544921875,0.22274726363420486,-0.1775146217226982,-0.08595304882926866
1761838741318155300,0.7271552734375,0.15404899046123027,-0.1580295845299959,-0.12073043903149663
1761838741328225300,0.737225341796875,0.09233224673867226,-0.09732932437360287,-0.12140442930292338
1761838741338294300,0.747294189453125,0.01600128673017025,-0.04981646257042884,-0.06162020627921447
1761838741348364300,0.7573642578125,-0.03875497032999992,-0.04057809410393238,-0.002354088845476508
1761838741358434600,0.7674345703125,-0.027601123631000517,-0.07584989849328995,0.006498422108590603
1761838741368503300,0.77750341796875,-0.04730184940099716,-0.06933540203273296,-0.029298556932341305
1761838741378573300,0.7875732421875,0.00032090251743793486,-0.03437339424490928,-0.09903810105286538
1761838741388643300,0.797643310546875,0.0005862754553556442,-0.040886721661686894,-0.10852299162633716
1761838741398712300,0.80771240234375,-0.046991468277573584,-0.05236205540001392,-0.10037563326694071
1761838741408782600,0.817782470703125,-0.048854924061894414,-0.025332594177126883,-0.09919274362530558
1761838741418852400,0.827852294921875,-0.0020499182671308517,-0.028943185889720915,-0.07803851284505799
1761838741428921300,0.83792138671875,0.027135844206809995,-0.03618015140593052,-0.08002546714488416
1761838741438991400,0.847991455078125,0.08709025443196296,-0.028248773884773253,-0.12831935979053377
1761838741449061400,0.858061279296875,0.12046177815794944,-0.03598959726989269,-0.19083993070926517
1761838741459130400,0.86813037109375,0.18067279349267482,-0.05416881256103515,-0.17952367825647814
1761838741469200400,0.878200439453125,0.2635883925884962,-0.018963059145212173,-0.1703820846953429
1761838741479270400,0.8882705078125,0.2867810521274805,0.010441899037361145,-0.1901647165951319
1761838741489339400,0.89833935546875,0.37508886565566063,-0.008233575338125229,-0.23153425333769992
1761838741499409400,0.908409423828125,0.4266325904101133,-0.039669747087359424,-0.2861484898449853
1761838741509479200,0.918479248046875,0.5362666850835085,-0.12534019784927367,-0.3220388279914856
1761838741519548400,0.92854833984375,0.547259788262844,-0.24864099882543086,-0.3081834672488272
1761838741529618200,0.9386181640625,0.5229501073926687,-0.31517420291900633,-0.2765378174673766
1761838741539688400,0.9486884765625,0.5511714087486267,-0.3261334038287401,-0.23495041845673695
1761838741549757400,0.95875732421875,0.5547913528114556,-0.30582302172780035,-0.2160317281762138
1761838741559827200,0.9688271484375,0.48319443558752534,-0.3020224604010582,-0.24395181809589264
1761838741569897500,0.9788974609375,0.40720542088448997,-0.29213877976834773,-0.2842137589227408
1761838741579967200,0.98896728515625,0.251609785503149,-0.27887130191624165,-0.29487167533095926
1761838741590036500,0.999036376953125,0.10451134483218193,-0.23552608118653295,-0.34004283284619446
1761838741600106500,1.0091064453125,0.03558160099089146,-0.22294190942347047,-0.45411227961853146
1761838741610176300,1.01917626953125,-0.04809270751774311,-0.21411884375959633,-0.5023833393778652
1761838741620245500,1.02924560546875,-0.16196809302270412,-0.1312704646810889,-0.5086873714255169
1761838741630315300,1.039315185546875,-0.17189911992847917,-0.04620674764066934,-0.5048999253086746
1761838741640385300,1.04938525390625,-0.15419804354310035,-0.0013587211325764654,-0.4812248525476083
1761838741650454300,1.059454345703125,-0.12041852353811264,0.047400633600354194,-0.4585810225304216
1761838741660524300,1.069524169921875,-0.0712204851269722,0.11094254692345858,-0.49079935763329263
1761838741670594600,1.079594482421875,-0.01728080514669418,0.14796762472093106,-0.5140616483423859
1761838741680663300,1.089663330078125,-0.01916004302203655,0.130656716696918,-0.48198476753681896
1761838741690733300,1.0997333984375,-0.025629531297087668,0.0714028559565544,-0.4524385742526501
1761838741700803300,1.10980322265625,0.07145663197040557,0.06845452754497527,-0.47042307068929073
1761838741710872300,1.119872314453125,0.12640928838551044,0.07885551005005836,-0.449191153296642
1761838741720942300,1.1299423828125,0.21094284407198427,0.07868161478787661,-0.41505101981833575
1761838741731012400,1.140012451171875,0.2382774257212877,0.03642360477298498,-0.3434648431841284
1761838741741081600,1.15008154296875,0.3028641719222069,-0.03137421242892742,-0.31376674727387727
1761838741751151400,1.1601513671875,0.29786300263404847,-0.0791954095289111,-0.27689307891214265
1761838741761221400,1.170221435546875,0.23349136048853397,-0.14275515076965092,-0.26699407284613697
1761838741771290400,1.180290283203125,0.16285948890447616,-0.18580021950900555,-0.2647049572619609
1761838741781360400,1.1903603515625,0.18177344821095465,-0.16481676045209168,-0.2840393887365237
1761838741791430400,1.200430419921875,0.11061024622917175,-0.146039287006855,-0.22896537096407263
1761838741801500400,1.21050048828125,0.1555856985092163,-0.15383330188393593,-0.13216567822145298
1761838741811569400,1.2205693359375,0.20190204400420186,-0.17030454421341418,-0.1055634568341542
1761838741821639400,1.230639404296875,0.11598258691728114,-0.22040742250978945,-0.04751262890773359
1761838741831709400,1.24070947265625,-0.030235563787817953,-0.28510493560880423,0.0047145617659669365
1761838741841778200,1.250778076171875,-0.08951368218660354,-0.31483138083070517,-0.027829242431605235
1761838741851848400,1.260848388671875,-0.11831658282279968,-0.314259133900702,-0.02515036947801709
1761838741861918500,1.27091845703125,-0.24219664499163626,-0.29636370398700235,0.006405172600876539
1761838741871987500,1.280987548828125,-0.2801490667670965,-0.3032838586390018,0.023705924557056276
1761838741882057500,1.291057373046875,-0.22331483438909053,-0.3296460881248116,0.0010879413671791554
1761838741892127200,1.301127197265625,-0.20522037477195262,-0.38025107072442765,-0.0057803734997287385
1761838741902196500,1.311196533203125,-0.1369412037938833,-0.4678507359832525,0.016390870569646356
1761838741912266500,1.3212666015625,-0.034337738409638406,-0.5589800366729497,0.042144576235674316
1761838741922336300,1.331336181640625,-0.022729133680462837,-0.6436158836901188,0.0564212311303243
1761838741932405500,1.341405517578125,-0.02248714161813259,-0.6793094206228852,0.0871945185240358
1761838741942475300,1.351475341796875,-0.022272622084617614,-0.7402224467471241,0.10505860345140099
1761838741952545300,1.361545166015625,-0.007332827106118202,-0.8436416124284267,0.12218209914453326
1761838741962614300,1.3716142578125,-0.057226446565985675,-0.8651602012753487,0.12872063406780362
1761838741972684300,1.381684326171875,-0.022087328645586966,-0.8108715617269278,0.15041837887391446
1761838741982754600,1.391754638671875,0.10625029745399951,-0.8063777574390173,0.14495258774869144
1761838741992824300,1.40182421875,0.22774843292236327,-0.8673150412216782,0.13419227041192353
1761838742002893600,1.4118935546875,0.18360124816000462,-0.9089169254153966,0.22642763264738022
1761838742012963300,1.42196337890625,0.11590776811540127,-0.9601412089571356,0.33457879528664053
1761838742023033300,1.432033447265625,0.09535480943024158,-0.8943509321853518,0.40006607052385806
1761838742033102300,1.442102294921875,-0.09442775771319865,-0.740774819932878,0.4892760205235332
1761838742043172400,1.45217236328125,-0.37246436237096786,-0.5551473266422748,0.6273189019490033
1761838742053242400,1.462242431640625,-0.6416150652617215,-0.3265057442724705,0.7465954158451408
1761838742063311400,1.472311279296875,-0.753663819861412,-0.06764817959815263,0.7372469380676746
1761838742073381400,1.48238134765625,-0.7499117738515139,0.22978110779374836,0.6749107472725212
1761838742083451400,1.492451416015625,-0.7062170090317725,0.4789221650958061,0.6218091255515813
1761838742093520400,1.502520263671875,-0.5720499461263417,0.6880179199963807,0.5638046803504229
1761838742103590100,1.512590087890625,-0.398909886226058,0.7777779781594872,0.5274878969527781
1761838742113660200,1.52266015625,-0.26504502113759515,0.7967582807004451,0.5440316199965775
1761838742123729200,1.532729248046875,-0.14062895239591597,0.7793275456890464,0.5514956722669303
1761838742133799200,1.542799072265625,0.038781858336925504,0.7742009964555502,0.5401267945777625
1761838742143869200,1.552869140625,0.1406061560422182,0.7691065959259867,0.5021257113549858
1761838742153939200,1.562939208984375,0.2607470316827297,0.7528259077325463,0.39042401662729675
1761838742164008200,1.57300830078125,0.41488253138363357,0.8244085041701793,0.25437362419329584
1761838742174078200,1.583078125,0.49060851123631,0.9137240334361791,0.0913881708215922
1761838742184148000,1.59314794921875,0.6032774435609579,0.9601394553914666,-0.09157229521684349
1761838742194217200,1.60321728515625,0.7057236725568771,0.9953186130613088,-0.21381189670227466
1761838742204287000,1.613286865234375,0.8012234434157609,1.0065274048179387,-0.25608715011291205
1761838742214357200,1.623357177734375,0.884825855731964,0.9982394689440727,-0.22343312700651585
1761838742224426200,1.63342626953125,0.8929279136449098,1.0059072270929812,-0.14369696166440843
1761838742234496000,1.64349609375,0.881124078604579,1.0084837995827198,-0.022800372285768387
1761838742244566300,1.653566162109375,0.8882979157567024,0.9997592258572577,0.09727839790396392
1761838742254636300,1.66363623046875,0.8146861515790224,0.9455304998025298,0.17766425932645796
1761838742264705300,1.673705322265625,0.7402695007592439,0.8458899758771061,0.2510082394134253
1761838742274775300,1.683775390625,0.7600462143748998,0.755370331518352,0.31449929933212695
1761838742284845000,1.693844970703125,0.7242495093286037,0.6466656266495585,0.323993980647251
1761838742294914300,1.703914306640625,0.6831319015204906,0.5219228101715445,0.3247884920258075
1761838742304984000,1.713984130859375,0.670367112493515,0.4316565560519695,0.30142697872594
1761838742315054000,1.72405419921875,0.6605594197064638,0.36540421472638845,0.2733536344733089
1761838742325123000,1.734123046875,0.6331546954303979,0.2963414921551943,0.2549849610246718
1761838742335193000,1.744193115234375,0.6411743357568979,0.21359628119021654,0.22094927430152891
1761838742345263400,1.754263427734375,0.6623287674665451,0.12666384766846894,0.14960881605669854
1761838742355332000,1.76433203125,0.6640414166033267,0.09869944368302822,0.07334251878224313
1761838742365402000,1.774402099609375,0.7265192078262567,0.17789046929776667,-0.05774973978772759
1761838742375472000,1.78447216796875,0.8106260625332593,0.34342210002094503,-0.1894778851084411
1761838742385542100,1.794542236328125,0.8486451198041438,0.5160512877896428,-0.2612377378091216
1761838742395611400,1.804611328125,0.9658855978280305,0.6011793022379279,-0.3137400784626603
1761838742405681200,1.81468115234375,1.2959165936172008,0.7173775777325033,-0.4384221046641469
1761838742415751200,1.824751220703125,1.5786726280122994,0.8069082110539079,-0.48331214368306097
1761838742425820200,1.834820068359375,1.7158423798650502,0.7540715238794684,-0.35030806014239785
1761838742435890200,1.84489013671875,1.8758534936010836,0.6612634763225913,-0.19979422153737394
1761838742445960200,1.854960205078125,2.259676869854331,0.6459175847612321,0.0034865269415080545
1761838742456029200,1.865029296875,2.7595366090387103,0.4059912227891385,0.16010799823924898
1761838742466099200,1.87509912109375,2.867152349627018,0.10407616828531026,0.6738940445106476
1761838742476169200,1.885169189453125,2.4955367130398747,-0.2827503353066742,1.1923884146034718
1761838742486239200,1.8952392578125,2.311305350282788,-0.64332449952811,1.2689065677471458
1761838742496308000,1.905307861328125,2.1196125656038523,-0.482396855469048,1.3809363253854214
1761838742506378200,1.915378173828125,2.4580074851125477,-0.46428573697805403,1.7494729929186403
1761838742516448300,1.9254482421875,4.363175920525193,0.7634965009592473,1.6236460344657302
1761838742526517200,1.935517333984375,7.360447518971562,3.2474364458382126,1.6059312218159436
1761838742536587300,1.945587158203125,9.779581960332393,4.995969381427765,0.36210699981190264
1761838742546657000,1.955656982421875,9.53528921984434,5.131258726361394,-0.5573355574015527
1761838742556726300,1.965726318359375,5.8455082352012395,3.162128398647904,0.08014810714386403
1761838742566796000,1.975796142578125,5.665641497394442,1.9814273530982434,1.9197201078563928
1761838742576866000,1.985865966796875,5.710851927474141,2.233232807303965,2.592176009322703
1761838742586936300,1.995936279296875,5.987984861290455,2.6467764912992715,3.01465118779242
1761838742597005000,2.006005126953125,5.583894357556105,2.540083710774779,3.731953654462099
1761838742607075300,2.016075439453125,4.96602724762857,1.7997155719466507,4.243137043954432
1761838742617145000,2.02614501953125,4.880019527736306,1.1399902649767697,4.196429945576191
1761838742627214000,2.036214111328125,4.518232042202353,0.8425421267539263,3.938816535744071
1761838742637284400,2.046284423828125,3.3771816006481647,0.05735328781604766,3.586450666289031
1761838742647354000,2.05635400390625,1.6498820072233675,-1.1601536398224532,3.603314707328379
1761838742657423400,2.06642333984375,-0.8767384108662605,-2.3654139570891854,4.129333262380958
1761838742667493000,2.0764931640625,-4.195214140045643,-3.3525261750802398,4.611734209503233
1761838742677563100,2.086563232421875,-7.6195333394438025,-3.5706834805756804,4.300738461312651
1761838742687633200,2.096633056640625,-11.460614308100938,-2.9625194340169427,3.3261031553179023
1761838742697702100,2.1067021484375,-14.693786081743239,-2.1207168735839423,1.957883249773085
1761838742707772200,2.116772216796875,-17.32953673663735,-1.2079086398184298,0.2688601224463433
1761838742717842200,2.12684228515625,-18.873758228993413,-0.5129743645623326,-1.7573904880449174
1761838742727911200,2.1369111328125,-19.256472767221926,-0.5529352766159922,-3.274514130116999
1761838742737981200,2.146981201171875,-19.717087706732748,-1.7455255704671144,-3.297444631588459
1761838742748051200,2.15705126953125,-20.905939763903618,-2.6171894545480607,-2.155353010418266
1761838742758120000,2.167119873046875,-22.742785773718357,-3.6150802561849353,-0.6811803290612995
1761838742768190200,2.177190185546875,-24.523735124266146,-4.456742385233938,0.07496127909049391
1761838742778260200,2.18726025390625,-24.96840196853876,-4.035978686857224,-0.24877580418623982
1761838742788330000,2.197330078125,-24.073456869852542,-4.284434684504569,-1.700366870574653
1761838742798399200,2.207399169921875,-24.547791707158087,-5.575561998018622,-4.684323060373962
1761838742808469000,2.217468994140625,-26.095979765057564,-2.0916800180613992,-6.060809859004617
1761838742818539300,2.227539306640625,-25.10366734807491,2.022778623531759,-6.853515649443865
1761838742828608300,2.237608154296875,-22.482890974950788,3.275428322352469,-7.4190937692075964
1761838742838678000,2.247677978515625,-17.271535798567534,4.73904599968642,-7.648076127839088
1761838742848748300,2.257748291015625,-10.534550433051585,6.256678468063473,-7.73819069852829
1761838742858817000,2.267817138671875,-6.121260528314113,6.768026400467753,-6.834646113801002
1761838742868887300,2.27788720703125,-4.592983624064922,6.4376879461646075,-5.058234406682849
1761838742878957300,2.287957275390625,-1.8477800762832164,6.372011066639423,-3.490289216651022
1761838742889027000,2.298027099609375,3.7733600160837173,6.050651453083753,-2.949629849566519
1761838742899096300,2.308096435546875,8.355988250350952,5.000613992363214,-2.573328100989759
1761838742909166000,2.318166015625,10.722511629986762,4.743467323260009,-1.1434779609620571
1761838742919236000,2.328236083984375,12.338514748483895,4.173781475916504,0.7477148483291268
1761838742929305000,2.33830517578125,13.97685829360485,4.4095483801215885,2.3409672058358786
1761838742939375000,2.348375,15.711476101088524,5.974294189590215,3.359754080507159
1761838742949445000,2.358445068359375,16.845417002898454,6.137701375505328,5.95673515202403
1761838742959515100,2.36851513671875,14.676278482103347,3.712128425529599,7.802540128841995
1761838742969584000,2.378584228515625,13.284562257897853,4.3560409540787335,9.589102058574557
1761838742979654100,2.388654052734375,12.555523176205158,4.377984782600403,10.640395656836033
1761838742989724200,2.39872412109375,11.685271789270638,4.365524529477954,11.076081906795501
1761838742999793200,2.408793212890625,11.70666412138939,4.629649220900237,10.923659640753268
1761838743009863200,2.41886328125,12.19053601784706,4.511408918184042,10.356679252976178
1761838743019933200,2.42893310546875,12.588811697822809,4.578793770670891,9.576556465256214
1761838743030002200,2.439002197265625,12.703994074273108,4.583286405915022,8.576035607376694
1761838743040072200,2.449072265625,12.613358110058307,3.8321573652282357,7.332092946624756
1761838743050142000,2.459141845703125,12.577678893911838,2.889459750764072,5.8093327599704265
1761838743060212200,2.469212158203125,12.636762366521358,2.18660754199028,4.294877460324764
1761838743070281200,2.47928125,12.475270658838749,1.7722275533013045,3.076733842217922
1761838743080351200,2.489351318359375,12.248027252829074,1.6156022826112806,2.2796412149965763
1761838743090421200,2.499421142578125,11.80295124323368,1.4778972548380493,2.0290306696638463
1761838743100491300,2.5094912109375,11.199016212546825,1.048984882927686,2.250308737528324
1761838743110561300,2.519561279296875,10.278132370483874,0.5665877351976931,2.3485244893476365
1761838743120631300,2.52963134765625,9.412250284674764,0.03968231430798769,2.3105632997438312
1761838743130701300,2.539701416015625,8.64838831140399,-0.6221979787386953,2.263270802693069
1761838743140770300,2.549770263671875,7.8752435460031025,-1.3234282853990793,2.194578082478046
1761838743150840300,2.55984033203125,7.131777295029163,-1.7869466912664471,1.973858817540109
1761838743160910300,2.569910400390625,6.664508158326148,-1.8408191512294112,1.5896607627555728
1761838743170979300,2.579979248046875,6.154132285824418,-1.6142945610135793,1.0341238522738219
1761838743181049300,2.59004931640625,5.630801070159674,-1.34758803640455,0.5619479465678334
1761838743191119000,2.600119140625,5.217005749490856,-1.1624726573545485,0.004662438853085041
1761838743201188400,2.610188232421875,4.942560447323322,-0.9739515615142881,-0.6314217341579497
1761838743211258000,2.620258056640625,4.722310261201859,-0.8194264049086719,-1.0913156659178436
1761838743221328400,2.630328369140625,4.443530729222298,-0.6080474344417452,-1.2842837312296032
1761838743231398400,2.6403984375,4.17824839219749,-0.13259177641272543,-1.299244130604714
1761838743241467100,2.650467041015625,4.198691460767388,0.3044646659214049,-1.2236892695352435
1761838743251537400,2.660537353515625,4.427870803275704,0.43781091396324334,-0.9342018810585141
1761838743261607200,2.670607177734375,4.618722460955381,0.48777069399449974,-0.3453112747684121
1761838743271676400,2.680676513671875,4.43308181592226,0.528778850078769,0.683850132792443
1761838743281746200,2.69074609375,3.6833114963680504,1.0385068165984004,2.048808990714699
1761838743291816200,2.700816162109375,2.4876322235256434,1.5754492820516228,3.7522301342934368
1761838743301886200,2.71088623046875,1.0199597178429365,1.2045578680858016,5.355967060935497
1761838743311955200,2.720955078125,0.6525403639018535,0.1129612663347274,6.274752469414472
1761838743322025200,2.731025146484375,0.8231324928849935,-1.7530771548904478,6.402578638860583
1761838743332095200,2.74109521484375,0.22860417296886443,-3.423656936097145,5.532915280947089
1761838743342164200,2.751164306640625,-0.5561772542119026,-4.5876241428583855,3.52810632160902
1761838743352234200,2.761234130859375,-2.3963006782621146,-3.7788533528029915,-0.7737231498107313
1761838743362304300,2.77130419921875,-4.042418364515901,-2.073498464682698,-4.884344405198097
1761838743372374300,2.781374267578125,-6.615352205491066,-0.09285013313293457,-7.254148706200718
1761838743382443300,2.791443359375,-8.831856873095035,1.6427176685519516,-7.981419024655223
1761838743392513300,2.80151318359375,-9.62330068077445,2.5640871021747587,-7.030969480890035
1761838743402583300,2.811583251953125,-10.320040251886844,2.7056314158499237,-4.4302223348379135
1761838743412652300,2.82165234375,-11.74166763023138,2.3338759324006735,-1.402129335539788
1761838743422722300,2.831722412109375,-12.235272985196113,1.381924313509464,1.4289045297406613
1761838743432792000,2.8417919921875,-13.370945240843294,-0.18636218250701203,3.488081185212731
1761838743442862300,2.8518623046875,-14.721485405051707,-1.1153102894894777,3.98124697971642
1761838743452931000,2.86193115234375,-14.828090507292746,-1.0721391832176594,2.5059645835518833
1761838743463001300,2.87200146484375,-14.22130651691556,-1.036615742154792,-0.4218906565800309
1761838743473071400,2.8820712890625,-14.004911837178469,-0.6773863436058163,-3.669199968907237
1761838743483140400,2.892140380859375,-14.914501547288895,0.6182501178957521,-5.601604201769828
1761838743493210400,2.90221044921875,-16.105490616488456,1.8458716123133896,-6.261114404684305
1761838743503280000,2.912280029296875,-15.951533395963907,2.1401886129036543,-7.07559071290493
1761838743513350100,2.92235009765625,-14.401356794595717,2.412025778399408,-7.955625827229023
1761838743523419100,2.932419189453125,-13.38962422235012,3.0857129752263424,-8.073753609481454
1761838743533489200,2.9424892578125,-12.011194180697203,4.051060812915861,-7.698257332068681
1761838743543559400,2.952559326171875,-10.244134239292144,4.35774366634339,-6.667333737140893
1761838743553628200,2.962628173828125,-8.445950260826946,4.149925091771781,-5.047309108042716
1761838743563698200,2.9726982421875,-6.257240193599462,3.8889913053452965,-3.395414884214103
1761838743573768200,2.982768310546875,-4.251052347123623,3.5291859335392712,-1.9536435663767158
1761838743583838200,2.992838134765625,-1.829848698273301,3.294975611126423,-0.8997942922830581
1761838743593907500,3.002907470703125,0.6305582491964101,2.764419997166097,-0.15190613321363924
1761838743603977200,3.012977294921875,2.6841876458048817,2.2167729631513358,0.33189956614002586
1761838743614047200,3.023047119140625,4.3673190116792915,1.788683598061651,0.6191640178702771
1761838743624116200,3.0331162109375,5.690921484601497,1.4033043706685304,0.8216887238174676
1761838743634186200,3.043186279296875,6.421610671588778,1.0068871049758046,0.947025706796348
1761838743644256300,3.05325634765625,6.87551296171844,0.7466678234942257,0.9553653728574514
1761838743654325200,3.0633251953125,7.156071778330206,0.6349244815818965,0.8668715352378785
1761838743664395300,3.073395263671875,7.264677698999643,0.5071879631806164,0.7163765839964151
1761838743674465300,3.08346533203125,7.236185179486871,0.2829846555192023,0.5156158189818263
1761838743684535300,3.093535400390625,7.138541966858506,-0.01778616085294634,0.40018429007604717
1761838743694604000,3.10360400390625,6.920402489280701,-0.16742836772259323,0.40894137783162293
1761838743704674300,3.11367431640625,6.907110461509228,0.00718260498046875,0.6076700159640982
1761838743714744300,3.123744384765625,6.582620733234286,0.2861930231064558,1.0193495500553398
1761838743724813300,3.133813232421875,5.944524489748478,0.5778039796084166,1.480915433615446
1761838743734883300,3.14388330078125,5.572092276081443,0.96528514771685,1.7371926264077424
1761838743744953000,3.153953125,5.460666037294268,1.4884407145537435,1.839190819375217
1761838743755023400,3.1640234375,5.430063978281617,1.7334592850983142,1.8662229109466075
1761838743765092000,3.174092041015625,5.335943679082393,1.6031621954940258,1.846452919332683
1761838743775162000,3.184162109375,5.207421344065666,1.3316275200761853,1.730682513861358
1761838743785232400,3.194232421875,4.785113046595454,0.9916909240834414,1.3679413808643817
1761838743795301000,3.204301025390625,4.225881665509939,0.6253052971042692,0.7010824226222931
1761838743805371400,3.214371337890625,3.6900346671432254,0.2121542656883597,-0.20984978813827038
1761838743815441400,3.22444140625,3.185433286389708,0.004961275669187307,-1.1813156703166663
1761838743825511200,3.23451123046875,2.8192577950298783,0.03765855339542031,-1.9070660857275128
1761838743835580400,3.244580322265625,2.523525959205627,0.060271951741725206,-2.3197002536624667
1761838743845650200,3.254650146484375,2.456877019777894,-0.08245748006477951,-2.420642653966695
1761838743855720200,3.26472021484375,2.373242458757758,-0.21382439085766672,-2.298472464455664
1761838743865790500,3.27479052734375,1.7501023768633603,-0.30392873241379853,-2.072022985302657
1761838743875859200,3.284859130859375,0.9452835393041372,-0.3935700595680624,-1.8846202990330754
1761838743885929500,3.294929443359375,0.17016016730666159,-0.46419754723794754,-1.9343688109338282
1761838743895999200,3.304999267578125,-0.7459452083081006,-0.661000368406996,-1.9921851862169802
1761838743906068200,3.315068115234375,-1.7830121282964944,-0.7324776047740131,-1.9495456295385956
1761838743916138200,3.32513818359375,-2.5244243693500756,-0.3358701502714306,-1.7144209687598049
1761838743926208300,3.335208251953125,-3.2291800736576315,0.30650431852284815,-1.271905165041238
1761838743936278300,3.3452783203125,-4.035393580445647,-0.08587525261901319,-1.183249414858222
1761838743946347300,3.35534716796875,-4.672900625866651,-0.6630697950921952,-1.2734347126960754
1761838743956417300,3.365417236328125,-4.926248779469728,-0.5857337496943772,-1.6794971010252833
1761838743966487300,3.3754873046875,-4.213731793510914,0.25697964197322726,-1.9709310935251414
1761838743976556300,3.385556396484375,-3.6394670939445493,0.6869060862969607,-2.1773023918978867
1761838743986626000,3.3956259765625,-3.4026462967723607,0.43218226042650637,-1.9010219832576811
1761838743996696300,3.4056962890625,-2.898605472511053,0.23038871829807758,-1.541685690268129
1761838744006765300,3.415765380859375,-2.353359362158179,0.17298391949050126,-1.330790046338737
1761838744016835300,3.42583544921875,-1.7309020018309353,0.28803930856026705,-1.1233889665268362
1761838744026905300,3.4359052734375,-1.0168038841605185,0.5574571379546076,-1.0171534282505512
1761838744036975000,3.44597509765625,-0.21026889033317564,0.767893347678706,-0.8157435516774654
1761838744047044400,3.45604443359375,0.7740297315418719,0.7873035660695284,-0.524568356244266
1761838744057114400,3.4661142578125,1.6432389159470795,0.706103830980882,-0.3809700326487422
1761838744067184000,3.47618408203125,2.353192188897729,0.6419029422923922,-0.22342384772151708
1761838744077254400,3.48625439453125,3.0774218244820832,0.23515121999215333,-0.05538929426670074
1761838744087323100,3.4963232421875,3.9293075336426493,-0.08103672654666007,0.3427884782925248
1761838744097393200,3.50639306640625,4.528212168946862,0.005575096718594431,0.48919630635082717
1761838744107462400,3.51646240234375,4.939701550760865,-0.12184369750302285,0.5681713511273264
1761838744117531400,3.526531494140625,5.115491248387098,-0.16349837132990358,0.7435374165140092
1761838744127601400,3.536601318359375,5.17346997462511,-0.05061049902494996,0.9671759298995136
1761838744137671400,3.54667138671875,5.332320227888226,0.15175832224078475,1.1461255528613925
1761838744147741400,3.556741455078125,5.420787615892291,0.23401812430899588,1.3381544376268981
1761838744157810400,3.566810546875,5.483886753883958,0.21315883962102233,1.6339353732898831
1761838744167880200,3.576880126953125,5.452198653200268,0.2750352674173191,2.0275456918030974
1761838744177950500,3.586950439453125,5.371204377555847,0.43005964224934573,2.3526138044878837
1761838744188019200,3.597019287109375,5.452283408874273,0.7199253625191748,2.4970409801229834
1761838744198089500,3.60708935546875,5.9772530393958085,1.0341075587261468,2.386946282200515
1761838744208159500,3.617159423828125,6.45267859454751,1.1482651952385903,2.3523364488512275
1761838744218229200,3.627229248046875,6.539497630822658,1.0860480277132243,2.643691092504561
1761838744228298500,3.637298583984375,6.422221496963501,1.0367649413671345,2.957255814400315
1761838744238368300,3.6473681640625,6.438892061257362,0.9677938426021486,3.0190570215359327
1761838744248438300,3.657438232421875,6.544799828884005,1.0298195792086422,3.1845304923310875
1761838744258507500,3.667507568359375,6.27889614509046,1.1376200287140905,3.5275744066894053
1761838744268577300,3.677577392578125,5.429872839623689,0.9690404816623777,4.029152640229463
1761838744278647300,3.687647216796875,4.271128335946798,0.5576244208129123,4.382178142637014
1761838744288717300,3.69771728515625,2.7687890060305596,0.20044972630403934,4.771286181294918
1761838744298786300,3.707786376953125,1.119102229118347,-0.2104805237898603,5.3441684865921735
1761838744308856600,3.717856689453125,-0.5949146888852119,-0.910982625773549,5.880216560488939
1761838744318926300,3.72792626953125,-3.196139389321208,-2.5505685721710325,6.904535058063268
1761838744328995600,3.73799560546875,-7.028948204195499,-4.744621169470251,8.344775366941095
1761838744339065300,3.7480654296875,-11.426976242393254,-6.069883392298221,8.891761014437675
1761838744349135400,3.75813525390625,-16.661913369894027,-5.603869808614253,8.010316033315657
1761838744359205400,3.768205322265625,-20.98868000643253,-4.156807544761896,6.451959632623195
1761838744369274400,3.7782744140625,-24.435388147771356,-3.410662722228467,5.015733235561847
1761838744379344400,3.788344482421875,-27.279194693124293,-1.8074261463239787,2.982365997998416
1761838744389414400,3.798414306640625,-26.835713259243963,0.7305166068993508,0.221158971529454
1761838744399484400,3.808484375,-24.68213821828365,2.232737132741511,-1.9161346505850552
1761838744409553400,3.818553466796875,-21.429928566694258,3.016730916675925,-3.729487556609511
1761838744419623400,3.82862353515625,-19.069058682775495,4.246067544448375,-5.192987160521746
1761838744429693400,3.838693359375,-18.338869262003897,5.165342197749018,-6.299092545422911
1761838744439762400,3.848762451171875,-18.510269784760474,5.285150480434298,-6.355427011585236
1761838744449832400,3.85883251953125,-18.737516697901487,3.897185133194923,-5.363610269165039
1761838744459902200,3.868902099609375,-18.38036447095275,2.559079210884869,-4.3636464606463905
1761838744469972500,3.878972412109375,-17.169219917953015,1.6186017566882074,-4.078038543951511
1761838744480041200,3.889041259765625,-14.147276819586754,-0.5676289148136973,-6.043312196236848
1761838744490111200,3.899111328125,-9.188228178799152,-5.587928143116831,-12.241931858563422
1761838744500181500,3.909181396484375,-4.975155725979804,-5.266521183288097,-19.243925420337913
1761838744510250200,3.919250244140625,-3.4122102439314124,2.2220924046084285,-19.463453137403725
1761838744520320500,3.929320556640625,-7.0401453055143355,2.8792741645753384,-11.651468888390063
1761838744530390300,3.939390380859375,-7.802853432574868,2.414199323046207,-5.48776213401258
1761838744540460300,3.949460205078125,-3.724888538381457,4.079759376394748,-3.3637428578823805
1761838744550529500,3.959529541015625,-1.499569280681014,4.357846834456921,-2.1632636374123395
1761838744560599300,3.969599365234375,-0.5062234289973974,4.584003322012722,-1.177883430845663
1761838744570669300,3.97966943359375,-0.08388122925758361,4.635905650946498,0.1805891885961406
1761838744580738300,3.98973828125,0.4828478141069412,4.462089883741736,1.179422257785499
1761838744590808300,3.999808349609375,2.603900057125091,4.905992173382639,1.0995929342672228
1761838744600878600,4.009878662109375,5.818083052659034,5.650658447796106,0.4692308286974206
1761838744610948400,4.0199482421875,8.602904325079917,6.108617319840192,0.3050353054162115
1761838744621017300,4.030017333984375,10.376280610024928,5.889533839410543,0.5796163993252441
1761838744631087400,4.04008740234375,11.65117662744522,5.483982615473866,1.0209089813917875
1761838744641157400,4.050157470703125,12.749013950216769,5.232279890990257,1.4602552151635289
1761838744651227400,4.060227294921875,13.602542165887355,5.232002827614545,1.6119465365827084
1761838744661296400,4.07029638671875,14.040201761746406,5.214133408924937,1.4785881597116588
1761838744671366400,4.080366455078125,14.630273102253675,5.525884651657939,1.312865390330553
1761838744681436400,4.0904365234375,14.934896685063839,5.923036296039819,1.4015147107727826
1761838744691505400,4.10050537109375,15.177742149353026,6.5292649906218045,2.0100556278198956
1761838744701575200,4.1105751953125,14.569280581152439,5.743356020715832,2.6514462366759775
1761838744711645400,4.1206455078125,14.085808497667312,4.423140559883415,3.2299726853400466
1761838744721715500,4.130715576171875,14.666411752605438,3.584295241820812,3.0898516824662683
1761838744731784400,4.140784423828125,15.55457873545885,4.840223523920774,1.6715239301890135
1761838744741854500,4.1508544921875,15.994203493911026,5.54796321247518,0.6791207661829889
1761838744751924200,4.16092431640625,15.57658481556177,5.766926865917444,-0.3114091512970626
1761838744761993500,4.170993408203125,14.967887100517748,6.679864717411995,-1.1270640748430043
1761838744772063500,4.1810634765625,14.400087213051318,7.346810038763285,-1.3581889253959059
1761838744782133200,4.19113330078125,13.629358861142396,7.459570741024613,-1.20160939354375
1761838744792203500,4.20120361328125,12.895809608548879,7.390487267926335,-0.6815013777092099
1761838744802272300,4.211272216796875,12.451803274011612,6.581687251776456,0.4127287143506109
1761838744812342500,4.221342529296875,12.059359953451155,3.5891812602967024,1.5422680202007293
1761838744822412500,4.23141259765625,11.804372800469398,3.3022944097071885,1.588156349541992
1761838744832481300,4.241481201171875,12.05929682508707,3.4200457598626612,1.789662379965931
1761838744842551600,4.251551513671875,11.574483848387002,2.3890660508334634,1.6798963294759393
1761838744852621300,4.261621337890625,10.733253973275422,1.3484405615806578,1.247083735256642
1761838744862691300,4.27169140625,9.809413619494437,0.02309621342718601,0.14019306346299126
1761838744872760300,4.28176025390625,9.068014822444319,-1.7803239121258259,-2.1049634241349993
1761838744882830300,4.291830322265625,8.391871464636921,-2.6979639499619603,-4.895698158383369
1761838744892900400,4.301900390625,7.434066297411918,-1.5775211198896169,-6.000933774712681
1761838744902970400,4.311970458984375,6.1085506843447686,0.2836579516708851,-4.7217526273190975
1761838744913039400,4.322039306640625,5.384494651761651,1.4279206332698464,-2.9837983688890932
1761838744923109400,4.332109375,5.1330754203945395,2.455714113478362,-1.5429767529919742
1761838744933179400,4.342179443359375,4.689357839670777,2.837962787760794,-0.18140512635521588
1761838744943248400,4.352248291015625,3.715849491879344,2.959147327235341,1.4624755215615033
1761838744953318400,4.362318359375,2.698596694907546,2.9041826881214976,3.1780583737075325
1761838744963388400,4.372388427734375,1.183819908222556,2.826918538916111,4.8198967752069235
1761838744973458200,4.382458251953125,-0.7055278577238321,1.979931123191118,6.262259483066201
1761838744983527400,4.39252734375,-2.586802791851759,0.6701578536570072,6.999429264244437
1761838744993597200,4.40259716796875,-3.6220214536249635,-0.7105921553760767,6.758894414985179
1761838745003667500,4.41266748046875,-3.2821219747722146,-4.3368993234962225,5.910547401344775
1761838745013736400,4.422736328125,-5.357575665175914,-9.247437323614955,1.4989609395243226
1761838745023806200,4.43280615234375,-8.799580158868432,-10.071157845520972,-4.9916895121514795
1761838745033876500,4.44287646484375,-11.085322028827667,-2.4678216076403854,-7.710979450997709
1761838745043946200,4.4529462890625,-13.351251529335975,3.457719364696741,-6.702631260493398
1761838745054015500,4.463015380859375,-17.594010679888726,3.2124925582289694,-3.2619077465221284
1761838745064085500,4.47308544921875,-18.585019613057373,4.827421325492859,0.1692467787887901
1761838745074155300,4.4831552734375,-16.22281117401123,6.847882027471065,2.769765157586336
1761838745084225500,4.4932255859375,-13.932885880887508,5.564181941348314,5.453057315856218
1761838745094294300,4.503294189453125,-12.14810908100605,3.020736645185947,7.301958505123853
1761838745104364500,4.513364501953125,-11.079220789343118,0.9968051983572542,7.951087599277496
1761838745114434800,4.523434814453125,-11.631917800223826,0.032586364697664974,7.302870359271765
1761838745124503800,4.53350390625,-12.364377504014968,-0.21914719331562518,5.584691645413637
1761838745134573800,4.54357373046875,-12.597248686778544,-0.8545562435440719,2.5150042145758866
1761838745144643800,4.553643798828125,-12.095174778676032,-2.71066502610296,-2.7007848526015876
1761838745154713900,4.5637138671875,-10.550124434280395,-4.8629894824802875,-9.470839836287498
1761838745164782800,4.573782958984375,-8.323697507598995,-3.918705183346569,-13.294551736992597
1761838745174852900,4.583852783203125,-8.52471867711544,-3.793068048377335,-12.364910587978363
1761838745184922600,4.593922607421875,-9.557378302055596,-2.847974478687346,-9.732955233713984
1761838745194993000,4.603992919921875,-9.295579715493322,-1.7476599521473049,-7.1049243594169615
1761838745205061600,4.6140615234375,-7.983858234500884,-1.7840730355262755,-4.885076518864929
1761838745215131600,4.624131591796875,-6.289090791368484,-1.2074694446835665,-2.973063916645944
1761838745225202000,4.634201904296875,-4.854198857781291,-0.9267542684663087,-1.4012743261456488
1761838745235270700,4.644270751953125,-3.041009033364057,-0.7734178832538425,-0.350533393330872
1761838745245341000,4.6543408203125,-1.2585031010240315,-0.6648294982410967,0.20403598729297517
1761838745255410700,4.66441064453125,0.14950491729080675,-0.5772008991487324,0.27538535949662324
1761838745265480700,4.674480712890625,1.199530687573552,-0.028087299712747333,0.11724310837239027
1761838745275549700,4.6845498046875,1.9396347686380147,0.6056135218257084,-0.030027181734144686
1761838745285619700,4.69461962890625,2.269881453004479,0.8611325531944632,0.10262596947699784
1761838745295689700,4.704689697265625,2.1662778706669807,0.9577494184497743,0.4958830906383693
1761838745305758700,4.7147587890625,1.9560195017278192,1.208611162064597,0.9141814218148588
1761838745315828700,4.724828857421875,1.946874072241783,1.5839380011945963,1.0863123046725989
1761838745325898800,4.734898681640625,2.104483970054984,2.068636996126175,1.0217539077833295
1761838745335968800,4.74496875,2.5498504870295524,2.5969725959494707,0.7417229144379496
1761838745346037800,4.755037841796875,3.7419904798299073,2.9647517231136558,0.402354473721981
1761838745356107800,4.765107666015625,4.55695544835031,3.078511081023514,0.26162819843143226
1761838745366177800,4.775177734375,4.87562859930098,2.9283921234875914,0.3316448607265949
1761838745376247600,4.78524755859375,5.118358328256011,2.6927958996742962,0.4183709580212831
1761838745386316800,4.79531689453125,5.199863476032018,2.4206018835648893,0.5680936097159981
1761838745396386800,4.80538671875,4.899952308696508,2.1338246308296918,0.6583057955607772
1761838745406456800,4.815456787109375,4.93982371583581,1.8124056883022188,0.7495666136756539
1761838745416525800,4.82552587890625,5.0916877634733915,1.4249264198899267,0.767584208664298
1761838745426595600,4.835595703125,5.090100786542892,1.0233461454108357,0.6619213557094336
1761838745436665900,4.845665771484375,4.788453004673123,0.8646724177584052,0.6702274117618798
1761838745446736000,4.85573583984375,4.386695912322402,0.9437082528114318,0.6950923884272575
1761838745456804900,4.865804931640625,3.988229093688726,0.9373086149021983,0.7442705530941486
1761838745466875000,4.875875,3.585512800917029,0.8213497011214494,0.9094824503436684
1761838745476944600,4.885944580078125,3.042759091901779,0.7097793776884674,1.1764634079799055
1761838745487014700,4.8960146484375,2.60011703145504,0.5646782483145594,1.502166165306419
1761838745497083600,4.906083740234375,2.2589707674115895,0.36338732194602485,1.7920153728328645
1761838745507153700,4.916153564453125,1.5509709666162728,0.21401187625378368,1.9660864299729466
1761838745517224000,4.926223876953125,0.7811649902492761,0.15617606561779976,1.8672161597676573
1761838745527292700,4.936292724609375,0.0663537558734417,0.12516542580425738,1.6061708757907152
1761838745537362700,4.94636279296875,-0.6211223123311996,0.18773147983253002,1.442500362764299
1761838745547432700,4.9564326171875,-1.2265139715671538,0.27329788569808006,1.2663728114858268
1761838745557502700,4.966502685546875,-1.597092081800103,0.3429090359322727,1.076170996017009
1761838745567571700,4.97657177734375,-1.8795201994150876,0.34444413654506206,0.8037802882917224
1761838745577641700,4.986641845703125,-2.171777052605152,-0.008939677780866623,0.4880846918471157
1761838745587711700,4.996711669921875,-2.3648761969506737,-0.16891688924729822,0.09047083678096532
1761838745597781800,5.00678173828125,-2.4221903218001124,0.03692205581441521,-0.4552746013961732
1761838745607850800,5.016850830078125,-2.4154560451090332,0.2777018197454512,-1.0265830815054475
1761838745617920500,5.02692041015625,-2.167984090062976,0.31447248439043757,-1.4933523058623075
1761838745627990800,5.03699072265625,-1.6697645193010568,0.247540344107151,-1.745098869487643
1761838745638059800,5.047059814453125,-0.9812918412744999,0.21116057847589254,-1.8355622536145149
1761838745648129800,5.0571298828125,-0.019929858350753782,0.17820976438000796,-1.770926699835807
1761838745658199800,5.06719970703125,0.9302712636113166,0.10687792783305049,-1.5532649227723478
1761838745668269600,5.07726953125,1.7394786915183067,0.028142390900850293,-1.1567442697703838
1761838745678338800,5.0873388671875,2.2971938228219746,-0.06861293297708033,-0.6273391410194337
1761838745688408800,5.097408935546875,2.6613883694976566,-0.19968422182425855,-0.09704057056009768
1761838745698478600,5.107478515625,2.89635447871387,-0.33168124721422787,0.4109409541510045
1761838745708547800,5.1175478515625,2.88564954482615,-0.48371276037320493,0.8849865992516278
1761838745718617600,5.12761767578125,2.7959873940795656,-0.5612656633920967,1.2031925710819662
1761838745728687900,5.13768798828125,2.7673353000909087,-0.5536800305686891,1.2986828434601425
1761838745738758000,5.1477578125,2.558281046244502,-0.5764503730423748,1.1270340450309215
1761838745748826600,5.15782666015625,2.4051468325406313,-0.5340114535026252,0.8511147247880697
1761838745758897000,5.16789697265625,2.274208668553829,-0.3692095983587205,0.63322542257905
1761838745768966700,5.177966552734375,2.1761901928722858,-0.2966901594623923,0.5419795097723603
1761838745779036700,5.18803662109375,2.015712630668282,-0.3240725623087957,0.5902683243840933
1761838745789105700,5.198105712890625,1.9236393271267413,-0.32903135375995185,0.7175215162478387
1761838745799175700,5.20817578125,1.9859844318807125,-0.28460615577381104,0.8410540801532566
1761838745809246000,5.218245849609375,2.217297863808274,-0.30119598298165945,0.8973099281214177
1761838745819314700,5.228314697265625,2.6159464687496423,-0.2860366635009646,0.9137105894327163
1761838745829384700,5.238384765625,3.1501842783540486,-0.2651861283750273,0.8231869995512068
1761838745839454700,5.248454833984375,3.620422786256671,-0.2452442325266078,0.560638471404463
1761838745849524700,5.258524658203125,4.080812684839963,-0.1251154491826892,0.19595102664530276
1761838745859594000,5.268593994140625,4.569919559341669,0.18209486218504606,-0.20836261832043526
1761838745869663700,5.278663818359375,5.166956062686443,0.45336164391431955,-0.4750542376212775
1761838745879733800,5.288733642578125,5.540421711054444,0.5255541524112224,-0.6382036493830382
1761838745889803500,5.298803466796875,5.573135647654533,0.417772736399807,-0.6432664126653224
1761838745899872800,5.308872802734375,5.322128504219651,0.29235516246538606,-0.5024507055256515
1761838745909942800,5.31894287109375,4.772968435293436,0.08425232759229838,-0.11073957169726491
1761838745920012800,5.3290126953125,4.177973082387447,-0.5369787788756192,0.5735893210554495
1761838745930081800,5.339081787109375,3.106926151385903,-1.5999351962715387,1.3161517185248435
1761838745940151800,5.34915185546875,1.5123960290282963,-2.820478861257434,2.1151457954533397
1761838745950221800,5.359221923828125,-0.6039239247709512,-4.349987353128195,3.190316089995205
1761838745960291800,5.369291748046875,-5.177726463025808,-5.690675985407829,4.076573732095957
1761838745970360800,5.37936083984375,-11.311333262693882,-5.663148511534929,4.627883672532439
1761838745980430800,5.389430908203125,-15.832361073094605,-5.117378669568896,5.219977458778024
1761838745990500600,5.39950048828125,-19.87915224586725,-4.225286037704349,5.252324315631389
1761838746000571000,5.40957080078125,-23.9587245752573,-1.3402628080829977,3.938374052673578
1761838746010639600,5.4196396484375,-25.829241384005545,2.5450123993486167,2.3028823898524045
1761838746020709600,5.429709716796875,-26.079222691524027,5.392513707566261,1.636599039541185
1761838746030780000,5.43977978515625,-26.366363224613664,6.566258796498179,1.172722321755439
1761838746040849700,5.449849609375,-26.120244437742233,8.170165234488248,-0.09497523552812635
1761838746050919000,5.4599189453125,-25.934452986061572,9.09594970807433,-1.1151957962643355
1761838746060988700,5.46998876953125,-24.954588547241688,8.405510113888978,-1.057327179337293
1761838746071058700,5.48005859375,-22.353690594542027,7.0101230922162525,-0.3169594058353454
1761838746081127700,5.490127685546875,-18.610176266145704,5.621617062228918,0.6077800156772136
1761838746091197700,5.50019775390625,-14.457247608643769,4.416390501101315,1.2872753142610192
1761838746101271600,5.510271484375,-10.652726730620861,3.1836867349833247,1.772104365313053
1761838746111341600,5.520341552734375,-7.119261512327194,1.8483245584234593,2.020549549305439
1761838746121410600,5.53041064453125,-3.5847786414235827,0.5002127904057503,1.727329404041171
1761838746131480600,5.54048046875,-0.8315285653084517,0.04895400052219629,0.8994275047972797
1761838746141550600,5.550550537109375,1.2828858471304176,0.016812310852110386,-0.07014386887140572
1761838746151620600,5.56062060546875,2.892122540232539,0.47718087438642975,-0.99674068175368
1761838746161689600,5.570689697265625,3.8626322907298802,1.1661112330526113,-1.9071169391319154
1761838746171759600,5.580759521484375,4.1727702530473465,2.0054086787968872,-2.793734354455769
1761838746181829400,5.590829345703125,4.368727124911547,2.9338308074101804,-3.32790728213042
1761838746191898600,5.600898681640625,4.80440343799889,3.0161887726232406,-3.419257239833474
1761838746201968400,5.610968505859375,5.237351787427068,2.06856188506335,-3.107019674888253
1761838746212038400,5.621038330078125,5.178156086614727,0.5101414792239666,-2.787237685912847
1761838746222108700,5.631108642578125,5.201044210249186,0.6657748162671924,-3.1597400422066446
1761838746232177400,5.641177490234375,6.220411807417869,3.5264845656260846,-4.468729175625741
1761838746242247700,5.65124755859375,8.390017361202835,5.707155995565652,-5.42824786877036
1761838746252317400,5.6613173828125,10.227420420378445,6.258942905864119,-5.162028543156385
1761838746262387500,5.671387451171875,10.649140104305744,6.0800043888181445,-4.003368795153499
1761838746272456700,5.681456787109375,10.338017807126045,5.563596250414848,-2.3616356075942515
1761838746282526500,5.6915263671875,10.160285743260383,5.4707087078809735,-1.142369269067794
1761838746292596500,5.701596435546875,10.826607964277267,5.7626949274361134,-0.26622619374617934
1761838746302666500,5.71166650390625,11.81925122064948,5.919517474263906,0.3547410741537809
1761838746312735500,5.721735595703125,12.70604223897457,6.0913850300103425,0.6139141345180571
1761838746322805800,5.7318056640625,13.516439753448962,6.896485022598505,0.1818181641355157
1761838746332875500,5.74187548828125,13.9815765542984,7.895051823800801,-0.48669616009816524
1761838746342944500,5.751944580078125,14.048422477602958,8.57925164681375,-1.0982559865750372
1761838746353014500,5.7620146484375,13.495288244348764,8.620293266776203,-1.7380566958911716
1761838746363084500,5.77208447265625,12.738590755879878,8.461445936122535,-2.4247345994554457
1761838746373154600,5.782154541015625,12.218767256075143,8.504850193563103,-3.1600019080132244
1761838746383223600,5.7922236328125,11.968576689720154,8.358849485000967,-3.6176457227587697
1761838746393293600,5.80229345703125,11.665049669975042,7.95691820512712,-3.6307156322121616
1761838746403363600,5.812363525390625,11.140610785329342,7.0784168762415645,-3.084380557578802
1761838746413433600,5.82243359375,10.666367133438587,5.653816619566083,-2.2628929092913865
1761838746423502300,5.83250244140625,10.52700776258707,4.3218794490188355,-1.4860912288181483
1761838746433572600,5.842572509765625,10.437360809409618,3.1043408110678192,-0.8837598339356482
1761838746443642600,5.852642578125,10.247910250699519,1.749066019552946,-0.6058772507958113
1761838746453711600,5.862711669921875,9.786529587513208,0.7237626025944948,-0.6672118633329868
1761838746463781600,5.87278173828125,8.962293517300486,0.2242746193319559,-1.075763438129425
1761838746473851400,5.882851318359375,7.922398680409788,0.009136077135801314,-1.6823051441833377
1761838746483921400,5.89292138671875,7.212499183472991,-0.20693536199629306,-2.235307421620935
1761838746493990700,5.90299072265625,6.52380847878158,-0.05897592058181762,-2.7487252921670673
1761838746504060400,5.913060302734375,6.061256433728337,0.47715690898895263,-3.2192665824085474
1761838746514130700,5.923130615234375,6.081333591595292,1.2973434115499258,-3.7329385738462206
1761838746524200400,5.933200439453125,6.1914838190972805,2.1548867080807685,-4.072791290947794
1761838746534269700,5.943269775390625,5.986003916606307,2.911216824541986,-3.797852652305364
1761838746544339700,5.953339599609375,5.060948926338553,3.1392996039852497,-2.9304984481170773
1761838746554409500,5.963409423828125,3.7987966551572083,2.8195947718992826,-1.768714869005233
1761838746564478700,5.973478759765625,2.4524615414232014,2.364105797100067,-0.5225361197642981
1761838746574548500,5.983548583984375,1.3135130405843256,1.6786729251608252,0.7712497454345226
1761838746584618500,5.993618408203125,0.46853579563796516,0.9077601565957069,2.1022886519677937
1761838746594688800,6.003688720703125,-0.26939854017198084,-0.14779752885103226,3.4270202750504013
1761838746604757500,6.013757568359375,-0.8020172241419553,-1.8575488983646034,5.145038829910755
1761838746614827500,6.02382763671875,-2.4070564655542372,-3.9101244020059704,6.469625053173303
1761838746624897500,6.0338974609375,-5.44206830433011,-5.389964023083448,6.635333501768112
1761838746634967600,6.043967529296875,-7.752257802325487,-4.623146707138419,5.072919350117445
1761838746645036500,6.05403662109375,-9.14725787050724,-2.2434391440197823,2.9196675497621296
1761838746655106600,6.0641064453125,-9.893218860906362,-1.6425459652468561,1.4597206698954104
1761838746665176600,6.074176513671875,-10.884239484512806,-1.5994368913605808,0.04543031990807503
1761838746675246600,6.08424658203125,-10.613755487191677,-0.5929822595179081,-1.6614457498975097
1761838746685315600,6.094315673828125,-9.471499761500954,0.14965017098039388,-2.925862312749028
1761838746695385300,6.10438525390625,-9.569843231353163,-0.11623247002512216,-3.065896514122188
1761838746705455600,6.11445556640625,-10.889757371151447,-0.8859184732742607,-2.334606292501837
1761838746715524400,6.1245244140625,-11.78126080495119,-1.319177496086806,-1.418340611758828
1761838746725594600,6.1345947265625,-12.101440853333472,-1.483348652111739,-0.3081980437634513
1761838746735664600,6.14466455078125,-12.843241216921806,-2.1362389984950423,1.0118624822355806
1761838746745734400,6.154734375,-13.004931662046909,-2.81023774548918,1.6347472741946576
1761838746755803600,6.1648037109375,-12.699843968856333,-2.634822434133291,1.1830475356105714
1761838746765873400,6.174873291015625,-13.019797222745417,-1.5053887806147337,0.07344477358032017
1761838746775943400,6.184943359375,-14.169757531464098,-0.05293452152572572,-1.2644935736104845
1761838746786013700,6.195013671875,-14.182154071700571,1.4348676759287715,-2.5373621768563983
1761838746796082400,6.20508251953125,-13.566359091871975,2.4838000980168577,-3.128661305592954
1761838746806152700,6.215152587890625,-12.505356000500917,2.523500824764371,-2.9874232813879846
1761838746816222500,6.225222412109375,-10.469952580934763,1.873463968116045,-2.2884541976578534
1761838746826292500,6.23529248046875,-7.940229520654678,0.7930358991764486,-1.2358084541350602
1761838746836361700,6.24536181640625,-5.432614831808209,-0.2740827889980748,-0.34294483789801594
1761838746846431500,6.255431396484375,-3.2306782032608985,-1.2822653771445154,0.34839594291076065
1761838746856501500,6.26550146484375,-1.3264298053026198,-2.1180239812381565,0.660607642762363
1761838746866570500,6.275570556640625,0.27231238179206846,-2.5898452282875777,0.712405196147412
1761838746876640500,6.285640625,1.4247329431444407,-2.8606124264642596,0.559385256472975
1761838746886710500,6.29571044921875,1.926750737145543,-2.8788036244541404,0.3612019407309592
1761838746896780500,6.305780517578125,2.0813678828835487,-2.6826684734135866,0.20921967354118823
1761838746906849500,6.315849609375,2.0357535481780764,-2.5559490961655973,0.26763854476213456
1761838746916919600,6.32591943359375,1.6144582271426915,-2.454910688140988,0.3956397054489702
1761838746926989600,6.335989501953125,1.2883598946273327,-2.3046553908742964,0.5276180992037057
1761838746937059600,6.3460595703125,1.2166022338837383,-2.1525848608791827,0.733049047986418
1761838746947128600,6.356128662109375,1.1150965006083249,-2.016133924820274,0.9781989898256956
1761838746957198600,6.366198486328125,1.1521341456264256,-1.8514229628302157,1.2024781392022967
1761838746967268400,6.376268310546875,1.354154847574234,-1.6367716196291147,1.4491919693574309
1761838746977338600,6.386338623046875,1.3474796075940132,-1.3511648719780147,1.6808008771002292
1761838746987407400,6.396407470703125,1.2238736861914397,-0.9186832632787525,1.8060484282299876
1761838746997477600,6.4064775390625,1.2981512208014725,-0.46178822107389567,1.838509851373732
1761838747007547600,6.416547607421875,1.5989058532238005,0.10472268602792173,1.737919917768985
1761838747017616400,6.426616455078125,2.0180752681463954,0.6480633646182715,1.410843534001708
1761838747027686700,6.436686767578125,2.346210659447312,0.9350884546346961,1.110894372743368
1761838747037756400,6.44675634765625,2.5427742650330063,1.0612697794832289,0.7827076896466314
1761838747047826400,6.456826416015625,2.542465052953362,1.164958117494732,0.45748102539926766
1761838747057895700,6.466895751953125,2.515705056321621,1.3662274165533481,0.21361133262887597
1761838747067965400,6.47696533203125,2.3408277973651885,1.4316397999234496,0.09429317154809833
1761838747078035700,6.48703564453125,2.075491684326529,1.317730219887942,0.028219986181706187
1761838747088105500,6.49710546875,1.83538938126564,1.3167640052042902,-0.08664046483784914
1761838747098174500,6.507174560546875,1.5341040029674768,1.4714026321217417,-0.26400749478340146
1761838747108240600,6.51724072265625,1.4054858063608406,1.60507051333338,-0.5229210274286568
1761838747118310400,6.527310302734375,1.4010159674704075,1.7722490344807504,-0.7234349780753254
1761838747128380400,6.53738037109375,1.3698381543964147,1.9086317276090383,-0.8644717806197703
1761838747138449400,6.547449462890625,1.2621236296087504,1.9068742164172232,-1.007724870974198
1761838747148519400,6.55751953125,1.2174959678530692,1.9084199845544993,-1.0376269650239496
1761838747158589700,6.567589599609375,1.1315075371831655,1.9654491549827158,-1.0451293765433132
1761838747168658400,6.577658447265625,1.0664005665004253,1.8911691361546514,-1.0146337005145847
1761838747178728700,6.587728759765625,1.1291443151831626,1.7748365667559205,-0.8721390273120254
1761838747188798500,6.597798583984375,1.2222896318703889,1.6439681070044636,-0.7236990358389913
1761838747198868500,6.607868408203125,1.259223816514015,1.424776782286167,-0.5880450223114341
1761838747208937700,6.617937744140625,1.2333785966396331,1.2142018947437405,-0.4919542998220771
1761838747219007500,6.628007568359375,1.1750608477056026,1.1027904151342809,-0.39349282961338755
1761838747229077500,6.638077392578125,0.9984060576826334,0.9579917758382857,-0.336065745908767
1761838747239147500,6.6481474609375,0.8409861294835805,0.8805322501912712,-0.3576910100005567
1761838747249216500,6.658216552734375,0.58037119974792,0.8266441542677581,-0.44447373285330827
1761838747259286500,6.66828662109375,0.39316695865988727,0.774468853611499,-0.537186357211694
1761838747269356500,6.6783564453125,0.2670329800844192,0.6811158855229615,-0.6170816586382687
1761838747279426600,6.688426513671875,0.28084932399094104,0.5083525499805808,-0.7380659263003617
1761838747289495600,6.69849560546875,0.1896048724889755,0.3544385840758681,-0.8506864163734018
1761838747299565600,6.708565673828125,0.028062311401963233,0.19629136451557277,-0.9408077090643345
1761838747309635600,6.718635498046875,-0.01376432145833969,0.12263590732663869,-1.072995069394633
1761838747319705600,6.72870556640625,0.10963117206394672,0.1081755664281547,-1.1045471956737338
1761838747329774600,6.738774658203125,0.10278817430138587,0.020364011984318493,-0.9275706263504921
1761838747339844400,6.74884423828125,-0.005299275451898574,-0.13715966885015368,-0.6875024447549134
1761838747349914600,6.75891455078125,-0.06316928061842918,-0.27875074427649377,-0.4317468646839261
1761838747359983400,6.7689833984375,-0.036600422644615174,-0.4526970059931278,-0.2586968942198902
1761838747370053600,6.7790537109375,0.016181319472193718,-0.5173470266886055,-0.19377390180192886
1761838747380123600,6.78912353515625,0.0597743774831295,-0.5065913855269552,-0.17721783073320985
1761838747390193400,6.799193359375,0.16641630460321902,-0.4871678692631423,-0.20504019589945674
1761838747400262700,6.8092626953125,0.15945932507216928,-0.4502801541097462,-0.16671017298325896
1761838747410332400,6.81933251953125,0.06338321563005447,-0.4525998292289674,-0.07713372775875031
1761838747420402400,6.82940234375,0.04354220460653305,-0.4527871684946119,-0.014149229122698306
1761838747430472700,6.83947265625,0.0658744479238987,-0.5023780056156217,0.027057445208355783
1761838747440541400,6.84954150390625,0.06453355470895766,-0.5930464107953012,0.07706621548049152
1761838747450611700,6.85961181640625,0.18438684557974339,-0.646477264470607,0.09117854665890336
1761838747460681500,6.869681396484375,0.32918168548345567,-0.6293104410924018,0.11010843418687581
1761838747470751500,6.87975146484375,0.42467970277667044,-0.5763062883965671,0.11538834735117852
1761838747480820700,6.88982080078125,0.5126940863162279,-0.5366084842585027,0.11825265074111521
1761838747490890500,6.899890380859375,0.4838239656627178,-0.4822925183117389,0.13091405245885251
1761838747500960500,6.90996044921875,0.49272798760831354,-0.38901071576327084,0.13056772323921323
1761838747511029500,6.920029541015625,0.5584253253996372,-0.30734409381523725,0.12792941062487662
1761838747521099500,6.930099609375,0.6254945360660552,-0.26059607890471814,0.10892660399116576
1761838747531169500,6.94016943359375,0.6929395943075418,-0.20217954577133057,0.056336804249882695
1761838747541239600,6.950239501953125,0.7377437816739082,-0.12536781650856135,-0.04698810727670789
1761838747551308500,6.96030859375,0.7958850049972533,-0.06188683959245681,-0.12269567468985915
1761838747561378600,6.970378662109375,0.8047942876398563,0.03474924181997776,-0.1970212862253189
1761838747571448600,6.980448486328125,0.7604156322091817,0.13989654646813868,-0.25678324261829255
1761838747581518600,6.9905185546875,0.6804600519627332,0.21200784295499323,-0.31804055213555693
1761838747591587600,7.000587646484375,0.5558627814352513,0.3479585744068026,-0.44960598117522893
1761838747601657600,7.01065771484375,0.4382803581058979,0.525170706051588,-0.5406089520715177
1761838747611727400,7.020727294921875,0.3505728485584259,0.601900894510746,-0.592611745705083
1761838747621797600,7.030797607421875,0.28679975682795045,0.6522706070497631,-0.6041635787457227
1761838747631866400,7.040866455078125,0.2704536021828651,0.7539632411994039,-0.5736863151565194
1761838747641936600,7.0509365234375,0.30994448557198045,0.8728921107016503,-0.6039015668086707
1761838747652006700,7.061006591796875,0.43399931978583334,0.9869944368302822,-0.6171588885929435
1761838747662075400,7.071075439453125,0.6269745454907417,1.11639238563776,-0.49761371382325886
1761838747672145700,7.081145751953125,0.962934346807003,1.1639843040265143,-0.30325770128443835
1761838747682215400,7.09121533203125,1.3848293873012065,1.1014796247966587,0.06991269046403467
1761838747692285400,7.101285400390625,1.8009435063064096,1.0953997203610837,0.5510023357920348
1761838747702354400,7.1113544921875,2.2129063508510587,1.0738244328908622,1.0463399944420904
1761838747712424400,7.121424560546875,2.5857331167936324,0.9978054614409804,1.5360735494747757
1761838747722494700,7.13149462890625,2.9188971499115226,0.9682919283173977,2.0777108216807245
1761838747732564500,7.141564453125,3.0805092691034077,0.9510324582196772,2.4835496303871274
1761838747742633500,7.151633544921875,3.1888089003026483,0.685543492706865,2.766674790355563
1761838747752703500,7.161703369140625,3.3140596663028,0.512709722276777,2.9902310322850942
1761838747762773500,7.1717734375,3.4396418562144038,0.5079742181874811,3.0510797610014677
1761838747772843500,7.181843505859375,3.8211949494481083,0.6222494166649878,2.9766835684478283
1761838747782912500,7.19191259765625,4.413061941200494,0.9312181890726089,2.6656021878004075
1761838747792982500,7.201982421875,5.131389659264683,1.1209513641163706,2.234912430953979
1761838747803052500,7.212052490234375,5.72435555216968,1.1804551079645753,1.755501167166978
1761838747813122600,7.22212255859375,6.126795950609445,1.3384826466679571,1.1770458840429783
1761838747823191600,7.232191650390625,6.431750372809171,1.4650322203069925,0.5335127102002502
1761838747833261600,7.242261474609375,6.677735304167866,1.408264331163466,0.11518880619108676
1761838747843331600,7.25233154296875,6.3588412039428945,1.131280012037605,-0.09038308543227612
1761838747853400600,7.262400634765625,5.540210114130377,0.5750929670840501,-0.020197496310994028
1761838747863470600,7.272470703125,4.417559837141633,-0.03496346909254789,0.12407552994200959
1761838747873540600,7.28254052734375,3.3051848704516886,-0.6082347737073898,0.4464307852052152
1761838747883610400,7.2926103515625,1.913572691142559,-1.296316260459274,0.9575513385944068
1761838747893679600,7.3026796875,0.10618015482723712,-2.4292935779340565,1.5875329569466412
1761838747903749400,7.312749267578125,-1.8008669339388608,-3.7318814660087227,2.1487942364245654
1761838747913819600,7.322819580078125,-3.8845191283673044,-4.506609993469715,2.6504616095528006
1761838747923889700,7.3328896484375,-6.639686436280607,-4.94836474968791,3.197096251654625
1761838747933958700,7.342958740234375,-9.604413024953008,-5.102071210321784,3.718564596056938
1761838747944028700,7.353028564453125,-12.61387482740879,-4.309988227955997,3.9069498636230824
1761838747954098400,7.363098388671875,-15.928890187001228,-2.641765969660878,2.7757117910310622
1761838747964167700,7.373167724609375,-17.263001778978108,-0.4917151573039591,0.3263453660789877
1761838747974237400,7.383237548828125,-16.617886012119055,1.7003990192785858,-1.9615989092953503
1761838747984307500,7.393307373046875,-17.27556549247503,1.9921257111147046,-2.5364348328784105
1761838747994377700,7.403377685546875,-18.03814911637306,0.28749066170156,-1.5410263495765626
1761838748004446500,7.413446533203125,-17.768478773522375,-1.053483801782131,-0.0679631638314575
1761838748014516500,7.4235166015625,-18.12446663286686,-2.237315108181536,1.4405672027446328
1761838748024586500,7.43358642578125,-18.65112786973715,-2.6473896547615525,2.224300143785775
1761838748034656500,7.443656494140625,-18.687050246989727,-2.0483792209953067,2.185687796796858
1761838748044725800,7.453725830078125,-18.013386431038377,-2.16504803661108,1.800474719750881
1761838748054795500,7.46379541015625,-16.873666945827008,-2.523459323710203,0.9545208117920905
1761838748064865500,7.473865478515625,-14.462745621538161,-2.775591379521787,-0.3122854957401752
1761838748074935600,7.483935546875,-11.619009218811987,-3.3653915018722413,-1.5484524079240858
1761838748085004500,7.494004638671875,-9.201922942152619,-3.9038086429879066,-2.4862036520272492
1761838748095074600,7.504074462890625,-7.555666724210977,-4.4704517616346475,-3.3466537759155033
1761838748105144300,7.514144287109375,-6.19866408599019,-4.989941791701317,-4.61361432416141
1761838748115214000,7.524214111328125,-4.6133395988732575,-4.517302652397752,-6.195272689986228
1761838748125283300,7.534283447265625,-3.28591610635817,-3.42496188121587,-7.935387925842404
1761838748135353000,7.54435302734375,-2.139597953534126,-1.7200094364166258,-9.410995316177607
1761838748145423000,7.554423095703125,-0.7525842079311609,0.012075345458090305,-10.271606768107414
1761838748155493400,7.564493408203125,0.9080664460659027,1.1961468903541563,-10.499005656939744
1761838748165562000,7.57456201171875,2.7340988009214398,1.81849260700047,-10.344415983730554
1761838748175632100,7.584632080078125,4.648578085514902,2.7303862101390957,-9.551697918331623
1761838748185702100,7.5947021484375,6.626212622201442,4.215755408293009,-7.964258046495914
1761838748195772200,7.604772216796875,7.678763527047634,5.975305412459373,-5.362297433000803
1761838748205841200,7.614841064453125,7.843975132036209,8.631854525232315,-1.8709296273328362
1761838748215911200,7.6249111328125,7.679650246754289,11.479474491393566,1.8407672749117017
1761838748225981200,7.634981201171875,6.922264191499352,12.814489754211902,5.167834599086642
1761838748236050200,7.64505029296875,6.104401163449883,12.933222516620159,7.538318699046969
1761838748246120200,7.6551201171875,5.967029751545191,11.538125417804718,9.200094557681679
1761838748256190000,7.66518994140625,6.267691444987058,9.195881323900819,9.970534740298985
1761838748266260200,7.67526025390625,7.653661819016933,7.162438975274562,9.683396545296906
1761838748276329200,7.6853291015625,9.252941181728243,5.7700540580272675,8.052637756216525
1761838748286399200,7.695399169921875,10.690765077114104,4.978534262502193,5.7339510635107755
1761838748296469200,7.70546923828125,12.042167995631694,4.703558798980713,3.2165579079717395
1761838748306539000,7.7155390625,13.892082745856046,5.028196411293745,0.897214724118635
1761838748316608300,7.725608154296875,15.12596286227703,6.159603410711884,-0.17382066257558762
1761838748326678300,7.73567822265625,15.076808078485726,6.86758684489429,-0.18847139321332795
1761838748336748000,7.745748046875,14.568263513064384,6.7122828859359025,0.45906690635122355
1761838748346818300,7.755818359375,13.938876061213016,6.980182711982726,1.0458739843655378
1761838748356887000,7.765886962890625,13.46467215681076,7.530901116266846,1.43782623347342
1761838748366957300,7.775957275390625,12.589336598479747,7.699847816130519,1.6062624995969235
1761838748377027300,7.78602734375,11.816848835682869,7.387920047786832,1.5526438682645558
1761838748387097000,7.79609716796875,11.928926231855153,6.840087428072095,1.3338114399865268
1761838748397166300,7.806166259765625,12.302509369122982,6.415819228705764,0.824880797857046
1761838748407236000,7.816236083984375,12.124155373966692,5.920655538383126,0.48937283196151254
1761838748417306000,7.82630615234375,11.646374195599556,5.003853997197747,0.35944596390910444
1761838748427375000,7.836375,11.15933769763112,4.1504929547876115,0.28157643268909305
1761838748437445000,7.846445068359375,10.649694231057167,3.4180385116934775,0.35850546818859874
1761838748447515100,7.85651513671875,10.156140314018726,2.719755218270421,0.45790093131177123
1761838748457585200,7.866585205078125,9.631578095254302,2.1938538598567248,0.7252298986680805
1761838748467654100,7.876654052734375,9.063658380800485,1.725451335209608,0.9823456611763686
1761838748477724200,7.88672412109375,8.496217974296211,1.559437766188383,0.8027798060122877
1761838748487794200,7.896794189453125,8.063722044810651,1.767456831768155,0.4848070218833163
1761838748497864200,7.9068642578125,7.7003972667068235,1.8333388784766196,0.12963482630327344
1761838748507933200,7.91693310546875,7.00871147185266,1.5294623146414756,-0.03792105852281674
1761838748518003200,7.927003173828125,6.126177526450157,1.130730707591772,-0.22881942315474152
1761838748528073000,7.937072998046875,5.490807493057846,0.9396545935064554,-0.5634750100046396
1761838748538143200,7.947143310546875,4.942625913774967,0.8661319689169525,-0.8438875500135123
1761838748548212000,7.9572119140625,3.9990556081295012,0.8953399432227015,-0.9079318599008023
1761838748558282200,7.9672822265625,2.9158780943512914,1.085640396760404,-0.7526680868223309
1761838748568352300,7.977352294921875,1.3641373124063014,1.2581760610267518,-0.2892705491219647
1761838748578422000,7.987422119140625,-0.5209469508767127,1.3042311252370475,0.6062152140459045
1761838748588491300,7.9974912109375,-2.2206015815287827,0.654081748124957,1.8479482724569736
1761838748598561300,8.007561279296874,-4.34975412889421,-0.7023077266335487,3.5144390307843683
1761838748608631000,8.017631103515624,-5.830534537953138,-2.6280036940291525,5.718249051988124
1761838748618701300,8.027701416015624,-8.133065045627951,-4.993621941518783,6.988983273553848
1761838748628770000,8.03777001953125,-10.851821900510787,-5.5407344302654264,5.692246011203527
1761838748638840300,8.04784033203125,-11.190400359892845,-3.474689496459067,2.1326053181678057
1761838748648910300,8.057910400390625,-10.993923848068713,0.14505465988367794,-1.7592478063493966
1761838748658979000,8.06797900390625,-9.69907576046586,2.1657813193216917,-4.51366926433146
1761838748669049300,8.07804931640625,-8.561724757951497,2.381431610432267,-5.996828677481412
1761838748679119000,8.088119140625,-7.4664944028079505,1.4194152552530168,-5.780926749697327
1761838748689189000,8.098189208984374,-6.26543109883964,0.5329451394453645,-3.9560073245197533
1761838748699258000,8.108258056640626,-6.231567992204427,-0.5859656587541103,-1.618197559801489
1761838748709328100,8.118328125,-7.2687009631663555,-1.5137456900715827,0.6053895403441041
1761838748719398100,8.128398193359375,-9.124480806031823,-2.25689980635643,2.0140417748466133
1761838748729468200,8.13846826171875,-11.304912874257564,-3.007423282365501,2.438079088066518
1761838748739537200,8.148537109375,-13.788297377210855,-2.9924767653852697,1.9470571737237274
1761838748749607200,8.158607177734375,-14.892276855999231,-2.7790280759721995,0.03507788925245404
1761838748759677200,8.16867724609375,-15.611307753896712,-2.866941044963896,-2.6962121378585695
1761838748769747200,8.178747314453124,-15.31542861855626,-4.288081808835268,-6.815490746954083
1761838748779816200,8.188816162109376,-14.639021056854723,-4.1827334286570546,-10.402755944496393
1761838748789886200,8.19888623046875,-16.920739662647247,0.04307871528062969,-9.193596427834034
1761838748799956000,8.2089560546875,-18.645860158467293,1.1080214476555585,-7.03478523978591
1761838748810026200,8.219026123046875,-16.794728433668613,0.9156115276832133,-5.8399599534243345
1761838748820095000,8.229094970703125,-13.615852898359298,0.7031546257864684,-4.509275997808575
1761838748830165200,8.239165283203125,-10.714343521100282,-0.04165587940327823,-2.9621248817414045
1761838748840235300,8.2492353515625,-8.136891325917839,-0.10674505870100111,-1.4884737400405108
1761838748850304000,8.259303955078124,-5.946148291558027,0.07464651405289768,-0.3567050311705097
1761838748860374300,8.269374267578126,-3.990689346322417,0.2692042597088963,0.3973377415385097
1761838748870444000,8.279444091796876,-2.1268705739080906,0.31001557804681357,0.720912473860383
1761838748880514000,8.28951416015625,-0.6409767673581839,0.334345388389565,0.8589198455810546
1761838748890583300,8.299583251953125,0.455158427670598,0.5036813432991505,0.8217989061936736
1761838748900653000,8.309653076171875,1.4135837726205587,0.6840158447481691,0.6318210356738418
1761838748910723300,8.319723388671875,1.9986030904352663,0.8433413873728364,0.5835311616161838
1761838748920793000,8.32979296875,2.321408226624131,0.9846182092182337,0.5546273213561624
1761838748930862000,8.339862060546874,2.6967326546013353,1.1308382596194744,0.5237637253304943
1761838748940932400,8.349932373046874,3.1144635611534115,1.2916774947427212,0.5835035794895141
1761838748951002000,8.360002197265626,3.3563241060584783,1.3536338924400508,0.7777072510108352
1761838748961072000,8.370072021484376,3.607661504361033,1.2936612159058452,0.9520196426261216
1761838748971141000,8.38014111328125,3.9030630853176116,1.1974212942041456,1.0561189725913107
1761838748981211100,8.390211181640625,4.222479163590073,1.1603031312957406,1.1049615486282856
1761838748991281200,8.40028125,4.56629844623506,1.1646423295438288,1.0630034714080392
1761838749001351200,8.41035107421875,4.9403462784051895,1.1072284706469624,0.9546098783150315
1761838749011420200,8.420420166015624,5.276225415700674,0.9613797377761453,0.8708633813530207
1761838749021490200,8.430490234375,5.3181549244135615,0.7773868599500506,0.808555174543336
1761838749031560200,8.440560302734376,5.2610775309294455,0.6148658822849392,0.7229867959164082
1761838749041630200,8.450630126953126,5.44413926538527,0.5116296719551087,0.625475027647987
1761838749051699200,8.46069921875,5.417605478724837,0.4464015591107309,0.4933898855831474
1761838749061769200,8.470769287109375,5.232579750719666,0.3662044251933694,0.37371129369214173
1761838749071839000,8.4808388671875,4.841619362193346,0.446040470713377,0.24424203321412205
1761838749081908200,8.490908203125,4.241994011399149,0.7931894823029637,0.21040208825878798
1761838749091978000,8.50097802734375,3.6035686820894477,1.3283847387626766,0.20195662373565137
1761838749102048300,8.51104833984375,3.2740678476542233,1.505257555450499,-0.33512451953589917
1761838749112119300,8.521119384765624,3.1623031706929203,2.1197883605621755,-0.8574116329751909
1761838749122188000,8.53118798828125,2.1754507726818324,2.2283172704726457,-1.4554301330946384
1761838749132258300,8.54125830078125,1.9403882173538207,2.004991037906706,-1.9583602196350693
1761838749142328000,8.551328125,1.784765693965554,1.889602471359819,-2.3884799215085804
1761838749152398000,8.561398193359375,0.9149304866164922,1.6077756806388497,-2.7488766833364964
1761838749162467300,8.57146728515625,0.29968378832042214,1.511355872325599,-2.5199039693161844
1761838749172537000,8.581537109375,-0.05738251391053199,1.9313537008963524,-1.1031310452654957
1761838749182607000,8.591607177734375,-0.8521002286940813,2.1189272136881945,0.25652254585549233
1761838749192677000,8.601677001953124,-0.27212708835303784,1.7416662646904586,0.9877261121056974
1761838749202746000,8.61174609375,0.5417793110251427,1.0198974662616849,1.0466609700247644
1761838749212816100,8.621816162109376,0.35957448565959926,0.32312399287968874,0.9337044529303907
1761838749222886100,8.63188623046875,0.07214870588779448,-0.24991759463250635,1.1046326820001005
1761838749232956200,8.6419560546875,-0.10956044491529464,-0.7825514761716127,0.6892910086721181
1761838749243025200,8.652025146484375,-0.36198914558589457,-0.986623557691276,0.41566535232439633
1761838749253097000,8.662096923828125,-0.2902864298999309,-0.5841825747296214,0.10668006717339157
1761838749263167200,8.672167236328125,-0.08293547284007072,-0.3044663464218378,-0.04145093141570687
1761838749273237200,8.6822373046875,0.23555706084668634,0.024432722727954385,-0.15369623150080441
1761838749283306200,8.69230615234375,0.14490414549708366,0.3243883137270808,-0.4603092345625162
1761838749293376300,8.702376220703124,-0.1323375093907118,0.175996910636127,-0.7021132269747555
1761838749303446000,8.712446044921874,-0.4079582850784063,0.027143735252320764,-0.9138107618715614
1761838749313516000,8.72251611328125,-0.24206921921968458,0.08854717524200677,-1.050804791831225
1761838749323585000,8.7325849609375,-0.08002747643887996,0.0708674339056015,-1.0030724420584738
1761838749333655000,8.742655029296875,0.00869534763097763,-0.0004822305589914322,-0.8345537583485245
1761838749343725300,8.752725341796875,0.19453063845336435,0.03555442072302103,-0.6295533830028027
1761838749353795000,8.762795166015625,0.28304478820860385,0.03330868762284517,-0.49546033518165344
1761838749363864000,8.772864013671875,0.06261106221377849,-0.08112433176487684,-0.2635633312124759
1761838749373934000,8.78293408203125,0.047371407505869864,0.01103811136484146,-0.03477525304406881
1761838749384004000,8.793004150390624,0.06455927367210387,0.1475757027938962,0.06849741683863103
1761838749394074000,8.80307421875,-0.49940673471987246,-0.28952362883388993,0.14005571908522396
1761838749404143000,8.81314306640625,-0.1974041480630636,-0.3306923823073506,0.2886633222101256
1761838749414213000,8.823213134765625,0.2333592585414648,-0.1214241934493184,0.17781345853880046
1761838749424283100,8.833283203125,0.038790626165270806,-0.26590748318582774,-0.06110131523795426
1761838749434353200,8.843353271484375,0.03725099550783634,-0.36341800934523344,-0.13717515868023036
1761838749444422100,8.853422119140625,-0.10186346067190169,-0.3342094505175948,-0.2857339542273432
1761838749454492200,8.8634921875,-0.028490765947103498,-0.26469635383039714,-0.36553328446615485
1761838749464562200,8.873562255859374,0.6253489901155233,-0.08539630999565125,-0.34438396732304244
1761838749474632000,8.8836318359375,0.5769950013130903,-0.1091787521213293,-0.3120225339550525
1761838749484701200,8.893701171875,0.17970014906823634,-0.4447174054160714,-0.02702171630784869
1761838749494771200,8.903771240234375,0.5119079043745994,-0.5503378805339336,0.34355456729419526
1761838749504841200,8.91384130859375,0.5648135651320219,-0.4243669835656881,0.4491926876666024
1761838749514910200,8.92391015625,0.4431453337937593,-0.348674029199779,0.47962202046085145
1761838749524980000,8.93397998046875,0.4109866929888725,-0.3273424873575568,0.48409657205902035
1761838749535050200,8.94405029296875,0.39317338840067384,-0.2597048291534185,0.3903055048141628
1761838749545120300,8.954120361328124,0.3694984983026981,-0.21147037507742641,0.24019409126387908
1761838749555189200,8.964189208984376,0.29154958170354367,-0.15657704763412475,0.11892985588293521
1761838749565259300,8.97425927734375,0.23750819491446018,-0.1187184416219592,0.00871971488725394
1761838749575329000,8.9843291015625,0.05084405205249786,-0.17454904991537332,-0.07196976912431419
1761838749585399000,8.99439892578125,-0.08831658135652541,-0.24467531006485221,-0.013211546413786709
1761838749595468000,9.004468017578125,-0.07181669745445252,-0.20412848788201807,0.13436466783676296
1761838749605538000,9.0145380859375,-0.0767144063681364,-0.12975830655246973,0.25862686119098216
1761838749615608300,9.0246083984375,0.211238027626276,-0.06286445245295763,0.37639154575206335
1761838749625678000,9.034677978515624,0.2076613381832838,-0.04973112237453461,0.2981982990030199
1761838749635747000,9.0447470703125,0.01636369030177593,-0.20438333942592143,0.19005225093029438
1761838749645817000,9.054817138671876,0.32661212725639344,-0.24037264443486928,0.1948630487455055
1761838749655887000,9.06488720703125,0.3816419405609369,-0.08815934496819973,0.12042718176860362
1761838749665957000,9.07495703125,0.2916735003441572,0.007153086625039577,0.10067980384528637
1761838749676026000,9.085026123046875,0.26435762339532376,0.017950082710385323,0.07387874455079436
1761838749686096100,9.09509619140625,0.23518998109996317,0.02504734749495983,0.06824442845825106
1761838749696166100,9.105166259765625,0.22088789950311183,0.0690393416956067,0.06280110489316285
1761838749706236200,9.115236083984374,0.2060398744612932,0.13920564159452914,0.04007956999726593
1761838749716305000,9.125304931640626,0.3109153764307499,-0.05554886874258518,0.05836699490323662
1761838749726375200,9.135375244140626,0.11308452738821506,-0.1823226065263152,0.1958344145283103
1761838749736445200,9.145445068359376,-0.039815877559781075,-0.168210494543612,0.2983601385012269
1761838749746515000,9.155514892578125,-0.018401333609223365,-0.2711380773156881,0.37717129795290527
1761838749756584200,9.165584228515625,-0.11716215209066867,-0.3545379527971148,0.42804055751189585
1761838749766654000,9.175654052734375,-0.32184418220221994,-0.21413462585061788,0.3660884706635028
1761838749776724200,9.18572412109375,-0.3423971408873796,-0.13338906427025793,0.25633111493662
1761838749786794200,9.195794189453125,-0.3292091580122709,-0.0907441007643938,0.16772081133052705
1761838749796863000,9.205863037109374,-0.3319587489813566,0.029655718073248863,0.1115720039334148
1761838749806933200,9.215933349609376,-0.3067313687443733,0.0646235710799694,0.0317258023455739
1761838749817003000,9.2260029296875,-0.40996027255058287,-0.0008469722181558609,0.047967400637641544
1761838749827073000,9.236072998046875,-0.41343408614099025,-0.000633037206530571,0.07683036089800298
1761838749837142300,9.246142333984375,-0.3088473379850387,0.012030921794474124,0.08953954728022218
1761838749847212000,9.2562119140625,-0.24592238751649856,0.02833645216822624,0.10132847701236605
1761838749857282000,9.266281982421875,-0.11312018322348594,0.025940789203345773,0.044604134749621153
1761838749867351000,9.27635107421875,-0.0009866729497909545,0.05197977808415889,-0.014488251818716526
1761838749877421000,9.286421142578124,0.12465513819456099,0.08700403745323419,-0.0666933630913496
1761838749887491300,9.2964912109375,0.21616145550310611,0.06504091970920563,-0.0899630333893001
1761838749897561000,9.30656103515625,0.19202537763416766,0.008753215298056602,-0.08662212546356021
1761838749907630000,9.316630126953125,0.23749942708611488,-0.07007920613735914,-0.11060717748925089
1761838749917700000,9.3267001953125,0.38529461784958835,-0.11356178951114415,-0.1166485765453428
1761838749927770000,9.33677001953125,0.37528292692303655,-0.07481324892193078,-0.0739357354350388
1761838749937840000,9.346840087890625,0.33143735545575614,-0.08836977284848689,-0.00630202275365591
1761838749947909000,9.3569091796875,0.3511351586163044,-0.08246990115493535,-0.0002322743859142065
1761838749957979100,9.366979248046874,0.3892413096487522,-0.030626316671073434,-0.05171396675482392
1761838749968049200,9.377049072265624,0.3779366563022136,-0.0391524452149868,-0.09989610612168907
1761838749978119200,9.387119140625,0.4112608337551355,-0.0369543506488204,-0.09446297515705228
1761838749988188000,9.39718798828125,0.41506782482266424,-0.016876315999031066,-0.038654140304028986
1761838749998258200,9.407258056640625,0.29452713620960713,-0.029350597646832465,0.06569646100848912
1761838750008328200,9.417328125,0.13412088567614555,-0.05604629687070846,0.1856850686967373
1761838750018398000,9.42739794921875,0.08414543315172195,-0.09675883100926876,0.25569559351205823
1761838750028467200,9.43746728515625,0.14901333438158035,-0.07067424942106008,0.2594737968765199
1761838750038537000,9.447536865234374,0.30198505100011824,0.004129062628746033,0.20044366188943386
1761838750048607200,9.457607177734374,0.35999943307340143,0.02791121249347925,0.14120675228387117
1761838750058677200,9.46767724609375,0.33011867407262324,0.051102702988684176,0.08292816631644964
1761838750068746000,9.47774609375,0.2818868503451347,0.04474047448039055,0.07782850508987903
1761838750078816300,9.487816162109375,0.09330372211933136,0.020743512821197508,0.19043840070366858
1761838750088886000,9.497885986328125,0.004704232168197631,0.01899316202253103,0.26744141475483774
1761838750098956000,9.5079560546875,0.07299743167161941,0.0908007993876934,0.21838526903241873
1761838750109024800,9.518024658203124,0.11536533180177211,0.20455957277566195,0.18061404904276132
1761838750119094500,9.528094482421874,0.056848260903358455,0.18904373147487638,0.16924860541969536
1761838750129164800,9.538164794921874,-0.005941665008664131,0.15735826113969087,0.16519450772330163
1761838750139234800,9.54823486328125,-0.09413958842158317,0.19026479770243165,0.1471558699466288
1761838750149303600,9.558303466796875,-0.1471989784359932,0.17765461471527813,0.10551526117771863
1761838750159373800,9.568373779296875,-0.10126081860363483,0.12433102080672978,0.08487871586233377
1761838750169443600,9.578443603515625,-0.028327099817991256,0.1206552549034357,0.0030875907517969605
1761838750179513600,9.588513671875,0.012769465202093124,0.08744476695805788,-0.13915376527681947
1761838750189582600,9.59858251953125,0.06385901644825935,0.046372167335450645,-0.22609160562604663
1761838750199652600,9.608652587890624,0.1382446876078844,0.005225625693798065,-0.2701078574851155
1761838750209723000,9.618722900390624,0.17857202182114124,-0.05435965895801782,-0.31253128719478845
1761838750219791600,9.62879150390625,0.17528642427921295,-0.0790995479390025,-0.3711524029895663
1761838750229861600,9.638861572265625,0.21716624863147735,-0.08848872305303812,-0.42725218361318107
1761838750239931600,9.648931640625,0.293643339112401,-0.10954466282427311,-0.4954420688726008
1761838750250001700,9.659001708984375,0.27902152404189107,-0.14147943174540994,-0.5453885875634849
1761838750260070700,9.669070556640625,0.2778022113800049,-0.13446838393956423,-0.557209812130034
1761838750270140700,9.679140625,0.20078385362923143,-0.06566577360928058,-0.5331038371384144
1761838750280210700,9.689210693359374,0.23095745809674262,-0.05129208808094263,-0.5122507264629006
1761838750290280700,9.69928076171875,0.2168190426290035,-0.0651812049627304,-0.5097252996385098
1761838750300349700,9.709349609375,0.279967280459404,-0.11833207265287637,-0.5541274820752442
1761838750310419500,9.71941943359375,0.29623277108371254,-0.08895546378195285,-0.6174670046940446
1761838750320489700,9.72948974609375,0.20635142462849615,0.03916501243561506,-0.6130978496991097
1761838750330559700,9.739559814453125,0.1765659426957369,0.10124679007828236,-0.5398984657146036
1761838750340628700,9.749628662109375,0.21579262219071388,0.0726888041138649,-0.48139220847114916
1761838750350698800,9.75969873046875,0.22229133656024933,-0.025068974804878234,-0.39618499130681156
1761838750360768500,9.7697685546875,0.19854045861661432,-0.07817074265629052,-0.3757930684022605
1761838750370838500,9.779838623046874,0.06403612658083438,-0.01754793165028095,-0.3258445038847625
1761838750380907800,9.78990771484375,-0.034223172119259834,0.0031038112342357633,-0.29487931064814327
1761838750390977500,9.7999775390625,-0.05368015226125717,0.04548661667257547,-0.3154892602175474
1761838750401047800,9.8100478515625,-0.09478665415346622,0.08008359054028988,-0.2890291233152151
1761838750411117600,9.82011767578125,-0.13874211573600767,0.07719429883956909,-0.2574111652582884
1761838750421186600,9.8301865234375,-0.1184720656454563,0.12986878118962047,-0.22660174710527062
1761838750431256800,9.8402568359375,-0.08631985458135605,0.15187486129254102,-0.19250205523520708
1761838750441326600,9.85032666015625,-0.10841302844583987,0.1651093136578798,-0.1457356278851628
1761838750451396600,9.860396728515624,-0.15100129332840442,0.1375020525470376,-0.13932254597246646
1761838750461465600,9.870465576171876,-0.21408815636038778,0.10237024115025997,-0.14729074837267397
1761838750471535600,9.88053564453125,-0.25967268044948577,0.11914221999198198,-0.15981412985920906
1761838750481606000,9.89060595703125,-0.257879951813817,0.22230857995599507,-0.1628833081714809
1761838750491675600,9.900675537109375,-0.3123930477678776,0.27063158909827467,-0.1259451780050993
1761838750501744600,9.91074462890625,-0.33309681310057637,0.28058687366247176,-0.05787015129700303
1761838750511814700,9.920814697265625,-0.36483459814488883,0.2408750409990549,0.03701192605495453
1761838750521884700,9.930884765625,-0.3428296870857477,0.20255670852065086,0.09935922276601195
1761838750531954700,9.94095458984375,-0.28114918372035025,0.2353191604375839,0.07154781738519668
1761838750542023700,9.951023681640624,-0.2604214529901743,0.21279227133095263,-0.00011252046376466751
1761838750552093700,9.96109375,-0.15259353095591066,0.17195377272516488,-0.050681116575747726
1761838750562163700,9.971163818359376,-0.1647697064399719,0.1838207361295819,-0.1074478366754949
1761838750572233700,9.981233642578125,-0.17659399974644183,0.13402385504245756,-0.10450301539525389
1761838750582302500,9.991302490234375,-0.1619119789212942,0.055499768903851505,-0.05046791221648454
1761838750592372700,10.001372802734375,-0.08066928147375584,0.015812778420746326,-0.06615209582149982
1761838750602442800,10.01144287109375,0.01961421653032303,0.019351181679964063,-0.12495485179349779
1761838750612511700,10.02151171875,0.06157762751281261,0.01266249769628048,-0.11285977872163057
1761838750622581800,10.031581787109374,0.1364502054065466,-0.04782558101415634,-0.07131605445593595
1761838750632651500,10.041651611328126,0.18021920450627804,-0.058283554403483866,-0.06445362134054303
1761838750642721500,10.051721435546876,0.17612579771280287,-0.03780424547642469,-0.06803980926424265
1761838750652790800,10.061790771484375,0.1470294670879841,-0.01830517975836992,-0.08454056994915007
1761838750662860500,10.071860595703125,0.10204407793581485,-0.021315759751200675,-0.06372399189174174
1761838750672930800,10.081930908203125,0.09951368267536163,-0.024299159476161,-0.09666340781077742
1761838750683000600,10.09200048828125,0.12466916671991347,-0.004113280537724495,-0.16231310706809163
1761838750693069800,10.10206982421875,0.058458618709445,0.043219548523426056,-0.18125073951110243
1761838750703139800,10.112139892578124,0.12213935598134994,0.12070377022027969,-0.18275091494098306
1761838750713209600,10.122209716796876,0.06775427032113075,0.1957987586930394,-0.1398588448062539
1761838750723279600,10.132279541015626,-0.11883154660761355,0.08561901283562183,-0.0674319064989686
1761838750733348600,10.1423486328125,-0.07315700614750385,0.010591828902065753,-0.06472893115058541
1761838750743418600,10.152418701171875,-0.05918751750588417,0.012115385207533835,-0.04815218262001872
1761838750753489000,10.162489013671875,-0.06207096398770809,0.005132978974282741,-0.027342472694814202
1761838750763558700,10.17255859375,-0.008317746490240096,-0.011375965017080306,-0.03118336603194475
1761838750773627600,10.182627685546874,0.052878188228607174,-0.00723228934109211,-0.042932109884172676
1761838750783697700,10.19269775390625,0.15216156927943228,-0.016368950998783112,-0.07842267159074544
1761838750793767700,10.202767578125,0.20288111816942692,-0.027170623259246348,-0.10993921509981154
1761838750803837700,10.212837646484376,0.19584639722704886,-0.0318783625587821,-0.11529518917500972
1761838750813906700,10.22290673828125,0.15848492708206177,0.013800561815500259,-0.1164089956358075
1761838750823976700,10.232976806640625,0.060951604568958276,0.13101970479041336,-0.0677457947537303
