time,seconds_elapsed,z,y,x
1761838740673695700,0.08269580078125,0.003569180378690362,0.0059283217415213585,0.13017992675304413
1761838740683766000,0.09276611328125,0.010855322703719139,0.016037415713071823,0.10436005145311356
1761838740693836000,0.1028359375,0.03351110965013504,0.013374893926084042,0.07971394062042236
1761838740703904800,0.11290478515625,0.05380573123693466,0.0024732439778745174,0.0650297999382019
1761838740713975000,0.12297509765625,0.07420714199542999,-0.0017321892082691193,0.057120442390441895
1761838740724044800,0.133044921875,0.08769898116588593,-0.002140185795724392,0.06222359463572502
1761838740734114000,0.143114013671875,0.09351541846990585,0.002429880667477846,0.07241655886173248
1761838740744183800,0.153183837890625,0.09559721499681473,0.01230807788670063,0.08648470044136047
1761838740754252800,0.163252685546875,0.09461179375648499,0.021020835265517235,0.10366449505090714
1761838740764322800,0.17332275390625,0.08519832044839859,0.03291824087500572,0.12020672112703323
1761838740774392800,0.183392822265625,0.07504991441965103,0.0430573895573616,0.13694293797016144
1761838740784462000,0.193462158203125,0.0593457892537117,0.03587404638528824,0.14134754240512848
1761838740794531800,0.20353173828125,0.038272157311439514,0.02657405100762844,0.13460849225521088
1761838740804601900,0.213601806640625,0.016235297545790672,0.010874449275434017,0.11713816970586777
1761838740814670800,0.2236708984375,-0.003724512178450823,0.006691500544548035,0.08804421871900558
1761838740824740900,0.233740966796875,-0.021277405321598053,0.015597376972436905,0.04614577442407608
1761838740834811000,0.243810791015625,-0.038966018706560135,0.032268423587083817,-0.0006575996521860361
1761838740844880000,0.2538798828125,-0.05234334245324135,0.03348921611905098,-0.054293662309646606
1761838740854950000,0.263949951171875,-0.06353208422660828,0.021494001150131226,-0.09301876276731491
1761838740865020000,0.27402001953125,-0.0709465891122818,0.013888547196984291,-0.11699093878269196
1761838740875089000,0.2840888671875,-0.07708171010017395,0.019207216799259186,-0.11815813183784485
1761838740885158700,0.29415869140625,-0.08209271728992462,0.04349284991621971,-0.08659833669662476
1761838740895229000,0.30422900390625,-0.08890541642904282,0.05669711157679558,-0.03940330073237419
1761838740905298000,0.3142978515625,-0.09046336263418198,0.0612947940826416,0.01970423012971878
1761838740915368000,0.324367919921875,-0.07518087327480316,0.0700521469116211,0.08101006597280502
1761838740925438000,0.33443798828125,-0.04852662608027458,0.07355526089668274,0.1533990502357483
1761838740935507000,0.3445068359375,-0.025168731808662415,0.05480923876166344,0.220240518450737
1761838740945577000,0.354576904296875,-0.003241061232984066,0.02316688932478428,0.275404691696167
1761838740955647000,0.36464697265625,0.01322697289288044,-0.011294947937130928,0.32144638895988464
1761838740965716000,0.374716064453125,0.020497135818004608,-0.043929323554039,0.35997459292411804
1761838740975786000,0.384785888671875,0.021261582151055336,-0.06556130945682526,0.38386258482933044
1761838740985855700,0.394855712890625,0.018781913444399834,-0.08135678619146347,0.3823152780532837
1761838740995926000,0.404926025390625,0.013279872015118599,-0.08483292907476425,0.35544082522392273
1761838741005994800,0.414994873046875,-0.0018271756125614047,-0.06433804333209991,0.30703866481781006
1761838741016064800,0.425064697265625,-0.017069188877940178,-0.03459997475147247,0.23159007728099823
1761838741026133800,0.4351337890625,-0.024270109832286835,-0.003883074037730694,0.15712329745292664
1761838741036203800,0.445203857421875,-0.02305523306131363,0.012903212569653988,0.09588194638490677
1761838741046274000,0.455274169921875,-0.0222829170525074,0.021763283759355545,0.058754291385412216
1761838741056342800,0.4653427734375,-0.02339771017432213,0.013960523530840874,0.02974158525466919
1761838741066412800,0.475412841796875,-0.01901707798242569,0.00032993219792842865,0.02000373601913452
1761838741076482800,0.48548291015625,-0.008638526313006878,-0.016460878774523735,0.004997828975319862
1761838741086552800,0.495552734375,-0.00015342887490987778,-0.03237912803888321,-0.012856801971793175
1761838741096622600,0.50562255859375,0.008181245997548103,-0.02162390574812889,-0.02531588077545166
1761838741106692400,0.5156923828125,0.008725862950086594,-0.005272630602121353,-0.02917107194662094
1761838741116761300,0.52576123046875,0.009584153071045876,0.009241821244359016,-0.04147220030426979
1761838741126831400,0.535831298828125,0.011526929214596748,0.02381836622953415,-0.05769777670502663
1761838741136901400,0.5459013671875,0.013464962132275105,0.03275547921657562,-0.07819264382123947
1761838741146971400,0.555971435546875,0.018236013129353523,0.030256900936365128,-0.09354709833860397
1761838741157040400,0.566040283203125,0.02816738374531269,0.03197934851050377,-0.10609988123178482
1761838741167110400,0.5761103515625,0.03352486342191696,0.04115047678351402,-0.10105744749307632
1761838741177180400,0.586180419921875,0.03220120817422867,0.04264189302921295,-0.09278210997581482
1761838741187249400,0.59624951171875,0.03551631048321724,0.04574074596166611,-0.08537878841161728
1761838741197319200,0.606319091796875,0.03947973623871803,0.04310474917292595,-0.0777398943901062
1761838741207389400,0.616389404296875,0.04397568479180336,0.02794124186038971,-0.08062329888343811
1761838741217458400,0.62645849609375,0.05475018545985222,0.01946379989385605,-0.0810842514038086
1761838741227528400,0.636528564453125,0.06410320848226547,0.030078627169132233,-0.08443556725978851
1761838741237598500,0.646598388671875,0.06661877781152725,0.028857525438070297,-0.07837207615375519
1761838741247667200,0.656667236328125,0.07018209248781204,0.02465585619211197,-0.07794357091188431
1761838741257737500,0.666737548828125,0.07321852445602417,0.01079707220196724,-0.08213098347187042
1761838741267807500,0.676807373046875,0.07465343177318573,0.0007100831717252731,-0.09326273202896118
1761838741277876500,0.68687646484375,0.0718662217259407,-0.005729363299906254,-0.11824075877666473
1761838741287946500,0.696946533203125,0.07955796271562576,0.019703559577465057,-0.13658621907234192
1761838741298016300,0.707016357421875,0.08451873809099197,0.052230872213840485,-0.1544199138879776
1761838741308085500,0.71708544921875,0.08477466553449631,0.08114854246377945,-0.15868017077445984
1761838741318155300,0.7271552734375,0.07738989591598511,0.09065243601799011,-0.1471303105354309
1761838741328225300,0.737225341796875,0.06307327002286911,0.0784173458814621,-0.13122272491455078
1761838741338294300,0.747294189453125,0.056027986109256744,0.07294048368930817,-0.1085151955485344
1761838741348364300,0.7573642578125,0.05569269135594368,0.060463570058345795,-0.09503480792045593
1761838741358434600,0.7674345703125,0.0588870532810688,0.06226877123117447,-0.08276461064815521
1761838741368503300,0.77750341796875,0.058177053928375244,0.08828838169574738,-0.06878674030303955
1761838741378573300,0.7875732421875,0.05920150876045227,0.11314135789871216,-0.04594521224498749
1761838741388643300,0.797643310546875,0.06047050654888153,0.11676325649023056,-0.02213015966117382
1761838741398712300,0.80771240234375,0.06756431609392166,0.11257053166627884,0.004089666530489922
1761838741408782600,0.817782470703125,0.06772996485233307,0.0958075299859047,0.03573920577764511
1761838741418852400,0.827852294921875,0.06074624881148338,0.07645810395479202,0.04112399369478226
1761838741428921300,0.83792138671875,0.05222919210791588,0.06590745598077774,0.028588760644197464
1761838741438991400,0.847991455078125,0.04579367861151695,0.05941823869943619,0.010600020177662373
1761838741449061400,0.858061279296875,0.04265221208333969,0.07926757633686066,0.009134482592344284
1761838741459130400,0.86813037109375,0.03921937197446823,0.09203319251537323,0.020668912678956985
1761838741469200400,0.878200439453125,0.03832241892814636,0.10009936988353729,0.03381640464067459
1761838741479270400,0.8882705078125,0.02400917001068592,0.10046844184398651,0.029872853308916092
1761838741489339400,0.89833935546875,0.004391259513795376,0.10797642171382904,0.01138945110142231
1761838741499409400,0.908409423828125,-0.01317127700895071,0.12828530371189117,-0.02684827521443367
1761838741509479200,0.918479248046875,-0.0204161386936903,0.12849463522434235,-0.07161681354045868
1761838741519548400,0.92854833984375,-0.022911200299859047,0.11768977344036102,-0.12963664531707764
1761838741529618200,0.9386181640625,-0.028479604050517082,0.1098715290427208,-0.18721285462379456
1761838741539688400,0.9486884765625,-0.029261767864227295,0.09588414430618286,-0.24706998467445374
1761838741549757400,0.95875732421875,-0.02743137627840042,0.08078108727931976,-0.3061700463294983
1761838741559827200,0.9688271484375,-0.023574000224471092,0.058402396738529205,-0.3578060269355774
1761838741569897500,0.9788974609375,-0.02008179761469364,0.031126832589507103,-0.3900611698627472
1761838741579967200,0.98896728515625,-0.004689465742558241,0.013464096933603287,-0.3969581425189972
1761838741590036500,0.999036376953125,0.010306794196367264,0.02733756974339485,-0.38142284750938416
1761838741600106500,1.0091064453125,-0.0003075546119362116,0.02517603151500225,-0.34442493319511414
1761838741610176300,1.01917626953125,-0.022424841299653053,-0.00006780494004487991,-0.29600921273231506
1761838741620245500,1.02924560546875,-0.04918261989951134,-0.0408339649438858,-0.229498490691185
1761838741630315300,1.039315185546875,-0.07400621473789215,-0.09063214063644409,-0.16463400423526764
1761838741640385300,1.04938525390625,-0.10427460074424744,-0.15074054896831512,-0.1126265898346901
1761838741650454300,1.059454345703125,-0.13027985394001007,-0.18450437486171722,-0.0730847716331482
1761838741660524300,1.069524169921875,-0.1422608643770218,-0.21310770511627197,-0.044555049389600754
1761838741670594600,1.079594482421875,-0.14295008778572083,-0.2434224784374237,-0.02727007120847702
1761838741680663300,1.089663330078125,-0.13169264793395996,-0.25439155101776123,-0.015140244737267494
1761838741690733300,1.0997333984375,-0.11666443198919296,-0.24638132750988007,-0.013055255636572838
1761838741700803300,1.10980322265625,-0.10555040836334229,-0.2345861792564392,-0.01066144835203886
1761838741710872300,1.119872314453125,-0.09571801871061325,-0.22102110087871552,-0.008553290739655495
1761838741720942300,1.1299423828125,-0.07843639701604843,-0.21370521187782288,-0.010258160531520844
1761838741731012400,1.140012451171875,-0.05004683509469032,-0.21853192150592804,-0.02281682938337326
1761838741741081600,1.15008154296875,-0.02397764101624489,-0.2374938577413559,-0.04011087864637375
1761838741751151400,1.1601513671875,-0.0022598274517804384,-0.26058292388916016,-0.05835060030221939
1761838741761221400,1.170221435546875,0.023341543972492218,-0.2628515064716339,-0.06477539986371994
1761838741771290400,1.180290283203125,0.03665894642472267,-0.25677499175071716,-0.045424867421388626
1761838741781360400,1.1903603515625,0.04430593177676201,-0.27132368087768555,-0.024049652740359306
1761838741791430400,1.200430419921875,0.052101001143455505,-0.2654750943183899,0.0020996583625674248
1761838741801500400,1.21050048828125,0.07149431109428406,-0.2754802107810974,0.007782798260450363
1761838741811569400,1.2205693359375,0.09031353890895844,-0.32560327649116516,-0.005238728132098913
1761838741821639400,1.230639404296875,0.10466759651899338,-0.3873486816883087,-0.02722887322306633
1761838741831709400,1.24070947265625,0.12674067914485931,-0.4368667006492615,-0.04275084286928177
1761838741841778200,1.250778076171875,0.155829057097435,-0.47979021072387695,-0.03961390256881714
1761838741851848400,1.260848388671875,0.19256256520748138,-0.5371677279472351,-0.03462766855955124
1761838741861918500,1.27091845703125,0.23299574851989746,-0.5715189576148987,-0.018030507490038872
1761838741871987500,1.280987548828125,0.2688078284263611,-0.5770825743675232,-0.014397954568266869
1761838741882057500,1.291057373046875,0.29798218607902527,-0.5614567995071411,-0.024037569761276245
1761838741892127200,1.301127197265625,0.32679280638694763,-0.5330941081047058,-0.04520304501056671
1761838741902196500,1.311196533203125,0.36442482471466064,-0.5026952624320984,-0.07145118713378906
1761838741912266500,1.3212666015625,0.40216341614723206,-0.48389366269111633,-0.11016928404569626
1761838741922336300,1.331336181640625,0.42793557047843933,-0.4813339412212372,-0.15419329702854156
1761838741932405500,1.341405517578125,0.4515567421913147,-0.4616103172302246,-0.1996356099843979
1761838741942475300,1.351475341796875,0.4749516248703003,-0.4311198592185974,-0.2486126720905304
1761838741952545300,1.361545166015625,0.4750608205795288,-0.4100912809371948,-0.2934967875480652
1761838741962614300,1.3716142578125,0.4556824564933777,-0.3784204423427582,-0.3377287983894348
1761838741972684300,1.381684326171875,0.4417557120323181,-0.2981383800506592,-0.3809569478034973
1761838741982754600,1.391754638671875,0.426042377948761,-0.21518787741661072,-0.4287232756614685
1761838741992824300,1.40182421875,0.42021939158439636,-0.15254393219947815,-0.47698721289634705
1761838742002893600,1.4118935546875,0.4325651526451111,-0.0938200056552887,-0.5198982357978821
1761838742012963300,1.42196337890625,0.44783732295036316,-0.07594699412584305,-0.5441332459449768
1761838742023033300,1.432033447265625,0.4426557421684265,-0.11136806756258011,-0.5410534143447876
1761838742033102300,1.442102294921875,0.39788028597831726,-0.20147265493869781,-0.5114665031433105
1761838742043172400,1.45217236328125,0.3279251754283905,-0.29668933153152466,-0.46877455711364746
1761838742053242400,1.462242431640625,0.23785334825515747,-0.35381174087524414,-0.39012742042541504
1761838742063311400,1.472311279296875,0.13789480924606323,-0.3570902943611145,-0.2878592908382416
1761838742073381400,1.48238134765625,0.037543170154094696,-0.31198325753211975,-0.17122454941272736
1761838742083451400,1.492451416015625,-0.03888343647122383,-0.2117193043231964,-0.07868456840515137
1761838742093520400,1.502520263671875,-0.07744681090116501,-0.09055186063051224,-0.007284689694643021
1761838742103590100,1.512590087890625,-0.08673644810914993,0.024280712008476257,0.027005372568964958
1761838742113660200,1.52266015625,-0.08010011166334152,0.13166283071041107,0.035966113209724426
1761838742123729200,1.532729248046875,-0.06277008354663849,0.20621220767498016,0.027906039729714394
1761838742133799200,1.542799072265625,-0.031219614669680595,0.24884116649627686,0.00877708662301302
1761838742143869200,1.552869140625,-0.004086801316589117,0.2761313319206238,-0.015451591461896896
1761838742153939200,1.562939208984375,-0.00851084478199482,0.29514259099960327,-0.047386087477207184
1761838742164008200,1.57300830078125,-0.038862768560647964,0.30817005038261414,-0.07084457576274872
1761838742174078200,1.583078125,-0.08112846314907074,0.32274526357650757,-0.09484551846981049
1761838742184148000,1.59314794921875,-0.12548516690731049,0.34195536375045776,-0.12543579936027527
1761838742194217200,1.60321728515625,-0.1614074856042862,0.36093199253082275,-0.16224122047424316
1761838742204287000,1.613286865234375,-0.18050900101661682,0.37271225452423096,-0.210182324051857
1761838742214357200,1.623357177734375,-0.17971724271774292,0.3678399920463562,-0.25293219089508057
1761838742224426200,1.63342626953125,-0.1637391448020935,0.3569570779800415,-0.28960752487182617
1761838742234496000,1.64349609375,-0.12470918148756027,0.33049139380455017,-0.32492902874946594
1761838742244566300,1.653566162109375,-0.07592133432626724,0.28327929973602295,-0.3646925389766693
1761838742254636300,1.66363623046875,-0.025036321952939034,0.22464342415332794,-0.3995264172554016
1761838742264705300,1.673705322265625,0.03167704865336418,0.18089741468429565,-0.43494418263435364
1761838742274775300,1.683775390625,0.08356128633022308,0.14178836345672607,-0.4621827304363251
1761838742284845000,1.693844970703125,0.12434250861406326,0.10932374000549316,-0.4967438280582428
1761838742294914300,1.703914306640625,0.15397736430168152,0.08915109187364578,-0.5244758725166321
1761838742304984000,1.713984130859375,0.16077430546283722,0.0621185339987278,-0.5620768666267395
1761838742315054000,1.72405419921875,0.15952102839946747,0.02276713401079178,-0.6064334511756897
1761838742325123000,1.734123046875,0.1604292243719101,-0.019182035699486732,-0.6794081926345825
1761838742335193000,1.744193115234375,0.16091950237751007,-0.05480314791202545,-0.7643790245056152
1761838742345263400,1.754263427734375,0.1710934191942215,-0.06408679485321045,-0.8610211610794067
1761838742355332000,1.76433203125,0.18376819789409637,-0.030947217717766762,-0.952920138835907
1761838742365402000,1.774402099609375,0.18636593222618103,0.043229635804891586,-1.0455108880996704
1761838742375472000,1.78447216796875,0.20174941420555115,0.14383986592292786,-1.1460154056549072
1761838742385542100,1.794542236328125,0.21498741209506989,0.2841798663139343,-1.2340596914291382
1761838742395611400,1.804611328125,0.21869400143623352,0.4625440239906311,-1.3111387491226196
1761838742405681200,1.81468115234375,0.19137051701545715,0.6244680881500244,-1.3640029430389404
1761838742415751200,1.824751220703125,0.16746705770492554,0.7343732714653015,-1.3970245122909546
1761838742425820200,1.834820068359375,0.17251354455947876,0.7794412970542908,-1.3741164207458496
1761838742435890200,1.84489013671875,0.2540786862373352,0.8151172399520874,-1.3023871183395386
1761838742445960200,1.854960205078125,0.526975154876709,0.8124291300773621,-1.1872715950012207
1761838742456029200,1.865029296875,0.921105146408081,0.695794403553009,-1.0578163862228394
1761838742466099200,1.87509912109375,1.460175633430481,0.3503972291946411,-1.0152480602264404
1761838742476169200,1.885169189453125,2.0320444107055664,-0.11441145837306976,-1.011932134628296
1761838742486239200,1.8952392578125,2.3436434268951416,-0.8282454609870911,-1.0777628421783447
1761838742496308000,1.905307861328125,2.390238046646118,-1.528631567955017,-1.0998910665512085
1761838742506378200,1.915378173828125,1.9403624534606934,-1.806530237197876,-0.9731236696243286
1761838742516448300,1.9254482421875,1.0301790237426758,-1.27945077419281,-0.6560152173042297
1761838742526517200,1.935517333984375,0.13315743207931519,-0.23743313550949097,-0.19062098860740662
1761838742536587300,1.945587158203125,-0.425597220659256,0.24039629101753235,0.07644613087177277
1761838742546657000,1.955656982421875,-0.748706042766571,0.2089833915233612,0.15487056970596313
1761838742556726300,1.965726318359375,-0.9470561742782593,0.24098287522792816,0.28673166036605835
1761838742566796000,1.975796142578125,-0.921705961227417,0.34243643283843994,0.4773573577404022
1761838742576866000,1.985865966796875,-0.6899257302284241,0.4961772561073303,0.7152135968208313
1761838742586936300,1.995936279296875,-0.3035494387149811,0.46622419357299805,0.8776663541793823
1761838742597005000,2.006005126953125,0.17018218338489532,0.40158796310424805,0.917300820350647
1761838742607075300,2.016075439453125,0.506415605545044,0.5122897028923035,0.7973493933677673
1761838742617145000,2.02614501953125,0.6100115180015564,0.7983795404434204,0.515678882598877
1761838742627214000,2.036214111328125,0.5425436496734619,1.2157703638076782,0.13337065279483795
1761838742637284400,2.046284423828125,0.527294933795929,1.7709907293319702,-0.2675943374633789
1761838742647354000,2.05635400390625,0.7825382351875305,2.197654962539673,-0.6438919305801392
1761838742657423400,2.06642333984375,1.3120652437210083,2.288560628890991,-1.013224720954895
1761838742667493000,2.0764931640625,1.9255902767181396,1.7939921617507935,-1.4287797212600708
1761838742677563100,2.086563232421875,2.3871381282806396,0.6379035115242004,-1.7940274477005005
1761838742687633200,2.096633056640625,2.687939405441284,-0.773806095123291,-1.8933111429214478
1761838742697702100,2.1067021484375,2.790968656539917,-1.8441789150238037,-1.7513784170150757
1761838742707772200,2.116772216796875,2.6701550483703613,-1.8991080522537231,-1.450113296508789
1761838742717842200,2.12684228515625,2.5547640323638916,-0.9696227312088013,-1.1057140827178955
1761838742727911200,2.1369111328125,2.6663737297058105,0.2848993241786957,-0.9203068614006042
1761838742737981200,2.146981201171875,2.8431570529937744,1.0383952856063843,-1.0877044200897217
1761838742748051200,2.15705126953125,2.984924554824829,1.020754337310791,-1.3895905017852783
1761838742758120000,2.167119873046875,3.061558485031128,0.4543910324573517,-1.559006929397583
1761838742768190200,2.177190185546875,3.1377835273742676,-0.19190117716789246,-1.5920785665512085
1761838742778260200,2.18726025390625,3.352591037750244,-0.5913125276565552,-1.9404826164245605
1761838742788330000,2.197330078125,3.5735223293304443,-1.3698780536651611,-2.1456964015960693
1761838742798399200,2.207399169921875,3.261805295944214,-2.8230297565460205,-1.436089038848877
1761838742808469000,2.217468994140625,2.5300934314727783,-4.365464210510254,-0.5651737451553345
1761838742818539300,2.227539306640625,1.637492060661316,-5.471670150756836,-0.07980278134346008
1761838742828608300,2.237608154296875,0.628650426864624,-5.3951263427734375,0.4034329950809479
1761838742838678000,2.247677978515625,-0.3048798739910126,-4.1265549659729,1.2339235544204712
1761838742848748300,2.257748291015625,-1.015909194946289,-2.536311626434326,2.439954996109009
1761838742858817000,2.267817138671875,-1.3979811668395996,-1.7039225101470947,3.382378578186035
1761838742868887300,2.27788720703125,-1.7112582921981812,-1.2228418588638306,3.734604835510254
1761838742878957300,2.287957275390625,-2.0444278717041016,-0.7580768465995789,3.497671604156494
1761838742889027000,2.298027099609375,-2.573916435241699,-0.7629175186157227,2.972324848175049
1761838742899096300,2.308096435546875,-3.1258132457733154,-1.2008066177368164,2.3403518199920654
1761838742909166000,2.318166015625,-3.458367347717285,-1.5051485300064087,1.7689402103424072
1761838742919236000,2.328236083984375,-3.5707590579986572,-1.3126933574676514,1.1353152990341187
1761838742929305000,2.33830517578125,-3.3415987491607666,-0.41537562012672424,0.4660412073135376
1761838742939375000,2.348375,-2.4977424144744873,0.9398372769355774,-0.050200577825307846
1761838742949445000,2.358445068359375,-1.506564974784851,1.6227200031280518,-0.3082779049873352
1761838742959515100,2.36851513671875,-0.8527013659477234,1.815705418586731,-0.3688988983631134
1761838742969584000,2.378584228515625,-0.5338401794433594,1.3239939212799072,-0.2805258631706238
1761838742979654100,2.388654052734375,-0.4789029359817505,0.4603217840194702,-0.10227437317371368
1761838742989724200,2.39872412109375,-0.48225831985473633,-0.26485687494277954,0.08304031193256378
1761838742999793200,2.408793212890625,-0.4359057545661926,-0.6824485063552856,0.17086870968341827
1761838743009863200,2.41886328125,-0.2941268980503082,-0.8285039663314819,0.12547367811203003
1761838743019933200,2.42893310546875,-0.004985346924513578,-0.7321805953979492,0.053646355867385864
1761838743030002200,2.439002197265625,0.40953460335731506,-0.41341257095336914,-0.029274215921759605
1761838743040072200,2.449072265625,0.8566790819168091,0.10365799069404602,-0.16753461956977844
1761838743050142000,2.459141845703125,1.2201108932495117,0.6873623132705688,-0.33943408727645874
1761838743060212200,2.469212158203125,1.4077540636062622,1.1323884725570679,-0.4982144236564636
1761838743070281200,2.47928125,1.4495728015899658,1.323484182357788,-0.6127345561981201
1761838743080351200,2.489351318359375,1.4312443733215332,1.2867681980133057,-0.732810378074646
1761838743090421200,2.499421142578125,1.3867886066436768,1.064927577972412,-0.8677635788917542
1761838743100491300,2.5094912109375,1.2944064140319824,0.7330076694488525,-0.9728420376777649
1761838743110561300,2.519561279296875,1.1593469381332397,0.42062777280807495,-1.0118401050567627
1761838743120631300,2.52963134765625,1.0124679803848267,0.20470720529556274,-1.0053625106811523
1761838743130701300,2.539701416015625,0.8645955920219421,0.10535155236721039,-0.9677110910415649
1761838743140770300,2.549770263671875,0.732276976108551,0.12214464694261551,-0.9034268856048584
1761838743150840300,2.55984033203125,0.6840859651565552,0.18904215097427368,-0.8152565360069275
1761838743160910300,2.569910400390625,0.7198807001113892,0.2211284339427948,-0.7878736853599548
1761838743170979300,2.579979248046875,0.7922863364219666,0.2734047472476959,-0.8609468936920166
1761838743181049300,2.59004931640625,0.8393923044204712,0.40072008967399597,-1.009865164756775
1761838743191119000,2.600119140625,0.8173823952674866,0.6135308146476746,-1.1609084606170654
1761838743201188400,2.610188232421875,0.7346185445785522,0.8721264600753784,-1.2247494459152222
1761838743211258000,2.620258056640625,0.5852180123329163,1.0554322004318237,-1.1538602113723755
1761838743221328400,2.630328369140625,0.3470827043056488,1.1239745616912842,-0.9502561092376709
1761838743231398400,2.6403984375,0.0496416911482811,1.1222543716430664,-0.6579909324645996
1761838743241467100,2.650467041015625,-0.25703781843185425,1.1305290460586548,-0.3325097858905792
1761838743251537400,2.660537353515625,-0.5549018383026123,1.153347134590149,0.049537669867277145
1761838743261607200,2.670607177734375,-0.8448410034179688,1.0498000383377075,0.44470763206481934
1761838743271676400,2.680676513671875,-1.067887783050537,0.7001367807388306,0.7659147381782532
1761838743281746200,2.69074609375,-1.1503610610961914,0.07595492899417877,1.000872254371643
1761838743291816200,2.700816162109375,-0.9274826049804688,-0.5835369825363159,1.2788293361663818
1761838743301886200,2.71088623046875,-0.3070318400859833,-0.8908050656318665,1.6555683612823486
1761838743311955200,2.720955078125,0.4760914444923401,-0.9159333109855652,1.825369119644165
1761838743322025200,2.731025146484375,1.0797048807144165,-0.8195124864578247,1.5321834087371826
1761838743332095200,2.74109521484375,1.4271321296691895,-0.7432848215103149,0.7924262285232544
1761838743342164200,2.751164306640625,1.4755269289016724,-0.8573887944221497,-0.26907193660736084
1761838743352234200,2.761234130859375,1.1794627904891968,-0.8860582709312439,-1.184706687927246
1761838743362304300,2.77130419921875,0.6038615107536316,-0.7507779002189636,-1.50867760181427
1761838743372374300,2.781374267578125,-0.1403689980506897,-0.2182968109846115,-1.2297449111938477
1761838743382443300,2.791443359375,-0.8360889554023743,0.7333661913871765,-0.8744581341743469
1761838743392513300,2.80151318359375,-1.129045009613037,1.2565027475357056,-0.905566394329071
1761838743402583300,2.811583251953125,-0.8765022158622742,1.0857148170471191,-1.2449281215667725
1761838743412652300,2.82165234375,-0.11750922352075577,0.49818021059036255,-1.7429248094558716
1761838743422722300,2.831722412109375,0.813564121723175,-0.40784555673599243,-2.287234306335449
1761838743432792000,2.8417919921875,1.5662027597427368,-1.129246711730957,-2.734477996826172
1761838743442862300,2.8518623046875,2.0121002197265625,-1.278534173965454,-3.3070924282073975
1761838743452931000,2.86193115234375,2.2145333290100098,-0.7114318609237671,-4.084517002105713
1761838743463001300,2.87200146484375,2.347097396850586,0.15994778275489807,-4.562894821166992
1761838743473071400,2.8820712890625,2.408062696456909,0.8408243656158447,-4.156594276428223
1761838743483140400,2.892140380859375,2.3269846439361572,1.1366807222366333,-3.1600613594055176
1761838743493210400,2.90221044921875,2.0372698307037354,1.2435475587844849,-2.129077911376953
1761838743503280000,2.912280029296875,1.538490891456604,1.1333742141723633,-1.334004282951355
1761838743513350100,2.92235009765625,0.8890595436096191,0.7942661643028259,-0.6272606253623962
1761838743523419100,2.932419189453125,0.21917974948883057,0.5231939554214478,0.1699017733335495
1761838743533489200,2.9424892578125,-0.353992223739624,0.29510554671287537,0.9279181361198425
1761838743543559400,2.952559326171875,-0.7592965364456177,0.10974448919296265,1.5810672044754028
1761838743553628200,2.962628173828125,-1.0026501417160034,-0.09080962836742401,2.17989444732666
1761838743563698200,2.9726982421875,-1.1710418462753296,-0.3033440113067627,2.6649835109710693
1761838743573768200,2.982768310546875,-1.2163723707199097,-0.3506576716899872,2.9335036277770996
1761838743583838200,2.992838134765625,-1.129984736442566,-0.20030570030212402,2.985732078552246
1761838743593907500,3.002907470703125,-0.941631555557251,0.10231468826532364,2.8608510494232178
1761838743603977200,3.012977294921875,-0.6915953159332275,0.5351095199584961,2.616818428039551
1761838743614047200,3.023047119140625,-0.4287804663181305,1.0049721002578735,2.2908427715301514
1761838743624116200,3.0331162109375,-0.19992119073867798,1.4189558029174805,1.9490340948104858
1761838743634186200,3.043186279296875,-0.01995241269469261,1.7229149341583252,1.6530342102050781
1761838743644256300,3.05325634765625,0.09591027349233627,1.881395936012268,1.432539463043213
1761838743654325200,3.0633251953125,0.14239224791526794,1.8660717010498047,1.3005670309066772
1761838743664395300,3.073395263671875,0.10127650201320648,1.6947647333145142,1.2060866355895996
1761838743674465300,3.08346533203125,-0.022214919328689575,1.3854920864105225,1.1332151889801025
1761838743684535300,3.093535400390625,-0.17739491164684296,0.9834288954734802,1.100663661956787
1761838743694604000,3.10360400390625,-0.3140488266944885,0.52544766664505,1.0955779552459717
1761838743704674300,3.11367431640625,-0.3915462791919708,-0.020803160965442657,1.0429049730300903
1761838743714744300,3.123744384765625,-0.43283459544181824,-0.5718588829040527,0.9776089191436768
1761838743724813300,3.133813232421875,-0.433337926864624,-0.9957714676856995,0.9416828751564026
1761838743734883300,3.14388330078125,-0.39179110527038574,-1.2216246128082275,0.9595241546630859
1761838743744953000,3.153953125,-0.3063531517982483,-1.2708885669708252,1.0159847736358643
1761838743755023400,3.1640234375,-0.17853406071662903,-1.2252211570739746,1.0710928440093994
1761838743765092000,3.174092041015625,-0.01219648402184248,-1.1746772527694702,1.0771867036819458
1761838743775162000,3.184162109375,0.15988010168075562,-1.2090649604797363,0.9870279431343079
1761838743785232400,3.194232421875,0.2840089499950409,-1.2841397523880005,0.7459192276000977
1761838743795301000,3.204301025390625,0.2935028076171875,-1.3560293912887573,0.374079167842865
1761838743805371400,3.214371337890625,0.17408719658851624,-1.3862253427505493,-0.04939698427915573
1761838743815441400,3.22444140625,-0.01317156944423914,-1.3415181636810303,-0.439909964799881
1761838743825511200,3.23451123046875,-0.2266010344028473,-1.1735591888427734,-0.7913548350334167
1761838743835580400,3.244580322265625,-0.4408095180988312,-0.8285196423530579,-1.1516915559768677
1761838743845650200,3.254650146484375,-0.6396182179450989,-0.43749088048934937,-1.5871548652648926
1761838743855720200,3.26472021484375,-0.8149351477622986,-0.0810898169875145,-2.0415596961975098
1761838743865790500,3.27479052734375,-0.9404459595680237,0.2277311384677887,-2.4018714427948
1761838743875859200,3.284859130859375,-1.0168836116790771,0.4670923948287964,-2.6495144367218018
1761838743885929500,3.294929443359375,-1.069976568222046,0.6095893383026123,-2.815866470336914
1761838743895999200,3.304999267578125,-1.1155645847320557,0.7088326215744019,-2.8116891384124756
1761838743906068200,3.315068115234375,-1.167543888092041,0.7878826856613159,-2.5963921546936035
1761838743916138200,3.32513818359375,-1.1869453191757202,0.7320722341537476,-2.2377898693084717
1761838743926208300,3.335208251953125,-1.061444878578186,0.5058600902557373,-1.7731103897094727
1761838743936278300,3.3452783203125,-0.8773715496063232,0.1835276335477829,-1.293866515159607
1761838743946347300,3.35534716796875,-0.8369136452674866,0.07265038043260574,-0.8990499377250671
1761838743956417300,3.365417236328125,-0.9772922992706299,0.15348473191261292,-0.5230444669723511
1761838743966487300,3.3754873046875,-1.115731954574585,0.19524255394935608,-0.1697705239057541
1761838743976556300,3.385556396484375,-1.1954294443130493,0.09696082770824432,0.13960513472557068
1761838743986626000,3.3956259765625,-1.1954764127731323,-0.1102626696228981,0.41899573802948
1761838743996696300,3.4056962890625,-1.1641943454742432,-0.34681686758995056,0.6846569180488586
1761838744006765300,3.415765380859375,-1.1363489627838135,-0.5793177485466003,0.980583906173706
1761838744016835300,3.42583544921875,-1.1167726516723633,-0.7912144660949707,1.2270872592926025
1761838744026905300,3.4359052734375,-1.0862294435501099,-0.923602819442749,1.39346182346344
1761838744036975000,3.44597509765625,-1.031036138534546,-1.0086625814437866,1.4975299835205078
1761838744047044400,3.45604443359375,-0.9728397130966187,-1.0794925689697266,1.5013757944107056
1761838744057114400,3.4661142578125,-0.9237762093544006,-1.1372662782669067,1.3759377002716064
1761838744067184000,3.47618408203125,-0.7830193638801575,-1.1191397905349731,1.1665633916854858
1761838744077254400,3.48625439453125,-0.6816299557685852,-0.9671269655227661,0.8522157073020935
1761838744087323100,3.4963232421875,-0.5787243247032166,-0.7335272431373596,0.5165085196495056
1761838744097393200,3.50639306640625,-0.461090087890625,-0.458389550447464,0.21361146867275238
1761838744107462400,3.51646240234375,-0.34349367022514343,-0.24309372901916504,-0.05579470470547676
1761838744117531400,3.526531494140625,-0.2500779330730438,-0.11446066945791245,-0.31655967235565186
1761838744127601400,3.536601318359375,-0.17456293106079102,-0.07278246432542801,-0.5380435585975647
1761838744137671400,3.54667138671875,-0.09545738995075226,-0.13117185235023499,-0.6946932673454285
1761838744147741400,3.556741455078125,-0.02358027547597885,-0.28769251704216003,-0.774827778339386
1761838744157810400,3.566810546875,-0.00024249532725661993,-0.5695574879646301,-0.8080634474754333
1761838744167880200,3.576880126953125,-0.05481785535812378,-0.9462214112281799,-0.8080165982246399
1761838744177950500,3.586950439453125,-0.18978986144065857,-1.2643859386444092,-0.7592933773994446
1761838744188019200,3.597019287109375,-0.3039201498031616,-1.3997477293014526,-0.6452237963676453
1761838744198089500,3.60708935546875,-0.3397088646888733,-1.412307620048523,-0.520152747631073
1761838744208159500,3.617159423828125,-0.335583359003067,-1.367328405380249,-0.4207494258880615
1761838744218229200,3.627229248046875,-0.3271726369857788,-1.2891457080841064,-0.38350120186805725
1761838744228298500,3.637298583984375,-0.37599050998687744,-1.0633891820907593,-0.3841720521450043
1761838744238368300,3.6473681640625,-0.4963458180427551,-0.685419499874115,-0.4282384216785431
1761838744248438300,3.657438232421875,-0.6343676447868347,-0.2524995505809784,-0.46235191822052
1761838744258507500,3.667507568359375,-0.7382968664169312,0.1983409821987152,-0.43993690609931946
1761838744268577300,3.677577392578125,-0.7559746503829956,0.672103762626648,-0.3959561288356781
1761838744278647300,3.687647216796875,-0.7114348411560059,1.171945333480835,-0.3774198889732361
1761838744288717300,3.69771728515625,-0.585907518863678,1.7807023525238037,-0.38965684175491333
1761838744298786300,3.707786376953125,-0.29555484652519226,2.450079917907715,-0.4471941888332367
1761838744308856600,3.717856689453125,0.11496692150831223,3.0059802532196045,-0.5567539930343628
1761838744318926300,3.72792626953125,0.5692888498306274,3.228865146636963,-0.5829656720161438
1761838744328995600,3.73799560546875,0.9588390588760376,2.8398265838623047,-0.5797796845436096
1761838744339065300,3.7480654296875,1.0264590978622437,1.821513295173645,-0.5707235336303711
1761838744349135400,3.75813525390625,0.9160566926002502,0.8935939073562622,-0.26353374123573303
1761838744359205400,3.768205322265625,0.878628671169281,0.11148158460855484,0.35337626934051514
1761838744369274400,3.7782744140625,0.9528413414955139,-0.3185880482196808,1.1539767980575562
1761838744379344400,3.788344482421875,1.2748438119888306,-0.09434778988361359,1.9811526536941528
1761838744389414400,3.798414306640625,2.037000894546509,0.6475135684013367,2.795743227005005
1761838744399484400,3.808484375,2.8946609497070312,1.7282263040542603,3.5011239051818848
1761838744409553400,3.818553466796875,3.5087592601776123,2.403390407562256,3.8755135536193848
1761838744419623400,3.82862353515625,3.828234910964966,2.193110227584839,3.9912359714508057
1761838744429693400,3.838693359375,3.988024950027466,1.2504467964172363,3.9288651943206787
1761838744439762400,3.848762451171875,4.024374008178711,0.015547150745987892,3.8248348236083984
1761838744449832400,3.85883251953125,3.8810603618621826,-1.2384229898452759,3.6600968837738037
1761838744459902200,3.868902099609375,3.642335891723633,-2.0958549976348877,3.2531468868255615
1761838744469972500,3.878972412109375,3.674823045730591,-1.891340732574463,2.382117986679077
1761838744480041200,3.889041259765625,3.1933610439300537,-0.681904137134552,0.9246183037757874
1761838744490111200,3.899111328125,1.4520351886749268,0.8261808753013611,-0.7607796788215637
1761838744500181500,3.909181396484375,-0.37187352776527405,1.5638048648834229,-1.701479196548462
1761838744510250200,3.919250244140625,-1.108784556388855,1.3703770637512207,-1.6391652822494507
1761838744520320500,3.929320556640625,-1.2058141231536865,1.5477616786956787,-1.3877049684524536
1761838744530390300,3.939390380859375,-1.1599254608154297,2.397651195526123,-1.5078058242797852
1761838744540460300,3.949460205078125,-1.2398126125335693,2.908104658126831,-1.7220083475112915
1761838744550529500,3.959529541015625,-1.4413830041885376,2.8401498794555664,-1.6640534400939941
1761838744560599300,3.969599365234375,-1.7332570552825928,2.084467887878418,-1.2154275178909302
1761838744570669300,3.97966943359375,-2.110879421234131,1.022390365600586,-0.47982755303382874
1761838744580738300,3.98973828125,-2.4920449256896973,0.27253368496894836,0.33301255106925964
1761838744590808300,3.999808349609375,-2.78415584564209,0.1346653252840042,1.0978718996047974
1761838744600878600,4.009878662109375,-2.8308944702148438,0.4022397994995117,1.7203395366668701
1761838744610948400,4.0199482421875,-2.553635358810425,0.7608810663223267,2.161761522293091
1761838744621017300,4.030017333984375,-2.097996711730957,1.0674035549163818,2.438478708267212
1761838744631087400,4.04008740234375,-1.6791270971298218,1.2049849033355713,2.5943024158477783
1761838744641157400,4.050157470703125,-1.467119812965393,1.1172934770584106,2.6644768714904785
1761838744651227400,4.060227294921875,-1.4812508821487427,0.8676648139953613,2.6869211196899414
1761838744661296400,4.07029638671875,-1.6219747066497803,0.6819617748260498,2.689995288848877
1761838744671366400,4.080366455078125,-1.6517882347106934,0.44353699684143066,2.6629557609558105
1761838744681436400,4.0904365234375,-1.4778164625167847,0.09427469968795776,2.55387544631958
1761838744691505400,4.10050537109375,-1.13669753074646,-0.41588735580444336,2.4786767959594727
1761838744701575200,4.1105751953125,-0.6072381734848022,-0.6826350092887878,2.581803560256958
1761838744711645400,4.1206455078125,0.017151392996311188,-0.7258034944534302,2.675638198852539
1761838744721715500,4.130715576171875,0.3309703767299652,-0.5104703903198242,2.5780467987060547
1761838744731784400,4.140784423828125,0.4918021261692047,-0.20936058461666107,2.4359140396118164
1761838744741854500,4.1508544921875,0.5411827564239502,-0.14117707312107086,2.2964670658111572
1761838744751924200,4.16092431640625,0.42467769980430603,-0.32126402854919434,2.127446413040161
1761838744761993500,4.170993408203125,0.2854614853858948,-0.7332653403282166,1.9154417514801025
1761838744772063500,4.1810634765625,0.1290028989315033,-1.24781334400177,1.650314211845398
1761838744782133200,4.19113330078125,-0.0451485700905323,-1.6196345090866089,1.363308310508728
1761838744792203500,4.20120361328125,0.016481241211295128,-1.2434011697769165,1.2814909219741821
1761838744802272300,4.211272216796875,0.4433589577674866,-0.6744550466537476,1.1298890113830566
1761838744812342500,4.221342529296875,0.8034415245056152,-0.012546117417514324,0.5796319842338562
1761838744822412500,4.23141259765625,1.0202704668045044,0.5139510631561279,-0.28990381956100464
1761838744832481300,4.241481201171875,1.14591383934021,0.8124562501907349,-1.1895090341567993
1761838744842551600,4.251551513671875,1.18389093875885,0.9382163286209106,-1.8978577852249146
1761838744852621300,4.261621337890625,1.1000332832336426,0.9992490410804749,-2.3878352642059326
1761838744862691300,4.27169140625,0.7410475015640259,1.14763343334198,-2.812290906906128
1761838744872760300,4.28176025390625,0.15775741636753082,1.4021040201187134,-3.069554090499878
1761838744882830300,4.291830322265625,-0.48167333006858826,1.562024474143982,-2.938955545425415
1761838744892900400,4.301900390625,-1.0301185846328735,1.6039116382598877,-2.5557751655578613
1761838744902970400,4.311970458984375,-1.4292114973068237,1.507813811302185,-2.231466770172119
1761838744913039400,4.322039306640625,-1.697442650794983,1.2981194257736206,-2.1101202964782715
1761838744923109400,4.332109375,-1.7743242979049683,1.0015332698822021,-2.2218306064605713
1761838744933179400,4.342179443359375,-1.5942726135253906,0.7582244873046875,-2.4053778648376465
1761838744943248400,4.352248291015625,-1.1005254983901978,0.592329740524292,-2.487866163253784
1761838744953318400,4.362318359375,-0.3548990488052368,0.4396377205848694,-2.4241139888763428
1761838744963388400,4.372388427734375,0.5703731179237366,0.24287644028663635,-2.123112678527832
1761838744973458200,4.382458251953125,1.4576462507247925,-0.05898407846689224,-1.6118098497390747
1761838744983527400,4.39252734375,2.0282206535339355,-0.08024022728204727,-1.0825378894805908
1761838744993597200,4.40259716796875,2.320333242416382,0.19559508562088013,-0.8945879936218262
1761838745003667500,4.41266748046875,2.304767608642578,-0.4302363097667694,-1.7302542924880981
1761838745013736400,4.422736328125,1.560431718826294,-1.5485576391220093,-2.6516306400299072
1761838745023806200,4.43280615234375,-0.017416618764400482,-2.434321165084839,-3.045489549636841
1761838745033876500,4.44287646484375,-1.4147928953170776,-3.1016693115234375,-2.807347536087036
1761838745043946200,4.4529462890625,-2.203188896179199,-3.6503779888153076,-1.6905970573425293
1761838745054015500,4.463015380859375,-2.507366895675659,-3.6481447219848633,-0.38924261927604675
1761838745064085500,4.47308544921875,-2.194462776184082,-2.9202511310577393,0.21547459065914154
1761838745074155300,4.4831552734375,-1.1342869997024536,-1.8544297218322754,0.050449151545763016
1761838745084225500,4.4932255859375,0.3190722167491913,-0.8319414854049683,-0.5392776727676392
1761838745094294300,4.503294189453125,1.6462225914001465,-0.4433591067790985,-1.2449655532836914
1761838745104364500,4.513364501953125,2.4648051261901855,-0.8699398636817932,-1.9606311321258545
1761838745114434800,4.523434814453125,2.756762742996216,-1.6371313333511353,-2.57610821723938
1761838745124503800,4.53350390625,2.7095718383789062,-2.0796375274658203,-2.9099268913269043
1761838745134573800,4.54357373046875,2.308591604232788,-1.9910290241241455,-2.8791184425354004
1761838745144643800,4.553643798828125,1.6018433570861816,-1.2754558324813843,-2.7520902156829834
1761838745154713900,4.5637138671875,1.0159335136413574,-0.16758809983730316,-2.488391399383545
1761838745164782800,4.573782958984375,0.6315141916275024,0.5007616281509399,-2.115277051925659
1761838745174852900,4.583852783203125,0.1795261800289154,0.5142545104026794,-1.6499152183532715
1761838745184922600,4.593922607421875,-0.13204999268054962,0.2881198227405548,-1.1374454498291016
1761838745194993000,4.603992919921875,-0.28938981890678406,0.1455426961183548,-0.6140426993370056
1761838745205061600,4.6140615234375,-0.3544534146785736,-0.13190069794654846,-0.026650110259652138
1761838745215131600,4.624131591796875,-0.38913071155548096,-0.5034942626953125,0.45837438106536865
1761838745225202000,4.634201904296875,-0.3933522701263428,-0.8738468885421753,0.7798474431037903
1761838745235270700,4.644270751953125,-0.3808481991291046,-1.1559052467346191,0.9076141715049744
1761838745245341000,4.6543408203125,-0.4449501931667328,-1.2969053983688354,0.8798571825027466
1761838745255410700,4.66441064453125,-0.5477316379547119,-1.263741135597229,0.7977849245071411
1761838745265480700,4.674480712890625,-0.6199267506599426,-1.0828176736831665,0.827617347240448
1761838745275549700,4.6845498046875,-0.6178768873214722,-0.9739738702774048,0.997373640537262
1761838745285619700,4.69461962890625,-0.559476375579834,-1.0181108713150024,1.2561675310134888
1761838745295689700,4.704689697265625,-0.48530974984169006,-1.1943953037261963,1.576996088027954
1761838745305758700,4.7147587890625,-0.4044368863105774,-1.3714250326156616,1.9918313026428223
1761838745315828700,4.724828857421875,-0.34616902470588684,-1.4468557834625244,2.464898109436035
1761838745325898800,4.734898681640625,-0.2835523188114166,-1.2687503099441528,3.017932176589966
1761838745335968800,4.74496875,-0.22303728759288788,-0.900173544883728,3.541733980178833
1761838745346037800,4.755037841796875,-0.1776689738035202,-0.568727433681488,3.8386027812957764
1761838745356107800,4.765107666015625,-0.16601231694221497,-0.36928805708885193,3.8452839851379395
1761838745366177800,4.775177734375,-0.17922939360141754,-0.28321489691734314,3.6204426288604736
1761838745376247600,4.78524755859375,-0.2315269559621811,-0.27365946769714355,3.1934814453125
1761838745386316800,4.79531689453125,-0.3282703757286072,-0.24013179540634155,2.7095859050750732
1761838745396386800,4.80538671875,-0.4379500150680542,-0.10377208143472672,2.2764739990234375
1761838745406456800,4.815456787109375,-0.5286588072776794,0.12991002202033997,1.8510924577713013
1761838745416525800,4.82552587890625,-0.6392379999160767,0.37757760286331177,1.3519861698150635
1761838745426595600,4.835595703125,-0.7954635620117188,0.6220335960388184,0.8047959208488464
1761838745436665900,4.845665771484375,-0.9497535228729248,0.9064202904701233,0.30636027455329895
1761838745446736000,4.85573583984375,-1.0573352575302124,1.2205477952957153,-0.0688977986574173
1761838745456804900,4.865804931640625,-1.1033589839935303,1.4954869747161865,-0.3614247441291809
1761838745466875000,4.875875,-1.1072635650634766,1.6316373348236084,-0.6238369345664978
1761838745476944600,4.885944580078125,-1.0778838396072388,1.6365103721618652,-0.8537731766700745
1761838745487014700,4.8960146484375,-1.0074968338012695,1.466792106628418,-1.0704838037490845
1761838745497083600,4.906083740234375,-0.9201297163963318,1.1596100330352783,-1.2555348873138428
1761838745507153700,4.916153564453125,-0.8097344636917114,0.8053727149963379,-1.3709807395935059
1761838745517224000,4.926223876953125,-0.690807044506073,0.5109690427780151,-1.4192646741867065
1761838745527292700,4.936292724609375,-0.5708329677581787,0.29634004831314087,-1.413976788520813
1761838745537362700,4.94636279296875,-0.436980664730072,0.16004294157028198,-1.3558911085128784
1761838745547432700,4.9564326171875,-0.3364267945289612,0.07661668211221695,-1.2904431819915771
1761838745557502700,4.966502685546875,-0.15961581468582153,-0.02410326898097992,-1.195800542831421
1761838745567571700,4.97657177734375,0.07988230139017105,-0.16468533873558044,-1.0380772352218628
1761838745577641700,4.986641845703125,0.2798475921154022,-0.3174695670604706,-0.8444917798042297
1761838745587711700,4.996711669921875,0.3660237789154053,-0.48146966099739075,-0.6480700969696045
1761838745597781800,5.00678173828125,0.35079848766326904,-0.6181265711784363,-0.43058088421821594
1761838745607850800,5.016850830078125,0.28921619057655334,-0.6950845718383789,-0.19061455130577087
1761838745617920500,5.02692041015625,0.1920105367898941,-0.7043659090995789,0.008646620437502861
1761838745627990800,5.03699072265625,0.06000598520040512,-0.6392818689346313,0.11155994236469269
1761838745638059800,5.047059814453125,-0.07476887106895447,-0.49165377020835876,0.10527648031711578
1761838745648129800,5.0571298828125,-0.1944078952074051,-0.3004039525985718,-0.011893651448190212
1761838745658199800,5.06719970703125,-0.28816714882850647,-0.1094084307551384,-0.2143080085515976
1761838745668269600,5.07726953125,-0.35264092683792114,0.02263520658016205,-0.4708889424800873
1761838745678338800,5.0873388671875,-0.36857035756111145,0.09458316117525101,-0.7333676815032959
1761838745688408800,5.097408935546875,-0.34869179129600525,0.06990274041891098,-0.9882900714874268
1761838745698478600,5.107478515625,-0.31533703207969666,-0.03726419061422348,-1.2540279626846313
1761838745708547800,5.1175478515625,-0.2909910976886749,-0.1673327535390854,-1.4842597246170044
1761838745718617600,5.12761767578125,-0.29393336176872253,-0.27279818058013916,-1.6519440412521362
1761838745728687900,5.13768798828125,-0.32594287395477295,-0.3165800869464874,-1.7348582744598389
1761838745738758000,5.1477578125,-0.39156875014305115,-0.279366672039032,-1.7291524410247803
1761838745748826600,5.15782666015625,-0.4790436923503876,-0.18033194541931152,-1.6618131399154663
1761838745758897000,5.16789697265625,-0.5731089115142822,-0.07550700008869171,-1.5448458194732666
1761838745768966700,5.177966552734375,-0.65857994556427,-0.007230615243315697,-1.3917312622070312
1761838745779036700,5.18803662109375,-0.7348302602767944,0.02386418730020523,-1.2185195684432983
1761838745789105700,5.198105712890625,-0.7782326340675354,0.03901911526918411,-1.026847004890442
1761838745799175700,5.20817578125,-0.7909417748451233,0.058169376105070114,-0.853291928768158
1761838745809246000,5.218245849609375,-0.7804004549980164,0.11594002693891525,-0.7212941646575928
1761838745819314700,5.228314697265625,-0.7370074391365051,0.2124716192483902,-0.6555391550064087
1761838745829384700,5.238384765625,-0.680178165435791,0.34986090660095215,-0.6524790525436401
1761838745839454700,5.248454833984375,-0.6469296813011169,0.5287707448005676,-0.6955037117004395
1761838745849524700,5.258524658203125,-0.6590624451637268,0.8201742768287659,-0.7435845136642456
1761838745859594000,5.268593994140625,-0.6872666478157043,1.235923409461975,-0.7388228178024292
1761838745869663700,5.278663818359375,-0.6823160648345947,1.6747713088989258,-0.6695501804351807
1761838745879733800,5.288733642578125,-0.6394394636154175,2.057070016860962,-0.5401570200920105
1761838745889803500,5.298803466796875,-0.5693472623825073,2.3086230754852295,-0.3933468759059906
1761838745899872800,5.308872802734375,-0.45538607239723206,2.470405340194702,-0.24468258023262024
1761838745909942800,5.31894287109375,-0.23009489476680756,2.555513620376587,-0.07771112769842148
1761838745920012800,5.3290126953125,0.08309870958328247,2.5329508781433105,0.02643498219549656
1761838745930081800,5.339081787109375,0.39489421248435974,2.474886894226074,0.06361628323793411
1761838745940151800,5.34915185546875,0.6165525913238525,2.1919105052948,-0.01213760394603014
1761838745950221800,5.359221923828125,0.5038525462150574,1.167955756187439,-0.37550216913223267
1761838745960291800,5.369291748046875,0.003981990739703178,-0.22179646790027618,-0.8761921525001526
1761838745970360800,5.37936083984375,-0.45795172452926636,-1.1261005401611328,-1.2744320631027222
1761838745980430800,5.389430908203125,-0.5447393655776978,-1.4668877124786377,-1.6206914186477661
1761838745990500600,5.39950048828125,-0.30120354890823364,-1.2253291606903076,-1.851012945175171
1761838746000571000,5.40957080078125,0.2324974089860916,-0.0523982048034668,-1.6958814859390259
1761838746010639600,5.4196396484375,1.0356512069702148,1.3567960262298584,-1.0989990234375
1761838746020709600,5.429709716796875,1.7485525608062744,2.3176825046539307,-0.19411210715770721
1761838746030780000,5.43977978515625,1.830233097076416,2.5850133895874023,0.7526922821998596
1761838746040849700,5.449849609375,1.417193055152893,2.218768835067749,1.7045891284942627
1761838746050919000,5.4599189453125,0.9678701758384705,1.5951144695281982,2.702895402908325
1761838746060988700,5.46998876953125,0.7223080992698669,1.0418416261672974,3.67411208152771
1761838746071058700,5.48005859375,0.5910516977310181,0.5662287473678589,4.381563186645508
1761838746081127700,5.490127685546875,0.484363317489624,0.11343039572238922,4.647770881652832
1761838746091197700,5.50019775390625,0.47188758850097656,-0.33183979988098145,4.564095497131348
1761838746101271600,5.510271484375,0.6921767592430115,-0.5006831288337708,4.200392246246338
1761838746111341600,5.520341552734375,1.029713749885559,-0.31168699264526367,3.5488405227661133
1761838746121410600,5.53041064453125,1.3417507410049438,0.0752686932682991,2.7291929721832275
1761838746131480600,5.54048046875,1.5547438859939575,0.4902816116809845,1.901888370513916
1761838746141550600,5.550550537109375,1.5178172588348389,0.8902958631515503,1.1761304140090942
1761838746151620600,5.56062060546875,1.1354681253433228,1.0960571765899658,0.627067506313324
1761838746161689600,5.570689697265625,0.3900662958621979,1.027300477027893,0.2931414544582367
1761838746171759600,5.580759521484375,-0.47531792521476746,0.85169917345047,0.033316031098365784
1761838746181829400,5.590829345703125,-0.9806293249130249,0.7712439894676208,-0.22442255914211273
1761838746191898600,5.600898681640625,-0.8229100108146667,0.7854841351509094,-0.3872399926185608
1761838746201968400,5.610968505859375,-0.19711510837078094,0.6709958910942078,-0.37894371151924133
1761838746212038400,5.621038330078125,0.2649402320384979,0.4237642288208008,-0.28677135705947876
1761838746222108700,5.631108642578125,0.3335725665092468,0.4611254334449768,-0.1374972015619278
1761838746232177400,5.641177490234375,0.2167147696018219,1.029790997505188,0.16988018155097961
1761838746242247700,5.65124755859375,0.08608165383338928,1.6644225120544434,0.7334330677986145
1761838746252317400,5.6613173828125,-0.06454450637102127,1.8141618967056274,1.4806945323944092
1761838746262387500,5.671387451171875,-0.24263088405132294,1.305383563041687,2.269596576690674
1761838746272456700,5.681456787109375,-0.4452041983604431,0.33939528465270996,2.923245668411255
1761838746282526500,5.6915263671875,-0.5792357325553894,-0.5800126194953918,3.3418331146240234
1761838746292596500,5.701596435546875,-0.4841114282608032,-1.1951686143875122,3.4831457138061523
1761838746302666500,5.71166650390625,-0.25857868790626526,-1.3326609134674072,3.4110984802246094
1761838746312735500,5.721735595703125,-0.048206739127635956,-1.0915501117706299,3.2462241649627686
1761838746322805800,5.7318056640625,0.13908113539218903,-0.5911499261856079,3.0816776752471924
1761838746332875500,5.74187548828125,0.3214350640773773,-0.074013352394104,2.9097633361816406
1761838746342944500,5.751944580078125,0.45340240001678467,0.22054319083690643,2.6986982822418213
1761838746353014500,5.7620146484375,0.5602132678031921,0.22625774145126343,2.4571008682250977
1761838746363084500,5.77208447265625,0.6070183515548706,0.06677194684743881,2.2118561267852783
1761838746373154600,5.782154541015625,0.6020169258117676,-0.041573911905288696,1.963003158569336
1761838746383223600,5.7922236328125,0.5594841241836548,-0.11498261988162994,1.7645353078842163
1761838746393293600,5.80229345703125,0.4927824139595032,-0.164162278175354,1.5706461668014526
1761838746403363600,5.812363525390625,0.4366227388381958,-0.14032164216041565,1.3021093606948853
1761838746413433600,5.82243359375,0.4299587905406952,-0.017367038875818253,0.9086180925369263
1761838746423502300,5.83250244140625,0.4892388880252838,0.16590717434883118,0.3765411078929901
1761838746433572600,5.842572509765625,0.6077410578727722,0.29986321926116943,-0.23536139726638794
1761838746443642600,5.852642578125,0.6779824495315552,0.25660762190818787,-0.8449443578720093
1761838746453711600,5.862711669921875,0.6438637971878052,-0.0044142110273242,-1.3770756721496582
1761838746463781600,5.87278173828125,0.5344417095184326,-0.2897684574127197,-1.7538315057754517
1761838746473851400,5.882851318359375,0.41573554277420044,-0.4812408983707428,-1.9494661092758179
1761838746483921400,5.89292138671875,0.2718452215194702,-0.5680413246154785,-2.0759100914001465
1761838746493990700,5.90299072265625,0.05687355250120163,-0.4828595221042633,-2.1969687938690186
1761838746504060400,5.913060302734375,-0.23565471172332764,-0.17818401753902435,-2.316527843475342
1761838746514130700,5.923130615234375,-0.6152724027633667,0.2555667459964752,-2.4087657928466797
1761838746524200400,5.933200439453125,-1.015648365020752,0.6047734618186951,-2.464247941970825
1761838746534269700,5.943269775390625,-1.2934043407440186,0.8030848503112793,-2.4652657508850098
1761838746544339700,5.953339599609375,-1.3924517631530762,0.896201491355896,-2.3303987979888916
1761838746554409500,5.963409423828125,-1.2826658487319946,0.9314871430397034,-2.0273985862731934
1761838746564478700,5.973478759765625,-0.9979143142700195,0.9546433091163635,-1.585145115852356
1761838746574548500,5.983548583984375,-0.6441414952278137,0.9907398223876953,-1.0993332862854004
1761838746584618500,5.993618408203125,-0.29007527232170105,1.0025938749313354,-0.682037889957428
1761838746594688800,6.003688720703125,-0.01705038733780384,0.9982901811599731,-0.36110949516296387
1761838746604757500,6.013757568359375,0.24699243903160095,0.18366140127182007,-0.28240910172462463
1761838746614827500,6.02382763671875,0.42929625511169434,-1.2516244649887085,-0.29760903120040894
1761838746624897500,6.0338974609375,0.3472442626953125,-2.9362282752990723,-0.4397672414779663
1761838746634967600,6.043967529296875,0.11231544613838196,-4.0353546142578125,-0.5565980672836304
1761838746645036500,6.05403662109375,-0.06409899890422821,-4.498360633850098,-0.6924105286598206
1761838746655106600,6.0641064453125,-0.3090973496437073,-4.40259313583374,-1.0146386623382568
1761838746665176600,6.074176513671875,-0.6401304006576538,-3.6225335597991943,-1.6546984910964966
1761838746675246600,6.08424658203125,-0.8435284495353699,-2.3520114421844482,-2.4323318004608154
1761838746685315600,6.094315673828125,-0.852865993976593,-1.3106248378753662,-3.150397300720215
1761838746695385300,6.10438525390625,-0.78914874792099,-0.8041772246360779,-3.81077241897583
1761838746705455600,6.11445556640625,-0.7778218388557434,-0.5476484894752502,-4.38173770904541
1761838746715524400,6.1245244140625,-0.6870726346969604,-0.4470730125904083,-4.750945091247559
1761838746725594600,6.1345947265625,-0.41593700647354126,-0.4685964286327362,-4.848793983459473
1761838746735664600,6.14466455078125,-0.008351561613380909,-0.6267123222351074,-4.739281177520752
1761838746745734400,6.154734375,0.3165985643863678,-1.0502302646636963,-4.593836307525635
1761838746755803600,6.1648037109375,0.4723750948905945,-1.6659947633743286,-4.35494327545166
1761838746765873400,6.174873291015625,0.5201271772384644,-2.1013946533203125,-3.6976981163024902
1761838746775943400,6.184943359375,0.46591269969940186,-2.0962321758270264,-2.530458688735962
1761838746786013700,6.195013671875,0.31150609254837036,-1.8891127109527588,-1.1589959859848022
1761838746796082400,6.20508251953125,0.14143164455890656,-1.641244888305664,0.0727989673614502
1761838746806152700,6.215152587890625,0.039820872247219086,-1.400215744972229,0.9061231017112732
1761838746816222500,6.225222412109375,0.043467238545417786,-1.1971733570098877,1.2414321899414062
1761838746826292500,6.23529248046875,0.13760599493980408,-1.0086910724639893,1.1532543897628784
1761838746836361700,6.24536181640625,0.2661076784133911,-0.789145290851593,0.772075891494751
1761838746846431500,6.255431396484375,0.36968305706977844,-0.4857523441314697,0.2914312183856964
1761838746856501500,6.26550146484375,0.42981916666030884,-0.11039459705352783,-0.16662202775478363
1761838746866570500,6.275570556640625,0.458979994058609,0.28630322217941284,-0.5521015524864197
1761838746876640500,6.285640625,0.42224588990211487,0.6621134877204895,-0.8212348222732544
1761838746886710500,6.29571044921875,0.3760179281234741,1.006060242652893,-0.8846899271011353
1761838746896780500,6.305780517578125,0.33577609062194824,1.246248483657837,-0.7544935345649719
1761838746906849500,6.315849609375,0.2884144186973572,1.3174678087234497,-0.4593004882335663
1761838746916919600,6.32591943359375,0.2480810433626175,1.264604926109314,-0.03196181729435921
1761838746926989600,6.335989501953125,0.21074539422988892,1.0810539722442627,0.45764222741127014
1761838746937059600,6.3460595703125,0.18956097960472107,0.7535041570663452,0.9302005767822266
1761838746947128600,6.356128662109375,0.20217131078243256,0.3500288426876068,1.3428633213043213
1761838746957198600,6.366198486328125,0.2520696520805359,-0.09190084040164948,1.679559588432312
1761838746967268400,6.376268310546875,0.32946059107780457,-0.5572794675827026,1.9521151781082153
1761838746977338600,6.386338623046875,0.4157472550868988,-0.9477665424346924,2.190814733505249
1761838746987407400,6.396407470703125,0.48539212346076965,-1.2067986726760864,2.4026200771331787
1761838746997477600,6.4064775390625,0.5029394030570984,-1.2835887670516968,2.576955795288086
1761838747007547600,6.416547607421875,0.46042707562446594,-1.2038809061050415,2.6567189693450928
1761838747017616400,6.426616455078125,0.3710891604423523,-1.0169124603271484,2.6066818237304688
1761838747027686700,6.436686767578125,0.2581239938735962,-0.7693580985069275,2.4358272552490234
1761838747037756400,6.44675634765625,0.1078260987997055,-0.5030249357223511,2.149296283721924
1761838747047826400,6.456826416015625,-0.047257497906684875,-0.2347191870212555,1.7871782779693604
1761838747057895700,6.466895751953125,-0.1616915613412857,0.002656033728271723,1.3903993368148804
1761838747067965400,6.47696533203125,-0.2101464420557022,0.21083293855190277,1.01760733127594
1761838747078035700,6.48703564453125,-0.2187984734773636,0.376724511384964,0.6917847990989685
1761838747088105500,6.49710546875,-0.2065572589635849,0.5122184157371521,0.42623165249824524
1761838747098174500,6.507174560546875,-0.18357373774051666,0.6512531042098999,0.2417083978652954
1761838747108240600,6.51724072265625,-0.17351923882961273,0.7741420269012451,0.1289951652288437
1761838747118310400,6.527310302734375,-0.17621439695358276,0.8521890044212341,0.057855427265167236
1761838747128380400,6.53738037109375,-0.19489488005638123,0.864290177822113,0.018138106912374496
1761838747138449400,6.547449462890625,-0.2476874738931656,0.8320441842079163,0.016670724377036095
1761838747148519400,6.55751953125,-0.3158012926578522,0.7569403648376465,0.04024023562669754
1761838747158589700,6.567589599609375,-0.3813967704772949,0.6596466302871704,0.08927688002586365
1761838747168658400,6.577658447265625,-0.4320721924304962,0.5629525780677795,0.14602750539779663
1761838747178728700,6.587728759765625,-0.45515429973602295,0.49736252427101135,0.17136716842651367
1761838747188798500,6.597798583984375,-0.4322763979434967,0.44604554772377014,0.14848582446575165
1761838747198868500,6.607868408203125,-0.3656231164932251,0.4268789291381836,0.11111240833997726
1761838747208937700,6.617937744140625,-0.27289584279060364,0.39953678846359253,0.06314780563116074
1761838747219007500,6.628007568359375,-0.15642839670181274,0.3694067895412445,0.030939187854528427
1761838747229077500,6.638077392578125,-0.05507993325591087,0.32147282361984253,0.018520068377256393
1761838747239147500,6.6481474609375,0.022664865478873253,0.2494935542345047,0.02738296240568161
1761838747249216500,6.658216552734375,0.06620994210243225,0.17013268172740936,0.04963820055127144
1761838747259286500,6.66828662109375,0.06863244622945786,0.10123692452907562,0.07577816396951675
1761838747269356500,6.6783564453125,0.03753071650862694,0.046823225915431976,0.09634096175432205
1761838747279426600,6.688426513671875,-0.01744595170021057,-0.027702640742063522,0.10587766766548157
1761838747289495600,6.69849560546875,-0.10281623899936676,-0.10880815237760544,0.10477326065301895
1761838747299565600,6.708565673828125,-0.20743989944458008,-0.1205301359295845,0.1183449774980545
1761838747309635600,6.718635498046875,-0.2847541570663452,-0.07529741525650024,0.14168278872966766
1761838747319705600,6.72870556640625,-0.30877238512039185,-0.04615185782313347,0.16282948851585388
1761838747329774600,6.738774658203125,-0.2873573899269104,-0.07262954115867615,0.17576339840888977
1761838747339844400,6.74884423828125,-0.2364456057548523,-0.13106004893779755,0.1852431744337082
1761838747349914600,6.75891455078125,-0.1686343401670456,-0.20201385021209717,0.17831949889659882
1761838747359983400,6.7689833984375,-0.11778273433446884,-0.2626417577266693,0.15951792895793915
1761838747370053600,6.7790537109375,-0.08783309161663055,-0.26667457818984985,0.15306082367897034
1761838747380123600,6.78912353515625,-0.06977111101150513,-0.23733265697956085,0.16711017489433289
1761838747390193400,6.799193359375,-0.06520885229110718,-0.22572048008441925,0.18223612010478973
1761838747400262700,6.8092626953125,-0.07554019242525101,-0.25021010637283325,0.19181466102600098
1761838747410332400,6.81933251953125,-0.09591497480869293,-0.2688373327255249,0.19124740362167358
1761838747420402400,6.82940234375,-0.11389055103063583,-0.279986709356308,0.18134714663028717
1761838747430472700,6.83947265625,-0.11625064164400101,-0.2777264714241028,0.16772054135799408
1761838747440541400,6.84954150390625,-0.09941870719194412,-0.22110241651535034,0.1490456759929657
1761838747450611700,6.85961181640625,-0.08125142008066177,-0.14105018973350525,0.12370970100164413
1761838747460681500,6.869681396484375,-0.05568290501832962,-0.05244328826665878,0.09850099682807922
1761838747470751500,6.87975146484375,-0.030669430270791054,0.021792059764266014,0.07761568576097488
1761838747480820700,6.88982080078125,-0.020702200010418892,0.06273005157709122,0.06768234819173813
1761838747490890500,6.899890380859375,-0.03169839084148407,0.07291051745414734,0.08296196907758713
1761838747500960500,6.90996044921875,-0.05092164874076843,0.045138243585824966,0.10318661481142044
1761838747511029500,6.920029541015625,-0.08219435065984726,-0.007282090373337269,0.11636819690465927
1761838747521099500,6.930099609375,-0.11440078914165497,-0.08546781539916992,0.10983209311962128
1761838747531169500,6.94016943359375,-0.1611216813325882,-0.15565408766269684,0.0973205640912056
1761838747541239600,6.950239501953125,-0.2030336856842041,-0.20739786326885223,0.08108744025230408
1761838747551308500,6.96030859375,-0.23305203020572662,-0.2606147527694702,0.06509515643119812
1761838747561378600,6.970378662109375,-0.2634056508541107,-0.3230743408203125,0.037935685366392136
1761838747571448600,6.980448486328125,-0.2857876420021057,-0.36730384826660156,0.016204822808504105
1761838747581518600,6.9905185546875,-0.3067800998687744,-0.40664902329444885,-0.010202433913946152
1761838747591587600,7.000587646484375,-0.3278355598449707,-0.4260016977787018,-0.045956436544656754
1761838747601657600,7.01065771484375,-0.32292255759239197,-0.42547863721847534,-0.07590315490961075
1761838747611727400,7.020727294921875,-0.3082900941371918,-0.40964454412460327,-0.09935867786407471
1761838747621797600,7.030797607421875,-0.29709064960479736,-0.3902429938316345,-0.12001986056566238
1761838747631866400,7.040866455078125,-0.2904263436794281,-0.3624771535396576,-0.12450968474149704
1761838747641936600,7.0509365234375,-0.299942284822464,-0.3030887842178345,-0.10251624137163162
1761838747652006700,7.061006591796875,-0.32121720910072327,-0.20523065328598022,-0.06892738491296768
1761838747662075400,7.071075439453125,-0.3365127146244049,-0.07630576938390732,-0.018882673233747482
1761838747672145700,7.081145751953125,-0.3438931107521057,0.054468221962451935,0.0005253804847598076
1761838747682215400,7.09121533203125,-0.33818304538726807,0.14866630733013153,-0.0504479855298996
1761838747692285400,7.101285400390625,-0.3190671503543854,0.2003614604473114,-0.15099243819713593
1761838747702354400,7.1113544921875,-0.2795085906982422,0.1985301822423935,-0.26798635721206665
1761838747712424400,7.121424560546875,-0.25846216082572937,0.16278071701526642,-0.3892829716205597
1761838747722494700,7.13149462890625,-0.18060533702373505,0.02480553835630417,-0.4466589391231537
1761838747732564500,7.141564453125,-0.018917644396424294,-0.124000184237957,-0.4032962918281555
1761838747742633500,7.151633544921875,0.20495133101940155,-0.28695249557495117,-0.2797022759914398
1761838747752703500,7.161703369140625,0.4487687945365906,-0.43988266587257385,-0.09897670894861221
1761838747762773500,7.1717734375,0.6313690543174744,-0.5201811194419861,0.08078592270612717
1761838747772843500,7.181843505859375,0.732559859752655,-0.4885510206222534,0.20559629797935486
1761838747782912500,7.19191259765625,0.7846187949180603,-0.32976508140563965,0.25758200883865356
1761838747792982500,7.201982421875,0.7872697114944458,-0.048096127808094025,0.2304060459136963
1761838747803052500,7.212052490234375,0.7490618824958801,0.3685952126979828,0.12152568995952606
1761838747813122600,7.22212255859375,0.7104966640472412,0.9993302822113037,-0.038799263536930084
1761838747823191600,7.232191650390625,0.7166815400123596,1.7310564517974854,-0.20413997769355774
1761838747833261600,7.242261474609375,0.7926825881004333,2.325362205505371,-0.3431284725666046
1761838747843331600,7.25233154296875,0.9074736833572388,2.689396381378174,-0.4803435504436493
1761838747853400600,7.262400634765625,1.0455039739608765,2.867216110229492,-0.598685622215271
1761838747863470600,7.272470703125,1.1461668014526367,2.920996904373169,-0.6229743361473083
1761838747873540600,7.28254052734375,1.2160670757293701,2.797269582748413,-0.4978329837322235
1761838747883610400,7.2926103515625,1.2416117191314697,2.5028653144836426,-0.22845587134361267
1761838747893679600,7.3026796875,1.1268608570098877,2.066725492477417,0.03639577329158783
1761838747903749400,7.312749267578125,0.8940693736076355,1.2845382690429688,0.07126887142658234
1761838747913819600,7.322819580078125,0.6648311614990234,0.23910404741764069,-0.18441137671470642
1761838747923889700,7.3328896484375,0.6728267073631287,-0.8302218914031982,-0.44247740507125854
1761838747933958700,7.342958740234375,0.9822450280189514,-1.83309805393219,-0.531814455986023
1761838747944028700,7.353028564453125,1.4356541633605957,-2.408461332321167,-0.229281947016716
1761838747954098400,7.363098388671875,1.7614412307739258,-1.8638834953308105,0.7307740449905396
1761838747964167700,7.373167724609375,1.7489128112792969,-0.7234037518501282,1.759116768836975
1761838747974237400,7.383237548828125,1.5385550260543823,0.044184762984514236,2.1605148315429688
1761838747984307500,7.393307373046875,1.4199228286743164,0.394471675157547,1.9293030500411987
1761838747994377700,7.403377685546875,1.5239925384521484,0.46763643622398376,1.4032090902328491
1761838748004446500,7.413446533203125,1.8724669218063354,0.27727439999580383,1.0363987684249878
1761838748014516500,7.4235166015625,2.303483247756958,-0.03199318051338196,1.0156258344650269
1761838748024586500,7.43358642578125,2.683323860168457,-0.3497103452682495,1.265221118927002
1761838748034656500,7.443656494140625,2.9605491161346436,-0.6448895335197449,1.4752273559570312
1761838748044725800,7.453725830078125,3.057339668273926,-0.7955517172813416,1.573357105255127
1761838748054795500,7.46379541015625,3.010571241378784,-0.6923611760139465,1.5236846208572388
1761838748064865500,7.473865478515625,2.8610923290252686,-0.43099266290664673,1.35276198387146
1761838748074935600,7.483935546875,2.610957622528076,-0.20014719665050507,1.0961560010910034
1761838748085004500,7.494004638671875,2.3305814266204834,-0.1824626922607422,0.7695471048355103
1761838748095074600,7.504074462890625,1.9870609045028687,-0.2735270857810974,0.36464303731918335
1761838748105144300,7.514144287109375,1.5872924327850342,-0.3714630901813507,0.011188775300979614
1761838748115214000,7.524214111328125,1.1737974882125854,-0.5509793162345886,-0.13401289284229279
1761838748125283300,7.534283447265625,0.7510818243026733,-0.7881207466125488,-0.12711863219738007
1761838748135353000,7.54435302734375,0.2831018269062042,-0.9461564421653748,-0.12504589557647705
1761838748145423000,7.554423095703125,-0.1866575926542282,-0.8334704637527466,-0.16483785212039948
1761838748155493400,7.564493408203125,-0.659051239490509,-0.33289122581481934,-0.2970312833786011
1761838748165562000,7.57456201171875,-1.2749781608581543,0.5380958914756775,-0.50760817527771
1761838748175632100,7.584632080078125,-2.051142692565918,1.6792749166488647,-0.6435478925704956
1761838748185702100,7.5947021484375,-2.9081640243530273,2.6938347816467285,-0.6517437696456909
1761838748195772200,7.604772216796875,-3.818544864654541,3.206928014755249,-0.5476309657096863
1761838748205841200,7.614841064453125,-4.5611796379089355,3.1081886291503906,-0.35476407408714294
1761838748215911200,7.6249111328125,-4.761105537414551,2.285984992980957,0.002717632334679365
1761838748225981200,7.634981201171875,-4.212764739990234,1.0419753789901733,0.6015282869338989
1761838748236050200,7.64505029296875,-3.0483784675598145,-0.30806371569633484,1.3494820594787598
1761838748246120200,7.6551201171875,-1.7411246299743652,-1.4170836210250854,1.99595046043396
1761838748256190000,7.66518994140625,-0.5935474634170532,-1.9515758752822876,2.517042398452759
1761838748266260200,7.67526025390625,0.22686833143234253,-2.045443534851074,2.8820292949676514
1761838748276329200,7.6853291015625,0.506439208984375,-1.8562475442886353,3.1147732734680176
1761838748286399200,7.695399169921875,0.24084027111530304,-1.4811981916427612,3.2475433349609375
1761838748296469200,7.70546923828125,-0.40518057346343994,-0.8474317193031311,3.232560396194458
1761838748306539000,7.7155390625,-1.1173160076141357,-0.32214346528053284,3.039499282836914
1761838748316608300,7.725608154296875,-1.5684165954589844,0.0160612091422081,2.7272531986236572
1761838748326678300,7.73567822265625,-1.7248260974884033,0.2586311995983124,2.3628225326538086
1761838748336748000,7.745748046875,-1.675233244895935,0.5396426320075989,1.9952218532562256
1761838748346818300,7.755818359375,-1.4416453838348389,0.8641369342803955,1.6634726524353027
1761838748356887000,7.765886962890625,-1.0706068277359009,1.0771677494049072,1.3488961458206177
1761838748366957300,7.775957275390625,-0.6319630146026611,1.1631234884262085,1.039467215538025
1761838748377027300,7.78602734375,-0.16616174578666687,1.296976089477539,0.6552069187164307
1761838748387097000,7.79609716796875,0.2777681052684784,1.3996747732162476,0.2596234381198883
1761838748397166300,7.806166259765625,0.6457117795944214,1.3044939041137695,-0.11660557240247726
1761838748407236000,7.816236083984375,0.8571944236755371,0.9915391802787781,-0.40408825874328613
1761838748417306000,7.82630615234375,0.864672064781189,0.5089570879936218,-0.5854407548904419
1761838748427375000,7.836375,0.7313203811645508,-0.05768486484885216,-0.6926640272140503
1761838748437445000,7.846445068359375,0.5621747374534607,-0.5995116233825684,-0.8124095797538757
1761838748447515100,7.85651513671875,0.43983396887779236,-1.0582579374313354,-1.0338929891586304
1761838748457585200,7.866585205078125,0.4335177540779114,-1.3432033061981201,-1.3412011861801147
1761838748467654100,7.876654052734375,0.5225692987442017,-1.4249866008758545,-1.680026650428772
1761838748477724200,7.88672412109375,0.6570631861686707,-1.263038992881775,-1.962147831916809
1761838748487794200,7.896794189453125,0.7978906035423279,-0.9563653469085693,-2.161355495452881
1761838748497864200,7.9068642578125,0.8959777355194092,-0.6646139025688171,-2.297691822052002
1761838748507933200,7.91693310546875,0.8805358409881592,-0.4438708424568176,-2.384003162384033
1761838748518003200,7.927003173828125,0.7109177708625793,-0.21693569421768188,-2.467627763748169
1761838748528073000,7.937072998046875,0.375062495470047,0.037115588784217834,-2.5853819847106934
1761838748538143200,7.947143310546875,0.007289534900337458,0.29825422167778015,-2.692892551422119
1761838748548212000,7.9572119140625,-0.21165065467357635,0.5494625568389893,-2.7044546604156494
1761838748558282200,7.9672822265625,-0.22856679558753967,0.733212947845459,-2.598740339279175
1761838748568352300,7.977352294921875,-0.07970570772886276,0.9825891256332397,-2.221310615539551
1761838748578422000,7.987422119140625,0.20548848807811737,1.1834090948104858,-1.5272867679595947
1761838748588491300,7.9974912109375,0.5230345726013184,1.1969993114471436,-0.6632617712020874
1761838748598561300,8.007561279296874,0.8828734159469604,0.8461308479309082,0.20718257129192352
1761838748608631000,8.017631103515624,1.338133454322815,-0.6533994674682617,0.5868752598762512
1761838748618701300,8.027701416015624,1.5764472484588623,-2.5869359970092773,0.49679994583129883
1761838748628770000,8.03777001953125,1.389053225517273,-4.146143436431885,0.27952608466148376
1761838748638840300,8.04784033203125,0.8829988837242126,-4.6277852058410645,0.2661580741405487
1761838748648910300,8.057910400390625,0.24519142508506775,-3.779420852661133,0.4081365764141083
1761838748658979000,8.06797900390625,-0.2960401177406311,-2.148434638977051,0.2929511070251465
1761838748669049300,8.07804931640625,-0.5318485498428345,-0.22622287273406982,-0.42315971851348877
1761838748679119000,8.088119140625,-0.3291007876396179,1.4004769325256348,-1.6507447957992554
1761838748689189000,8.098189208984374,0.2637062072753906,2.349637031555176,-2.8890633583068848
1761838748699258000,8.108258056640626,0.9690393805503845,2.548708200454712,-3.8175060749053955
1761838748709328100,8.118328125,1.6112254858016968,2.1049976348876953,-4.294015407562256
1761838748719398100,8.128398193359375,1.9833012819290161,1.0781643390655518,-4.487548351287842
1761838748729468200,8.13846826171875,2.0923500061035156,-0.058015547692775726,-4.398013591766357
1761838748739537200,8.148537109375,2.0546274185180664,-0.7818161249160767,-4.126173973083496
1761838748749607200,8.158607177734375,1.9062632322311401,-0.8219234347343445,-4.009646415710449
1761838748759677200,8.16867724609375,1.725178599357605,0.32087042927742004,-4.2241387367248535
1761838748769747200,8.178747314453124,1.29732346534729,1.564605712890625,-4.026456356048584
1761838748779816200,8.188816162109376,0.6888667345046997,1.665852427482605,-2.9072225093841553
1761838748789886200,8.19888623046875,0.14861056208610535,1.205067753791809,-1.6248561143875122
1761838748799956000,8.2089560546875,-0.39198529720306396,0.8773325085639954,-0.6845030784606934
1761838748810026200,8.219026123046875,-0.8079735040664673,0.7362769842147827,-0.07234090566635132
1761838748820095000,8.229094970703125,-1.03841233253479,0.6438432335853577,0.36455732583999634
1761838748830165200,8.239165283203125,-1.1777809858322144,0.40506914258003235,0.7142108082771301
1761838748840235300,8.2492353515625,-1.307450294494629,0.0976729616522789,0.8834320902824402
1761838748850304000,8.259303955078124,-1.390403389930725,-0.16537798941135406,0.9275236129760742
1761838748860374300,8.269374267578126,-1.3865984678268433,-0.3048783540725708,0.8642780184745789
1761838748870444000,8.279444091796876,-1.3366563320159912,-0.31416094303131104,0.7010046243667603
1761838748880514000,8.28951416015625,-1.2457165718078613,-0.19676798582077026,0.5279673337936401
1761838748890583300,8.299583251953125,-1.1154998540878296,0.017470410093665123,0.418670117855072
1761838748900653000,8.309653076171875,-0.9794211387634277,0.23473694920539856,0.3824812173843384
1761838748910723300,8.319723388671875,-0.8540710806846619,0.42304471135139465,0.40166398882865906
1761838748920793000,8.32979296875,-0.7410116791725159,0.590434730052948,0.5016621947288513
1761838748930862000,8.339862060546874,-0.6419169306755066,0.6968928575515747,0.6414788961410522
1761838748940932400,8.349932373046874,-0.5402550101280212,0.7064796686172485,0.8186760544776917
1761838748951002000,8.360002197265626,-0.4300884008407593,0.6028239130973816,1.0060747861862183
1761838748961072000,8.370072021484376,-0.31636157631874084,0.4297807812690735,1.1809903383255005
1761838748971141000,8.38014111328125,-0.2329156994819641,0.20622028410434723,1.3290451765060425
1761838748981211100,8.390211181640625,-0.18291564285755157,-0.03958015888929367,1.435695767402649
1761838748991281200,8.40028125,-0.16909366846084595,-0.28126993775367737,1.5112069845199585
1761838749001351200,8.41035107421875,-0.17126575112342834,-0.484869122505188,1.5518784523010254
1761838749011420200,8.420420166015624,-0.18224561214447021,-0.6717038750648499,1.5452207326889038
1761838749021490200,8.430490234375,-0.1884790062904358,-0.7809075713157654,1.5373079776763916
1761838749031560200,8.440560302734376,-0.17462313175201416,-0.8472237586975098,1.4926568269729614
1761838749041630200,8.450630126953126,-0.14924241602420807,-0.9216079711914062,1.3965822458267212
1761838749051699200,8.46069921875,-0.1363031417131424,-1.0194623470306396,1.2677104473114014
1761838749061769200,8.470769287109375,-0.1513286978006363,-1.158043384552002,1.0781607627868652
1761838749071839000,8.4808388671875,-0.24636463820934296,-1.3141250610351562,0.8550854325294495
1761838749081908200,8.490908203125,-0.4083450138568878,-1.445665955543518,0.5666109919548035
1761838749091978000,8.50097802734375,-0.5547059774398804,-1.3657033443450928,0.37769457697868347
1761838749102048300,8.51104833984375,-0.765601396560669,-1.1431163549423218,0.25447675585746765
1761838749112119300,8.521119384765624,-1.0089168548583984,-0.7792733311653137,0.12929847836494446
1761838749122188000,8.53118798828125,-1.2288827896118164,-0.2980358600616455,0.05564821884036064
1761838749132258300,8.54125830078125,-1.393298864364624,0.06292280554771423,0.06487780064344406
1761838749142328000,8.551328125,-1.5590490102767944,-0.0796268880367279,0.27913549542427063
1761838749152398000,8.561398193359375,-1.8467170000076294,-0.1032375618815422,0.6067901253700256
1761838749162467300,8.57146728515625,-2.015395402908325,-0.30321964621543884,0.8091198205947876
1761838749172537000,8.581537109375,-2.038961410522461,-0.5586444139480591,0.9402381181716919
1761838749182607000,8.591607177734375,-1.929343342781067,-0.5525849461555481,1.1244779825210571
1761838749192677000,8.601677001953124,-1.6423957347869873,-0.3330535888671875,1.2388575077056885
1761838749202746000,8.61174609375,-1.2803055047988892,-0.27121660113334656,1.3231372833251953
1761838749212816100,8.621816162109376,-0.8624187707901001,-0.3049755394458771,1.3671503067016602
1761838749222886100,8.63188623046875,-0.4442089796066284,-0.29850298166275024,1.3662588596343994
1761838749232956200,8.6419560546875,-0.07110098004341125,-0.3307054936885834,1.2878308296203613
1761838749243025200,8.652025146484375,0.17312180995941162,-0.30467095971107483,1.084548830986023
1761838749253097000,8.662096923828125,0.3229690194129944,-0.25910142064094543,0.8124997019767761
1761838749263167200,8.672167236328125,0.36647629737854004,-0.061846163123846054,0.5778712034225464
1761838749273237200,8.6822373046875,0.2837928533554077,0.22826683521270752,0.3516101539134979
1761838749283306200,8.69230615234375,0.13367551565170288,0.4503038823604584,0.17325453460216522
1761838749293376300,8.702376220703124,-0.005257014185190201,0.5663475394248962,0.05008631944656372
1761838749303446000,8.712446044921874,-0.11193925142288208,0.6448788046836853,0.004001648630946875
1761838749313516000,8.72251611328125,-0.2008802443742752,0.7383891344070435,0.016072221100330353
1761838749323585000,8.7325849609375,-0.2993367910385132,0.785279393196106,0.051345258951187134
1761838749333655000,8.742655029296875,-0.4056885242462158,0.7854224443435669,0.1039825901389122
1761838749343725300,8.752725341796875,-0.5092487335205078,0.7946957945823669,0.16640709340572357
1761838749353795000,8.762795166015625,-0.5756369233131409,0.7533133029937744,0.24386398494243622
1761838749363864000,8.772864013671875,-0.5916401147842407,0.6505872011184692,0.3091963827610016
1761838749373934000,8.78293408203125,-0.6013121008872986,0.6127435564994812,0.3992648124694824
1761838749384004000,8.793004150390624,-0.5558272004127502,0.467169851064682,0.4562881290912628
1761838749394074000,8.80307421875,-0.481349378824234,0.2545608878135681,0.46945545077323914
1761838749404143000,8.81314306640625,-0.4559342861175537,0.1735944002866745,0.4819835126399994
1761838749414213000,8.823213134765625,-0.45695358514785767,0.12137093394994736,0.4538780152797699
1761838749424283100,8.833283203125,-0.4622415602207184,0.08221793919801712,0.4101443886756897
1761838749434353200,8.843353271484375,-0.4875963032245636,0.09107698500156403,0.3705174922943115
1761838749444422100,8.853422119140625,-0.5256837606430054,0.08380655199289322,0.30447641015052795
1761838749454492200,8.8634921875,-0.5709730982780457,0.18636836111545563,0.2659390866756439
1761838749464562200,8.873562255859374,-0.6025259494781494,0.41014954447746277,0.27166834473609924
1761838749474632000,8.8836318359375,-0.5478392839431763,0.4889231324195862,0.22917091846466064
1761838749484701200,8.893701171875,-0.44598427414894104,0.5183204412460327,0.1671442985534668
1761838749494771200,8.903771240234375,-0.35648244619369507,0.5634890794754028,0.10228791832923889
1761838749504841200,8.91384130859375,-0.2900530993938446,0.5560282468795776,0.0018609114922583103
1761838749514910200,8.92391015625,-0.24027186632156372,0.5190222263336182,-0.08249318599700928
1761838749524980000,8.93397998046875,-0.21017147600650787,0.47119373083114624,-0.12430401891469955
1761838749535050200,8.94405029296875,-0.21095775067806244,0.43609943985939026,-0.11781343817710876
1761838749545120300,8.954120361328124,-0.23995451629161835,0.42215991020202637,-0.08196036517620087
1761838749555189200,8.964189208984376,-0.30830711126327515,0.4319858253002167,-0.02600039541721344
1761838749565259300,8.97425927734375,-0.3753899931907654,0.43165531754493713,0.02694031596183777
1761838749575329000,8.9843291015625,-0.3994847536087036,0.40664392709732056,0.0902910828590393
1761838749585399000,8.99439892578125,-0.3938590884208679,0.36968111991882324,0.15213128924369812
1761838749595468000,9.004468017578125,-0.3741845488548279,0.2849489450454712,0.19427861273288727
1761838749605538000,9.0145380859375,-0.35460948944091797,0.1861424744129181,0.20993666350841522
1761838749615608300,9.0246083984375,-0.34003838896751404,0.1306810826063156,0.19790710508823395
1761838749625678000,9.034677978515624,-0.2902761399745941,0.01958092674612999,0.13211797177791595
1761838749635747000,9.0447470703125,-0.2190125435590744,-0.03180636093020439,0.061102185398340225
1761838749645817000,9.054817138671876,-0.15851829946041107,0.010663068853318691,0.005993126425892115
1761838749655887000,9.06488720703125,-0.12153193354606628,0.047428496181964874,-0.049256954342126846
1761838749665957000,9.07495703125,-0.10245251655578613,0.10252504050731659,-0.0859752893447876
1761838749676026000,9.085026123046875,-0.0957702249288559,0.1495961844921112,-0.10850149393081665
1761838749686096100,9.09509619140625,-0.10468169301748276,0.20746640861034393,-0.11828222125768661
1761838749696166100,9.105166259765625,-0.11842947453260422,0.28263649344444275,-0.17115214467048645
1761838749706236200,9.115236083984374,-0.12191262096166611,0.3804866373538971,-0.21686263382434845
1761838749716305000,9.125304931640626,-0.10606274753808975,0.4713626205921173,-0.23906126618385315
1761838749726375200,9.135375244140626,-0.09311073273420334,0.5182824730873108,-0.2952693998813629
1761838749736445200,9.145445068359376,-0.06341492384672165,0.5453267693519592,-0.35487350821495056
1761838749746515000,9.155514892578125,-0.010766626335680485,0.5574814081192017,-0.35865655541419983
1761838749756584200,9.165584228515625,0.02524409629404545,0.5337095260620117,-0.32342058420181274
1761838749766654000,9.175654052734375,0.03928747773170471,0.48361653089523315,-0.25857821106910706
1761838749776724200,9.18572412109375,0.036337051540613174,0.4365088939666748,-0.15972299873828888
1761838749786794200,9.195794189453125,0.007886769250035286,0.38705265522003174,-0.04150769114494324
1761838749796863000,9.205863037109374,-0.047433990985155106,0.34339356422424316,0.07692936062812805
1761838749806933200,9.215933349609376,-0.09533840417861938,0.2819208800792694,0.1956903636455536
1761838749817003000,9.2260029296875,-0.14403429627418518,0.1853690892457962,0.29917818307876587
1761838749827073000,9.236072998046875,-0.16572493314743042,0.09463652223348618,0.38994884490966797
1761838749837142300,9.246142333984375,-0.17571896314620972,0.019788943231105804,0.45975059270858765
1761838749847212000,9.2562119140625,-0.17162355780601501,-0.027024101465940475,0.5038334131240845
1761838749857282000,9.266281982421875,-0.1534927636384964,-0.047299012541770935,0.5383703112602234
1761838749867351000,9.27635107421875,-0.14207498729228973,-0.04396926239132881,0.5477475523948669
1761838749877421000,9.286421142578124,-0.14626333117485046,-0.02686675637960434,0.5447396039962769
1761838749887491300,9.2964912109375,-0.15446534752845764,-0.013888110406696796,0.5184773802757263
1761838749897561000,9.30656103515625,-0.17058740556240082,-0.008972814306616783,0.48450523614883423
1761838749907630000,9.316630126953125,-0.1725248545408249,0.025210456922650337,0.4520722031593323
1761838749917700000,9.3267001953125,-0.1664164662361145,0.06520532816648483,0.4211427867412567
1761838749927770000,9.33677001953125,-0.16151012480258942,0.07020728290081024,0.38083717226982117
1761838749937840000,9.346840087890625,-0.15848465263843536,0.04733603447675705,0.35176146030426025
1761838749947909000,9.3569091796875,-0.16610369086265564,0.027880845591425896,0.3350088596343994
1761838749957979100,9.366979248046874,-0.1922694444656372,0.03347788006067276,0.31155264377593994
1761838749968049200,9.377049072265624,-0.21205726265907288,0.04362478852272034,0.2992752194404602
1761838749978119200,9.387119140625,-0.2340470403432846,0.05961582437157631,0.29331740736961365
1761838749988188000,9.39718798828125,-0.2538045048713684,0.047912828624248505,0.2864198386669159
1761838749998258200,9.407258056640625,-0.2510523498058319,-0.01439059991389513,0.26739364862442017
1761838750008328200,9.417328125,-0.22784128785133362,-0.1089400127530098,0.24996434152126312
1761838750018398000,9.42739794921875,-0.19369903206825256,-0.17309609055519104,0.23612336814403534
1761838750028467200,9.43746728515625,-0.1535273790359497,-0.172094464302063,0.23172461986541748
1761838750038537000,9.447536865234374,-0.12584754824638367,-0.10826461017131805,0.22799251973628998
1761838750048607200,9.457607177734374,-0.11567293852567673,-0.01880742609500885,0.2026674449443817
1761838750058677200,9.46767724609375,-0.11039434373378754,0.06166200339794159,0.17401950061321259
1761838750068746000,9.47774609375,-0.10298862308263779,0.09159007668495178,0.1337096244096756
1761838750078816300,9.487816162109375,-0.09957217425107956,0.0772460401058197,0.09390158951282501
1761838750088886000,9.497885986328125,-0.0819670781493187,0.07470671087503433,0.07480619102716446
1761838750098956000,9.5079560546875,-0.06927530467510223,0.0936608538031578,0.0758088082075119
1761838750109024800,9.518024658203124,-0.060931894928216934,0.11383350193500519,0.08303768932819366
1761838750119094500,9.528094482421874,-0.052260622382164,0.10485763102769852,0.09833471477031708
1761838750129164800,9.538164794921874,-0.04039384424686432,0.05881557613611221,0.10782036185264587
1761838750139234800,9.54823486328125,-0.03423361852765083,-0.012535435147583485,0.10730887204408646
1761838750149303600,9.558303466796875,-0.019384900107979774,-0.06995558738708496,0.10668755322694778
1761838750159373800,9.568373779296875,0.0027157552540302277,-0.09857150167226791,0.10466179251670837
1761838750169443600,9.578443603515625,0.014786532148718834,-0.08555556833744049,0.08997578918933868
1761838750179513600,9.588513671875,0.03941892832517624,-0.06782498955726624,0.06792570650577545
1761838750189582600,9.59858251953125,0.06155538931488991,-0.03125818818807602,0.03964586183428764
1761838750199652600,9.608652587890624,0.07345177233219147,-0.0003902008756995201,0.000832968857139349
1761838750209723000,9.618722900390624,0.07558230310678482,0.025770828127861023,-0.047850947827100754
1761838750219791600,9.62879150390625,0.06743501871824265,0.019992243498563766,-0.09587683528661728
1761838750229861600,9.638861572265625,0.051120489835739136,0.02807680144906044,-0.14286884665489197
1761838750239931600,9.648931640625,0.030658479779958725,0.027227003127336502,-0.18372561037540436
1761838750250001700,9.659001708984375,0.013808924704790115,0.020028747618198395,-0.21020115911960602
1761838750260070700,9.669070556640625,-0.004852939397096634,-0.0050561698153615,-0.21625946462154388
1761838750270140700,9.679140625,-0.03461296483874321,-0.05310998111963272,-0.2243828922510147
1761838750280210700,9.689210693359374,-0.05175405368208885,-0.09430600702762604,-0.22400608658790588
1761838750290280700,9.69928076171875,-0.06004820019006729,-0.11268341541290283,-0.23645450174808502
1761838750300349700,9.709349609375,-0.06142539530992508,-0.08554699271917343,-0.24567030370235443
1761838750310419500,9.71941943359375,-0.06917519122362137,-0.04884570091962814,-0.23318113386631012
1761838750320489700,9.72948974609375,-0.09817144274711609,-0.018281452357769012,-0.2107749879360199
1761838750330559700,9.739559814453125,-0.13756145536899567,0.006872901692986488,-0.18168315291404724
1761838750340628700,9.749628662109375,-0.1663142591714859,0.03137294203042984,-0.1729828268289566
1761838750350698800,9.75969873046875,-0.1712762713432312,0.04142531007528305,-0.18498222529888153
1761838750360768500,9.7697685546875,-0.17440709471702576,0.02391473576426506,-0.2086431384086609
1761838750370838500,9.779838623046874,-0.18807603418827057,-0.01574213057756424,-0.23479589819908142
1761838750380907800,9.78990771484375,-0.19943003356456757,-0.04653388261795044,-0.24594932794570923
1761838750390977500,9.7999775390625,-0.20947813987731934,-0.058068834245204926,-0.25526583194732666
1761838750401047800,9.8100478515625,-0.2188427895307541,-0.06073024868965149,-0.2633799910545349
1761838750411117600,9.82011767578125,-0.22580856084823608,-0.04790899157524109,-0.24901916086673737
1761838750421186600,9.8301865234375,-0.22778856754302979,-0.028889913111925125,-0.24023865163326263
1761838750431256800,9.8402568359375,-0.23698951303958893,-0.011235286481678486,-0.24007166922092438
1761838750441326600,9.85032666015625,-0.24751965701580048,-0.010907717980444431,-0.2480904459953308
1761838750451396600,9.860396728515624,-0.23877276480197906,-0.0050871120765805244,-0.2447092980146408
1761838750461465600,9.870465576171876,-0.23292449116706848,-0.007562512531876564,-0.22409787774085999
1761838750471535600,9.88053564453125,-0.22951963543891907,0.013836253434419632,-0.18821468949317932
1761838750481606000,9.89060595703125,-0.23204319179058075,0.0393744595348835,-0.1418578326702118
1761838750491675600,9.900675537109375,-0.2327265590429306,0.05516620725393295,-0.08586940914392471
1761838750501744600,9.91074462890625,-0.22017543017864227,0.05555247142910957,-0.030950117856264114
1761838750511814700,9.920814697265625,-0.20147258043289185,0.04703701287508011,0.01685016043484211
1761838750521884700,9.930884765625,-0.1744813770055771,0.053923510015010834,0.05734262615442276
1761838750531954700,9.94095458984375,-0.14931902289390564,0.05523272231221199,0.09171897172927856
1761838750542023700,9.951023681640624,-0.13471880555152893,0.07720696181058884,0.11914161592721939
1761838750552093700,9.96109375,-0.13516221940517426,0.10219593346118927,0.13467290997505188
1761838750562163700,9.971163818359376,-0.14415940642356873,0.1000378280878067,0.1385115534067154
1761838750572233700,9.981233642578125,-0.15532204508781433,0.08251875638961792,0.14762915670871735
1761838750582302500,9.991302490234375,-0.15379685163497925,0.05846612900495529,0.15361802279949188
1761838750592372700,10.001372802734375,-0.14452053606510162,0.052234064787626266,0.14351771771907806
1761838750602442800,10.01144287109375,-0.13402774930000305,0.05360330268740654,0.12860092520713806
1761838750612511700,10.02151171875,-0.12273675203323364,0.06474649906158447,0.11742017418146133
1761838750622581800,10.031581787109374,-0.10755985230207443,0.08141008019447327,0.10374025255441666
1761838750632651500,10.041651611328126,-0.09874238818883896,0.08070781081914902,0.08202642947435379
1761838750642721500,10.051721435546876,-0.09712646156549454,0.0646924376487732,0.05041131377220154
1761838750652790800,10.061790771484375,-0.10169245302677155,0.02887238934636116,0.025409560650587082
1761838750662860500,10.071860595703125,-0.10481704771518707,-0.0016799932345747948,0.0054830689914524555
1761838750672930800,10.081930908203125,-0.1065550222992897,0.004797080531716347,0.002596734557300806
1761838750683000600,10.09200048828125,-0.10966475307941437,0.041709352284669876,0.01915198192000389
1761838750693069800,10.10206982421875,-0.11738339811563492,0.08510582894086838,0.04501819983124733
1761838750703139800,10.112139892578124,-0.1316704899072647,0.14000925421714783,0.09064674377441406
1761838750713209600,10.122209716796876,-0.1539265215396881,0.11564265936613083,0.12821489572525024
1761838750723279600,10.132279541015626,-0.15746843814849854,0.0626315250992775,0.14841842651367188
1761838750733348600,10.1423486328125,-0.15048696100711823,0.0009516472928225994,0.15227921307086945
1761838750743418600,10.152418701171875,-0.14233657717704773,-0.05546197295188904,0.1420118808746338
1761838750753489000,10.162489013671875,-0.11874789744615555,-0.09751914441585541,0.12612825632095337
1761838750763558700,10.17255859375,-0.09462665766477585,-0.10977543145418167,0.10167335718870163
1761838750773627600,10.182627685546874,-0.061571232974529266,-0.0954257920384407,0.05731894448399544
1761838750783697700,10.19269775390625,-0.03227493166923523,-0.043173640966415405,-0.0013197101652622223
1761838750793767700,10.202767578125,0.00005477981176227331,0.026760170236229897,-0.059704191982746124
1761838750803837700,10.212837646484376,0.022478824481368065,0.09657567739486694,-0.10114666819572449
1761838750813906700,10.22290673828125,0.024776866659522057,0.1358375996351242,-0.10607245564460754
1761838750823976700,10.232976806640625,0.016473885625600815,0.11897996068000793,-0.06683239340782166
