time,seconds_elapsed,z,y,x
1761383289270845200,0.09184521484375,0.2403729366958141,-0.35576281841695306,-0.006212737035006285
1761383289280915200,0.101915283203125,0.20314824467301368,-0.3142559190303087,-0.05989778466708958
1761383289290985200,0.111985107421875,0.12627017217576503,-0.22187749506235122,-0.08871215654537082
1761383289301055200,0.12205517578125,0.07796820582151412,-0.10703180322051048,-0.12606778147146105
1761383289311126300,0.132126220703125,0.05872749877870082,-0.009149521139264106,-0.17019290053248404
1761383289321196000,0.142196044921875,-0.01676467231810093,0.029579730227589605,-0.16077888323813677
1761383289331266000,0.15226611328125,-0.09609539866447449,0.04136252247989178,-0.12964374026209116
1761383289341336300,0.16233642578125,-0.03469312771856785,0.09416764547228812,-0.09061082977354526
1761383289351407400,0.172407470703125,0.028090952974557874,0.13943185156583784,-0.01069631218984723
1761383289361477000,0.18247705078125,0.10526128641664981,0.13614625402390956,0.09906973830014466
1761383289371547100,0.192547119140625,0.23283318884074686,0.09721475808322429,0.1888353494212031
1761383289381617200,0.2026171875,0.3772901750922203,0.04158288723230362,0.2248592873521149
1761383289391688200,0.212688232421875,0.4483925867974758,-0.022000234884023664,0.2193964919015765
1761383289401758200,0.22275830078125,0.4106757273435592,-0.07542670464515686,0.1596247447669506
1761383289411828200,0.232828125,0.4322235422849655,-0.08895487926006317,0.057210518344491715
1761383289421898200,0.242898193359375,0.43799394237995143,-0.06869242795407772,-0.03354132733494043
1761383289431969300,0.25296923828125,0.33344694171249867,-0.032821488627791405,-0.06681786625385285
1761383289442039300,0.263039306640625,0.20712416256666183,0.005556465083360672,-0.04115618625283241
1761383289452109000,0.273109130859375,0.05000701670646667,0.036726094850897784,0.009744564422965049
1761383289462179000,0.283178955078125,-0.032519290810823435,0.05141571446061134,0.020607611481845377
1761383289472250000,0.29325,0.011550737062096595,0.06520575488209725,0.022084698297083375
1761383289482320100,0.303320068359375,0.059095747569203376,0.04365677089691162,0.043929596488922834
1761383289492390100,0.31339013671875,0.008296119180321693,0.041699207088351245,0.06683131025731563
1761383289502460200,0.323460205078125,-0.017222352957725524,0.05148234995603561,0.09601093525141477
1761383289512531200,0.33353125,0.020889058771729467,0.05548398681282997,0.13123480884581804
1761383289522601200,0.343601318359375,-0.05067395618259907,0.03089665804505348,0.19679113073125482
1761383289532671200,0.353671142578125,-0.10486614961922168,0.006700374421477318,0.23431641313582657
1761383289542741200,0.3637412109375,-0.05683481689989566,-0.03966507091224193,0.2443301498889923
1761383289552812000,0.37381201171875,-0.06341711789965629,-0.0927092633575201,0.26130218134745953
1761383289562882300,0.38388232421875,-0.09230418968796729,-0.09649696520268916,0.2513708621807396
1761383289572952300,0.393952392578125,-0.05406067601144313,-0.051826048827171324,0.21267551308348773
1761383289583023000,0.404023193359375,-0.05759878700971603,-0.0038660277783870694,0.1854401540249586
1761383289593093000,0.414093017578125,-0.08081482742428779,0.02613397368788719,0.16413199305832385
1761383289603163100,0.4241630859375,-0.04465864141583442,0.052991585475206375,0.10164192687571048
1761383289613233200,0.434233154296875,0.052770051679015155,0.06640811640918254,-0.0076790101952850815
1761383289623304200,0.44430419921875,0.11969079378545283,0.049776715081930156,-0.08825184555724262
1761383289633374200,0.454374267578125,0.14942892944514752,0.020637714359164238,-0.12462620436102151
1761383289643444000,0.46444384765625,0.29705928503572937,-0.04643500343859196,-0.129243050506711
1761383289653514200,0.47451416015625,0.43652270078361033,-0.14547054720818994,-0.11018164555355905
1761383289663585300,0.484585205078125,0.4905331079125404,-0.24029461076259612,-0.056630818760395045
1761383289673655300,0.4946552734375,0.5363958644211292,-0.28978958629369733,0.027763620716333388
1761383289683725000,0.50472509765625,0.5432055444359779,-0.2983066547483206,0.1483859962634742
1761383289693795300,0.51479541015625,0.5122399128079415,-0.30679098997712134,0.26384850482940675
1761383289703865300,0.524865234375,0.5413929420560598,-0.3542009759277105,0.36862010803297157
1761383289713936100,0.53493603515625,0.5701449892878532,-0.39300329253077504,0.3929508316911757
1761383289724006100,0.545006103515625,0.5441945554733276,-0.4212836305975914,0.367652285914123
1761383289734076200,0.555076171875,0.5454208823978901,-0.36765257817506786,0.3025435616657138
1761383289744146200,0.565146240234375,0.5785287867516279,-0.2585556591182947,0.21652605103179812
1761383289754217200,0.57521728515625,0.6197048467487096,-0.10423661954402923,0.14076061595156789
1761383289764287200,0.585287353515625,0.5960626898765563,0.0333487273722887,0.20796762765347956
1761383289774357000,0.59535693359375,0.2851718633651733,0.05189619145393371,0.4016740902423858
1761383289784427300,0.60542724609375,0.021401684468984602,0.02926584197282791,0.585670621330291
1761383289794498300,0.615498291015625,0.0870364784181118,0.2048071177959442,0.6121593998052179
1761383289804568300,0.625568359375,0.6498562393844127,1.6288275287568568,0.1504793152809143
1761383289814638000,0.63563818359375,0.7520248204827308,1.4293746314704416,0.10015095766559243
1761383289824708000,0.6457080078125,0.7369009011089801,0.21030103903710842,0.3556713407412171
1761383289834779100,0.655779052734375,0.13488953196108341,-0.8299287288963795,0.5362409661203622
1761383289844849200,0.66584912109375,-0.43438510423302645,-1.2753776634573937,0.8463450261682272
1761383289854918700,0.675918701171875,-0.3718967916160822,-1.427369136866927,1.0995577168233692
1761383289864989000,0.685989013671875,-0.06647066025137902,-1.3243594287693499,1.2747573396019636
1761383289875059700,0.696059814453125,0.07612228569388389,-0.9350713573694228,1.2530788840182125
1761383289885129700,0.706129638671875,0.04754267241954803,-0.453054733389616,1.1369450520619748
1761383289895199700,0.71619970703125,0.004597849184274673,-0.18240122472047804,0.9889631065547466
1761383289905269500,0.72626953125,-0.07544891647696494,-0.10754618248343467,0.8500752987377345
1761383289915340500,0.736340576171875,-0.266772283321619,0.020923545563220975,0.6564296264253556
1761383289925410800,0.746410888671875,-0.5048761060416698,0.23220307424366474,0.39680560742318627
1761383289935480800,0.756480712890625,-0.6714712743431329,0.30886019746661186,0.2326397120952606
1761383289945550600,0.766550537109375,-0.8255459837675094,0.34344168150424953,0.2066366713106632
1761383289955621600,0.77662158203125,-0.8296902439653873,0.3602572072267532,0.2758040233001113
1761383289965692000,0.78669189453125,-0.8281430145233869,0.36868309026658536,0.40900370247811074
1761383289975761700,0.79676171875,-0.8197901967197656,0.2963935146033764,0.5543219817340374
1761383289985831700,0.806831787109375,-0.7380792972385883,0.23247721500992774,0.6410980556502938
1761383289995902700,0.81690283203125,-0.6937298679023981,0.19004794008135795,0.7237111646682024
1761383290005972700,0.82697265625,-0.7320125445455312,0.17933540740907192,0.7211752164497971
1761383290016042800,0.837042724609375,-0.5946370409876108,0.14249883792102336,0.7216989480629563
1761383290026112800,0.84711279296875,-0.441491721367836,0.27328502621650697,0.5953092411607503
1761383290036183800,0.857183837890625,-0.16735212414860726,0.2735205885380506,0.6384574780136346
1761383290046253600,0.867253662109375,-0.09033084378838539,0.062301850134134286,0.7634630370810628
1761383290056323800,0.87732373046875,-0.06419102488160133,0.004300912064313888,0.7440171628549694
1761383290066393600,0.8873935546875,-0.06651800652444362,-0.03577683130204677,0.7896466951295733
1761383290076464600,0.897464599609375,0.028748540100455282,-0.021747136905789374,0.6961082874715327
1761383290086534700,0.90753466796875,0.2469347794294357,0.10666823060512542,0.6276755333669484
1761383290096605000,0.91760498046875,0.34648353341817856,0.17230711620748043,0.554660419908166
1761383290106674700,0.9276748046875,0.44986733552515507,0.2077647985577583,0.494831828019768
1761383290116745700,0.937745849609375,0.5114660058259963,0.2895189526587725,0.4518415582075715
1761383290126815700,0.947815673828125,0.5517430711567402,0.407332262134552,0.4219944092154503
1761383290136885800,0.9578857421875,0.6110124217271804,0.5371148263454437,0.34963074540272354
1761383290146955800,0.967955810546875,0.6701549310475587,0.6292962664365768,0.26643413740843536
1761383290157026800,0.97802685546875,0.7027718370139598,0.6199830791682005,0.13875935913175344
1761383290167096600,0.9880966796875,0.854383371195197,0.5136801747441292,-0.07191475100144744
1761383290177166600,0.99816650390625,1.0390700765043497,0.39349487544000145,-0.20823080863431095
1761383290187236900,1.00823681640625,1.1426438482254744,0.2681348038464784,-0.26106413480788465
1761383290197306600,1.018306640625,1.2434417254924774,0.17883681023716924,-0.23443214846998453
1761383290207377700,1.028377685546875,1.3802508273392915,0.13174714228212833,-0.16708090599179268
1761383290217447700,1.03844775390625,1.5614765785396099,0.14360533785820007,-0.15099968589320778
1761383290227517700,1.048517578125,1.651248034879565,0.12242284909784792,-0.1408605691947043
1761383290237587700,1.058587646484375,1.644700220671296,0.0905611454129219,-0.14248743974417447
1761383290247658800,1.06865869140625,1.6082330690175295,0.1298538758814335,-0.20582900818958877
1761383290257728800,1.078728759765625,1.7149322792828081,0.2722790640443563,-0.2815162634670734
1761383290267798800,1.088798828125,1.8689432758212088,0.3764508016586304,-0.32271994212344285
1761383290277868800,1.098868896484375,1.8493413342505691,0.37987843801975246,-0.30536665626242754
1761383290287939800,1.10893994140625,1.6675900978714226,0.30124504628777504,-0.3507533196918666
1761383290298009600,1.119009521484375,1.4383108021199702,0.1225070202499628,-0.3800001647032797
1761383290308079600,1.12907958984375,1.1348235298633575,-0.13711772940456868,-0.40726650342196224
1761383290318150000,1.13914990234375,0.8070341755211353,-0.2577799985706806,-0.4360074447378516
1761383290328220700,1.149220703125,0.4252361676156521,-0.3277145355403423,-0.47632191946953534
1761383290338290700,1.159290771484375,0.10211772769391536,-0.45577276017665863,-0.46841085408404465
1761383290348360700,1.169360595703125,-0.06488485236465931,-0.5144061509311199,-0.4694548101790249
1761383290358430700,1.1794306640625,-0.23315935205519198,-0.5242798946917057,-0.5685299553066492
1761383290368501800,1.189501708984375,-0.46647243336737154,-0.5241092142999172,-0.6715433166660368
1761383290378571800,1.19957177734375,-0.6361988854318856,-0.4994827225655317,-0.7352120712392032
1761383290388641800,1.209641845703125,-0.5617874953091144,-0.45146483384966846,-0.7829667789742351
1761383290398711800,1.2197119140625,-0.6073737729638815,-0.36293490200340744,-0.7718684618547559
1761383290408782800,1.229782958984375,-0.7320867788255214,-0.38171734388470646,-0.6594857991255819
1761383290418852900,1.239852783203125,-0.814254189902544,-0.4672632914841175,-0.5283122189477085
1761383290428922600,1.249922607421875,-0.9181254832655191,-0.5032002817839384,-0.42738238586410876
1761383290438992600,1.25999267578125,-1.0360732327759266,-0.5485387221574783,-0.3799281223803758
1761383290449063700,1.270063720703125,-1.0459376241862772,-0.5358686256766318,-0.4500418153092265
1761383290459133700,1.2801337890625,-1.057342815297842,-0.5035632698774337,-0.5126721667453646
1761383290469203700,1.29020361328125,-1.065535474103689,-0.5104664733946324,-0.5604192756958305
1761383290479273700,1.300273681640625,-1.034628879186511,-0.488622305855155,-0.6709301532037556
1761383290489343700,1.31034375,-0.9764496619403362,-0.4040817359060049,-0.7387811618976294
1761383290499414800,1.320414794921875,-0.8815443498432636,-0.3768073600113392,-0.6824553174331783
1761383290509484800,1.33048486328125,-0.7938005999386311,-0.39967560990154744,-0.634749271145463
1761383290519554600,1.340554443359375,-0.536772881039977,-0.3227478530436754,-0.6770911600515246
1761383290529624600,1.35062451171875,-0.19456220263540744,-0.20120295582413672,-0.7553744231715798
1761383290539695600,1.360695556640625,-0.0024117373168468475,-0.09658931966125965,-0.7669400655418634
1761383290549766000,1.370765869140625,0.18522446544766424,-0.085594462916255,-0.7678997043542564
1761383290559835600,1.380835693359375,0.4647662139713764,-0.002728548181056976,-0.7721754819773137
1761383290569905700,1.39090576171875,0.7785445786178111,0.18028642452359198,-0.7667581331036984
1761383290579976700,1.400976806640625,1.049720649856329,0.3477273959994316,-0.7133914307057857
1761383290590046700,1.411046630859375,1.3158856149345635,0.5093336699724197,-0.6730199650898575
1761383290600116700,1.42111669921875,1.6366262198090553,0.6966817034453153,-0.6795481978148221
1761383290610186800,1.431186767578125,1.9820511840850115,0.9150485600382089,-0.6918747415550053
1761383290620257500,1.441257568359375,2.29630710311532,1.0839251172751188,-0.645738721062988
1761383290630327800,1.451327880859375,2.5466437999427316,1.2195599146455525,-0.5512690239042043
1761383290640397800,1.461397705078125,2.6024340762257574,1.3403490250617265,-0.416091176521033
1761383290650467600,1.471467529296875,2.5890023477226496,1.4622399592399595,-0.2615506031505763
1761383290660538600,1.48153857421875,2.7770751883387566,1.620850558528304,-0.19979615776613355
1761383290670608600,1.491608642578125,2.9793934119284153,1.853526510980725,-0.17317630025744438
1761383290680678700,1.5016787109375,3.0545243484973907,2.0473650755167005,-0.14700097164586184
1761383290690748700,1.511748779296875,3.0157360604196786,2.1211767461806534,-0.1243074938006699
1761383290700818700,1.521818603515625,3.0013854635059833,2.2526123382955787,-0.06331804143935442
1761383290710889700,1.5318896484375,3.0487445960521695,2.475465984913707,-0.042813013549149036
1761383290720959700,1.541959716796875,2.975851793798804,2.63195184713304,0.004206219518184662
1761383290731029800,1.55202978515625,2.7790444425851106,2.6286545591533184,0.11516864018589258
1761383290741099800,1.562099853515625,2.398838087785244,2.5493062971502543,0.3605506372153759
1761383290751170600,1.572170654296875,1.7707178793907163,2.529427292203903,0.6921225788362324
1761383290761240800,1.58224072265625,1.0780249533206223,2.5456723245620725,1.064951463670656
1761383290771310800,1.592310791015625,0.8389069851219654,2.6338854455441236,1.2638318948313594
1761383290781380600,1.602380615234375,1.0972586461007594,2.788935137480497,1.1670838044118135
1761383290791451600,1.61245166015625,1.09966336915493,2.81653158493638,1.097708654890582
1761383290801521700,1.622521728515625,0.6423755282402038,2.742017318961024,1.0045637765947728
1761383290811591700,1.632591796875,0.3969324486732483,2.588227271696925,0.9124130239028483
1761383290821661700,1.64266162109375,0.5650397751033306,2.293606611984968,1.034489909107238
1761383290831732700,1.652732666015625,0.8441343643814325,1.683936252516508,1.288987671136856
1761383290841802800,1.662802734375,0.7734574846118688,1.1115624812632798,1.5151086489878594
1761383290851873300,1.672873291015625,0.21739187408089636,0.6521271069258451,1.693511305591464
1761383290861943300,1.682943359375,-0.24477789365649222,-0.043804654935002324,1.6676861055918037
1761383290872014300,1.693014404296875,-0.5687193403989076,-0.7037070720374584,1.632377184062451
1761383290882084400,1.70308447265625,-1.3287024264097214,-1.36124918974936,1.5469083933524788
1761383290892154000,1.713154052734375,-2.1042460696458813,-2.279152554696798,1.4552524384401737
1761383290902224400,1.723224365234375,-2.7972897088497874,-3.1192776834368705,1.2713869863860308
1761383290912294400,1.73329443359375,-3.7204993635118004,-3.784466516509652,1.1067387143686414
1761383290922365200,1.743365234375,-4.938674545800685,-4.475392432907223,1.0577565106652675
1761383290932435200,1.753435302734375,-6.355870079177618,-5.068257203525304,1.1411528790153562
1761383290942505500,1.76350537109375,-7.555389076313376,-5.3291638096839185,1.1061614990025759
1761383290952575200,1.7735751953125,-8.785563323953747,-5.554543759909272,1.1599334212005137
1761383290962646300,1.783646240234375,-9.949542221152782,-5.908358951389789,1.640934000005573
1761383290972716300,1.79371630859375,-10.620360584545136,-6.18814619910717,2.3333615531377494
1761383290982786300,1.803786376953125,-11.107738443297148,-6.4766241182804105,2.912482898955047
1761383290992856300,1.813856201171875,-11.648557969379425,-6.918406931549311,3.412496367396414
1761383291002927400,1.82392724609375,-12.412511712586879,-7.564535090321302,3.816997497758269
1761383291012997400,1.833997314453125,-13.257550332331657,-8.249491284659504,4.151252833244205
1761383291023067100,1.844067138671875,-13.712310700595378,-8.585325413769484,4.20942123683542
1761383291033137400,1.854137451171875,-13.084114504355192,-8.409593583810329,3.52765857784152
1761383291043207400,1.86420751953125,-11.544559834766387,-8.131610170644521,2.420752544081956
1761383291053278200,1.8742783203125,-10.276549485206603,-7.847531947734952,1.322343120510876
1761383291063348200,1.88434814453125,-8.942061461132765,-7.451279882541298,0.47439036688506603
1761383291073418500,1.89441845703125,-9.03556158260703,-7.2870496898055075,0.6342099035717547
1761383291083488300,1.90448828125,-9.189375595268606,-6.945714625191688,1.0013345854151994
1761383291093559300,1.914559326171875,-8.503602239328622,-5.653667566484213,0.9975269367605447
1761383291103629300,1.92462939453125,-8.375791267451643,-4.036327061903476,1.0003495929658412
1761383291113699000,1.934698974609375,-7.782758739051222,-2.48433727363348,1.1883280332967638
1761383291123769300,1.944769287109375,-6.948848831564187,-0.76554773440063,1.2872595321699976
1761383291133840400,1.95484033203125,-6.246047768455743,0.6418447823643684,1.1234829284206032
1761383291143910400,1.964910400390625,-5.1833437183856965,1.3626771767258643,0.6073111925890669
1761383291153980200,1.974980224609375,-3.3707138659387823,2.019893131223321,-0.2150734228043817
1761383291164050400,1.985050537109375,-1.5757821672677992,3.130511025112867,-1.262562605547905
1761383291174121500,1.99512158203125,0.3005231617540121,4.376564394408464,-2.0591528362050653
1761383291184191200,2.005191162109375,2.1958955948174,5.084310512703657,-2.438204906403273
1761383291194261200,2.01526123046875,3.684679862111807,5.419918431842326,-2.616427530264854
1761383291204331500,2.02533154296875,5.053530759036541,5.9946238609135145,-2.4317542689591645
1761383291214401300,2.0354013671875,6.922813642075657,6.067016896951198,-1.833606589502096
1761383291224472300,2.045472412109375,8.660708279272914,5.430486003085971,-0.6576121142081915
1761383291234542300,2.055542236328125,6.7978522144109,6.294495865282416,0.1406486800096929
1761383291244612000,2.065612060546875,5.036482009080052,8.400649814376235,0.4422412245608866
1761383291254682400,2.075682373046875,3.404666988945007,7.724124179252982,0.833332984381914
1761383291264753400,2.08575341796875,4.807932196646928,6.183908415406942,1.522112682531029
1761383291274823200,2.0958232421875,6.5927160107910625,6.333994931977987,1.8359072676599024
1761383291284893200,2.10589306640625,6.567800765243172,7.353976277130842,1.6764342063233255
1761383291294963500,2.11596337890625,6.736277509507537,7.944800481832027,1.8098507431223987
1761383291305034500,2.126034423828125,8.725843891528248,5.998223346710205,1.7626982390642165
1761383291315104300,2.136104248046875,9.506451832416653,4.153049069011211,1.9074143146432936
1761383291325174300,2.14617431640625,9.024605304306744,4.778019288942217,1.3019108655959366
1761383291335244500,2.15624462890625,9.3093247477293,5.35183975187242,0.7488388839229941
1761383291345314300,2.166314208984375,9.163937202629446,5.821763786998391,-0.46688656712621446
1761383291355385300,2.17638525390625,8.579982299175859,5.315609916105866,-1.5938520769655704
1761383291365455400,2.186455322265625,7.905279203304648,5.15929531880021,-2.8006501251935956
1761383291375525000,2.196525146484375,6.755651487541198,5.674081408959627,-3.6468133650541303
1761383291385595400,2.206595458984375,6.009219957020878,5.290780595275759,-3.361773895896971
1761383291395666400,2.21666650390625,5.899537347030639,4.831509471589326,-3.5695980234265323
1761383291405736200,2.226736083984375,7.542813087856769,4.762808275806903,-4.333708710761368
1761383291415806200,2.23680615234375,9.802856452935934,5.124374227544665,-5.335693503713608
1761383291425876500,2.24687646484375,9.773355633163451,5.36386862784028,-5.620999807113408
1761383291435947500,2.256947509765625,8.23666862796545,4.4559874752134085,-4.405549665874243
1761383291446017300,2.267017333984375,6.66299600019753,3.894790347012877,-2.7945234590068457
1761383291456087300,2.27708740234375,5.659054520219564,3.8614696766912937,-2.1270812940493227
1761383291466157300,2.2871572265625,5.421262832188606,3.672888302031159,-1.9742856646500526
1761383291476227300,2.297227294921875,5.435861850905418,3.3906004696696996,-2.1425172019816934
1761383291486298400,2.30729833984375,5.874946511131525,3.287678439855575,-2.5841967010065914
1761383291496368400,2.317368408203125,5.981650397571921,3.2625118498951196,-3.185788091176748
1761383291506438100,2.327438232421875,5.6865644584357735,3.2286522503912445,-3.2519694130927324
1761383291516508400,2.33750830078125,5.462720047214627,3.342049496990442,-2.790146559096873
1761383291526579500,2.347579345703125,5.47610442944467,3.4389573810815808,-2.1494372105032205
1761383291536649200,2.357649169921875,5.531760265693068,3.88579572417438,-1.7805083287820218
1761383291546719200,2.36771923828125,5.477381025251746,4.278392189469933,-1.6067299709782004
1761383291556789500,2.37778955078125,4.675415823557973,3.443461122241616,-1.236053368806839
1761383291566859300,2.387859375,3.3076620742201803,1.882986414220929,-0.6094070323571562
1761383291576930300,2.397930419921875,2.7480086683303115,-0.08898644344210624,0.5053337866812944
1761383291587000300,2.408000244140625,2.9524674110800024,-1.248293257176876,0.9558861818611621
1761383291597070300,2.4180703125,2.9474843619704245,0.05175619846135378,0.024172318226099013
1761383291607140400,2.428140380859375,1.311783440312743,-1.059851290987432,0.9482228076264262
1761383291617211400,2.43821142578125,-1.2180939337462187,-3.467285065421462,2.950108865255117
1761383291627281200,2.44828125,-2.3719325452029705,-6.686236006009579,5.218743533068895
1761383291637351200,2.45835107421875,-3.0671371618330476,-10.428660785603522,5.6522506854236125
1761383291647421400,2.46842138671875,-3.1014743157207962,-11.216486402785778,4.432870803520083
1761383291657491200,2.4784912109375,-3.977351141321659,-7.858872256916761,3.239423819774389
1761383291667562200,2.488562255859375,-5.076588394019008,-4.033385163232684,2.223514254105091
1761383291677632300,2.49863232421875,-5.983183598488569,-4.322838064917922,2.582851716138422
1761383291687702500,2.50870263671875,-9.207748871827125,-3.66949222985208,2.6531805131226776
1761383291697772300,2.518772216796875,-11.786437330806255,-2.860886859491467,2.553702486282587
1761383291707843300,2.52884326171875,-12.727567842084168,-2.562932086920738,2.4988778401613234
1761383291717913300,2.538913330078125,-13.154994797742367,-2.060730168524384,2.181327263499796
1761383291727983400,2.5489833984375,-13.08016313638091,-1.8886787806436418,2.0059207199722526
1761383291738053400,2.559053466796875,-12.666044575107097,-1.9590680756434797,2.110412775582075
1761383291748123400,2.569123291015625,-11.690087080597877,-2.0104811597555874,2.3071140360727904
1761383291758194200,2.579194091796875,-10.335922880673408,-2.468171736252308,2.247180668635666
1761383291768264200,2.58926416015625,-7.878281306263804,-2.9034324542760848,1.7556724320806563
1761383291778334500,2.59933447265625,-5.181840328085422,-2.9322318477809426,1.0510413770660758
1761383291788404200,2.609404296875,-3.4309430014520883,-2.6432608843937513,0.44937385291978715
1761383291798475300,2.619475341796875,-2.9921605390429495,-2.060633722412586,-0.04132145981714129
1761383291808545300,2.629545166015625,-3.4319542243212457,-1.209172960665822,-0.3480998825736344
1761383291818615300,2.639615234375,-3.2466964411258696,-0.24811989756077527,-0.7355161687523126
1761383291828685300,2.649685302734375,-2.5498013871908185,0.6879986307740211,-1.1909934531137347
1761383291838755300,2.65975537109375,-2.0058330416888,1.1062895092964171,-1.5053238986849784
1761383291848826000,2.669826171875,-2.180032839775085,0.7635141827464104,-1.4289640048429368
1761383291858896100,2.679896240234375,-2.308368127787113,0.09790887782722711,-1.1327413167618214
1761383291868966100,2.689966064453125,-2.2180986587971447,-0.22759645723104477,-1.0508645591944457
1761383291879036000,2.700035888671875,-1.9823294165045022,-0.15889204657822847,-1.1145675082981585
1761383291889107000,2.71010693359375,-1.3462304843157529,0.13816753071844576,-1.0299572341136634
1761383291899177000,2.720177001953125,-1.0371154353052376,0.46394583749920126,-0.7994054342083633
1761383291909247200,2.730247314453125,-0.6182838740348816,0.5581771958574653,-0.6796811765447258
1761383291919317000,2.74031689453125,-0.23690029214918612,0.49586716241687534,-0.6125462071657181
1761383291929387000,2.750386962890625,-0.10689327153265475,0.5608019914031028,-0.5697307093985379
1761383291939458000,2.7604580078125,0.25821722094416616,0.6710609399765729,-0.5884323411285877
1761383291949528000,2.770528076171875,0.5267547603726387,0.8331663956433534,-0.7257907474212348
1761383291959598000,2.78059814453125,0.7314765379726886,1.034279919618368,-1.031419269490242
1761383291969668000,2.790668212890625,1.0944295601546763,1.2311048064887522,-1.3878671475619078
1761383291979739000,2.80073876953125,1.5238210938841104,1.3695312804043291,-1.6367032305680214
1761383291989809200,2.81080908203125,1.7570459123909472,1.4894137973695993,-1.64949534599334
1761383291999879200,2.820879150390625,2.0133406408399344,1.5512287407696246,-1.5003271133109926
1761383292009949000,2.830948974609375,2.2166730099081993,1.4353653963178394,-1.4142092110425233
1761383292020019000,2.84101904296875,2.296857722735405,1.1665864493489264,-1.3506027080506084
1761383292030090000,2.851090087890625,2.1863643808841706,0.8478197748959064,-1.2957581881850957
1761383292040160000,2.861159912109375,2.1224358063310382,0.5791811131805181,-1.2680407446980475
1761383292050230000,2.87122998046875,2.3765537752628325,0.3617050679475069,-1.2830799083977937
1761383292060300000,2.881300048828125,2.2840070089906455,0.2880857049852609,-1.185737140020728
1761383292070371000,2.89137109375,2.050603326785564,0.30199498787224294,-1.0898039461806417
1761383292080441000,2.901441162109375,2.029681534788012,0.352308878570795,-1.0480004019349813
1761383292090511000,2.911510986328125,2.045152660164237,0.36801089009344573,-1.009208898986876
1761383292100581000,2.9215810546875,2.020660608464479,0.2729991950124502,-0.9613044075176119
1761383292110651100,2.931651123046875,1.8520611146032808,0.094173490691185,-1.0409969529137015
1761383292120722200,2.94172216796875,1.5416951887488364,0.0019569792866706848,-1.105721061758697
1761383292130792200,2.951792236328125,1.5968506742596624,0.042457916501164435,-0.8025204974889755
1761383292140862000,2.961862060546875,0.8884639199733734,-0.0803396111279726,-0.07530863122344017
1761383292150932000,2.971931884765625,0.3947568581998348,0.030261282750964163,0.08300123155266045
1761383292161002200,2.982002197265625,0.5744347954362631,0.4109066134899854,-0.11408172173202037
1761383292171073000,2.992072998046875,0.7335650346845388,0.6563204669624567,-0.3474681605413556
1761383292181143000,3.00214306640625,0.5178232658982277,0.7438865222126245,-0.5079822553634643
1761383292191213000,3.012213134765625,0.23656945275962352,0.5567588534921407,-0.4525011911600828
1761383292201283000,3.022282958984375,0.2581073308289051,0.2822363944351673,-0.27900515742897986
1761383292211354000,3.03235400390625,0.2709504457890987,0.31065117253661156,-0.1607838516741991
1761383292221424000,3.042424072265625,0.30964345679879185,0.5209212319135665,-0.2156461994573474
1761383292231494000,3.052493896484375,-0.007615735700726508,0.3388894250273704,0.16791121933609246
1761383292241564200,3.062564208984375,-0.4246060530185699,0.044317865154147144,0.5392229045405984
1761383292251634200,3.07263427734375,-0.5336135402262211,0.0467816249191761,0.6044762979567051
1761383292261705200,3.082705322265625,-0.5175403573036194,0.15055997930169104,0.4586911318413913
1761383292271775000,3.09277490234375,-0.6492647032320499,0.1299672731280327,0.26670696300044655
1761383292281845000,3.102844970703125,-0.6326993528783321,-0.028214287093281745,0.1497454480484128
1761383292291915000,3.1129150390625,-0.5750953051716089,-0.20389584816992282,0.1236586745031178
1761383292301985000,3.122985107421875,-0.34277065037488935,-0.30169542040377856,0.05036518249437213
1761383292312056000,3.13305615234375,-0.17204466587901115,-0.3113894236832857,-0.04165171468481421
1761383292322126000,3.1431259765625,-0.02861000841259956,-0.35144086356461046,-0.10077084312960505
1761383292332196000,3.153196044921875,0.09534253447055815,-0.423742421926558,-0.16301277977004647
1761383292342266000,3.16326611328125,0.2196165643930435,-0.3940852425485849,-0.302821940215677
1761383292352336100,3.173336181640625,0.3730225807756185,-0.1997480808407068,-0.4992078511469066
1761383292362407000,3.183406982421875,0.5166127210646867,-0.000538052399456501,-0.6568686023645103
1761383292372477000,3.193476806640625,0.7318851187735795,0.14896744941323994,-0.7071956448055803
1761383292382547200,3.203547119140625,0.8241828787207603,0.24709084677398202,-0.6808969820752739
1761383292392617000,3.213616943359375,0.9869324775099754,0.33447306988984343,-0.7053343809783458
1761383292402688000,3.22368798828125,1.2847680076152086,0.49865650087445973,-0.7890973906837403
1761383292412758000,3.233758056640625,1.4777379726231097,0.6188625507056713,-0.789823659131676
1761383292422828000,3.243828125,1.6865759533703326,0.7582160763382911,-0.8439316814161837
1761383292432898000,3.25389794921875,2.0202555347949267,0.9723720372378826,-0.9677081370800733
1761383292442968000,3.263968017578125,2.2029776620328425,1.1206325074255465,-1.1138248732373117
1761383292453039000,3.2740390625,2.082861336311698,1.2088766080677509,-1.3778529724173247
1761383292463109000,3.284109130859375,2.2643992222011087,1.3139157761663198,-1.6990693781100212
1761383292473179100,3.29417919921875,2.3856869297891854,1.421384801760316,-2.0057969474621116
1761383292483249000,3.304248779296875,2.1732120538443325,1.5528966739818453,-2.232124846062064
1761383292493319000,3.31431884765625,1.8953391153156756,1.693779893399775,-2.3199618272081017
1761383292503390000,3.324389892578125,1.5755185478955507,1.736647267484665,-2.273781383052468
1761383292513460200,3.334460205078125,1.5032260496228933,1.7016268075078724,-2.2441589827269315
1761383292523530000,3.344530029296875,1.8060130646556616,1.7034414557144044,-2.1587615036875007
1761383292533600000,3.35460009765625,2.009310946932435,1.720984711189568,-2.049244313392043
1761383292543670000,3.364669921875,2.040501619488001,1.8389923741936682,-1.8448986756280064
1761383292553741000,3.374740966796875,2.1496178277671336,1.9160551556080578,-1.6611401910796761
1761383292563811000,3.38481103515625,2.192289679279923,1.9489613999098538,-1.5916959218449889
1761383292573881000,3.394881103515625,2.0578864695310592,2.178817326505482,-1.5461135897129774
1761383292583951000,3.404951171875,1.9414479555398225,1.8825828018561004,-1.3577752300284802
1761383292594022100,3.415022216796875,1.666649602150917,1.427660521028936,-1.150579171269387
1761383292604092200,3.425092041015625,1.5980167954295872,1.2981333928838372,-1.0635679734230041
1761383292614162000,3.435161865234375,1.8795950182169674,1.5269170140728354,-1.0015830802835524
1761383292624232000,3.44523193359375,2.127082170832157,1.9055036587163805,-0.7459067759938538
1761383292634302200,3.45530224609375,2.1939432917058466,1.901874946825206,-0.4374935916423797
1761383292644373000,3.465373046875,2.210054468551278,1.435640706127882,-0.17819851233363151
1761383292654443000,3.475443115234375,2.4957068089097736,0.9229831524297595,-0.0002447685413062572
1761383292664513000,3.485512939453125,2.6198656880199906,0.6672925273537635,0.18674480688273906
1761383292674583000,3.4955830078125,2.7613439507216215,0.7198582886323333,0.5700346607811748
1761383292684653000,3.505653076171875,2.876886977177858,1.022905415906012,0.9536270778227597
1761383292694724000,3.51572412109375,2.4714362910062073,0.9863067468270659,0.945417979338765
1761383292704794000,3.525794189453125,2.18207574377954,0.23470570471435784,1.0682499937593937
1761383292714864000,3.535864013671875,2.4173037188023327,0.09397124611735343,1.5914153513379394
1761383292724934100,3.54593408203125,2.1176912421524525,-0.3116708709731698,1.8088522336043416
1761383292735004000,3.55600390625,2.3796166699647903,-0.7612985525235533,2.349387243656814
1761383292745075000,3.566074951171875,2.2674387360274793,-1.1378571984708308,2.42025555434525
1761383292755145000,3.57614501953125,2.101433934834599,-0.9750991241142153,2.4605893182992933
1761383292765215200,3.58621533203125,1.3160633095890282,-0.02029372322708368,2.4775831231981513
1761383292775285000,3.596284912109375,-1.874422584015131,0.9485784891963005,2.6412629885748027
1761383292785355000,3.60635498046875,-6.840156986176967,1.1324357579439879,3.029130087260902
1761383292795426000,3.616426025390625,-10.70436807053089,-0.07695581390857696,2.3016642462342976
1761383292805496000,3.62649609375,-10.04374844506979,-1.1340905394136904,0.6659709964264184
1761383292815566000,3.636566162109375,-7.470327697360515,-1.8986624145194888,-0.4628618051221594
1761383292825636000,3.646635986328125,-8.543283676853775,-2.400152092993259,-0.5583075807714835
1761383292835706000,3.6567060546875,-12.910098830664158,-3.4399370397686955,0.685082524131611
1761383292845777200,3.666777099609375,-15.628291621923445,-3.90698230458796,1.933207365939021
1761383292855847000,3.676846923828125,-15.855450856781005,-4.232111499810219,1.868616235823929
1761383292865917000,3.6869169921875,-13.674179999643563,-4.7777375493913885,1.4442337624281645
1761383292875986700,3.696986572265625,-12.120510295462608,-3.915210619229078,1.4763693146184087
1761383292886057000,3.707056884765625,-11.489736357688903,-3.6905569374516602,0.7772460632398724
1761383292896128000,3.7171279296875,-11.895132683324814,-4.273960636763275,-0.0664246291525662
1761383292906198000,3.727197998046875,-12.56385378217697,-4.461861043421924,-0.3442551898442209
1761383292916267800,3.737267822265625,-12.366236283624172,-4.183971153758466,-0.5139294733300804
1761383292926338000,3.747338134765625,-12.316720265305042,-3.9568019820287823,-0.5786958138816058
1761383292936408000,3.757407958984375,-11.916099483507871,-3.9299092989280817,-0.8369958908036351
1761383292946478800,3.767478759765625,-11.700216844946146,-4.157579990439117,-0.8032184166252613
1761383292956548900,3.777548828125,-11.286758793407678,-4.465359699192643,-0.7660900245837867
1761383292966619100,3.787619140625,-9.99822120412588,-4.791092705526948,-1.0041210743285716
1761383292976689000,3.79768896484375,-7.462455356550216,-5.0359588619887825,-1.3698897384531794
1761383292986759000,3.807759033203125,-5.054860546335577,-5.180130601558089,-1.3743695142157375
1761383292996830000,3.817829833984375,-5.517995944234729,-5.127781405639648,-0.48900019925683735
1761383293006899700,3.827899658203125,-7.373774033534526,-4.3110207858741285,-0.3441026296310127
1761383293016970000,3.837969970703125,-7.912560592484474,-2.5986387755960223,-1.9806240738913417
1761383293027040000,3.8480400390625,-8.331954463812709,-0.5640194921448827,-3.929789179679751
1761383293037109800,3.85810986328125,-8.459171561449766,0.2558613054677844,-4.201483137312532
1761383293047180800,3.868180908203125,-6.389188995933532,1.3834002312809228,-3.78286668009758
1761383293057251000,3.8782509765625,-4.707428918412328,2.46813987980932,-3.3547795069649813
1761383293067320800,3.88832080078125,-1.9384271464139222,3.108994774353504,-1.8982392206713556
1761383293077390800,3.898390869140625,1.0183148732453584,2.8726582535669207,0.06110153443366289
1761383293087461000,3.908461181640625,2.643255915957689,1.96703101734668,1.307326168642938
1761383293097532200,3.9185322265625,3.2289602934271096,1.9967937029257417,1.807026625612378
1761383293107602000,3.928601806640625,2.907586651346087,3.847530875448882,2.5395687469899655
1761383293117672000,3.938671875,1.8686907623648643,4.182590513055026,2.8131796441599723
1761383293127741700,3.94874169921875,2.050775176221132,4.929054484540224,3.634474692484736
1761383293137812000,3.95881201171875,3.31946766282618,5.538240275362134,4.507105375771224
1761383293147883000,3.968883056640625,5.88252776004076,6.266590205746889,4.4005178091868755
1761383293157953000,3.978953125,11.108817470705509,7.805710575571656,3.3616847563087937
1761383293168022800,3.989022705078125,15.556935527718066,8.749690631061792,2.020471223372221
1761383293178093000,3.999093017578125,14.860681109774111,7.786961451438069,1.2576228110581635
1761383293188163000,4.0091630859375,15.389586910700798,5.9007163276821375,3.1708605711579323
1761383293198233900,4.01923388671875,17.503737119245528,6.411828113242984,4.759806755903363
1761383293208303900,4.029303955078125,16.574384724044798,5.940918574211001,5.353678073215485
1761383293218374000,4.039373779296875,15.657700087237357,5.051348154300451,6.084169107282161
1761383293228444000,4.04944384765625,14.272579608035088,5.647430133399367,5.973550093224644
1761383293238514000,4.059513916015625,12.921157984817027,5.840976436990499,5.454726125851273
1761383293248585000,4.0695849609375,11.708424701321125,5.791034302213788,4.305747813907265
1761383293258654700,4.07965478515625,10.596346087229252,5.818692708989977,3.2911730039730664
1761383293268725000,4.08972509765625,9.515214400064945,5.160607570442557,2.751391004244983
1761383293278795000,4.099794921875,9.09063640409708,4.288795510062575,2.4354162985980508
1761383293288864800,4.10986474609375,9.181252494567632,3.731875328528881,2.129712957727164
1761383293298935800,4.119935791015625,9.292123437559605,3.484351351034641,1.8610598290950058
1761383293309006000,4.130006103515625,9.38236134236753,3.474678098282218,1.6733597673140466
1761383293319075800,4.140075927734375,9.203238700926303,3.670119421839714,1.6995178525298833
1761383293329145900,4.150145751953125,8.380327741837501,3.8464649997830387,2.0207326507873833
1761383293339216000,4.1602158203125,7.477529007041454,3.9247733973443504,2.4875755249023435
1761383293349287000,4.170286865234375,6.6542439539432525,4.029362483587861,3.1985546337693926
1761383293359357000,4.18035693359375,6.017866204813123,3.972618852102756,3.5804561020493506
1761383293369427000,4.190427001953125,6.098213414725661,4.02166257673502,3.620150106795132
1761383293379496700,4.20049658203125,6.240943138793111,4.002071156558395,3.558980183300376
1761383293389567000,4.21056689453125,5.946895895054936,3.9608711311638354,3.43420346455276
1761383293399638000,4.220637939453125,5.568114020100236,4.09913335442841,3.1216455816119906
1761383293409708000,4.2307080078125,4.7188785331875085,4.179932399761676,2.504785018378496
1761383293419777800,4.24077783203125,3.676674250310659,3.690803897950053,1.7450738811768591
1761383293429848000,4.25084814453125,2.264627770259976,2.1748060450375077,1.3583683736160397
1761383293439918000,4.26091796875,1.1232990962862968,-0.21476620175242422,1.2764967306151986
1761383293449988900,4.27098876953125,0.7730114944100379,-3.697096276092529,1.3975995831556618
1761383293460059000,4.281058837890625,0.30607553518414493,-6.291144216766953,0.4675605208650231
1761383293470129000,4.29112890625,0.5745920318245887,-5.62616405800879,-1.92362296051383
1761383293480199000,4.301198974609375,-0.8783060985743999,-8.191787283709644,-2.4241755042679607
1761383293490269000,4.31126904296875,-3.2354408876180645,-11.789958490669727,-2.588093416184187
1761383293500340000,4.321340087890625,-4.219703269135952,-11.013131237363815,-4.9902925048351285
1761383293510409700,4.33140966796875,-5.178313907524943,-8.756746979314089,-6.491278666576743
1761383293520480000,4.34147998046875,-5.859489998802542,-7.338875738632678,-6.103569388800859
1761383293530550000,4.351550048828125,-7.407578103458881,-6.577821223998069,-4.585241047114134
1761383293540619800,4.361619873046875,-9.871845233488083,-5.862932248210907,-2.390605243099481
1761383293550690000,4.37168994140625,-11.472798082369565,-4.992689044582844,-0.7320340257249772
1761383293560761000,4.381760986328125,-12.724431297624111,-3.1843510441109535,-0.36070173612385986
1761383293570830800,4.391830810546875,-13.361707456898689,-1.8959043479830024,-0.2150320130817592
1761383293580900900,4.40190087890625,-13.752042991524934,-1.126497015544772,-0.189998401851207
1761383293590971000,4.411970947265625,-13.916803345614671,-0.36110680979341264,-0.3792692200802266
1761383293601041000,4.422041015625,-13.478699513119459,0.3179264242365956,-0.5257452910691499
1761383293611112000,4.43211181640625,-12.557100216263532,0.7608443790152668,-0.5510363841921091
1761383293621182000,4.442181884765625,-11.179366924703121,0.9943350088514387,-0.7748477699264884
1761383293631251700,4.452251708984375,-9.140141901022195,1.26469786401093,-1.1650314749918877
1761383293641322000,4.462322021484375,-7.169976385042071,1.6291607062339781,-1.5949237978503108
1761383293651392000,4.47239208984375,-6.542782059320807,2.305309324738383,-1.9963684632509946
1761383293661463000,4.482463134765625,-6.288647723776101,2.6556255681872365,-2.43212631714195
1761383293671532800,4.49253271484375,-5.301650364336371,2.8082091622710226,-2.927718169748783
1761383293681603000,4.50260302734375,-3.969605641761422,2.4281426543332634,-2.9952099897414444
1761383293691673000,4.512673095703125,-2.4513012654721735,1.4388244507305323,-2.831481901308894
1761383293701742800,4.522742919921875,-0.47311143299043174,1.0176973258689046,-2.733695188556611
1761383293711814000,4.53281396484375,1.4607336463302374,0.9466220944315195,-2.578516317282617
1761383293721884000,4.5428837890625,1.6114239740133285,-0.8828526559628546,-1.8844651084713637
1761383293731954000,4.552953857421875,2.3489175803184508,-0.9332897346496581,-1.4402949616745113
1761383293742024000,4.56302392578125,3.434190020549297,-0.4217220220148563,-1.2150063429944216
1761383293752094000,4.573093994140625,3.753773856604099,-0.4620744906693697,-0.7563659914921969
1761383293762164700,4.583164794921875,3.5321284167319535,-0.3432987659022212,-0.24564799102190882
1761383293772235000,4.593235107421875,3.3857308178067207,0.2548682027772069,-0.011934073823876679
1761383293782305000,4.603304931640625,3.5484891844242807,0.7427975579321384,0.14863741374127565
1761383293792374800,4.613374755859375,4.290598175570368,1.230678397770226,0.2906418922740966
1761383293802445000,4.623445068359375,5.296476761090755,1.380678989623487,0.33144400439225136
1761383293812515000,4.63351513671875,5.805456210798025,1.1078244637787342,0.36895942298993467
1761383293822585900,4.6435859375,5.646391438001394,0.7198314006254076,0.49321014510206873
1761383293832656000,4.65365576171875,4.818587446174026,0.4895116559103131,0.7084659570023417
1761383293842726000,4.663725830078125,3.821120715168118,0.6516562745437026,0.7982672970239073
1761383293852796400,4.67379638671875,3.1811393885880705,1.0210361149027942,0.7360744602221995
1761383293862866400,4.683866455078125,2.8464772258669138,1.1575915342494845,0.6571150514062494
1761383293872937500,4.6939375,2.674132700258493,1.1661036342680453,0.5174523867592216
1761383293883007500,4.704007568359375,2.8262995302349325,1.1848983511090279,0.23982735857702792
1761383293893077200,4.7140771484375,3.1781209175497294,1.136083466796577,-0.04537285409979522
1761383293903147500,4.7241474609375,3.3106396287262436,1.0756427343592048,-0.3685896398294717
1761383293913217500,4.734217529296875,3.0514135230004786,1.0415767986282705,-0.6560215570811182
1761383293923288300,4.744288330078125,2.441248073491454,0.9001607875078916,-0.7387896374650299
1761383293933358300,4.7543583984375,1.8645932639181613,0.5768436101436615,-0.6491584663785994
1761383293943428600,4.7644287109375,1.8465584255337715,0.1727870086789131,-0.39370530332028864
1761383293953498400,4.774498291015625,2.169016940242052,-0.07277823596298694,-0.20391798693649468
1761383293963568400,4.784568359375,2.3798282668888566,-0.1144134379044175,-0.2004209386009723
1761383293973638700,4.794638671875,2.404102291923761,-0.16022037257254124,-0.21550832535661757
1761383293983709400,4.80470947265625,2.139437794536352,-0.3587611234501004,-0.28350254191346463
1761383293993779500,4.814779541015625,1.5376549734473228,-0.46026130376756186,-0.4273603201627731
1761383294003849500,4.824849365234375,0.8036468711704016,-0.5139817880392075,-0.34140374593585726
1761383294013919200,4.834919189453125,0.031791561058163643,-0.43389673619419333,-0.241266013078019
1761383294023989500,4.844989501953125,-0.2091594677865505,-0.16985621592402458,-0.3357864905759692
1761383294034060500,4.855060546875,0.043409518137574196,0.0605912468239665,-0.39744609728381036
1761383294044130300,4.86513037109375,0.3479144430041313,0.39775925488620995,-0.39719899065494535
1761383294054200300,4.875200439453125,-0.006835398977994918,0.6502315024375915,-0.3482967203199863
1761383294064270600,4.8852705078125,-0.513272178465128,0.5189022933065891,-0.33677988552749155
1761383294074340400,4.89534033203125,-0.6833844149768352,0.11816899104565382,-0.28130934271812436
1761383294084411400,4.905411376953125,-0.9421423186689615,-0.29171090974509717,-0.1648101845808327
1761383294094481400,4.9154814453125,-1.3090426171720027,-0.4369923641219735,-0.15379486956968902
1761383294104551400,4.925551513671875,-1.0259124887675046,-0.24625264238417147,-0.4675008996322751
1761383294114621400,4.935621337890625,-0.42915012618899345,-0.16243775636106728,-0.7923869337484241
1761383294124691500,4.94569140625,-0.33316637120544906,-0.24061200614869593,-0.8399388123877346
1761383294134761200,4.95576123046875,-0.733161714580655,-0.04598667514920234,-0.7579784681901335
1761383294144832300,4.965832275390625,-1.3047569026768207,0.278036896918714,-0.6206780756950379
1761383294154902500,4.975902587890625,-1.6779080782681703,0.4838017538309097,-0.4391141785815358
1761383294164972500,4.98597265625,-1.599089977619052,0.43691520723253485,-0.30214433321505785
1761383294175042300,4.996042236328125,-0.7840916913509368,0.17648820128440856,-0.3583864449188113
1761383294185112600,5.006112548828125,-0.010290507867932319,-0.0400064316958189,-0.5569080527044833
1761383294195183600,5.01618359375,0.4259235653579235,-0.21438538574129343,-0.7752537203788756
1761383294205253400,5.02625341796875,0.6590425854027271,-0.33985768553763623,-0.8923087588332593
1761383294215323400,5.036323486328125,0.721343266493082,-0.3128010440468788,-0.9312997298762201
1761383294225393400,5.046393310546875,0.8927870438694954,-0.250893746188283,-0.9616340778633952
1761383294235463400,5.05646337890625,1.4650503404855728,-0.27832798881977794,-0.9108291887775063
1761383294245533400,5.066533447265625,2.2778759588897226,-0.3975970500618219,-0.9161312407083809
1761383294255604500,5.0766044921875,2.8967694892555476,-0.7565987042695284,-0.8850589338354766
1761383294265674200,5.08667431640625,2.864233247309923,-0.724674164481461,-0.8984275339744985
1761383294275744500,5.09674462890625,2.7391858949273824,-0.17106208458244798,-1.106405171565339
1761383294285814500,5.106814453125,3.065863488635421,0.23741963984817266,-1.4582716401308775
1761383294295884300,5.11688427734375,3.6510616701483722,0.7651064203739166,-1.9924235250174998
1761383294305955300,5.126955322265625,2.741927887111902,-0.3144967420488596,-1.682242600341141
1761383294316025600,5.137025634765625,1.2639321403354407,-0.9422355499103665,-1.27428402300179
1761383294326095400,5.147095458984375,1.0338204854130744,-0.6735948423683643,-0.9499362604808061
1761383294336165400,5.157165283203125,1.6344792709082363,0.05254910240471363,-0.9569565875716507
1761383294346235400,5.1672353515625,1.8212451205790041,0.500397791583836,-1.1975748773306607
1761383294356305400,5.177305419921875,1.9055571424692868,0.5545581285774708,-1.5764289407387375
1761383294366376400,5.18737646484375,2.329440726432204,0.4164420357853174,-1.4664941095530986
1761383294376446500,5.197446533203125,2.225108829820156,0.1428361070513725,-1.2961165001034736
1761383294386516200,5.20751611328125,1.8241513634145259,-0.4207032003611326,-1.4319329376511274
1761383294396586500,5.21758642578125,2.43178115696609,-0.678524699985981,-1.1964911737471817
1761383294406656500,5.227656494140625,3.238805395615101,-0.14819734182357788,-1.2980074284166097
1761383294416727600,5.2377275390625,4.304512134632468,1.015313061080873,-1.0860491236917673
1761383294426797300,5.24779736328125,5.175086762171984,3.185209999027848,0.1547789852362126
1761383294436867600,5.25786767578125,5.097002821016312,4.737325167243182,1.0426491040349006
1761383294446937300,5.267937255859375,4.854359016779065,3.15732421323657,0.4129887900589034
1761383294457007400,5.27800732421875,3.070174337571859,0.3407597489438951,-0.2843630677329376
1761383294467077400,5.288077392578125,3.2227409805208445,0.4398467306397855,-0.48964353866167365
1761383294477148400,5.2981484375,3.698434246698022,1.102500784537941,-0.625559929452464
1761383294487218400,5.308218505859375,2.9519454330325123,0.8524389591291547,-0.19935334590207784
1761383294497288400,5.318288330078125,2.35865454595685,0.5863036585368215,0.4562668273039162
1761383294507358200,5.328358154296875,2.249454751047492,-0.4059273637726903,1.083020642716065
1761383294517428500,5.338428466796875,2.5348721136063337,-1.533119814235717,1.9305977679625153
1761383294527498500,5.34849853515625,2.4743963098555803,-2.1715973121240735,2.611085000193119
1761383294537569500,5.358569580078125,1.1241261947602033,-2.547491356682777,2.8570377828478812
1761383294547639300,5.368639404296875,-2.291950661471486,-2.736141120404005,3.0354376629725097
1761383294557709600,5.37870947265625,-6.093441962540149,-2.1014821578904983,3.089130382454395
1761383294567779600,5.388779541015625,-9.788387198078631,-1.581715356709063,2.7926275622576475
1761383294577849300,5.398849365234375,-13.332233525133132,-1.6992188695833086,2.1554430267892775
1761383294587920400,5.40892041015625,-16.275436848783492,-2.1881804903954265,1.7568512666016816
1761383294597990400,5.418990478515625,-18.5563230954051,-0.296039878860116,0.9174529908314347
1761383294608060400,5.429060302734375,-20.63178029294014,-0.07105133910514413,0.8956542698688804
1761383294618130400,5.43913037109375,-22.897136961996555,-1.057892485069856,1.4392097967863082
1761383294628200400,5.449200439453125,-25.117401274394986,-2.1568878187701106,2.250342785928398
1761383294638270500,5.4592705078125,-26.80466345646381,-2.4832544468328357,2.988104541650414
1761383294648341500,5.469341552734375,-27.565168520522118,-2.0944348697274924,3.080104195433855
1761383294658411500,5.47941162109375,-27.24536958041191,-2.01492440290004,2.783041695527732
1761383294668481300,5.489481201171875,-26.11521053522825,-1.4180721700809895,3.338617476715147
1761383294678551600,5.499551513671875,-24.280873293364046,-0.024992548567801712,4.435594675526023
1761383294688621600,5.50962158203125,-23.241450750160215,-0.6247850726224482,5.018055541029573
1761383294698691300,5.51969140625,-20.52323925420046,-0.778071115887165,4.875718615671992
1761383294708762400,5.529762451171875,-16.344230399024486,-0.7158829552605748,4.260105129890143
1761383294718832400,5.539832275390625,-12.007994507873057,-0.3256327608302235,3.12610373006463
1761383294728902400,5.54990234375,-6.881422478023171,-0.2817261068254709,1.9930670836180446
1761383294738972400,5.559972412109375,-1.2235399241924285,-0.3625543782532215,1.2817849001511932
1761383294749042400,5.57004248046875,3.7041549624323844,0.6348018781155348,-0.41867286357730626
1761383294759112400,5.580112548828125,7.862755235829949,2.3767852459311483,-2.0058985081404446
1761383294769183500,5.59018359375,9.107173697400093,4.033458228468895,-3.0514234598726033
1761383294779253500,5.60025341796875,8.911953323116897,5.301850855344534,-3.2024554406002164
1761383294789323300,5.6103232421875,7.773340337842702,6.259723827108741,-2.3177510192908346
1761383294799393500,5.6203935546875,7.430899942335486,8.265702999269962,-0.7091050586234777
1761383294809463600,5.630463623046875,7.3108753865510225,8.85334974297881,0.2946054621428251
1761383294819534600,5.64053466796875,8.498139297747612,8.702386443573236,0.9976473482698202
1761383294829604400,5.650604248046875,11.459528266429901,8.48596429130733,1.7174505457140505
1761383294839674400,5.66067431640625,14.43848562502861,7.61718882214427,2.6053923415094613
1761383294849744400,5.670744384765625,16.481120749413964,7.195427637162804,3.3045091631472108
1761383294859814400,5.680814453125,17.4796969029665,6.667633596870303,3.9508015725702044
1761383294869884400,5.690884521484375,17.63648671656847,5.888183593845367,4.296831517001986
1761383294879955500,5.70095556640625,17.517915282201766,5.262005167168379,4.141770719149709
1761383294890025500,5.711025390625,16.88192273299694,4.899306996530294,3.6258322440847754
1761383294900095500,5.721095458984375,15.005692807298898,4.804131050798297,2.886980501168966
1761383294910165500,5.73116552734375,13.10310445150733,4.591643023110926,2.3587014538384974
1761383294920235500,5.741235595703125,11.296282993078231,3.894876271730661,2.2754412790887057
1761383294930305500,5.751305419921875,9.708745506086945,2.847735993756354,2.18302193858847
1761383294940376600,5.76137646484375,8.709880598720908,1.4901336360767483,1.8719177615873515
1761383294950446300,5.7714462890625,8.399896950182319,0.6351265800252557,1.2132919402919708
1761383294960516400,5.781516357421875,7.883613899463414,0.5950426991790533,0.21039890992101282
1761383294970586600,5.791586669921875,7.623608041536808,0.7998416336685419,-0.9740686120226979
1761383294980656400,5.801656494140625,7.329871763443946,0.7983803289443254,-1.9098698911018668
1761383294990726400,5.811726318359375,7.023057977113127,0.6622516105771065,-2.527252578513324
1761383295000797400,5.82179736328125,6.852996594005822,0.5803700307041406,-2.961174156887829
1761383295010867500,5.831867431640625,6.88243136280477,0.593534340442717,-3.2200507185235616
1761383295020937500,5.8419375,7.0817749544978135,0.891437382826209,-3.216622205379605
1761383295031007500,5.852007568359375,6.8486974355071775,1.300358667717874,-2.8340543821454047
1761383295041077200,5.8620771484375,6.573814326444268,1.7216770773679018,-2.4218320098817347
1761383295051147500,5.8721474609375,6.346601900094747,2.1361624261274934,-2.201567941365391
1761383295061218600,5.882218505859375,6.348938818609714,2.3327654869407413,-1.9157199323043226
1761383295071288300,5.892288330078125,6.38413814228475,2.248361110591888,-1.39270260489434
1761383295081358300,5.9023583984375,6.613344372799992,1.9653014170750975,-0.8495756055872887
1761383295091428600,5.9124287109375,6.772271782952546,1.692724246867001,-0.4334572122657671
1761383295101498400,5.922498291015625,7.053767003631592,1.7969427462324499,-0.17661661343704907
1761383295111568400,5.932568359375,7.0500067743152375,1.8956205626055598,0.12822442978238685
1761383295121639400,5.942639404296875,6.572689121806621,1.7869187803462148,0.6496847552750259
1761383295131709400,5.95270947265625,5.758658803787827,1.4388020927682519,1.3006408456601202
1761383295141779500,5.962779541015625,4.47083023955822,0.9458946569398045,1.7697129401318727
1761383295151849500,5.972849365234375,3.1861750446677206,-0.20304683012515307,2.5387290812954304
1761383295161919200,5.982919189453125,2.0212854623645544,-1.9370184486597775,3.6348058241352437
1761383295171989500,5.992989501953125,0.7829466129690408,-3.921010829940438,4.42895976755619
1761383295182060500,6.003060546875,-0.04029167837798595,-5.362529488191008,4.201984364832938
1761383295192130300,6.01313037109375,-0.9174836782306433,-5.199124640363454,2.283718547438085
1761383295202200300,6.023200439453125,-2.017430540502071,-6.62685092010498,0.8929694146990775
1761383295212270600,6.0332705078125,-3.1905057673484083,-6.189993288278579,-1.237875323536992
1761383295222340400,6.04334033203125,-4.575913831320404,-5.946666177952289,-3.825042857047915
1761383295232410400,6.053410400390625,-6.632983723771572,-3.760720899263024,-5.73860444227457
1761383295242481400,6.0634814453125,-8.905257624870538,-2.4156585819438097,-5.3419513950645925
1761383295252551400,6.073551513671875,-9.440724684008956,-3.072928604716062,-3.7240243227675554
1761383295262621400,6.083621337890625,-10.481057327795028,-3.627282150632143,-1.6666734214179217
1761383295272691500,6.09369140625,-11.371560060119629,-3.455721468877792,0.03324621684588492
1761383295282761200,6.10376123046875,-11.543615247392653,-2.695140709234774,0.6610671500328927
1761383295292831500,6.11383154296875,-11.30510693552494,-2.0437916009441017,0.8963518967442214
1761383295302902500,6.123902587890625,-10.736641862148046,-1.8652207481667398,1.1132975614275782
1761383295312972500,6.13397265625,-10.494036051833628,-2.0924938186623154,1.5250141030609607
1761383295323042300,6.144042236328125,-10.720077680838108,-1.885606095200032,1.7989219373509286
1761383295333112600,6.154112548828125,-10.691139171123504,-1.1713844972804188,1.6774853228114543
1761383295343182300,6.164182373046875,-10.336014066088199,-0.6343897901833057,1.2969190486580133
1761383295353252400,6.17425244140625,-9.216663415166735,-0.2860945311680436,0.786679954278469
1761383295363323400,6.184323486328125,-8.04839471181929,0.16187347354181109,0.037233898242563006
1761383295373393400,6.194393310546875,-7.542695598956942,1.120705426531285,-0.8793009548306464
1761383295383463400,6.20446337890625,-6.664242785388231,1.9534930519901215,-1.729399488313496
1761383295393533400,6.214533447265625,-5.888440783476829,2.529626906429231,-2.374666938602924
1761383295403603200,6.224603271484375,-5.347300354877114,2.9058576355963943,-2.7495231645464897
1761383295413673500,6.234673583984375,-4.584624376520514,2.8105361439138647,-2.8293863903343675
1761383295423744500,6.24474462890625,-3.3450703061163423,2.3786497246287763,-2.7878324369356036
1761383295433814500,6.254814453125,-1.8735440476149319,1.868014470538497,-2.5456091961979865
1761383295443884300,6.26488427734375,-0.7491758607923984,1.2572352730453014,-2.239135601606965
1761383295453954600,6.27495458984375,0.17887714224755763,0.6793893539912998,-1.7703072527632115
1761383295464024600,6.285024658203125,1.1293570811510085,0.4207177403431385,-1.243666181898117
1761383295474094300,6.29509423828125,1.6809271338284015,0.29256606526970863,-0.7964762488886713
1761383295484165400,6.305165283203125,2.195658863452077,0.2893830513194203,-0.4285293639421463
1761383295494235400,6.3152353515625,2.9073084189265965,0.2611069510363042,-0.08000906399935484
1761383295504305400,6.325305419921875,2.7648370535343885,-0.15835983939766882,0.38601902313400055
1761383295514375400,6.33537548828125,3.0089293030142783,0.44919601213485,0.49237325588651
1761383295524445400,6.345445556640625,3.396901615640521,0.725024877615273,0.3001307101040147
1761383295534515500,6.355515380859375,3.6560090634226796,0.6912846667073667,0.14846077853273598
1761383295544585500,6.36558544921875,3.5092706882357594,0.6508930350862443,0.018935901710228062
1761383295554656500,6.375656494140625,3.191684163478017,0.8481492991112172,-0.11917153741801156
1761383295564726300,6.385726318359375,3.3413381338506936,0.8920423629820347,-0.16785822877353057
1761383295574796500,6.395796630859375,3.5299370441675184,0.5958215745970606,-0.1810973390476778
1761383295584866600,6.405866455078125,3.341801659709215,0.3705331020474434,-0.1768925991005264
1761383295594936300,6.415936279296875,2.9642858591675756,0.4775950081452727,-0.07972012752275913
1761383295605006300,6.42600634765625,2.88512698225677,0.7620180989697575,-0.18358771282499656
1761383295615077400,6.436077392578125,2.995413987880945,0.8811936367094516,-0.49224762021284546
1761383295625147400,6.4461474609375,2.60640181081295,1.1104793622016906,-0.9360365491397679
1761383295635217400,6.456217529296875,2.0009154590308666,1.3524065426021814,-1.3380115220248698
1761383295645287400,6.466287353515625,1.7885715159893034,1.5673454705730079,-1.2946022961482404
1761383295655357400,6.476357421875,2.1370482690513133,1.4433406129807234,-0.9572725216530262
1761383295665427500,6.486427490234375,2.8204361911594864,0.8669675429582595,-0.7489581263884901
1761383295675498500,6.49649853515625,2.9657834042489526,0.2465446110680699,-0.5331064309542999
1761383295685568300,6.506568359375,2.403923428225517,-0.12957944285422562,-0.2779176179205999
1761383295695638500,6.516638427734375,1.3034335451185703,0.24407208347469567,0.02889974860679358
1761383295705708500,6.52670849609375,0.6398603305488825,0.4516378523290157,0.28169110857732593
1761383295715778300,6.5367783203125,0.38483459912240503,-0.014278408460319041,0.1681520606209524
1761383295725848300,6.546848388671875,0.29466449885368345,-0.33828941330760715,0.0028460736135020853
1761383295735918600,6.556918701171875,0.07620236519277096,-0.6320709918469191,0.008993535993108525
1761383295745989400,6.5669892578125,-0.3303945684045553,-0.6829884013965726,0.11275335007193497
1761383295756059400,6.577059326171875,-0.6408166083604097,-0.5051096225365996,0.15205522282812745
1761383295766129400,6.58712939453125,-0.6816735194057226,-0.4081652058273554,0.15834387464355676
1761383295776199400,6.597199462890625,-0.5916156473398209,-0.3949892056509852,0.15509597876351325
1761383295786269400,6.60726953125,-0.4867991820812225,-0.5602037332490086,0.25451270387042313
1761383295796339500,6.61733935546875,-0.6510936722248792,-0.6512380491316319,0.31857012896761294
1761383295806410200,6.62741015625,-1.0305226129114626,-0.6620087417319417,0.3034840573862195
1761383295816480500,6.63748046875,-1.1717442705035208,-0.5561760851681232,0.08843790618125348
1761383295826550500,6.647550537109375,-1.1985597967147827,-0.40769963414222,-0.17111361384028567
1761383295836620300,6.657620361328125,-1.176199496346712,-0.2705979790896177,-0.39708161135297265
1761383295846690300,6.667690185546875,-0.960754080158472,-0.13959405639022587,-0.6300666662871838
1761383295856760600,6.677760498046875,-0.9069646223038434,-0.2418289807230234,-0.8968402647830546
1761383295866830300,6.687830322265625,-0.9256132086724043,-0.23603052357733248,-1.0292228554245084
1761383295876901400,6.6979013671875,-0.8132301075518131,-0.21559037761688232,-1.0112832210429012
1761383295886971400,6.707971435546875,-0.6710983493775129,-0.3078171181544661,-1.0685819291274994
1761383295897041400,6.71804150390625,-0.1765092440724373,-0.3652168754607439,-1.1768594215601682
1761383295907111400,6.728111328125,0.35980011110901833,-0.5019590495511889,-1.0732554008312523
1761383295917181400,6.738181396484375,0.5186708226382732,-0.7443921336472034,-0.7267655107375234
1761383295927251500,6.74825146484375,0.5550193163484335,-1.0208131198018788,-0.3705458884637803
1761383295937322500,6.758322509765625,0.5197089335143565,-1.3425447815403342,-0.054390638618171214
1761383295947392500,6.768392578125,0.7570709979563951,-1.0643079781353473,0.009765314950048922
1761383295957462300,6.778462158203125,0.8023118231743573,-0.6604951222985983,-0.1417998228061944
1761383295967532300,6.7885322265625,0.6959487129956483,-0.5118605581015349,-0.31959026579558847
1761383295977602600,6.7986025390625,0.5877075339853763,-0.4563531904131174,-0.4285797789551317
1761383295987672300,6.80867236328125,0.5566016171038151,-0.2619318575531244,-0.39503377544507384
1761383295997742300,6.818742431640625,0.17555121269524096,0.3294204626753926,-0.2114452406361699
1761383296007813400,6.8288134765625,0.4379600401103496,0.011341185964643955,-0.37655806142538784
1761383296017883600,6.838883544921875,0.4479828369528055,-0.18862462927997112,-0.49077254269160325
1761383296027953400,6.848953369140625,0.18867606720626354,0.12691899147331714,-0.5850089425511658
1761383296038023400,6.8590234375,0.3856868320375681,0.24920243210047482,-0.7264698887918144
1761383296048093400,6.869093505859375,0.5852542956143617,0.1420785666823387,-0.7847944327928126
1761383296058163500,6.87916357421875,0.6037549979448318,0.039787820509076116,-0.7674643816769122
1761383296068233500,6.8892333984375,0.6664192516505718,0.026518004569411276,-0.7314082950420677
1761383296078304500,6.899304443359375,0.8136620692282914,0.1077408282727003,-0.7663098048143089
1761383296088374300,6.909374267578125,1.0101625464498996,0.1804141425564885,-0.8833852284695952
1761383296098444500,6.919444580078125,1.262357438364625,0.20920067657977343,-0.8838133176885544
1761383296108514600,6.9295146484375,1.614893695950508,0.16974720259159803,-0.7792052344836294
1761383296118584300,6.939584228515625,1.9489380190342664,0.15105360803753137,-0.7086176404327154
1761383296128654600,6.949654541015625,2.3257027089476585,0.20676760421395302,-0.7453245191264897
1761383296138725600,6.9597255859375,2.6605104176193475,0.31830081050693987,-0.8845216120883822
1761383296148795400,6.96979541015625,2.890970447587967,0.5188172453716396,-0.9508449728235602
1761383296158865400,6.979865478515625,3.1121500235140322,0.7253516253516078,-0.9328240898992866
1761383296168935400,6.989935302734375,3.317890622767806,0.9090320762276649,-0.8345028318788856
1761383296179005400,7.00000537109375,3.5055326707512138,1.0218675972908735,-0.7022030241500586
1761383296189075500,7.010075439453125,3.7153964874148366,1.0279904640853403,-0.5915444087345153
1761383296199145200,7.020145263671875,3.7899119224339723,0.9560600771233438,-0.49956817235928025
1761383296209216300,7.03021630859375,3.608635902351141,0.8966422579929232,-0.4716508223859593
1761383296219286500,7.04028662109375,3.4445144306868314,0.9529279165774583,-0.592418378557451
1761383296229356500,7.0503564453125,3.9142175165385007,1.107162492738664,-0.8272219541557133
1761383296239426300,7.06042626953125,4.4105911671727895,1.1711313993021846,-1.0878281160630285
1761383296249496600,7.07049658203125,3.937191564890742,0.9042904346585273,-1.0196915684260428
1761383296259566600,7.080566650390625,2.9301661474227902,0.9006208062350749,-0.7000568789668381
1761383296269636400,7.09063623046875,2.0594225930571555,0.673011489522457,-0.7621436250455677
1761383296279707400,7.100707275390625,1.7690099064290523,0.36818157048523426,-0.9519562950663268
1761383296289777400,7.11077734375,1.491665375688672,0.3144020495027304,-1.0325776457451283
1761383296299847400,7.120847412109375,0.9161901312887668,0.1069023316219449,-1.2487499149031935
1761383296309917400,7.13091748046875,0.5383879150211811,-0.2586787009760737,-1.2315582493446766
1761383296319987500,7.140987548828125,-0.0004021510601043701,-0.5713938203051686,-0.8284104332879185
1761383296330057500,7.151057373046875,-0.5996534078449011,-0.7660708814918994,-0.47113618739470836
1761383296340127500,7.16112744140625,-1.056630283114314,-0.48178427652865646,-0.34503877796996385
1761383296350198500,7.171198486328125,-1.7685259223043917,0.11478344026058912,-0.674190470173955
1761383296360268300,7.181268310546875,-2.804687417885661,0.5432011605218052,-0.5233645334124565
1761383296370338600,7.191338623046875,-4.778702010509371,-0.06554390079528093,-0.12888912250250578
1761383296380408600,7.20140869140625,-6.099214700722694,-1.2039613634973765,0.0766570501577109
1761383296390478300,7.211478271484375,-7.0718357442855835,-1.9778896804913877,0.12438866927810012
1761383296400548400,7.22154833984375,-8.565777832734584,-1.9433722016006707,-0.14832359855175017
1761383296410618600,7.23161865234375,-9.426681545609235,-1.9195429977238176,-0.5070691591065377
1761383296420689400,7.241689453125,-11.103187355864048,-2.688294204340875,-0.6228441676877439
1761383296430759400,7.251759521484375,-13.171871113741398,-3.947382411776483,-0.10276859281808137
1761383296440829400,7.261829345703125,-14.876764814090729,-5.246157025173306,0.7836912938565015
1761383296450899500,7.2718994140625,-16.01206180668473,-5.9332829647660255,1.3461544964700936
1761383296460969500,7.281969482421875,-16.732308510112762,-6.471624702557921,1.4119802829466759
1761383296471039500,7.29203955078125,-17.240063970983027,-7.201789573410153,1.538798006002605
1761383296481109500,7.302109619140625,-16.955680043125152,-7.0457917869687074,1.260963938179612
1761383296491180500,7.3121806640625,-16.335203042960167,-6.157207455486059,0.32613778774291274
1761383296501250600,7.32225048828125,-15.866230609470605,-5.443475833040475,-0.15212540198750793
1761383296511320300,7.3323203125,-15.437590186369418,-4.367048085783422,0.07859656685292721
1761383296521390300,7.342390380859375,-14.716844301247596,-3.3682077283367513,0.552894652344659
1761383296531460600,7.352460693359375,-13.140225098633765,-2.925855006225407,0.8477141956295817
1761383296541530400,7.3625302734375,-11.471041009569168,-2.780209394711256,1.1922669801808894
1761383296551600400,7.372600341796875,-8.995061229914427,-2.4195108734577895,1.2894473976030945
1761383296561670700,7.382670654296875,-6.083508013024926,-1.7468512661129236,1.364798114402592
1761383296571741400,7.392741455078125,-3.4762872870445247,-0.8279930846586823,1.4060513312891125
1761383296581811500,7.4028115234375,-1.1707289559811354,0.5048346049875021,1.3037933183416723
1761383296591881500,7.412881591796875,0.9776485163360834,1.6237033176109195,0.9881544935856014
1761383296601951500,7.422951416015625,2.6612153510183094,1.5504028113394974,0.9080506639748811
1761383296612021500,7.433021484375,3.8788644636064764,1.9647364766687154,0.5678269946690648
1761383296622091500,7.443091552734375,5.376051817587018,3.0825127178803085,-0.09184913939684629
1761383296632162300,7.453162353515625,7.057559966173768,4.8637318252801895,-0.44209257333781565
1761383296642232300,7.463232421875,7.618890949887037,5.475701109340787,-1.1009766437105835
1761383296652302600,7.473302490234375,8.018497001683711,5.065350960689782,-1.8199543501161037
1761383296662372400,7.483372314453125,8.790997039440274,5.18093139654696,-2.142225671689212
1761383296672442400,7.4934423828125,9.721759885960816,5.159457815885544,-2.716280527897179
1761383296682512600,7.5035126953125,10.581450131392478,5.2078305093884465,-2.7522885376065966
1761383296692582400,7.51358251953125,10.796846447741984,5.009898538058996,-2.2857310563042756
1761383296702652400,7.52365234375,10.673241110861301,4.780530979502201,-1.8056486152574418
1761383296712723500,7.533723388671875,11.014961959922314,4.65690109270215,-1.2960343747779726
1761383296722793200,7.543793212890625,11.486118167191743,4.556515595628321,-0.8035618963006883
1761383296732863500,7.553863525390625,11.990395722818374,4.338803695812821,-0.5325153697259724
1761383296742933500,7.56393359375,12.572834376490116,4.094104420350492,-0.5697839008904994
1761383296753003300,7.574003173828125,13.025820136296748,3.8131756013825533,-0.8636511118866502
1761383296763073500,7.584073486328125,13.176757716739177,3.606262743479013,-1.0469868409782648
1761383296773143600,7.5941435546875,12.938354618811607,3.1796696082964537,-0.9967797716550528
1761383296783214300,7.60421435546875,12.379077060496806,2.5389859786659477,-0.8196418742902577
1761383296793284400,7.614284423828125,11.600700824183225,2.1625562197953463,-0.60372109567523
1761383296803354600,7.624354736328125,10.72436105724573,1.9841826431557534,-0.319136092287302
1761383296813424400,7.63442431640625,9.905134924149513,1.7281228925064205,-0.048626814394444225
1761383296823494400,7.644494384765625,9.210752729818225,1.640405153825879,-0.14665186594724655
1761383296833564400,7.654564453125,8.577473531225323,1.7315192569464444,-0.4046137969560921
1761383296843634400,7.664634521484375,8.182878001067042,1.8874393019765614,-0.717541389992088
1761383296853705000,7.674705078125,8.040781898728012,2.3649498467087744,-0.8909639200955629
1761383296863774700,7.684774658203125,8.021086433655023,2.7931401879549025,-0.9207539320729672
1761383296873844700,7.6948447265625,8.165717022907733,2.8363170663803814,-0.7659576303757727
1761383296883915000,7.7049150390625,8.491718909311293,2.758644044113159,-0.6360926485784352
1761383296893984800,7.71498486328125,8.71133138205111,2.7671789404854175,-0.5375884352065623
1761383296904054800,7.7250546875,8.375489654156565,2.6953745179906488,-0.3152091281019151
1761383296914124800,7.735124755859375,7.4050465391546485,2.6066645534023642,-0.1254376668743789
1761383296924194800,7.74519482421875,6.99002372251749,2.613375156956911,-0.3342491980060935
1761383296934265900,7.755265869140625,6.735739749369025,2.538588211520016,-0.5743330886274576
1761383296944336000,7.7653359375,6.229777601656317,2.0703528601333496,-0.2623638192296028
1761383296954406000,7.775406005859375,5.065007261818647,1.2392226464927196,0.5685207490868867
1761383296964476000,7.785475830078125,3.6001562432974574,-0.1291147479519248,1.7506877755358814
1761383296974546000,7.7955458984375,1.7989497021406888,-1.7962883739769457,2.9566005653619762
1761383296984615700,7.80561572265625,0.07522504459321498,-3.7508413102835414,4.1472558725625275
1761383296994686000,7.81568603515625,-1.6590964102923869,-5.885594161874056,5.339834841302037
1761383297004757000,7.825757080078125,-3.762867848163843,-6.32104484951198,4.6279216664552685
1761383297014826800,7.83582666015625,-4.391255183061957,-5.2476925641775125,2.5048013849914073
1761383297024896800,7.845896728515625,-4.474444338402152,-5.1861950161635875,0.7347180771771818
1761383297034967000,7.855967041015625,-5.394968114981055,-2.0211337789341806,-2.2227510146476326
1761383297045036800,7.866036865234375,-5.87775280072391,-0.5352095772460103,-2.603658065062761
1761383297055106800,7.87610693359375,-7.512244931113719,-1.2917585971549153,-0.41212596268448976
1761383297065177000,7.886177001953125,-9.098347416865826,-1.8753247935518622,1.8142979317896066
1761383297075246800,7.896246826171875,-9.416011098513007,-2.632873638153076,3.16804785182476
1761383297085316900,7.90631689453125,-9.181113378357887,-3.5348899903997775,3.507787171679735
1761383297095388000,7.916387939453125,-8.965553395879269,-3.647148003835976,2.291725036022067
1761383297105457700,7.926457763671875,-9.048684099030494,-3.9186788798615333,0.904012348369509
1761383297115528000,7.93652783203125,-10.5539553907454,-4.924602765828371,0.8596545895963906
1761383297125598000,7.946597900390625,-10.035985994374752,-3.9902375109016894,-0.0068075976556167
1761383297135667700,7.956667724609375,-9.573795768371223,-2.679814253026247,-0.9937660498570651
1761383297145738000,7.966738037109375,-9.401732982313632,-2.2671987897917627,-1.6979186006397007
1761383297155807700,7.976807861328125,-8.621806593948602,-1.547613472881913,-2.5735095950365063
1761383297165878800,7.986878662109375,-7.67198190408349,-0.5950985210195183,-3.3217128114044665
1761383297175948800,7.99694873046875,-6.880248758068681,-0.18168825414553283,-3.9208573929443955
1761383297186018800,8.007018798828126,-5.790898108613491,0.9523715978689491,-4.37681398525536
1761383297196088800,8.0170888671875,-6.650308368059992,1.6389489636681973,-3.6968905243873595
1761383297206158800,8.027158935546876,-7.303555418926477,1.6429655058331787,-3.1362317408472298
1761383297216228900,8.037228759765625,-6.866510155573487,1.6510627414405346,-2.8206656160011887
1761383297226299000,8.047298828125,-6.2764265401065344,2.0286771800510586,-2.190514486300945
1761383297236370000,8.057369873046875,-5.224297660064697,2.3017107157245276,-1.6449346139490604
1761383297246440000,8.06743994140625,-3.716950731119513,2.043967395902425,-1.132695724054426
1761383297256509700,8.077509765625,-2.2310738757044075,1.4484090022861957,-0.5357901901455596
1761383297266580000,8.087580078125,-0.5425345133066177,0.8705857334554195,-0.08343995176348835
1761383297276650000,8.09764990234375,1.2293436420351267,0.7047250169083475,0.1432671919450164
1761383297286719700,8.1077197265625,2.793516620051861,0.5352893644839525,0.42280375283695754
1761383297296789800,8.117789794921874,4.193970277464389,0.35708982923701404,0.5114753947088495
1761383297306859800,8.12785986328125,5.184146266940235,0.21691578100174663,0.3498215552670881
1761383297316929800,8.1379296875,6.204342131626605,0.10763035363554954,0.34484398605022576
1761383297327000800,8.148000732421876,6.666317838096618,0.10302753601521253,0.23637276114374398
1761383297337070800,8.15807080078125,5.608930014613271,-0.2322609419107437,-0.03098638215512037
1761383297347140900,8.168140869140625,5.080237564176321,-0.6728206431254744,0.04263749258546158
1761383297357211000,8.1782109375,4.361531660449504,-0.30168636031448837,-0.0928915611218661
1761383297367281000,8.188281005859375,3.07390300270617,0.04897475104928017,-0.10455684620803221
1761383297377351000,8.198350830078125,2.337201423561573,0.23774843341112137,-0.010867978962324559
1761383297387421000,8.2084208984375,1.6501801133871077,-0.0450607924759388,-0.34395131152682007
1761383297397492000,8.218491943359375,0.9290595497339963,-0.3282654474213719,-0.80378014216125
1761383297407561700,8.228561767578125,-0.08777356052100659,-0.3229875070184469,-1.1194248852014541
1761383297417631700,8.2386318359375,-0.895691533139348,0.3833081202074885,-1.0442771436281502
1761383297427702000,8.248701904296874,-1.2702344553500413,1.00387659804821,-1.08570410964638
1761383297437771800,8.258771728515624,-1.4458002810925243,1.0757552548229694,-1.0613085771236568
1761383297447841800,8.268841796875,-1.5219108763486147,0.8736226169332861,-0.9018103813458234
1761383297457911800,8.278911865234376,-1.2272048764407635,0.8672384688541293,-0.5921943970758468
1761383297467981800,8.28898193359375,-0.9548013092339038,0.9686062549635768,-0.24127109111193565
1761383297478052900,8.299052978515626,-0.6381213779270648,0.7985822812572121,-0.3138545716878027
1761383297488123000,8.309122802734375,-0.07449030057787895,0.44789545093029737,-0.46789325995072717
1761383297498193000,8.31919287109375,0.35775428449511526,0.1592258085772395,-0.24989867073632777
1761383297508263000,8.329262939453125,0.6134235745221376,0.2759808411717415,0.19410408360436557
1761383297518333000,8.3393330078125,0.6384674148857593,0.163896722997725,0.34664581130780275
1761383297528402700,8.349402587890625,0.5372083498477935,-0.09876520239561795,0.4115399429574609
1761383297538473000,8.359472900390625,0.4893810152679681,-0.3189303405821323,0.48414442978873845
1761383297548542700,8.369542724609374,0.3721826228201389,-0.5344076132133603,0.45070049841366705
1761383297558612700,8.37961279296875,0.26519348969757556,-0.6179340376839041,0.4311953682810068
1761383297568683800,8.389683837890624,0.26752047134041784,-0.717758686004579,0.2762923913389444
1761383297578754000,8.399754150390624,0.4482061243146658,-0.8884165737003088,0.036154578573256727
1761383297588823800,8.40982373046875,0.452331095290184,-0.8534469671279191,-0.19881255355626343
1761383297598893800,8.419893798828125,0.44354573128819463,-0.842134130474925,-0.30677286979854107
1761383297608963800,8.4299638671875,0.4854699793040752,-0.6224670049384236,-0.36502500615045425
1761383297619033900,8.440033935546875,0.1953214965701103,-0.5242372245937585,-0.3605385814514011
1761383297629103900,8.450103759765625,-0.060198740375041956,-0.3058949179202318,-0.3041606414735317
1761383297639173600,8.460173583984375,-0.26921967647373674,-0.07027414418756961,-0.1724635488782078
1761383297649244700,8.47024462890625,-0.3282376826316118,0.0589507861405611,-0.12782507346756755
1761383297659315000,8.48031494140625,-0.3015782237648964,0.03875175545960664,-0.0720812666747719
1761383297669385000,8.490385009765625,-0.31511633525192734,0.0052127662122249604,-0.011564181065559386
1761383297679454700,8.500454833984374,-0.24606734894514082,-0.05097060104161501,0.13216770578175782
1761383297689525000,8.51052490234375,-0.10805705461502074,-0.2084896057009697,0.2652867940042168
1761383297699594800,8.5205947265625,0.17910627482831476,-0.11673223624080419,0.15846234992407263
1761383297709664800,8.530664794921876,0.564943913513422,-0.017693477600812912,0.07272511753626168
1761383297719734800,8.54073486328125,0.735731857329607,0.004996785373985767,0.13873787795230746
1761383297729805800,8.550805908203126,0.8613596399486064,0.3269473505601287,0.0635778614193201
1761383297739875800,8.560875732421875,0.4334732500851154,0.9573577157184481,-0.10417005711384117
1761383297749945900,8.57094580078125,1.4119675695955753,0.40990649653673167,0.00448211385011673
1761383297760016000,8.581015869140625,1.5617530573934315,0.07113923658430577,-0.047370530723035334
1761383297770086000,8.5910859375,0.7985966020435095,0.012280804902315139,-0.021592238605022428
1761383297780156000,8.601156005859375,1.0704963113814592,0.0005637713626027107,0.027408377537876366
1761383297790225700,8.6112255859375,1.4067343451172112,0.10407616828531026,0.00345949280411005
1761383297800296000,8.6212958984375,1.315002402359247,0.21405133148133754,-0.0926154475942254
1761383297810366000,8.631365966796874,1.40186878490746,0.2316249820947647,-0.18657149614244697
1761383297820437000,8.64143701171875,1.8325000895649193,0.31879210115522144,-0.35492629452757535
1761383297830506800,8.6515068359375,2.1581150224775074,0.4986187992125749,-0.44351007545292376
1761383297840576800,8.66157666015625,2.3584084622412917,0.5463748221218586,-0.4457889801703393
1761383297850646800,8.671646728515626,2.564963300487399,0.4687500229105353,-0.38445867848210036
1761383297860717300,8.68171728515625,2.7784470612138508,0.35280981383025645,-0.35517676215730604
1761383297870787000,8.691787109375,2.9720915644824504,0.28705899228602644,-0.415608726766333
1761383297880857300,8.701857421875,3.117105600094795,0.2668766204789281,-0.5178147903308272
1761383297890927000,8.711927001953125,3.280397635197639,0.34365503199398517,-0.6217996270708739
1761383297900998100,8.721998046875,3.466414127805829,0.5107420754656196,-0.7532986398108303
1761383297911068200,8.732068115234375,3.677010350397229,0.7283230423778295,-0.8388727905914187
1761383297921138200,8.74213818359375,3.895902107647061,0.9817138660788536,-0.9165421595968306
1761383297931208200,8.752208251953125,4.10372185126245,1.242545068913698,-1.0813414574574678
1761383297941278200,8.7622783203125,4.2902971467971796,1.5044938776016235,-1.2730135646745562
1761383297951348000,8.772347900390624,4.541877121683955,1.755257859930396,-1.3586311162054538
1761383297961418200,8.782418212890626,4.858631287270784,1.9548225470282137,-1.3696385401710867
1761383297971488300,8.79248828125,4.854366615563631,1.9646863539166748,-1.2494755988292396
1761383297981558000,8.80255810546875,4.567964918142557,1.925365858658403,-0.9478687334917485
1761383297991629000,8.812629150390626,4.366580760532617,1.8065597387529908,-0.8334997192509472
1761383298001699300,8.82269921875,4.166200811529159,1.64107925369516,-0.8180321010060608
1761383298011769300,8.832769287109375,3.75310107190907,1.4379573125071823,-0.6575075578551739
1761383298021839000,8.842839111328125,3.1214485977351663,1.204502923028171,-0.5467847911622374
1761383298031909000,8.8529091796875,2.0186276413321496,0.9081395113021135,-0.33632863462865353
1761383298041979100,8.862979248046875,0.3977957875043154,0.1943001906983554,-0.11383165596108882
1761383298052049200,8.873049072265625,-0.6895376769095659,-1.0568545933894813,0.0870581422606483
1761383298062119200,8.883119140625,-1.7937158931404351,-1.7555651723138987,0.6608331220813095
1761383298072189200,8.893189208984374,-4.632590242788195,-1.8903689256876706,1.3913609810270369
1761383298082260200,8.90326025390625,-9.907858796155452,-2.2404360166810453,2.245841821247339
1761383298092330200,8.913330322265624,-16.083863306570052,-3.353245429265499,1.9935712337478995
1761383298102400000,8.92339990234375,-18.628121088159084,-5.013237327092885,0.4639621675794944
1761383298112470300,8.93347021484375,-20.078067383015156,-4.289292645929754,-1.2966358478024602
1761383298122540300,8.943540283203125,-21.525762099552153,-2.4040832949623465,-1.6208660483583808
1761383298132610000,8.953610107421875,-22.576685695457456,-1.82924459490031,-1.4378010990321635
1761383298142680000,8.96368017578125,-22.44700133092403,-2.6828245407581326,-2.1263404125541445
1761383298152750300,8.973750244140625,-21.42996831418276,-3.306521672013402,-1.849987230938673
1761383298162820000,8.983820068359375,-20.86042655148506,-3.2420471540153026,0.1625262748947367
1761383298172891100,8.99389111328125,-19.580332965421675,-3.442442300587892,1.7893467381455004
1761383298182961200,9.003961181640625,-16.93009552001357,-3.453793423424661,2.5007184995919465
1761383298193031200,9.01403125,-14.028459886026381,-2.9750170965403315,2.7176746126040814
1761383298203101200,9.02410107421875,-13.036327501785754,-1.7951726678200064,2.2236143534786996
1761383298213171200,9.034171142578124,-12.025196987086535,-0.32443580613061784,0.4768116757478565
1761383298223241200,9.0442412109375,-10.67346439822316,0.49853112092912194,-0.9463886510018259
1761383298233311200,9.054311279296876,-8.658903275677561,1.19868576118201,-1.1519491444483398
1761383298243381200,9.06438134765625,-6.324232831898331,1.7575225899919866,-0.7834444794885814
1761383298253451000,9.074450927734375,-4.082717057156563,2.249078318950534,-0.5558665808275342
1761383298263522000,9.08452197265625,-1.346921973711252,2.4724881381466983,-0.4552638608064502
1761383298273592300,9.09459228515625,1.3155395779758692,2.8285829649969934,-0.45768962664864954
1761383298283662000,9.104662109375,3.9627147132039067,3.2089658454075454,-0.8209078025728463
1761383298293732000,9.114732177734375,5.827375781661272,3.9297608303681013,-0.6439535912118852
1761383298303802400,9.12480224609375,7.882008217832445,4.306657037706673,-0.9455436515450477
1761383298313872100,9.1348720703125,9.331027460971475,4.530841640667617,-0.9598761282801628
1761383298323942100,9.144942138671874,9.64944692942202,4.862693129882216,-0.6619123686853796
1761383298334012200,9.15501220703125,9.099844961947202,4.920615157496929,-0.1962631248017773
1761383298344082200,9.165082275390626,8.167468835011125,5.14126106493771,0.046302810159977524
1761383298354153200,9.1751533203125,7.647752302712202,5.805015481293201,-0.08659397708131
1761383298364223200,9.18522314453125,8.714675431782007,6.1436044620692725,-0.258319402677007
1761383298374293000,9.19529296875,9.372631390991806,6.333259603440761,-0.6123981039319187
1761383298384363300,9.20536328125,10.185274054044484,6.1271758898377415,-0.5214718515336513
1761383298394433300,9.215433349609375,10.879413671791553,5.873155536061525,-0.0036036139825358984
1761383298404503000,9.2255029296875,11.127729091924428,5.313001194912195,0.7663290940366685
1761383298414573300,9.2355732421875,11.008707575702667,4.77421112883091,1.6643251047261058
1761383298424643300,9.245643310546875,10.661423247295618,4.023013991343975,2.4936010688021777
1761383298434713000,9.255713134765625,11.208932041883468,3.8827304913848635,2.468728493352234
1761383298444784000,9.2657841796875,11.600590934067965,3.3431519052743908,2.01128750770241
1761383298454854100,9.275854248046874,12.307004342454672,3.23117855399847,1.2834496184930204
1761383298464924200,9.285924072265624,12.239048996603488,3.1909441587656735,0.48111072464864696
1761383298474994200,9.295994140625,11.596257288777828,3.61516559638083,-0.3246515677731484
1761383298485064200,9.306064208984376,10.156862783074379,3.981500662216544,-0.7233076253686099
1761383298495134200,9.31613427734375,8.45649795832634,4.513430487139523,-1.0802878567513077
1761383298505204200,9.326204345703125,7.247891399371624,5.114837752914428,-1.3194215339757502
1761383298515274200,9.336274169921875,6.487343665215373,5.678910728812218,-1.439111012586951
1761383298525344300,9.34634423828125,6.5203153759688135,5.871173422333598,-1.4887714078128338
1761383298535414300,9.356414306640625,7.157087092852592,5.99349456462264,-0.8983142828583717
1761383298545485300,9.3664853515625,7.6650927290916435,5.707977833342552,-0.5169837463341653
1761383298555555000,9.37655517578125,8.285126077142356,5.2816152920454735,-0.5949921380355954
1761383298565625000,9.386625,8.628457284009457,4.555866191808879,-0.7723335951484739
1761383298575695400,9.3966953125,8.233058620774745,3.5800416760295626,-0.8025976543784141
1761383298585765000,9.40676513671875,6.808381791731715,3.202702401098609,-0.7084602579139173
1761383298595835100,9.416835205078126,5.374314618530869,3.1091745148345824,-0.5847662198364735
1761383298605905400,9.426905517578126,4.209979162979126,2.547497786423564,-0.32818536792248487
1761383298615975200,9.43697509765625,3.5486470053344963,1.3199939270362258,0.5488996644243598
1761383298626045200,9.447045166015625,3.5967806293845173,0.24064590841829775,1.7650367650143801
1761383298636116200,9.4571162109375,2.807856111049652,-1.7349696896612643,2.2235255061514674
1761383298646186200,9.467186279296875,2.439451837724447,-4.130275219406188,2.6473490304902194
1761383298656256300,9.47725634765625,1.2878320713609457,-5.8449517703622575,3.099004126214981
1761383298666326300,9.487326171875,-5.542986008584499,-7.85337307497859,3.8800674096554517
1761383298676396000,9.49739599609375,-7.047097608870267,-6.071323654234409,1.9814327599257229
1761383298686466300,9.50746630859375,-6.171571496403217,-3.7886543235883114,-0.09140387984737754
1761383298696536000,9.5175361328125,-6.004174948590993,-3.3915465183481572,-1.236866438755393
1761383298706606000,9.527606201171874,-6.7452914215683935,-3.1859082104250787,-1.1761206589568405
1761383298716676400,9.53767626953125,-8.235545761415361,-2.9313913053035736,-0.18266710911504924
1761383298726746000,9.54774609375,-9.09966492920518,-2.708544672948122,1.0089056051913647
1761383298736817200,9.557817138671876,-9.818541513323783,-2.95573605748713,2.273649573366344
1761383298746887200,9.56788720703125,-11.07956916438937,-3.653813306944072,3.2143682889729734
1761383298756957200,9.577957275390625,-11.763289094930887,-4.0276512957558035,2.773073259221017
1761383298767027200,9.588027099609375,-11.040636499404906,-3.3583637951925396,1.2296132527567445
1761383298777097200,9.59809716796875,-9.50125426377356,-2.3527938372299073,-0.3061398325920105
1761383298787167000,9.6081669921875,-8.131213864803314,-1.6013181750625372,-1.2614166503831743
1761383298797237200,9.6182373046875,-7.296894791993498,-1.3342860717609524,-1.5213894828230141
1761383298807307300,9.628307373046875,-6.89464845482111,-1.5041896339580416,-1.3665719922073185
1761383298817377000,9.638376953125,-6.466835130193829,-1.4683105113252997,-1.1311080895368009
1761383298827447300,9.648447265625,-5.055333424544334,-0.9950169997662305,-1.1638364199884235
1761383298837517300,9.658517333984374,-3.725383043900132,-0.31109657821655273,-1.2386965767920017
1761383298847588000,9.668588134765624,-3.116266226661205,0.35326427959948775,-1.2468826597265898
1761383298857662000,9.678661865234375,-2.7840128786474465,0.5920040621355176,-1.2337997446611524
1761383298867732000,9.68873193359375,-2.8164357233464714,0.5059428584903478,-1.240999300776422
1761383298877802200,9.69880224609375,-2.7620991530030965,0.5504100689873099,-1.2227123873271046
1761383298887872000,9.7088720703125,-2.189377591225505,0.8912474132120609,-1.318474316253513
1761383298897942000,9.71894189453125,-1.649258322367072,1.347686820603907,-1.3720198823496699
1761383298908012000,9.729011962890626,-1.158601295813918,1.5322715268433094,-1.1764518636725843
1761383298918082000,9.73908203125,-0.45415714167356486,1.460094471643865,-1.02442203101404
1761383298928152000,9.749152099609375,0.5806015013724565,1.3491376039341092,-0.9146644560914486
1761383298938222000,9.75922216796875,1.3875076665997503,1.1792051079034804,-0.7055489005118608
1761383298948292900,9.76929296875,1.826723259729147,0.9335589069798588,-0.5937757479831576
1761383298958363100,9.779363037109375,2.144768049648404,0.6996154188096523,-0.6243767110172659
1761383298968433200,9.78943310546875,2.2485656932532785,0.6269231075644492,-0.6242620716616512
1761383298978503000,9.7995029296875,2.0713994465768337,0.5903495729267597,-0.5406627280853689
1761383298988573200,9.8095732421875,2.0381758068889377,0.5160238152608275,-0.5099626155257225
1761383298998643200,9.819643310546875,2.1546908932477233,0.6032894262596964,-0.46694560383707284
1761383299008713000,9.829712890625,2.229575161579251,0.7757704377293586,-0.4638929382681846
1761383299018783000,9.839782958984374,2.3584108003288504,0.9245292128279805,-0.542413663405925
1761383299028853000,9.84985302734375,2.6105904946744443,1.2540166032597422,-0.10747589372619985
1761383299038923000,9.859923095703126,0.8714847281217575,0.863212574338913,0.5428913639202714
1761383299048993000,9.869992919921875,0.6283516790628433,0.19087620759904383,0.4394450179710984
1761383299059064000,9.88006396484375,1.263254679465294,0.3816580149129033,0.21408537988141177
1761383299069134000,9.890134033203125,1.195597439777851,0.783793000665307,-0.12317410585656761
1761383299079204000,9.9002041015625,1.3843968411028384,0.8527847038269043,-0.5273940811894834
1761383299089274000,9.910274169921875,1.7503823628485202,0.8272086562827229,-0.7520192675247788
1761383299099344100,9.92034423828125,2.069358296138048,0.6927268283396959,-0.8184915352113544
