time,seconds_elapsed,z,y,x
1761383289216719000,0.037718994140625,-0.7821807861328125,-0.6432037353515625,0.0848846435546875
1761383289226790100,0.0477900390625,-0.76605224609375,-0.64453125,0.101348876953125
1761383289236860200,0.057860107421875,-0.7637786865234375,-0.6390533447265625,0.1091766357421875
1761383289246930200,0.06793017578125,-0.7770233154296875,-0.6375274658203125,0.115264892578125
1761383289257000200,0.078000244140625,-0.7762908935546875,-0.6338348388671875,0.118927001953125
1761383289267071200,0.0880712890625,-0.7730712890625,-0.6278076171875,0.1161041259765625
1761383289277141000,0.09814111328125,-0.778961181640625,-0.6205596923828125,0.113128662109375
1761383289287211300,0.108211181640625,-0.78814697265625,-0.6081695556640625,0.1133270263671875
1761383289297281300,0.11828125,-0.7942657470703125,-0.594024658203125,0.1122894287109375
1761383289307352000,0.12835205078125,-0.7966461181640625,-0.5825042724609375,0.1116943359375
1761383289317422000,0.138422119140625,-0.8066864013671875,-0.577789306640625,0.116943359375
1761383289327492400,0.148492431640625,-0.813018798828125,-0.574615478515625,0.1240692138671875
1761383289337562000,0.15856201171875,-0.8062286376953125,-0.5679168701171875,0.1320037841796875
1761383289347633200,0.168633056640625,-0.7999420166015625,-0.563201904296875,0.1441650390625
1761383289357703200,0.178703125,-0.7910308837890625,-0.563873291015625,0.1585235595703125
1761383289367773200,0.188773193359375,-0.777496337890625,-0.5677490234375,0.1691131591796875
1761383289377843200,0.19884326171875,-0.762847900390625,-0.57305908203125,0.1739654541015625
1761383289387914200,0.208914306640625,-0.75799560546875,-0.578857421875,0.1741943359375
1761383289397984300,0.218984375,-0.7624969482421875,-0.582489013671875,0.1679840087890625
1761383289408054000,0.229053955078125,-0.76031494140625,-0.58209228515625,0.15802001953125
1761383289418124300,0.239124267578125,-0.761932373046875,-0.578155517578125,0.149993896484375
1761383289428195300,0.2491953125,-0.774566650390625,-0.5732421875,0.1479949951171875
1761383289438265000,0.25926513671875,-0.788360595703125,-0.5677947998046875,0.152252197265625
1761383289448335000,0.269335205078125,-0.80499267578125,-0.563720703125,0.1583099365234375
1761383289458405400,0.2794052734375,-0.812164306640625,-0.5605621337890625,0.159637451171875
1761383289468476400,0.289476318359375,-0.807281494140625,-0.558837890625,0.1617431640625
1761383289478546200,0.299546142578125,-0.804107666015625,-0.559906005859375,0.1657257080078125
1761383289488616200,0.3096162109375,-0.810150146484375,-0.5589447021484375,0.1697998046875
1761383289498686000,0.31968603515625,-0.8114471435546875,-0.55694580078125,0.1746673583984375
1761383289508757000,0.329757080078125,-0.808441162109375,-0.5562591552734375,0.1802825927734375
1761383289518827300,0.3398271484375,-0.8169708251953125,-0.5582275390625,0.1888580322265625
1761383289528897300,0.349897216796875,-0.821258544921875,-0.560089111328125,0.1931915283203125
1761383289538967000,0.359967041015625,-0.81658935546875,-0.5640869140625,0.195556640625
1761383289549038000,0.3700380859375,-0.818603515625,-0.56866455078125,0.19732666015625
1761383289559108400,0.3801083984375,-0.821380615234375,-0.5671844482421875,0.1961212158203125
1761383289569178000,0.39017822265625,-0.817901611328125,-0.562042236328125,0.1915740966796875
1761383289579249200,0.400249267578125,-0.81939697265625,-0.5563201904296875,0.1888427734375
1761383289589319200,0.410319091796875,-0.8217315673828125,-0.5530853271484375,0.18603515625
1761383289599389200,0.42038916015625,-0.8174285888671875,-0.5498046875,0.17852783203125
1761383289609459200,0.430459228515625,-0.8074951171875,-0.548797607421875,0.167449951171875
1761383289619530200,0.4405302734375,-0.80120849609375,-0.5508270263671875,0.1602020263671875
1761383289629600300,0.450600341796875,-0.7972564697265625,-0.5541229248046875,0.1580352783203125
1761383289639670000,0.460669921875,-0.780487060546875,-0.56219482421875,0.1590576171875
1761383289649740300,0.470740234375,-0.7667236328125,-0.572601318359375,0.1640472412109375
1761383289659811300,0.480811279296875,-0.761138916015625,-0.5819854736328125,0.172210693359375
1761383289669881000,0.490881103515625,-0.7560577392578125,-0.5863037109375,0.183929443359375
1761383289679951000,0.500951171875,-0.756134033203125,-0.586273193359375,0.1984710693359375
1761383289690021400,0.511021484375,-0.75933837890625,-0.5867919921875,0.211578369140625
1761383289700091100,0.521091064453125,-0.756256103515625,-0.59039306640625,0.2223663330078125
1761383289710162200,0.531162109375,-0.7553253173828125,-0.5928802490234375,0.2243499755859375
1761383289720232200,0.541232177734375,-0.759063720703125,-0.593017578125,0.220855712890625
1761383289730302200,0.55130224609375,-0.759429931640625,-0.585479736328125,0.213592529296875
1761383289740372200,0.561372314453125,-0.756072998046875,-0.572845458984375,0.205047607421875
1761383289750443300,0.571443359375,-0.7513275146484375,-0.55731201171875,0.199371337890625
1761383289760513000,0.581512939453125,-0.7555084228515625,-0.54583740234375,0.2100677490234375
1761383289770583000,0.5915830078125,-0.78765869140625,-0.54779052734375,0.2312164306640625
1761383289780653300,0.6016533203125,-0.8089447021484375,-0.553192138671875,0.249786376953125
1761383289790724400,0.611724365234375,-0.7920074462890625,-0.5277862548828125,0.2494964599609375
1761383289800794000,0.621794189453125,-0.732513427734375,-0.3852081298828125,0.2072296142578125
1761383289810864000,0.631864013671875,-0.7219390869140625,-0.4348602294921875,0.21728515625
1761383289820934400,0.641934326171875,-0.7202606201171875,-0.5646820068359375,0.2544403076171875
1761383289831005200,0.652005126953125,-0.7852020263671875,-0.6671142578125,0.28253173828125
1761383289841075200,0.6620751953125,-0.830169677734375,-0.7075653076171875,0.323333740234375
1761383289851144700,0.672144775390625,-0.8162384033203125,-0.7225799560546875,0.3531646728515625
1761383289861214700,0.682214599609375,-0.7846221923828125,-0.70721435546875,0.3729248046875
1761383289871285800,0.69228564453125,-0.773040771484375,-0.66375732421875,0.370819091796875
1761383289881355800,0.702355712890625,-0.7783355712890625,-0.61334228515625,0.359649658203125
1761383289891425500,0.712425537109375,-0.7845458984375,-0.5864410400390625,0.3452911376953125
1761383289901495800,0.722495849609375,-0.7961273193359375,-0.5760955810546875,0.331207275390625
1761383289911566800,0.73256689453125,-0.8189697265625,-0.557647705078125,0.31109619140625
1761383289921636900,0.742636962890625,-0.844482421875,-0.5340576171875,0.2861480712890625
1761383289931706600,0.75270654296875,-0.862060546875,-0.5254058837890625,0.2730560302734375
1761383289941776600,0.762776611328125,-0.87689208984375,-0.5208892822265625,0.2741241455078125
1761383289951847700,0.77284765625,-0.87548828125,-0.519012451171875,0.28424072265625
1761383289961917700,0.782917724609375,-0.8746337890625,-0.519378662109375,0.30072021484375
1761383289971987700,0.79298779296875,-0.87115478515625,-0.52960205078125,0.3169097900390625
1761383289982057700,0.8030576171875,-0.860076904296875,-0.5376434326171875,0.3264007568359375
1761383289992128500,0.81312841796875,-0.85479736328125,-0.5450286865234375,0.3355255126953125
1761383290002198800,0.82319873046875,-0.85565185546875,-0.54876708984375,0.334320068359375
1761383290012268800,0.833268798828125,-0.837066650390625,-0.5557403564453125,0.3337554931640625
1761383290022338600,0.843338623046875,-0.8185272216796875,-0.5438232421875,0.3203277587890625
1761383290032409600,0.85340966796875,-0.7882232666015625,-0.55255126953125,0.32745361328125
1761383290042479900,0.86347998046875,-0.780731201171875,-0.5761566162109375,0.33734130859375
1761383290052550000,0.8735498046875,-0.77618408203125,-0.5835113525390625,0.332977294921875
1761383290062619600,0.88361962890625,-0.7764129638671875,-0.5904388427734375,0.33331298828125
1761383290072690700,0.893690673828125,-0.76422119140625,-0.5886688232421875,0.3180694580078125
1761383290082760700,0.9037607421875,-0.743499755859375,-0.576751708984375,0.306304931640625
1761383290092830700,0.913830810546875,-0.7353515625,-0.571990966796875,0.2928314208984375
1761383290102900700,0.923900634765625,-0.7263946533203125,-0.568359375,0.2808837890625
1761383290112971800,0.9339716796875,-0.7226104736328125,-0.55975341796875,0.2698974609375
1761383290123041500,0.94404150390625,-0.720123291015625,-0.5476531982421875,0.2595977783203125
1761383290133111800,0.95411181640625,-0.715057373046875,-0.535186767578125,0.2453765869140625
1761383290143181800,0.964181884765625,-0.7108001708984375,-0.52740478515625,0.230377197265625
1761383290153252900,0.9742529296875,-0.70745849609375,-0.531097412109375,0.2104949951171875
1761383290163322600,0.984322509765625,-0.690399169921875,-0.5436248779296875,0.184173583984375
1761383290173393000,0.994392822265625,-0.672821044921875,-0.5575103759765625,0.1675262451171875
1761383290183462700,1.004462646484375,-0.66229248046875,-0.571563720703125,0.1590576171875
1761383290193532700,1.01453271484375,-0.651611328125,-0.5815887451171875,0.1589202880859375
1761383290203603700,1.024603759765625,-0.636932373046875,-0.58685302734375,0.1614837646484375
1761383290213673700,1.034673828125,-0.6188201904296875,-0.5863037109375,0.1586761474609375
1761383290223743700,1.04474365234375,-0.6116790771484375,-0.589996337890625,0.155792236328125
1761383290233813800,1.054813720703125,-0.6141357421875,-0.5929107666015625,0.150390625
1761383290243884800,1.064884765625,-0.617401123046875,-0.5876007080078125,0.139007568359375
1761383290253954600,1.07495458984375,-0.6057586669921875,-0.5725555419921875,0.1280517578125
1761383290264024800,1.08502490234375,-0.5913238525390625,-0.563140869140625,0.1223907470703125
1761383290274094800,1.0950947265625,-0.597076416015625,-0.563995361328125,0.121856689453125
1761383290284165600,1.10516552734375,-0.6163177490234375,-0.572509765625,0.1154327392578125
1761383290294235600,1.115235595703125,-0.6419830322265625,-0.592132568359375,0.111328125
1761383290304305700,1.1253056640625,-0.67352294921875,-0.6174774169921875,0.1065673828125
1761383290314375700,1.135375732421875,-0.7088470458984375,-0.6269989013671875,0.101104736328125
1761383290324446700,1.14544677734375,-0.748931884765625,-0.634063720703125,0.0948486328125
1761383290334516700,1.155516845703125,-0.7809906005859375,-0.646240234375,0.0935821533203125
1761383290344586500,1.16558642578125,-0.79833984375,-0.649749755859375,0.0897979736328125
1761383290354656800,1.17565673828125,-0.817962646484375,-0.6493682861328125,0.0766143798828125
1761383290364727800,1.185727783203125,-0.8437042236328125,-0.6473388671875,0.0653839111328125
1761383290374797800,1.1957978515625,-0.8596954345703125,-0.6422271728515625,0.058685302734375
1761383290384867600,1.20586767578125,-0.853179931640625,-0.634246826171875,0.0543670654296875
1761383290394937900,1.215937744140625,-0.862091064453125,-0.6228790283203125,0.0577239990234375
1761383290405009000,1.2260087890625,-0.8764801025390625,-0.6234130859375,0.070587158203125
1761383290415078700,1.23607861328125,-0.8874359130859375,-0.628265380859375,0.0838165283203125
1761383290425148700,1.246148681640625,-0.901153564453125,-0.6285247802734375,0.0928192138671875
1761383290435218700,1.25621875,-0.9148101806640625,-0.6297607421875,0.0952911376953125
1761383290445289700,1.266289794921875,-0.9166412353515625,-0.6246337890625,0.08551025390625
1761383290455359700,1.27635986328125,-0.920562744140625,-0.6199493408203125,0.0788726806640625
1761383290465429800,1.2864296875,-0.921875,-0.618804931640625,0.0719451904296875
1761383290475499500,1.29649951171875,-0.9194793701171875,-0.6147918701171875,0.0594329833984375
1761383290485569800,1.30656982421875,-0.9131927490234375,-0.6053466796875,0.0535736083984375
1761383290495640800,1.316640869140625,-0.903839111328125,-0.6042633056640625,0.0589599609375
1761383290505710600,1.326710693359375,-0.893951416015625,-0.6056671142578125,0.062225341796875
1761383290515780600,1.336780517578125,-0.8648834228515625,-0.597381591796875,0.0557708740234375
1761383290525851000,1.346850830078125,-0.831207275390625,-0.58489990234375,0.0482025146484375
1761383290535922000,1.356921875,-0.813140869140625,-0.575286865234375,0.047393798828125
1761383290545991700,1.36699169921875,-0.7929840087890625,-0.5741424560546875,0.0479583740234375
1761383290556061700,1.377061767578125,-0.7638702392578125,-0.5633392333984375,0.0481414794921875
1761383290566131700,1.387131591796875,-0.732208251953125,-0.5436553955078125,0.05029296875
1761383290576202800,1.39720263671875,-0.705413818359375,-0.5263671875,0.05731201171875
1761383290586272800,1.407272705078125,-0.6779022216796875,-0.5094451904296875,0.062652587890625
1761383290596342800,1.4173427734375,-0.6445159912109375,-0.4890289306640625,0.063079833984375
1761383290606412500,1.42741259765625,-0.609405517578125,-0.467010498046875,0.0648956298828125
1761383290616483600,1.437483642578125,-0.5774078369140625,-0.4499969482421875,0.0722503662109375
1761383290626553900,1.447553955078125,-0.5537109375,-0.43609619140625,0.0844879150390625
1761383290636623600,1.45762353515625,-0.5506591796875,-0.4233856201171875,0.0999908447265625
1761383290646693600,1.467693603515625,-0.550628662109375,-0.4105072021484375,0.11590576171875
1761383290656764700,1.4777646484375,-0.529571533203125,-0.392730712890625,0.1212310791015625
1761383290666835000,1.4878349609375,-0.5106658935546875,-0.3680267333984375,0.124237060546875
1761383290676904700,1.49790478515625,-0.505157470703125,-0.3495941162109375,0.126068115234375
1761383290686974700,1.507974609375,-0.510101318359375,-0.3421783447265625,0.1287841796875
1761383290697044700,1.518044677734375,-0.51031494140625,-0.326995849609375,0.1337432861328125
1761383290707115800,1.52811572265625,-0.50665283203125,-0.303863525390625,0.135406494140625
1761383290717185800,1.538185791015625,-0.5158538818359375,-0.289703369140625,0.139373779296875
1761383290727255800,1.548255859375,-0.53863525390625,-0.2912445068359375,0.1513671875
1761383290737325600,1.55832568359375,-0.58111572265625,-0.2979888916015625,0.1743011474609375
1761383290747396600,1.568396728515625,-0.6505584716796875,-0.2975616455078125,0.2044830322265625
1761383290757467000,1.578466796875,-0.7198333740234375,-0.2938995361328125,0.2341766357421875
1761383290767536600,1.58853662109375,-0.7391204833984375,-0.2818450927734375,0.243408203125
1761383290777606700,1.598606689453125,-0.7117919921875,-0.26617431640625,0.2254638671875
1761383290787677700,1.608677734375,-0.7200164794921875,-0.2646026611328125,0.2147979736328125
1761383290797747700,1.618747802734375,-0.7677459716796875,-0.274322509765625,0.201934814453125
1761383290807817700,1.628817626953125,-0.7855987548828125,-0.292510986328125,0.1939239501953125
1761383290817887700,1.6388876953125,-0.76239013671875,-0.329010009765625,0.2130889892578125
1761383290827958800,1.648958740234375,-0.733245849609375,-0.397796630859375,0.24420166015625
1761383290838028500,1.659028564453125,-0.7427978515625,-0.4565582275390625,0.2749481201171875
1761383290848099300,1.669099365234375,-0.7997283935546875,-0.5089111328125,0.2977447509765625
1761383290858169300,1.67916943359375,-0.8389434814453125,-0.5837554931640625,0.301300048828125
1761383290868240400,1.689240478515625,-0.8751373291015625,-0.6494140625,0.3042144775390625
1761383290878310100,1.69931005859375,-0.9561767578125,-0.718048095703125,0.302276611328125
1761383290888380400,1.70938037109375,-1.0332183837890625,-0.8105926513671875,0.2977142333984375
1761383290898450400,1.719450439453125,-1.1077728271484375,-0.8890533447265625,0.2858734130859375
1761383290908520200,1.729520263671875,-1.2071380615234375,-0.9505615234375,0.27606201171875
1761383290918591200,1.73959130859375,-1.339874267578125,-1.014892578125,0.2813568115234375
1761383290928661200,1.7496611328125,-1.485382080078125,-1.06390380859375,0.2958831787109375
1761383290938731300,1.759731201171875,-1.6093292236328125,-1.081024169921875,0.29730224609375
1761383290948801300,1.76980126953125,-1.73858642578125,-1.1007843017578125,0.31201171875
1761383290958872300,1.779872314453125,-1.8531646728515625,-1.1346282958984375,0.3686981201171875
1761383290968942300,1.7899423828125,-1.9151153564453125,-1.1628570556640625,0.441192626953125
1761383290979012400,1.800012451171875,-1.962554931640625,-1.19854736328125,0.49810791015625
1761383290989082400,1.810082275390625,-2.01544189453125,-1.2530059814453125,0.5444793701171875
1761383290999153400,1.8201533203125,-2.0920867919921875,-1.330230712890625,0.575042724609375
1761383291009223200,1.83022314453125,-2.173370361328125,-1.4076690673828125,0.5956268310546875
1761383291019293200,1.840293212890625,-2.2043609619140625,-1.44525146484375,0.5772552490234375
1761383291029363500,1.850363525390625,-2.1203155517578125,-1.434417724609375,0.4836578369140625
1761383291039433200,1.86043310546875,-1.9552001953125,-1.416717529296875,0.35595703125
1761383291049504300,1.870504150390625,-1.8243255615234375,-1.3953857421875,0.2350006103515625
1761383291059574300,1.88057421875,-1.6885223388671875,-1.362152099609375,0.1487579345703125
1761383291069644300,1.890644287109375,-1.717071533203125,-1.3535003662109375,0.1680145263671875
1761383291079714300,1.90071435546875,-1.7123565673828125,-1.311309814453125,0.1904449462890625
1761383291089785300,1.910785400390625,-1.6457672119140625,-1.1735076904296875,0.176971435546875
1761383291099855400,1.92085546875,-1.6302337646484375,-1.01531982421875,0.1674041748046875
1761383291109925400,1.93092529296875,-1.5564117431640625,-0.8636932373046875,0.1718292236328125
1761383291119995400,1.940995361328125,-1.4657440185546875,-0.6981048583984375,0.16326904296875
1761383291130066400,1.95106640625,-1.3843536376953125,-0.5751800537109375,0.1242828369140625
1761383291140136200,1.96113623046875,-1.2570953369140625,-0.5175323486328125,0.0503692626953125
1761383291150206200,1.971206298828125,-1.0571441650390625,-0.4575347900390625,-0.0540924072265625
1761383291160276500,1.9812763671875,-0.86737060546875,-0.3473968505859375,-0.1752166748046875
1761383291170347300,1.99134716796875,-0.665679931640625,-0.231353759765625,-0.26336669921875
1761383291180417300,2.001417236328125,-0.47247314453125,-0.171112060546875,-0.307464599609375
1761383291190487300,2.0114873046875,-0.3219757080078125,-0.13720703125,-0.3305816650390625
1761383291200557300,2.021557373046875,-0.1850738525390625,-0.0745086669921875,-0.3101806640625
1761383291210627300,2.03162744140625,0.0227813720703125,-0.079376220703125,-0.24615478515625
1761383291220698400,2.041698486328125,0.1406707763671875,-0.1300811767578125,-0.1221771240234375
1761383291230768000,2.05176806640625,-0.070465087890625,0.0029296875,-0.0552520751953125
1761383291240838400,2.06183837890625,-0.2685546875,0.2180023193359375,-0.0303802490234375
1761383291250908400,2.071908447265625,-0.4312896728515625,0.1385955810546875,0.0003814697265625
1761383291260979500,2.0819794921875,-0.269683837890625,0.02178955078125,0.0691375732421875
1761383291271049200,2.09204931640625,-0.133209228515625,0.07818603515625,0.087493896484375
1761383291281119200,2.102119140625,-0.157440185546875,0.2058868408203125,0.087371826171875
1761383291291189200,2.112189208984375,-0.1328887939453125,0.25506591796875,0.113616943359375
1761383291301260300,2.12226025390625,0.0766143798828125,0.0322265625,0.143157958984375
1761383291311330300,2.132330322265625,0.123016357421875,-0.12103271484375,0.1794891357421875
1761383291321400300,2.142400390625,0.0844573974609375,-0.051513671875,0.1451263427734375
1761383291331470300,2.15247021484375,0.12335205078125,-0.0027618408203125,0.117156982421875
1761383291341540400,2.162540283203125,0.1029052734375,0.0299835205078125,0.007904052734375
1761383291351611400,2.172611328125,0.0603179931640625,-0.04071044921875,-0.074859619140625
1761383291361681200,2.18268115234375,-0.01641845703125,-0.050628662109375,-0.1916046142578125
1761383291371751400,2.19275146484375,-0.1180267333984375,-0.012420654296875,-0.244598388671875
1761383291381821400,2.202821533203125,-0.185760498046875,-0.06451416015625,-0.2095947265625
1761383291391892200,2.212892333984375,-0.182861328125,-0.1052703857421875,-0.2377471923828125
1761383291401962200,2.222962158203125,0.0133514404296875,-0.1087799072265625,-0.3144378662109375
1761383291412032300,2.2330322265625,0.222259521484375,-0.0624237060546875,-0.4024810791015625
1761383291422102300,2.243102294921875,0.1888427734375,-0.04864501953125,-0.399566650390625
1761383291432173300,2.25317333984375,0.0323486328125,-0.1435089111328125,-0.240631103515625
1761383291442243300,2.263243408203125,-0.130523681640625,-0.1829681396484375,-0.072723388671875
1761383291452313300,2.273313232421875,-0.2188720703125,-0.1809539794921875,-0.0006103515625
1761383291462383400,2.28338330078125,-0.2428131103515625,-0.195404052734375,0.021148681640625
1761383291472453400,2.293453369140625,-0.236236572265625,-0.2163848876953125,0.0131378173828125
1761383291482524400,2.3035244140625,-0.1916046142578125,-0.21734619140625,-0.0224609375
1761383291492594200,2.31359423828125,-0.187347412109375,-0.2139129638671875,-0.0646514892578125
1761383291502664400,2.32366455078125,-0.2176055908203125,-0.21002197265625,-0.0460357666015625
1761383291512734500,2.333734375,-0.2343292236328125,-0.19244384765625,0.0211944580078125
1761383291522805200,2.34380517578125,-0.2292938232421875,-0.176361083984375,0.1027374267578125
1761383291532875300,2.353875244140625,-0.2195281982421875,-0.1193389892578125,0.1494598388671875
1761383291542945300,2.3639453125,-0.230682373046875,-0.086395263671875,0.180908203125
1761383291553015300,2.374015380859375,-0.324310302734375,-0.179779052734375,0.22705078125
1761383291563085300,2.384085205078125,-0.4667816162109375,-0.33984375,0.293243408203125
1761383291573156400,2.39415625,-0.515533447265625,-0.5393524169921875,0.3968963623046875
1761383291583226000,2.40422607421875,-0.5061492919921875,-0.6140289306640625,0.395294189453125
1761383291593296400,2.41429638671875,-0.529449462890625,-0.487335205078125,0.28533935546875
1761383291603366400,2.424366455078125,-0.743499755859375,-0.6156158447265625,0.36639404296875
1761383291613437400,2.4344375,-0.9936676025390625,-0.8465576171875,0.554412841796875
1761383291623507200,2.444507080078125,-1.1427001953125,-1.1766815185546875,0.74652099609375
1761383291633577500,2.454577392578125,-1.1964111328125,-1.512603759765625,0.7677764892578125
1761383291643647200,2.464647216796875,-1.206146240234375,-1.5424041748046875,0.641265869140625
1761383291653717200,2.47471728515625,-1.315582275390625,-1.133209228515625,0.531646728515625
1761383291663788300,2.484788330078125,-1.4099273681640625,-0.7980499267578125,0.4592742919921875
1761383291673858300,2.4948583984375,-1.53265380859375,-0.826385498046875,0.503753662109375
1761383291683928300,2.50492822265625,-1.8824920654296875,-0.733978271484375,0.4952850341796875
1761383291693998300,2.514998291015625,-2.1288604736328125,-0.64849853515625,0.468231201171875
1761383291704069400,2.5250693359375,-2.221954345703125,-0.610321044921875,0.4381256103515625
1761383291714139100,2.53513916015625,-2.263702392578125,-0.5567779541015625,0.3866119384765625
1761383291724209400,2.54520947265625,-2.25146484375,-0.552337646484375,0.3618927001953125
1761383291734279400,2.555279541015625,-2.1988677978515625,-0.5670318603515625,0.3681182861328125
1761383291744349200,2.56534912109375,-2.0911712646484375,-0.5894775390625,0.3856658935546875
1761383291754420200,2.575420166015625,-1.93743896484375,-0.650634765625,0.3731231689453125
1761383291764490200,2.585490234375,-1.6701812744140625,-0.7005767822265625,0.31982421875
1761383291774560300,2.595560302734375,-1.3997650146484375,-0.7049713134765625,0.2515716552734375
1761383291784630300,2.60563037109375,-1.2341156005859375,-0.67596435546875,0.1947174072265625
1761383291794701300,2.615701416015625,-1.2052154541015625,-0.614898681640625,0.148773193359375
1761383291804771300,2.625771240234375,-1.2487030029296875,-0.5280914306640625,0.1166229248046875
1761383291814841300,2.63584130859375,-1.2169342041015625,-0.4327850341796875,0.0753173828125
1761383291824911400,2.645911376953125,-1.1423187255859375,-0.3457183837890625,0.0300140380859375
1761383291834981000,2.655981201171875,-1.090087890625,-0.319854736328125,0.00665283203125
1761383291845052000,2.666052001953125,-1.108489990234375,-0.370758056640625,0.0233001708984375
1761383291855122200,2.6761220703125,-1.1119537353515625,-0.4456329345703125,0.0569610595703125
1761383291865192000,2.68619189453125,-1.0977020263671875,-0.481658935546875,0.0648345947265625
1761383291875262000,2.696261962890625,-1.0622711181640625,-0.478759765625,0.0617523193359375
1761383291885333000,2.7063330078125,-0.993743896484375,-0.45489501953125,0.0766448974609375
1761383291895403300,2.7164033203125,-0.959869384765625,-0.4300994873046875,0.104034423828125
1761383291905473000,2.72647314453125,-0.9098052978515625,-0.4304351806640625,0.1191253662109375
1761383291915543000,2.73654296875,-0.8709869384765625,-0.4416351318359375,0.130859375
1761383291925613000,2.746613037109375,-0.8523101806640625,-0.438873291015625,0.13970947265625
1761383291935683800,2.756683837890625,-0.809295654296875,-0.43218994140625,0.142059326171875
1761383291945754000,2.766754150390625,-0.7803497314453125,-0.4203033447265625,0.1314544677734375
1761383291955824000,2.77682421875,-0.7526397705078125,-0.4044647216796875,0.10498046875
1761383291965894000,2.786893798828125,-0.7087860107421875,-0.39056396484375,0.0762481689453125
1761383291975965000,2.79696484375,-0.660919189453125,-0.3825225830078125,0.061676025390625
1761383291986035200,2.80703515625,-0.6322021484375,-0.3755340576171875,0.07257080078125
1761383291996105000,2.81710498046875,-0.599639892578125,-0.3753509521484375,0.0974884033203125
1761383292006175000,2.827175048828125,-0.5756378173828125,-0.3929443359375,0.11517333984375
1761383292016245200,2.837245361328125,-0.564910888671875,-0.4239959716796875,0.129913330078125
1761383292026316300,2.84731640625,-0.5748443603515625,-0.45733642578125,0.1429595947265625
1761383292036386000,2.857385986328125,-0.574615478515625,-0.484619140625,0.150726318359375
1761383292046456000,2.8674560546875,-0.546539306640625,-0.5055694580078125,0.1563568115234375
1761383292056525800,2.87752587890625,-0.560516357421875,-0.5109710693359375,0.1727752685546875
1761383292066596900,2.887596923828125,-0.5794525146484375,-0.508453369140625,0.185882568359375
1761383292076667100,2.897667236328125,-0.580596923828125,-0.5017242431640625,0.19415283203125
1761383292086737200,2.907737060546875,-0.5777587890625,-0.5002593994140625,0.201751708984375
1761383292096807000,2.917806884765625,-0.582183837890625,-0.5096282958984375,0.2093963623046875
1761383292106877200,2.927877197265625,-0.6013946533203125,-0.52593994140625,0.2011871337890625
1761383292116948200,2.9379482421875,-0.6323699951171875,-0.5317230224609375,0.1986846923828125
1761383292127018000,2.94801806640625,-0.62841796875,-0.52655029296875,0.236785888671875
1761383292137088000,2.958087890625,-0.7122802734375,-0.5389251708984375,0.3051605224609375
1761383292147158300,2.968158203125,-0.7523040771484375,-0.5213775634765625,0.3076629638671875
1761383292157228000,2.97822802734375,-0.733917236328125,-0.483154296875,0.281036376953125
1761383292167299000,2.988299072265625,-0.7225189208984375,-0.4602813720703125,0.2519073486328125
1761383292177369000,2.998369140625,-0.750579833984375,-0.454833984375,0.2337646484375
1761383292187438800,3.00843896484375,-0.777008056640625,-0.4762115478515625,0.2379913330078125
1761383292197509000,3.018509033203125,-0.7747955322265625,-0.5015411376953125,0.2545013427734375
1761383292207580200,3.028580078125,-0.776153564453125,-0.4907073974609375,0.2586517333984375
1761383292217650000,3.03864990234375,-0.7772979736328125,-0.4699859619140625,0.2529144287109375
1761383292227720000,3.048719970703125,-0.819000244140625,-0.489227294921875,0.28900146484375
1761383292237790200,3.058790283203125,-0.8636322021484375,-0.51300048828125,0.3158416748046875
1761383292247860000,3.06885986328125,-0.87542724609375,-0.5057830810546875,0.3100738525390625
1761383292257931000,3.078930908203125,-0.8807373046875,-0.4925384521484375,0.2849273681640625
1761383292268001000,3.0890009765625,-0.897918701171875,-0.4937744140625,0.2579193115234375
1761383292278071000,3.099071044921875,-0.898223876953125,-0.5077362060546875,0.2417449951171875
1761383292288141000,3.10914111328125,-0.8939361572265625,-0.522705078125,0.234466552734375
1761383292298211000,3.119211181640625,-0.870758056640625,-0.5289764404296875,0.224151611328125
1761383292308282000,3.1292822265625,-0.8563385009765625,-0.5278167724609375,0.213958740234375
1761383292318352000,3.139351806640625,-0.842529296875,-0.5308990478515625,0.2079620361328125
1761383292328422100,3.149422119140625,-0.8309478759765625,-0.535797119140625,0.2018585205078125
1761383292338492200,3.1594921875,-0.819183349609375,-0.5284423828125,0.18701171875
1761383292348562000,3.16956201171875,-0.8048248291015625,-0.5049285888671875,0.16839599609375
1761383292358633000,3.179633056640625,-0.79022216796875,-0.483245849609375,0.153900146484375
1761383292368703200,3.189703125,-0.7699432373046875,-0.465972900390625,0.1521759033203125
1761383292378773000,3.19977294921875,-0.762664794921875,-0.4543304443359375,0.155731201171875
1761383292388843000,3.209843017578125,-0.74456787109375,-0.442291259765625,0.1527099609375
1761383292398914000,3.2199140625,-0.7160186767578125,-0.4227142333984375,0.1452789306640625
1761383292408984000,3.229984130859375,-0.6987152099609375,-0.4086456298828125,0.145263671875
1761383292419054000,3.24005419921875,-0.6774444580078125,-0.3905181884765625,0.1378173828125
1761383292429124000,3.2501240234375,-0.6450042724609375,-0.3662872314453125,0.1232147216796875
1761383292439193900,3.26019384765625,-0.6337890625,-0.34881591796875,0.1045684814453125
1761383292449265000,3.270264892578125,-0.647674560546875,-0.3371124267578125,0.072052001953125
1761383292459335200,3.280335205078125,-0.62921142578125,-0.3229827880859375,0.034271240234375
1761383292469405000,3.290405029296875,-0.6244964599609375,-0.3087921142578125,-0.00347900390625
1761383292479475000,3.300474853515625,-0.6525421142578125,-0.290985107421875,-0.034271240234375
1761383292489545200,3.310545166015625,-0.68560791015625,-0.27362060546875,-0.0519256591796875
1761383292499616300,3.3206162109375,-0.7222747802734375,-0.26629638671875,-0.0596923828125
1761383292509686000,3.33068603515625,-0.7286834716796875,-0.26544189453125,-0.06805419921875
1761383292519756000,3.340756103515625,-0.6995086669921875,-0.2616424560546875,-0.0689544677734375
1761383292529826000,3.350825927734375,-0.68585205078125,-0.25347900390625,-0.06396484375
1761383292539896000,3.36089599609375,-0.6850433349609375,-0.2364349365234375,-0.04718017578125
1761383292549967000,3.370967041015625,-0.6759796142578125,-0.226287841796875,-0.031585693359375
1761383292560037000,3.381037109375,-0.676727294921875,-0.2138824462890625,-0.026336669921875
1761383292570107000,3.39110693359375,-0.6931915283203125,-0.189117431640625,-0.019256591796875
1761383292580177200,3.40117724609375,-0.7074127197265625,-0.2209320068359375,0.00189208984375
1761383292590248200,3.411248291015625,-0.7383270263671875,-0.261322021484375,0.022796630859375
1761383292600318000,3.42131787109375,-0.7390899658203125,-0.268768310546875,0.0299835205078125
1761383292610388000,3.431387939453125,-0.7101898193359375,-0.2414703369140625,0.0380859375
1761383292620458200,3.441458251953125,-0.685150146484375,-0.20611572265625,0.064544677734375
1761383292630528000,3.451528076171875,-0.6822967529296875,-0.2147216796875,0.092681884765625
1761383292640599000,3.46159912109375,-0.67620849609375,-0.2669525146484375,0.11370849609375
1761383292650669000,3.4716689453125,-0.647705078125,-0.318115234375,0.1255950927734375
1761383292660739000,3.481739013671875,-0.6365509033203125,-0.341339111328125,0.1405487060546875
1761383292670809000,3.49180908203125,-0.621551513671875,-0.333038330078125,0.175201416015625
1761383292680879000,3.501879150390625,-0.6138916015625,-0.3019256591796875,0.2046966552734375
1761383292690950100,3.5119501953125,-0.6640777587890625,-0.317291259765625,0.1871337890625
1761383292701020000,3.52202001953125,-0.680633544921875,-0.39044189453125,0.2045135498046875
1761383292711090200,3.532090087890625,-0.6693878173828125,-0.40032958984375,0.2362060546875
1761383292721160200,3.54216015625,-0.693756103515625,-0.4419708251953125,0.256439208984375
1761383292731230000,3.55222998046875,-0.671875,-0.4823760986328125,0.29705810546875
1761383292741301000,3.562301025390625,-0.6893157958984375,-0.5133819580078125,0.295684814453125
1761383292751371300,3.572371337890625,-0.7079620361328125,-0.479736328125,0.2982330322265625
1761383292761441000,3.58244091796875,-0.8138580322265625,-0.3710784912109375,0.30035400390625
1761383292771511000,3.592510986328125,-1.174072265625,-0.268768310546875,0.319915771484375
1761383292781581000,3.6025810546875,-1.6929779052734375,-0.260467529296875,0.3444976806640625
1761383292791651800,3.61265185546875,-2.043182373046875,-0.3811187744140625,0.2357330322265625
1761383292801722000,3.62272216796875,-1.9286956787109375,-0.47723388671875,0.0569915771484375
1761383292811792100,3.632792236328125,-1.676666259765625,-0.5492095947265625,-0.051300048828125
1761383292821862000,3.64286181640625,-1.865997314453125,-0.600311279296875,-0.04779052734375
1761383292831932200,3.65293212890625,-2.296417236328125,-0.7151031494140625,0.0757293701171875
1761383292842003200,3.663003173828125,-2.5495758056640625,-0.7495880126953125,0.1680908203125
1761383292852073000,3.673072998046875,-2.528106689453125,-0.8016357421875,0.1198577880859375
1761383292862143000,3.68314306640625,-2.2932586669921875,-0.8473663330078125,0.05950927734375
1761383292872213000,3.693212890625,-2.1470947265625,-0.76092529296875,0.0411376953125
1761383292882283000,3.703282958984375,-2.087982177734375,-0.7597198486328125,-0.0525054931640625
1761383292892354000,3.71335400390625,-2.139892578125,-0.823272705078125,-0.1426239013671875
1761383292902423800,3.723423828125,-2.1948394775390625,-0.836669921875,-0.1779937744140625
1761383292912493800,3.733493896484375,-2.1696014404296875,-0.80841064453125,-0.20098876953125
1761383292922564000,3.743564208984375,-2.1622314453125,-0.78900146484375,-0.2178497314453125
1761383292932633900,3.7536337890625,-2.1175079345703125,-0.791259765625,-0.248046875
1761383292942705000,3.763704833984375,-2.096527099609375,-0.81689453125,-0.2467803955078125
1761383292952775000,3.77377490234375,-2.045623779296875,-0.849395751953125,-0.2525482177734375
1761383292962845000,3.783844970703125,-1.898040771484375,-0.8785552978515625,-0.2857208251953125
1761383292972915000,3.7939150390625,-1.6309967041015625,-0.895294189453125,-0.327972412109375
1761383292982985000,3.80398486328125,-1.41326904296875,-0.894287109375,-0.3258209228515625
1761383292993055700,3.8140556640625,-1.5027313232421875,-0.8595733642578125,-0.2436676025390625
1761383293003126000,3.8241259765625,-1.6929931640625,-0.7392425537109375,-0.270111083984375
1761383293013196000,3.834196044921875,-1.7282562255859375,-0.5272064208984375,-0.4672393798828125
1761383293023265800,3.844265869140625,-1.7960357666015625,-0.3175811767578125,-0.6699066162109375
1761383293033335800,3.854335693359375,-1.7659759521484375,-0.2256317138671875,-0.68572998046875
1761383293043406800,3.86440673828125,-1.5579986572265625,-0.10247802734375,-0.653076171875
1761383293053476900,3.874476806640625,-1.37799072265625,0.000335693359375,-0.59991455078125
1761383293063547000,3.884546875,-1.083984375,0.0480194091796875,-0.433135986328125
1761383293073617000,3.894616943359375,-0.7881927490234375,-0.00006103515625,-0.227386474609375
1761383293083687000,3.90468701171875,-0.644378662109375,-0.1024932861328125,-0.10986328125
1761383293093758000,3.914758056640625,-0.5872344970703125,-0.079254150390625,-0.0587615966796875
1761383293103828000,3.924827880859375,-0.6311798095703125,0.1031646728515625,0.0038909912109375
1761383293113898000,3.93489794921875,-0.72528076171875,0.110748291015625,0.0159149169921875
1761383293123968000,3.944968017578125,-0.6711883544921875,0.186767578125,0.0811309814453125
1761383293134038000,3.9550380859375,-0.5128631591796875,0.2074127197265625,0.1331024169921875
1761383293144109000,3.965109130859375,-0.191253662109375,0.2681121826171875,0.07159423828125
1761383293154178800,3.9751787109375,0.39141845703125,0.37738037109375,-0.06097412109375
1761383293164248800,3.985248779296875,0.824249267578125,0.4284820556640625,-0.212158203125
1761383293174319000,3.995319091796875,0.7317352294921875,0.25347900390625,-0.276885986328125
1761383293184388900,4.005388916015625,0.8714752197265625,0.0672607421875,-0.0490875244140625
1761383293194460000,4.0154599609375,1.048980712890625,0.1074371337890625,0.0866241455078125
1761383293204530000,4.025530029296875,0.949432373046875,0.026702880859375,0.1708221435546875
1761383293214600000,4.035599853515625,0.846099853515625,-0.05029296875,0.2503204345703125
1761383293224670000,4.045669921875,0.6915130615234375,0.0182647705078125,0.2530975341796875
1761383293234740000,4.055739990234375,0.54193115234375,0.0338897705078125,0.2136688232421875
1761383293244810800,4.065810791015625,0.4057464599609375,0.038848876953125,0.1155548095703125
1761383293254881000,4.075881103515625,0.2798614501953125,0.041015625,0.0410308837890625
1761383293264951000,4.085950927734375,0.16424560546875,-0.0302734375,0.0113372802734375
1761383293275020800,4.096020751953125,0.125244140625,-0.1161041259765625,-0.0027923583984375
1761383293285090800,4.1060908203125,0.1324615478515625,-0.1691741943359375,-0.0192413330078125
1761383293295161900,4.116161865234375,0.14111328125,-0.192535400390625,-0.0351104736328125
1761383293305232100,4.126232177734375,0.1475067138671875,-0.1903076171875,-0.0448455810546875
1761383293315302000,4.136302001953125,0.119171142578125,-0.16778564453125,-0.0327606201171875
1761383293325372000,4.146371826171875,0.028594970703125,-0.1502838134765625,0.0054779052734375
1761383293335442000,4.15644189453125,-0.063201904296875,-0.140655517578125,0.057159423828125
1761383293345513000,4.166512939453125,-0.1459808349609375,-0.1327972412109375,0.1304779052734375
1761383293355583000,4.1765830078125,-0.2028045654296875,-0.1401214599609375,0.163604736328125
1761383293365653000,4.186653076171875,-0.1865234375,-0.1372833251953125,0.167572021484375
1761383293375723000,4.196722900390625,-0.17669677734375,-0.1423797607421875,0.163604736328125
1761383293385793000,4.20679296875,-0.21014404296875,-0.1456451416015625,0.1501922607421875
1761383293395864000,4.216864013671875,-0.2527008056640625,-0.1272430419921875,0.1167449951171875
1761383293405933800,4.226933837890625,-0.3477630615234375,-0.12017822265625,0.04779052734375
1761383293416003800,4.23700390625,-0.4583282470703125,-0.17486572265625,-0.028564453125
1761383293426074000,4.24707421875,-0.6096343994140625,-0.3413543701171875,-0.0644073486328125
1761383293436143900,4.257143798828125,-0.7132110595703125,-0.5890350341796875,-0.06903076171875
1761383293446215000,4.26721484375,-0.755035400390625,-0.9536285400390625,-0.06036376953125
1761383293456285000,4.277284912109375,-0.79632568359375,-1.166534423828125,-0.1782989501953125
1761383293466355000,4.28735498046875,-0.7794189453125,-1.0886077880859375,-0.4217071533203125
1761383293476425000,4.297425048828125,-0.9594573974609375,-1.40313720703125,-0.444915771484375
1761383293486495000,4.307494873046875,-1.1896514892578125,-1.7140350341796875,-0.498565673828125
1761383293496565800,4.317565673828125,-1.2828521728515625,-1.5858612060546875,-0.760345458984375
1761383293506636000,4.327635986328125,-1.3880767822265625,-1.3477935791015625,-0.8914947509765625
1761383293516706000,4.3377060546875,-1.4634246826171875,-1.2005767822265625,-0.8359832763671875
1761383293526775800,4.34777587890625,-1.6551971435546875,-1.10400390625,-0.66815185546875
1761383293536845800,4.357845703125,-1.9119720458984375,-1.00823974609375,-0.4404449462890625
1761383293546916000,4.367916015625,-2.079864501953125,-0.8825531005859375,-0.2864837646484375
1761383293556987100,4.377987060546875,-2.21453857421875,-0.66705322265625,-0.255889892578125
1761383293567057000,4.388056884765625,-2.2835540771484375,-0.5192108154296875,-0.237060546875
1761383293577127000,4.398126953125,-2.3346099853515625,-0.412750244140625,-0.2332763671875
1761383293587197000,4.408197021484375,-2.3552703857421875,-0.3070220947265625,-0.24517822265625
1761383293597267000,4.418266845703125,-2.313079833984375,-0.213287353515625,-0.2455902099609375
1761383293607338000,4.428337890625,-2.2234344482421875,-0.1486968994140625,-0.2329254150390625
1761383293617408000,4.438407958984375,-2.0827484130859375,-0.1051177978515625,-0.2392578125
1761383293627477800,4.448477783203125,-1.8752899169921875,-0.0617218017578125,-0.2576446533203125
1761383293637548000,4.458548095703125,-1.69140625,-0.007049560546875,-0.2822723388671875
1761383293647617800,4.46861767578125,-1.646728515625,0.0702362060546875,-0.30511474609375
1761383293657688800,4.478688720703125,-1.6146087646484375,0.108001708984375,-0.341705322265625
1761383293667758800,4.4887587890625,-1.507415771484375,0.11871337890625,-0.38067626953125
1761383293677829000,4.4988291015625,-1.3691558837890625,0.065032958984375,-0.3766326904296875
1761383293687899000,4.50889892578125,-1.2096710205078125,-0.0479278564453125,-0.3552398681640625
1761383293697969000,4.518968994140625,-0.9924163818359375,-0.0845184326171875,-0.3395843505859375
1761383293708040000,4.5290400390625,-0.8224029541015625,-0.1373748779296875,-0.3111572265625
1761383293718110000,4.53910986328125,-0.8031158447265625,-0.3247222900390625,-0.232757568359375
1761383293728180000,4.549179931640625,-0.717437744140625,-0.325927734375,-0.1874847412109375
1761383293738250000,4.55925,-0.607391357421875,-0.2880096435546875,-0.1584930419921875
1761383293748319700,4.56931982421875,-0.5845947265625,-0.3083648681640625,-0.1055908203125
1761383293758390800,4.579390869140625,-0.605072021484375,-0.2964935302734375,-0.05633544921875
1761383293768461000,4.5894609375,-0.61492919921875,-0.2447509765625,-0.0397491455078125
1761383293778530800,4.59953076171875,-0.5895538330078125,-0.2036285400390625,-0.0305938720703125
1761383293788600800,4.609600830078125,-0.5031890869140625,-0.16436767578125,-0.0259857177734375
1761383293798671000,4.619671142578125,-0.40081787109375,-0.1639404296875,-0.02972412109375
1761383293808740900,4.629740966796875,-0.353271484375,-0.2047119140625,-0.029754638671875
1761383293818812000,4.63981201171875,-0.3758544921875,-0.2530975341796875,-0.0172882080078125
1761383293828882000,4.6498818359375,-0.463043212890625,-0.28155517578125,0.0032806396484375
1761383293838952000,4.659951904296875,-0.5588836669921875,-0.267730712890625,0.0090179443359375
1761383293849022500,4.6700224609375,-0.61669921875,-0.237457275390625,-0.0002899169921875
1761383293859092500,4.680092529296875,-0.646148681640625,-0.2326812744140625,-0.01153564453125
1761383293869163500,4.69016357421875,-0.659423828125,-0.234588623046875,-0.032440185546875
1761383293879233300,4.7002333984375,-0.637664794921875,-0.2364044189453125,-0.0657196044921875
1761383293889303600,4.710303466796875,-0.60186767578125,-0.2430419921875,-0.097747802734375
1761383293899373600,4.72037353515625,-0.5924072265625,-0.2498931884765625,-0.131439208984375
1761383293909443300,4.730443359375,-0.623748779296875,-0.2547607421875,-0.1577301025390625
1761383293919514400,4.740514404296875,-0.68798828125,-0.273223876953125,-0.161895751953125
1761383293929584400,4.75058447265625,-0.74078369140625,-0.311065673828125,-0.149444580078125
1761383293939654400,4.760654296875,-0.733642578125,-0.355133056640625,-0.1226806640625
1761383293949724400,4.770724365234375,-0.6995391845703125,-0.3803253173828125,-0.1064300537109375
1761383293959794400,4.78079443359375,-0.6794281005859375,-0.3854217529296875,-0.1075439453125
1761383293969864400,4.790864501953125,-0.6795196533203125,-0.3928375244140625,-0.1081390380859375
1761383293979935500,4.800935546875,-0.71209716796875,-0.411712646484375,-0.1163482666015625
1761383293990005500,4.811005615234375,-0.776947021484375,-0.4174346923828125,-0.1283721923828125
1761383294000075300,4.8210751953125,-0.8561553955078125,-0.4172821044921875,-0.11895751953125
1761383294010145500,4.8311455078125,-0.932586669921875,-0.399200439453125,-0.1142425537109375
1761383294020215600,4.841215576171875,-0.9520721435546875,-0.364898681640625,-0.129791259765625
1761383294030286300,4.851286376953125,-0.9241790771484375,-0.333953857421875,-0.1396331787109375
1761383294040356400,4.8613564453125,-0.90020751953125,-0.2920379638671875,-0.14373779296875
1761383294050426400,4.87142626953125,-0.9457855224609375,-0.26556396484375,-0.14434814453125
1761383294060496400,4.881496337890625,-0.9927520751953125,-0.2800445556640625,-0.149505615234375
1761383294070566400,4.89156640625,-1.008636474609375,-0.32080078125,-0.1510772705078125
1761383294080637400,4.901637451171875,-1.0366058349609375,-0.361419677734375,-0.14892578125
1761383294090707500,4.91170751953125,-1.067230224609375,-0.3732147216796875,-0.163330078125
1761383294100777500,4.921777587890625,-1.0262298583984375,-0.356842041015625,-0.2090606689453125
1761383294110847500,4.931847412109375,-0.9642791748046875,-0.3578033447265625,-0.247772216796875
1761383294120917200,4.941917236328125,-0.9591217041015625,-0.372100830078125,-0.255889892578125
1761383294130987500,4.951987548828125,-0.9991455078125,-0.35699462890625,-0.2510833740234375
1761383294141058600,4.96205859375,-1.05316162109375,-0.33392333984375,-0.23907470703125
1761383294151128600,4.972128662109375,-1.082733154296875,-0.3236541748046875,-0.2232513427734375
1761383294161198300,4.9821982421875,-1.062469482421875,-0.3401947021484375,-0.2117919921875
1761383294171268400,4.992268310546875,-0.9716796875,-0.373687744140625,-0.21868896484375
1761383294181338400,5.00233837890625,-0.896087646484375,-0.4008941650390625,-0.23541259765625
1761383294191409400,5.012409423828125,-0.85369873046875,-0.4225616455078125,-0.2507781982421875
1761383294201479400,5.0224794921875,-0.8324127197265625,-0.436859130859375,-0.254791259765625
1761383294211549400,5.032549560546875,-0.8274383544921875,-0.433837890625,-0.2517852783203125
1761383294221619500,5.042619384765625,-0.8071441650390625,-0.428558349609375,-0.2470550537109375
1761383294231689500,5.052689453125,-0.745208740234375,-0.4310455322265625,-0.233917236328125
1761383294241759500,5.062759521484375,-0.6650238037109375,-0.4424285888671875,-0.226165771484375
1761383294251830300,5.072830322265625,-0.6123199462890625,-0.4770355224609375,-0.212005615234375
1761383294261900500,5.082900634765625,-0.62481689453125,-0.4547119140625,-0.206878662109375
1761383294271970600,5.092970458984375,-0.6396484375,-0.3944091796875,-0.2187347412109375
1761383294282040300,5.103040283203125,-0.5993194580078125,-0.336395263671875,-0.24945068359375
1761383294292110300,5.1131103515625,-0.55877685546875,-0.2953948974609375,-0.2796630859375
1761383294302181400,5.123181396484375,-0.6718902587890625,-0.40179443359375,-0.232696533203125
1761383294312251400,5.13325146484375,-0.819976806640625,-0.4442291259765625,-0.1820220947265625
1761383294322321400,5.1433212890625,-0.8277435302734375,-0.39630126953125,-0.147857666015625
1761383294332391400,5.153391357421875,-0.772125244140625,-0.3124237060546875,-0.1463165283203125
1761383294342461400,5.16346142578125,-0.762542724609375,-0.2617645263671875,-0.171630859375
1761383294352531500,5.173531494140625,-0.752838134765625,-0.249847412109375,-0.204559326171875
1761383294362602500,5.1836025390625,-0.7124786376953125,-0.2565460205078125,-0.1870574951171875
1761383294372672300,5.19367236328125,-0.7386322021484375,-0.2803955078125,-0.1784820556640625
1761383294382742500,5.203742431640625,-0.767547607421875,-0.3331298828125,-0.1920623779296875
1761383294392812500,5.2138125,-0.7021484375,-0.34515380859375,-0.171783447265625
1761383294402882300,5.22388232421875,-0.6181182861328125,-0.2769317626953125,-0.1843414306640625
1761383294412953300,5.233953369140625,-0.508544921875,-0.1425323486328125,-0.1462249755859375
1761383294423023400,5.2440234375,-0.434539794921875,0.0930938720703125,-0.0009307861328125
1761383294433093600,5.25409375,-0.446136474609375,0.227569580078125,0.0852508544921875
1761383294443163400,5.264163330078125,-0.489593505859375,0.0290069580078125,0.0208892822265625
1761383294453233400,5.2742333984375,-0.6723480224609375,-0.224853515625,-0.0269317626953125
1761383294463303400,5.284303466796875,-0.627166748046875,-0.1822967529296875,-0.0410919189453125
1761383294473374500,5.29437451171875,-0.6022186279296875,-0.118743896484375,-0.0318450927734375
1761383294483444500,5.304444580078125,-0.6800384521484375,-0.143310546875,0.02728271484375
1761383294493514500,5.314514404296875,-0.739898681640625,-0.1690521240234375,0.1080474853515625
1761383294503584500,5.32458447265625,-0.741363525390625,-0.273590087890625,0.18841552734375
1761383294513654500,5.334654541015625,-0.713592529296875,-0.373626708984375,0.2949066162109375
1761383294523724300,5.344724365234375,-0.7293853759765625,-0.4225616455078125,0.376556396484375
1761383294533795300,5.35479541015625,-0.8964080810546875,-0.4422149658203125,0.4151611328125
1761383294543865300,5.364865234375,-1.2615966796875,-0.4311981201171875,0.443328857421875
1761383294553935600,5.374935546875,-1.6513214111328125,-0.3359375,0.4473724365234375
1761383294564005400,5.38500537109375,-2.0298004150390625,-0.26873779296875,0.4080963134765625
1761383294574075400,5.395075439453125,-2.3895263671875,-0.276458740234375,0.33331298828125
1761383294584146400,5.405146484375,-2.6833648681640625,-0.29278564453125,0.2820281982421875
1761383294594216400,5.415216552734375,-2.9081268310546875,-0.0907135009765625,0.18450927734375
1761383294604286500,5.425286376953125,-3.1295166015625,-0.0981597900390625,0.180877685546875
1761383294614356500,5.4353564453125,-3.3546600341796875,-0.2041015625,0.22601318359375
1761383294624426200,5.44542626953125,-3.584625244140625,-0.3267974853515625,0.289459228515625
1761383294634496500,5.45549658203125,-3.739166259765625,-0.3563995361328125,0.339691162109375
1761383294644567600,5.465567626953125,-3.80670166015625,-0.336761474609375,0.3160400390625
1761383294654637300,5.47563720703125,-3.7576904296875,-0.3565826416015625,0.271728515625
1761383294664707300,5.485707275390625,-3.6237030029296875,-0.2952423095703125,0.324920654296875
1761383294674777600,5.495777587890625,-3.436920166015625,-0.2103118896484375,0.4214630126953125
1761383294684847400,5.505847412109375,-3.318389892578125,-0.3128204345703125,0.45050048828125
1761383294694917400,5.51591748046875,-2.9994049072265625,-0.354339599609375,0.41107177734375
1761383294704988400,5.525988525390625,-2.5591888427734375,-0.3810272216796875,0.321258544921875
1761383294715058400,5.536058349609375,-2.0986175537109375,-0.3660736083984375,0.183837890625
1761383294725128400,5.54612841796875,-1.5528411865234375,-0.3883056640625,0.056915283203125
1761383294735198500,5.556198486328125,-0.975738525390625,-0.401031494140625,-0.0345916748046875
1761383294745268200,5.566268310546875,-0.47784423828125,-0.2812652587890625,-0.227996826171875
1761383294755338500,5.57633837890625,-0.0871124267578125,-0.086944580078125,-0.3781890869140625
1761383294765409500,5.586409423828125,-0.000885009765625,0.094085693359375,-0.4696502685546875
1761383294775479300,5.596479248046875,-0.0383148193359375,0.2347412109375,-0.457000732421875
1761383294785549300,5.60654931640625,-0.160369873046875,0.3463592529296875,-0.3437957763671875
1761383294795619600,5.61661962890625,-0.1839599609375,0.5483245849609375,-0.1798858642578125
1761383294805689300,5.626689453125,-0.1851348876953125,0.567047119140625,-0.0914154052734375
1761383294815760400,5.636760498046875,-0.029327392578125,0.5394134521484375,-0.0338592529296875
1761383294825830400,5.646830322265625,0.2958526611328125,0.4808349609375,0.034576416015625
1761383294835900700,5.656900634765625,0.59735107421875,0.3751220703125,0.11859130859375
1761383294845970400,5.666970458984375,0.8007659912109375,0.320587158203125,0.1915435791015625
1761383294856040400,5.67704052734375,0.8899993896484375,0.253143310546875,0.2597808837890625
1761383294866110200,5.687110107421875,0.900848388671875,0.1751708984375,0.299102783203125
1761383294876181200,5.69718115234375,0.8792724609375,0.118743896484375,0.289642333984375
1761383294886251500,5.70725146484375,0.794036865234375,0.0995025634765625,0.24932861328125
1761383294896321500,5.717321533203125,0.58392333984375,0.1066131591796875,0.192626953125
1761383294906391300,5.727391357421875,0.3849029541015625,0.0985107421875,0.16632080078125
1761383294916461600,5.737461669921875,0.1923370361328125,0.0380859375,0.185272216796875
1761383294926531300,5.74753125,0.0313568115234375,-0.0586700439453125,0.1977691650390625
1761383294936602400,5.757602294921875,-0.0661163330078125,-0.186981201171875,0.185638427734375
1761383294946672400,5.76767236328125,-0.0957794189453125,-0.2528839111328125,0.1326751708984375
1761383294956742400,5.777742431640625,-0.1549072265625,-0.2436981201171875,0.0425262451171875
1761383294966812400,5.7878125,-0.175689697265625,-0.2179107666015625,-0.0662689208984375
1761383294976882400,5.79788232421875,-0.21136474609375,-0.2184906005859375,-0.146820068359375
1761383294986952400,5.807952392578125,-0.2376556396484375,-0.233001708984375,-0.199127197265625
1761383294997023200,5.818023193359375,-0.253570556640625,-0.2441558837890625,-0.2347869873046875
1761383295007093500,5.828093505859375,-0.2432403564453125,-0.2454681396484375,-0.2540130615234375
1761383295017163500,5.83816357421875,-0.2241668701171875,-0.2198944091796875,-0.2468414306640625
1761383295027233300,5.8482333984375,-0.248321533203125,-0.186370849609375,-0.2057037353515625
1761383295037303600,5.858303466796875,-0.2731170654296875,-0.151885986328125,-0.17138671875
1761383295047373600,5.86837353515625,-0.29150390625,-0.1197357177734375,-0.1562957763671875
1761383295057444400,5.8784443359375,-0.287384033203125,-0.1121063232421875,-0.132843017578125
1761383295067514400,5.888514404296875,-0.2794342041015625,-0.130889892578125,-0.08642578125
1761383295077584400,5.89858447265625,-0.253204345703125,-0.1689605712890625,-0.03961181640625
1761383295087654400,5.908654296875,-0.234283447265625,-0.199188232421875,-0.005615234375
1761383295097724400,5.918724365234375,-0.2037353515625,-0.190673828125,0.0168304443359375
1761383295107794400,5.92879443359375,-0.209136962890625,-0.18792724609375,0.0493927001953125
1761383295117865200,5.938865234375,-0.26202392578125,-0.202484130859375,0.1046142578125
1761383295127935500,5.948935546875,-0.3502197265625,-0.2408905029296875,0.1687164306640625
1761383295138005500,5.959005615234375,-0.4872283935546875,-0.2906646728515625,0.2120361328125
1761383295148075300,5.9690751953125,-0.6164703369140625,-0.418975830078125,0.2948760986328125
1761383295158145500,5.9791455078125,-0.7362060546875,-0.5929412841796875,0.39849853515625
1761383295168215600,5.989215576171875,-0.86309814453125,-0.8009185791015625,0.4678802490234375
1761383295178286300,5.999286376953125,-0.9414215087890625,-0.91357421875,0.40875244140625
1761383295188356400,6.0093564453125,-1.04302978515625,-0.90081787109375,0.2011260986328125
1761383295198426400,6.01942626953125,-1.1531982421875,-1.034088134765625,0.0523681640625
1761383295208496400,6.029496337890625,-1.283172607421875,-0.9694976806640625,-0.1813201904296875
1761383295218566400,6.03956640625,-1.4247894287109375,-0.9341583251953125,-0.4536590576171875
1761383295228636400,6.049636474609375,-1.651885986328125,-0.68597412109375,-0.6345367431640625
1761383295238707500,6.05970751953125,-1.8686370849609375,-0.57012939453125,-0.58245849609375
1761383295248777500,6.069777587890625,-1.917266845703125,-0.633697509765625,-0.42205810546875
1761383295258847500,6.079847412109375,-2.036865234375,-0.6707763671875,-0.2230072021484375
1761383295268917200,6.089917236328125,-2.1163787841796875,-0.6347503662109375,-0.07470703125
1761383295278987500,6.099987548828125,-2.1315765380859375,-0.5429840087890625,-0.034881591796875
1761383295289057500,6.1100576171875,-2.10394287109375,-0.4668121337890625,-0.0229949951171875
1761383295299128600,6.120128662109375,-2.0499420166015625,-0.4362640380859375,-0.0068817138671875
1761383295309198300,6.1301982421875,-2.0386962890625,-0.4363861083984375,0.033111572265625
1761383295319268400,6.140268310546875,-2.0670623779296875,-0.3796844482421875,0.057403564453125
1761383295329338400,6.15033837890625,-2.0664215087890625,-0.2804718017578125,0.0459747314453125
1761383295339408400,6.160408447265625,-2.026824951171875,-0.20416259765625,0.0138702392578125
1761383295349478400,6.170478515625,-1.9095916748046875,-0.1488189697265625,-0.028228759765625
1761383295359549400,6.180549560546875,-1.80267333984375,-0.07720947265625,-0.0968017578125
1761383295369619500,6.190619384765625,-1.7538299560546875,0.03826904296875,-0.1801300048828125
1761383295379689500,6.200689453125,-1.6616363525390625,0.1290130615234375,-0.2579345703125
1761383295389759500,6.210759521484375,-1.588165283203125,0.190826416015625,-0.316864013671875
1761383295399829500,6.22082958984375,-1.532440185546875,0.2239990234375,-0.3521728515625
1761383295409899500,6.2308994140625,-1.4486846923828125,0.2039794921875,-0.36260986328125
1761383295419970600,6.240970458984375,-1.3155517578125,0.1510467529296875,-0.3620147705078125
1761383295430040300,6.251040283203125,-1.1655731201171875,0.089508056640625,-0.3394927978515625
1761383295440110300,6.2611103515625,-1.0560455322265625,0.0166015625,-0.3099822998046875
1761383295450180600,6.2711806640625,-0.958953857421875,-0.04815673828125,-0.2569427490234375
1761383295460250400,6.28125048828125,-0.8646087646484375,-0.08233642578125,-0.1984100341796875
1761383295470320400,6.2913203125,-0.8119049072265625,-0.10589599609375,-0.143402099609375
1761383295480391400,6.301391357421875,-0.7530670166015625,-0.1132965087890625,-0.09515380859375
1761383295490461400,6.31146142578125,-0.6884918212890625,-0.1407012939453125,-0.0448455810546875
1761383295500531500,6.321531494140625,-0.7022247314453125,-0.185821533203125,0.013519287109375
1761383295510601500,6.3316015625,-0.6705474853515625,-0.133392333984375,0.0298614501953125
1761383295520671500,6.34167138671875,-0.628662109375,-0.1272125244140625,0.019927978515625
1761383295530741500,6.351741455078125,-0.60247802734375,-0.14605712890625,0.014068603515625
1761383295540811500,6.3618115234375,-0.620452880859375,-0.162506103515625,0.0079193115234375
1761383295550882300,6.37188232421875,-0.6451263427734375,-0.1547088623046875,-0.001373291015625
1761383295560952300,6.381952392578125,-0.6213226318359375,-0.168212890625,-0.000396728515625
1761383295571022600,6.392022705078125,-0.603851318359375,-0.2124176025390625,-0.0009002685546875
1761383295581092400,6.40209228515625,-0.6229400634765625,-0.24285888671875,0.0029296875
1761383295591162400,6.412162353515625,-0.6584930419921875,-0.2378997802734375,0.01141357421875
1761383295601232600,6.422232666015625,-0.657623291015625,-0.219329833984375,-0.00244140625
1761383295611303400,6.432303466796875,-0.647613525390625,-0.2155914306640625,-0.0339508056640625
1761383295621373400,6.44237353515625,-0.691864013671875,-0.1965179443359375,-0.0786895751953125
1761383295631443500,6.452443359375,-0.749267578125,-0.177215576171875,-0.1119232177734375
1761383295641513500,6.462513427734375,-0.761627197265625,-0.1621551513671875,-0.096527099609375
1761383295651583500,6.47258349609375,-0.717376708984375,-0.1889495849609375,-0.054901123046875
1761383295661653500,6.482653564453125,-0.64501953125,-0.2589263916015625,-0.028106689453125
1761383295671724300,6.492724365234375,-0.6375885009765625,-0.3305511474609375,-0.00018310546875
1761383295681794300,6.502794189453125,-0.699615478515625,-0.3697357177734375,0.02581787109375
1761383295691864600,6.512864501953125,-0.8106231689453125,-0.330078125,0.053619384765625
1761383295701934300,6.522934326171875,-0.869842529296875,-0.32171630859375,0.067047119140625
1761383295712004400,6.53300439453125,-0.8943634033203125,-0.3700408935546875,0.04248046875
1761383295722074600,6.54307470703125,-0.9029998779296875,-0.399566650390625,0.01947021484375
1761383295732144400,6.553144287109375,-0.93035888671875,-0.42645263671875,0.01483154296875
1761383295742215400,6.56321533203125,-0.9727935791015625,-0.4235992431640625,0.0207977294921875
1761383295752285400,6.573285400390625,-1.003509521484375,-0.4030609130859375,0.02117919921875
1761383295762355200,6.583355224609375,-1.0050506591796875,-0.3901519775390625,0.02069091796875
1761383295772425500,6.593425537109375,-0.997344970703125,-0.3879852294921875,0.02313232421875
1761383295782495500,6.60349560546875,-0.9890594482421875,-0.4006805419921875,0.035797119140625
1761383295792565200,6.613565185546875,-1.0125274658203125,-0.4036865234375,0.044342041015625
1761383295802636300,6.62363623046875,-1.05194091796875,-0.398529052734375,0.0427703857421875
1761383295812706600,6.63370654296875,-1.0644989013671875,-0.38232421875,0.021484375
1761383295822776300,6.6437763671875,-1.0683135986328125,-0.364349365234375,-0.0016021728515625
1761383295832846300,6.653846435546875,-1.0640716552734375,-0.3492431640625,-0.020904541015625
1761383295842916600,6.66391650390625,-1.0413818359375,-0.337646484375,-0.0413360595703125
1761383295852986400,6.673986328125,-1.03863525390625,-0.3509521484375,-0.0635986328125
1761383295863056400,6.684056396484375,-1.0380401611328125,-0.3488311767578125,-0.0709228515625
1761383295873127400,6.69412744140625,-1.0255889892578125,-0.3508148193359375,-0.0648040771484375
1761383295883197400,6.704197509765625,-1.008209228515625,-0.3611297607421875,-0.068695068359375
1761383295893267500,6.714267333984375,-0.952484130859375,-0.368133544921875,-0.0725555419921875
1761383295903337500,6.72433740234375,-0.9020538330078125,-0.3843536376953125,-0.052459716796875
1761383295913407200,6.7344072265625,-0.8887481689453125,-0.4078216552734375,-0.0088958740234375
1761383295923477500,6.7444775390625,-0.8863983154296875,-0.437591552734375,0.0318756103515625
1761383295933548500,6.754548583984375,-0.8883056640625,-0.462554931640625,0.0664215087890625
1761383295943618600,6.76461865234375,-0.8635406494140625,-0.4257659912109375,0.0718841552734375
1761383295953688300,6.774688232421875,-0.864288330078125,-0.3837432861328125,0.0569000244140625
1761383295963758600,6.784758544921875,-0.876220703125,-0.3679046630859375,0.0399627685546875
1761383295973828400,6.794828369140625,-0.8880615234375,-0.3580474853515625,0.0301513671875
1761383295983898400,6.8048984375,-0.893310546875,-0.3309326171875,0.035125732421875
1761383295993968400,6.814968505859375,-0.9319000244140625,-0.273529052734375,0.0491180419921875
1761383296004039400,6.825039306640625,-0.899200439453125,-0.3145904541015625,0.0277862548828125
1761383296014109400,6.835109375,-0.907135009765625,-0.3272552490234375,0.0149383544921875
1761383296024179500,6.845179443359375,-0.9282989501953125,-0.2962799072265625,0.0008544921875
1761383296034249500,6.85524951171875,-0.9044647216796875,-0.2906646728515625,-0.016510009765625
1761383296044319500,6.865319580078125,-0.8857574462890625,-0.30560302734375,-0.0245819091796875
1761383296054389500,6.875389404296875,-0.8840179443359375,-0.3183135986328125,-0.0258941650390625
1761383296064459300,6.885459228515625,-0.875396728515625,-0.3209228515625,-0.025665283203125
1761383296074530300,6.8955302734375,-0.85870361328125,-0.314666748046875,-0.033447265625
1761383296084600600,6.9056005859375,-0.837493896484375,-0.30999755859375,-0.046630859375
1761383296094670600,6.915670654296875,-0.8102569580078125,-0.309234619140625,-0.0454559326171875
1761383296104740400,6.925740234375,-0.7736053466796875,-0.3144073486328125,-0.034698486328125
1761383296114810400,6.935810302734375,-0.73931884765625,-0.3151702880859375,-0.0273895263671875
1761383296124880400,6.94588037109375,-0.7004241943359375,-0.30816650390625,-0.03082275390625
1761383296134951400,6.955951416015625,-0.6685943603515625,-0.29425048828125,-0.04205322265625
1761383296145021400,6.966021484375,-0.645751953125,-0.2720794677734375,-0.04400634765625
1761383296155091500,6.976091552734375,-0.6234588623046875,-0.2498321533203125,-0.0380096435546875
1761383296165161500,6.986161376953125,-0.60302734375,-0.23052978515625,-0.0243377685546875
1761383296175231500,6.9962314453125,-0.5838623046875,-0.219970703125,-0.00958251953125
1761383296185301500,7.006301513671875,-0.5628509521484375,-0.2203826904296875,0.001190185546875
1761383296195371300,7.016371337890625,-0.55853271484375,-0.2284393310546875,0.0074920654296875
1761383296205442300,7.0264423828125,-0.5798492431640625,-0.2341156005859375,0.0042266845703125
1761383296215512600,7.0365126953125,-0.5904693603515625,-0.22845458984375,-0.015350341796875
1761383296225579500,7.04657958984375,-0.534759521484375,-0.21539306640625,-0.0447235107421875
1761383296235650600,7.056650634765625,-0.492034912109375,-0.2172088623046875,-0.071868896484375
1761383296245720300,7.06672021484375,-0.5501708984375,-0.2467041015625,-0.059600830078125
1761383296255790600,7.07679052734375,-0.6538848876953125,-0.2504119873046875,-0.0325164794921875
1761383296265860400,7.0868603515625,-0.734832763671875,-0.2811126708984375,-0.0451202392578125
1761383296275930400,7.096930419921875,-0.7575531005859375,-0.3133087158203125,-0.065185546875
1761383296286000400,7.10700048828125,-0.789520263671875,-0.3231048583984375,-0.0754852294921875
1761383296296071400,7.117071533203125,-0.8449859619140625,-0.352996826171875,-0.098175048828125
1761383296306141400,7.127141357421875,-0.8806610107421875,-0.396148681640625,-0.0882110595703125
1761383296316211500,7.13721142578125,-0.936187744140625,-0.43292236328125,-0.041839599609375
1761383296326281500,7.147281494140625,-0.9919586181640625,-0.4541015625,-0.0021209716796875
1761383296336351500,7.1573515625,-1.040008544921875,-0.42181396484375,0.011383056640625
1761383296346421500,7.16742138671875,-1.1129913330078125,-0.3599853515625,-0.013946533203125
1761383296356491300,7.1774912109375,-1.23052978515625,-0.3232269287109375,0.0176544189453125
1761383296366562300,7.187562255859375,-1.4377288818359375,-0.3917999267578125,0.0618438720703125
1761383296376632600,7.197632568359375,-1.5579986572265625,-0.50360107421875,0.08917236328125
1761383296386702600,7.20770263671875,-1.6693878173828125,-0.5648345947265625,0.0929412841796875
1761383296396772400,7.2177724609375,-1.8183135986328125,-0.551544189453125,0.0681610107421875
1761383296406842400,7.22784228515625,-1.9056243896484375,-0.5545654296875,0.03216552734375
1761383296416912400,7.237912353515625,-2.0923919677734375,-0.640350341796875,0.0238189697265625
1761383296426982400,7.247982421875,-2.30059814453125,-0.770599365234375,0.072265625
1761383296437053400,7.258053466796875,-2.471771240234375,-0.8952178955078125,0.142852783203125
1761383296447123500,7.26812353515625,-2.5810394287109375,-0.956512451171875,0.1679840087890625
1761383296457193500,7.278193359375,-2.6546783447265625,-1.0110626220703125,0.1456756591796875
1761383296467263500,7.288263427734375,-2.699005126953125,-1.0801544189453125,0.13104248046875
1761383296477333500,7.29833349609375,-2.6605072021484375,-1.0456390380859375,0.0687713623046875
1761383296487403500,7.308403564453125,-2.59930419921875,-0.95709228515625,-0.047088623046875
1761383296497473500,7.3184736328125,-2.547149658203125,-0.8858795166015625,-0.0955963134765625
1761383296507544600,7.328544677734375,-2.5030364990234375,-0.778350830078125,-0.07568359375
1761383296517614300,7.3386142578125,-2.4123382568359375,-0.6912078857421875,-0.0339508056640625
1761383296527684400,7.348684326171875,-2.245208740234375,-0.6629180908203125,-0.0088958740234375
1761383296537754600,7.358754638671875,-2.06396484375,-0.657958984375,0.0213470458984375
1761383296547824400,7.368824462890625,-1.7972412109375,-0.624786376953125,0.0262908935546875
1761383296557894400,7.378894287109375,-1.5000762939453125,-0.55633544921875,0.0356597900390625
1761383296567964400,7.38896435546875,-1.2413330078125,-0.456146240234375,0.0412139892578125
1761383296578035500,7.399035400390625,-1.0104522705078125,-0.3092803955078125,0.0366668701171875
1761383296588105500,7.40910546875,-0.80316162109375,-0.195159912109375,0.01849365234375
1761383296598175500,7.419175537109375,-0.645172119140625,-0.198516845703125,0.030426025390625
1761383296608245200,7.429245361328125,-0.5284423828125,-0.125396728515625,0.0073089599609375
1761383296618315500,7.4393154296875,-0.3736419677734375,0.0090179443359375,-0.0371856689453125
1761383296628385500,7.449385498046875,-0.2173919677734375,0.2043914794921875,-0.0472412109375
1761383296638455300,7.459455322265625,-0.172882080078125,0.2529449462890625,-0.099761962890625
1761383296648525600,7.469525634765625,-0.1292724609375,0.22161865234375,-0.1446685791015625
1761383296658596600,7.4795966796875,-0.0464935302734375,0.2370452880859375,-0.1624603271484375
1761383296668666400,7.489666259765625,0.052459716796875,0.229522705078125,-0.200897216796875
1761383296678736400,7.499736328125,0.1381988525390625,0.22552490234375,-0.179107666015625
1761383296688806700,7.509806640625,0.158233642578125,0.1888885498046875,-0.116302490234375
1761383296698876400,7.51987646484375,0.1541290283203125,0.150848388671875,-0.059783935546875
1761383296708946400,7.529946533203125,0.202880859375,0.120513916015625,-0.0022430419921875
1761383296719016200,7.54001611328125,0.2569732666015625,0.0909271240234375,0.0480194091796875
1761383296729087200,7.550087158203125,0.317047119140625,0.049835205078125,0.073272705078125
1761383296739157500,7.560157470703125,0.383514404296875,0.0110015869140625,0.0671539306640625
1761383296749227500,7.5702275390625,0.4299774169921875,-0.0257720947265625,0.0405426025390625
1761383296759297300,7.58029736328125,0.4441986083984375,-0.0509033203125,0.031524658203125
1761383296769367600,7.590367431640625,0.4150543212890625,-0.09796142578125,0.048187255859375
1761383296779437600,7.6004375,0.35516357421875,-0.1572265625,0.0759429931640625
1761383296789507300,7.61050732421875,0.2709808349609375,-0.1837615966796875,0.1086578369140625
1761383296799578400,7.620578369140625,0.1800537109375,-0.192413330078125,0.14703369140625
1761383296809648600,7.630648681640625,0.0943603515625,-0.2088775634765625,0.1792755126953125
1761383296819720400,7.640720458984375,0.0229644775390625,-0.20458984375,0.1727294921875
1761383296829790500,7.65079052734375,-0.0415496826171875,-0.1889190673828125,0.151580810546875
1761383296839860500,7.660860595703125,-0.077667236328125,-0.1672515869140625,0.1251678466796875
1761383296849930800,7.6709306640625,-0.0888824462890625,-0.1174163818359375,0.11212158203125
1761383296860000800,7.681000732421875,-0.08782958984375,-0.0832061767578125,0.1109466552734375
1761383296870071000,7.691071044921875,-0.067352294921875,-0.0899810791015625,0.1246185302734375
1761383296880140800,7.701140869140625,-0.03143310546875,-0.10687255859375,0.1293487548828125
1761383296890210800,7.7112109375,-0.0103912353515625,-0.1148681640625,0.1309661865234375
1761383296900280800,7.72128076171875,-0.05487060546875,-0.132781982421875,0.1415863037109375
1761383296910350800,7.731350830078125,-0.15185546875,-0.147247314453125,0.142822265625
1761383296920420900,7.7414208984375,-0.186309814453125,-0.152557373046875,0.1045684814453125
1761383296930492000,7.751491943359375,-0.212310791015625,-0.170196533203125,0.0774993896484375
1761383296940561700,7.761561767578125,-0.2679443359375,-0.228546142578125,0.1139373779296875
1761383296950632000,7.7716318359375,-0.3924560546875,-0.3230133056640625,0.2042999267578125
1761383296960702000,7.781701904296875,-0.5430145263671875,-0.4693450927734375,0.3274078369140625
1761383296970771700,7.791771728515625,-0.7315673828125,-0.6417236328125,0.447906494140625
1761383296980842000,7.801842041015625,-0.903594970703125,-0.844573974609375,0.5663604736328125
1761383296990912000,7.811912109375,-1.0886383056640625,-1.0557098388671875,0.6667633056640625
1761383297000982800,7.821982666015625,-1.3015899658203125,-1.05810546875,0.541168212890625
1761383297011052800,7.832052734375,-1.3471221923828125,-0.9621429443359375,0.3179168701171875
1761383297021122800,7.842122802734375,-1.373687744140625,-0.9180145263671875,0.1018829345703125
1761383297031192800,7.85219287109375,-1.47406005859375,-0.565948486328125,-0.2005767822265625
1761383297041262800,7.862262939453125,-1.5335845947265625,-0.4404449462890625,-0.2054595947265625
1761383297051332900,7.872332763671875,-1.7221527099609375,-0.5113677978515625,0.0280303955078125
1761383297061403000,7.88240283203125,-1.8706512451171875,-0.5538177490234375,0.2371368408203125
1761383297071473000,7.892472900390625,-1.894500732421875,-0.633697509765625,0.3609466552734375
1761383297081542700,7.902542724609375,-1.873077392578125,-0.710296630859375,0.367645263671875
1761383297091613700,7.91261376953125,-1.851898193359375,-0.699615478515625,0.212005615234375
1761383297101684000,7.92268408203125,-1.8867645263671875,-0.739471435546875,0.0745391845703125
1761383297111754000,7.93275390625,-2.0319061279296875,-0.8100738525390625,0.0455322265625
1761383297121823700,7.94282373046875,-1.966217041015625,-0.6811370849609375,-0.075592041015625
1761383297131893800,7.952893798828125,-1.932037353515625,-0.543304443359375,-0.190826416015625
1761383297141964000,7.962964111328125,-1.9120025634765625,-0.492156982421875,-0.2788848876953125
1761383297152033800,7.97303369140625,-1.8284759521484375,-0.3953704833984375,-0.373077392578125
1761383297162104800,7.983104736328125,-1.7397308349609375,-0.292938232421875,-0.4424285888671875
1761383297172174800,7.9931748046875,-1.658416748046875,-0.231658935546875,-0.4915313720703125
1761383297182244900,8.003244873046874,-1.5647125244140625,-0.090087890625,-0.512054443359375
1761383297192315000,8.01331494140625,-1.6780853271484375,-0.0106048583984375,-0.4180450439453125
1761383297202385000,8.023385009765626,-1.729034423828125,0.0096893310546875,-0.354827880859375
1761383297212455000,8.033454833984376,-1.6829376220703125,0.029296875,-0.3002471923828125
1761383297222525000,8.04352490234375,-1.62152099609375,0.080596923828125,-0.2185516357421875
1761383297232596000,8.053595947265626,-1.5062408447265625,0.10198974609375,-0.14544677734375
1761383297242665700,8.063665771484375,-1.3487548828125,0.0627288818359375,-0.0753631591796875
1761383297252735700,8.07373583984375,-1.1949310302734375,-0.0166168212890625,0.0008392333984375
1761383297262806000,8.083805908203125,-1.014190673828125,-0.090789794921875,0.0540618896484375
1761383297272875800,8.093875732421875,-0.8321075439453125,-0.1295928955078125,0.082733154296875
1761383297282945800,8.10394580078125,-0.667236328125,-0.1717529296875,0.1115875244140625
1761383297293016000,8.11401611328125,-0.524993896484375,-0.2151336669921875,0.1110382080078125
1761383297303085800,8.1240859375,-0.4194488525390625,-0.2515411376953125,0.08721923828125
1761383297313155800,8.13415576171875,-0.311370849609375,-0.283966064453125,0.080078125
1761383297323227000,8.144226806640624,-0.272369384765625,-0.30078125,0.057403564453125
1761383297333297000,8.154296875,-0.389251708984375,-0.3585205078125,0.025390625
1761383297343367000,8.164366943359376,-0.42620849609375,-0.4008026123046875,0.0271759033203125
1761383297353437000,8.17443701171875,-0.513519287109375,-0.3643951416015625,0.00726318359375
1761383297363506700,8.184506591796875,-0.639404296875,-0.329010009765625,0.0076751708984375
1761383297373577000,8.194576904296875,-0.71234130859375,-0.31298828125,0.0123291015625
1761383297383647000,8.20464697265625,-0.7840728759765625,-0.338592529296875,-0.0239410400390625
1761383297393717800,8.2147177734375,-0.86297607421875,-0.3590240478515625,-0.0704498291015625
1761383297403787800,8.224787841796875,-0.9708404541015625,-0.3424224853515625,-0.0955657958984375
1761383297413858000,8.234858154296875,-1.049896240234375,-0.256500244140625,-0.08514404296875
1761383297423927800,8.244927734375,-1.0862579345703125,-0.1922760009765625,-0.087005615234375
1761383297433997800,8.254997802734374,-1.105224609375,-0.18414306640625,-0.0761871337890625
1761383297444067800,8.26506787109375,-1.11090087890625,-0.2006988525390625,-0.050201416015625
1761383297454137900,8.275137939453124,-1.07708740234375,-0.19488525390625,-0.0045318603515625
1761383297464208000,8.285207763671876,-1.0513458251953125,-0.18719482421875,0.0394439697265625
1761383297474279000,8.29527880859375,-1.0135498046875,-0.207916259765625,0.0390167236328125
1761383297484348700,8.3053486328125,-0.9549713134765625,-0.2481689453125,0.03643798828125
1761383297494419000,8.3154189453125,-0.9116058349609375,-0.273773193359375,0.072540283203125
1761383297504489000,8.325489013671875,-0.88775634765625,-0.26239013671875,0.1206512451171875
1761383297514558700,8.335558837890625,-0.8872222900390625,-0.2781829833984375,0.1353759765625
1761383297524629000,8.34562890625,-0.8976593017578125,-0.305419921875,0.141448974609375
1761383297534699000,8.355698974609375,-0.9021148681640625,-0.328887939453125,0.1446990966796875
1761383297544768800,8.365768798828125,-0.9149017333984375,-0.351531982421875,0.13592529296875
1761383297554838800,8.3758388671875,-0.9246826171875,-0.36199951171875,0.128631591796875
1761383297564909800,8.385909912109375,-0.9213714599609375,-0.375,0.104095458984375
1761383297574979800,8.395979736328124,-0.9027862548828125,-0.3949737548828125,0.0757293701171875
1761383297585049900,8.4060498046875,-0.9048309326171875,-0.39129638671875,0.0484619140625
1761383297595119900,8.416119873046876,-0.9033203125,-0.3885040283203125,0.0367584228515625
1761383297605190000,8.42618994140625,-0.9025115966796875,-0.366729736328125,0.030517578125
1761383297615260000,8.436260009765626,-0.93438720703125,-0.355712890625,0.030853271484375
1761383297625329700,8.44632958984375,-0.9594268798828125,-0.331329345703125,0.03802490234375
1761383297635400000,8.45639990234375,-0.979949951171875,-0.308624267578125,0.0511474609375
1761383297645471000,8.466470947265625,-0.9832000732421875,-0.297332763671875,0.05548095703125
1761383297655541000,8.476541015625,-0.9805908203125,-0.3029937744140625,0.0623321533203125
1761383297665610800,8.48661083984375,-0.9805908203125,-0.3074798583984375,0.0688934326171875
1761383297675680800,8.4966806640625,-0.97198486328125,-0.3177032470703125,0.083892822265625
1761383297685751000,8.5067509765625,-0.9554595947265625,-0.3360443115234375,0.094268798828125
1761383297695820800,8.51682080078125,-0.9231414794921875,-0.3240966796875,0.0785369873046875
1761383297705890800,8.526890869140624,-0.8845367431640625,-0.3219757080078125,0.0730133056640625
1761383297715960800,8.5369609375,-0.8684539794921875,-0.3173980712890625,0.0774993896484375
1761383297726032000,8.547031982421874,-0.8577880859375,-0.2832183837890625,0.0684661865234375
1761383297736102000,8.557101806640626,-0.896392822265625,-0.2271270751953125,0.05517578125
1761383297746172000,8.567171875,-0.78472900390625,-0.2951507568359375,0.0712127685546875
1761383297756242000,8.577241943359375,-0.792236328125,-0.32403564453125,0.069915771484375
1761383297766312000,8.58731201171875,-0.86114501953125,-0.3312225341796875,0.0785369873046875
1761383297776381700,8.597381591796875,-0.8235015869140625,-0.3309478759765625,0.08660888671875
1761383297786451700,8.60745166015625,-0.7961578369140625,-0.3182830810546875,0.0865478515625
1761383297796522000,8.61752197265625,-0.807159423828125,-0.30596923828125,0.0788726806640625
1761383297806591700,8.627591796875,-0.793792724609375,-0.302093505859375,0.0707855224609375
1761383297816662800,8.637662841796875,-0.74957275390625,-0.2883453369140625,0.0562591552734375
1761383297826732800,8.64773291015625,-0.719573974609375,-0.2676544189453125,0.0520477294921875
1761383297836803000,8.657802978515624,-0.6997222900390625,-0.2619476318359375,0.0560455322265625
1761383297846872800,8.667872802734376,-0.6796417236328125,-0.267120361328125,0.0662994384765625
1761383297856943000,8.677943115234376,-0.6587371826171875,-0.274871826171875,0.0712127685546875
1761383297867013000,8.68801318359375,-0.6411895751953125,-0.2761688232421875,0.0655059814453125
1761383297877083100,8.698083251953125,-0.6279144287109375,-0.271942138671875,0.0554962158203125
1761383297887153200,8.708153076171875,-0.6127471923828125,-0.2568817138671875,0.0433807373046875
1761383297897224200,8.71822412109375,-0.5959014892578125,-0.2328948974609375,0.028045654296875
1761383297907294200,8.728294189453125,-0.5763702392578125,-0.2038116455078125,0.0169219970703125
1761383297917364200,8.7383642578125,-0.5565032958984375,-0.1709136962890625,0.0048675537109375
1761383297927434200,8.748434326171875,-0.537506103515625,-0.1378173828125,-0.016693115234375
1761383297937504300,8.758504150390625,-0.5207977294921875,-0.1046295166015625,-0.037872314453125
1761383297947574000,8.768573974609374,-0.495697021484375,-0.072509765625,-0.0479278564453125
1761383297957644300,8.778644287109374,-0.46649169921875,-0.046417236328125,-0.04925537109375
1761383297967714000,8.788714111328124,-0.4749298095703125,-0.0402679443359375,-0.03680419921875
1761383297977784000,8.7987841796875,-0.5066680908203125,-0.0358428955078125,-0.0090484619140625
1761383297987855000,8.808855224609376,-0.5281524658203125,-0.0418548583984375,-0.00482177734375
1761383297997925400,8.81892529296875,-0.552398681640625,-0.0507049560546875,-0.0054779052734375
1761383298007995100,8.8289951171875,-0.599578857421875,-0.064361572265625,0.007354736328125
1761383298018065200,8.839065185546875,-0.66949462890625,-0.08056640625,0.014007568359375
1761383298028135200,8.84913525390625,-0.7931365966796875,-0.1044769287109375,0.033294677734375
1761383298038205200,8.859205078125,-0.9593505859375,-0.1774444580078125,0.0486602783203125
1761383298048275200,8.869275146484375,-1.0631866455078125,-0.2936248779296875,0.0717926025390625
1761383298058345000,8.879344970703125,-1.193359375,-0.342193603515625,0.1314849853515625
1761383298068415200,8.889415283203125,-1.5126953125,-0.338104248046875,0.2079010009765625
1761383298078486300,8.899486328125,-2.0860443115234375,-0.36224365234375,0.2792510986328125
1761383298088556300,8.909556396484374,-2.6882476806640625,-0.468994140625,0.219024658203125
1761383298098626000,8.9196259765625,-2.9131927490234375,-0.6132659912109375,0.04345703125
1761383298108696300,8.9296962890625,-3.062225341796875,-0.5024566650390625,-0.1314697265625
1761383298118766000,8.93976611328125,-3.2069854736328125,-0.3193817138671875,-0.14105224609375
1761383298128836000,8.949836181640626,-3.30438232421875,-0.292205810546875,-0.124420166015625
1761383298138906400,8.95990625,-3.2689056396484375,-0.396453857421875,-0.185882568359375
1761383298148976000,8.96997607421875,-3.168548583984375,-0.45941162109375,-0.1173553466796875
1761383298159046100,8.980046142578125,-3.1061248779296875,-0.4636383056640625,0.104248046875
1761383298169117200,8.9901171875,-2.9583282470703125,-0.4984283447265625,0.2631988525390625
1761383298179187200,9.000187255859375,-2.6696624755859375,-0.5056304931640625,0.3301239013671875
1761383298189257200,9.01025732421875,-2.39190673828125,-0.462188720703125,0.3430633544921875
1761383298199327200,9.0203271484375,-2.3018341064453125,-0.3417816162109375,0.267242431640625
1761383298209397000,9.03039697265625,-2.1907806396484375,-0.2122344970703125,0.07049560546875
1761383298219467300,9.04046728515625,-2.0450439453125,-0.1482086181640625,-0.069732666015625
1761383298229537300,9.050537353515624,-1.8254241943359375,-0.097320556640625,-0.08416748046875
1761383298239607000,9.06060693359375,-1.586334228515625,-0.063232421875,-0.0528411865234375
1761383298249677000,9.070677001953126,-1.3445587158203125,-0.0384063720703125,-0.0395965576171875
1761383298259748000,9.080748046875,-1.0587310791015625,-0.041290283203125,-0.0394134521484375
1761383298269818000,9.090818115234375,-0.778411865234375,-0.0241546630859375,-0.0575103759765625
1761383298279888100,9.10088818359375,-0.508575439453125,-0.0034332275390625,-0.1011962890625
1761383298289958100,9.110958251953125,-0.3154449462890625,0.0511474609375,-0.0955963134765625
1761383298300028200,9.121028076171875,-0.10052490234375,0.0714111328125,-0.1348114013671875
1761383298310098200,9.13109814453125,0.038726806640625,0.0858001708984375,-0.13311767578125
1761383298320168200,9.141168212890625,0.0561065673828125,0.11480712890625,-0.0992279052734375
1761383298330238200,9.15123828125,-0.000518798828125,0.113372802734375,-0.04803466796875
1761383298340308200,9.16130810546875,-0.1027679443359375,0.142242431640625,-0.0245208740234375
1761383298350379300,9.171379150390624,-0.128265380859375,0.1979217529296875,-0.0321807861328125
1761383298360449000,9.181448974609374,-0.0098876953125,0.218505859375,-0.043792724609375
1761383298370519000,9.19151904296875,0.0608062744140625,0.2140960693359375,-0.068389892578125
1761383298380589300,9.20158935546875,0.1574859619140625,0.1729278564453125,-0.044586181640625
1761383298390659000,9.2116591796875,0.231689453125,0.1200714111328125,0.0186004638671875
1761383298400729000,9.22172900390625,0.270965576171875,0.0435943603515625,0.103668212890625
1761383298410799400,9.23179931640625,0.2566070556640625,-0.043975830078125,0.197265625
1761383298420869000,9.241869140625,0.24945068359375,-0.1289215087890625,0.2744903564453125
1761383298430939100,9.251939208984375,0.3150177001953125,-0.1627655029296875,0.26202392578125
1761383298441010200,9.26201025390625,0.362396240234375,-0.2213592529296875,0.2143707275390625
1761383298451080200,9.272080078125,0.42816162109375,-0.2284088134765625,0.143829345703125
1761383298461150200,9.282150146484375,0.40582275390625,-0.2164306640625,0.0739898681640625
1761383298471220200,9.29222021484375,0.3209991455078125,-0.154266357421875,0.01434326171875
1761383298481290000,9.3022900390625,0.1546173095703125,-0.09564208984375,-0.0012054443359375
1761383298491360300,9.3123603515625,-0.023651123046875,-0.01837158203125,-0.013031005859375
1761383298501430300,9.32243017578125,-0.1495361328125,0.0637359619140625,-0.0114288330078125
1761383298511500000,9.3325,-0.2241363525390625,0.1343231201171875,-0.0014495849609375
1761383298521570300,9.3425703125,-0.2108917236328125,0.1605072021484375,0.019805908203125
1761383298531640300,9.352640380859375,-0.1439666748046875,0.176666259765625,0.10443115234375
1761383298541711000,9.362711181640625,-0.0878143310546875,0.14093017578125,0.1529693603515625
1761383298551781000,9.372781005859375,-0.017974853515625,0.092254638671875,0.160125732421875
1761383298561851100,9.38285107421875,0.018524169921875,0.002044677734375,0.15460205078125
1761383298571921200,9.392921142578125,-0.0277862548828125,-0.1035919189453125,0.1637115478515625
1761383298581991200,9.4029912109375,-0.1735992431640625,-0.145172119140625,0.1731719970703125
1761383298592061200,9.413061279296874,-0.3129425048828125,-0.1669921875,0.178558349609375
1761383298602131200,9.423131103515624,-0.428253173828125,-0.24212646484375,0.1893157958984375
1761383298612201200,9.433201171875,-0.4857330322265625,-0.3760528564453125,0.2706451416015625
1761383298622271000,9.44327099609375,-0.4838104248046875,-0.489776611328125,0.364349365234375
1761383298632342000,9.453342041015626,-0.587677001953125,-0.7098388671875,0.3954925537109375
1761383298642412300,9.463412353515626,-0.5869293212890625,-0.9324188232421875,0.4250946044921875
1761383298652482300,9.473482421875,-0.8083648681640625,-1.1122894287109375,0.477752685546875
1761383298662552000,9.483552001953125,-1.493255615234375,-1.2770538330078125,0.52154541015625
1761383298672622000,9.4936220703125,-1.5877227783203125,-1.0388336181640625,0.287750244140625
1761383298682692400,9.5036923828125,-1.509765625,-0.8223419189453125,0.0801239013671875
1761383298692762000,9.51376220703125,-1.5103302001953125,-0.7791290283203125,-0.02972412109375
1761383298702832000,9.52383203125,-1.6044158935546875,-0.7480316162109375,-0.007537841796875
1761383298712902100,9.533902099609374,-1.75762939453125,-0.714263916015625,0.098846435546875
1761383298722972200,9.54397216796875,-1.8410186767578125,-0.6880950927734375,0.21649169921875
1761383298733043200,9.554043212890624,-1.9246826171875,-0.714813232421875,0.333526611328125
1761383298743113200,9.56411328125,-2.060699462890625,-0.7794952392578125,0.39581298828125
1761383298753183200,9.574183349609376,-2.11822509765625,-0.7957916259765625,0.3012847900390625
1761383298763253200,9.584253173828126,-2.0349884033203125,-0.7073211669921875,0.110504150390625
1761383298773323300,9.5943232421875,-1.8786163330078125,-0.5961456298828125,-0.0673370361328125
1761383298783393000,9.60439306640625,-1.7486724853515625,-0.51397705078125,-0.1712799072265625
1761383298793463300,9.61446337890625,-1.673309326171875,-0.48504638671875,-0.201324462890625
1761383298803533000,9.624532958984375,-1.6394195556640625,-0.494354248046875,-0.1856689453125
1761383298813603000,9.63460302734375,-1.5896148681640625,-0.47662353515625,-0.1635589599609375
1761383298823673300,9.64467333984375,-1.4395599365234375,-0.41790771484375,-0.16265869140625
1761383298833743000,9.6547431640625,-1.31597900390625,-0.342529296875,-0.16119384765625
1761383298843814100,9.664814208984374,-1.2607421875,-0.2734375,-0.152008056640625
1761383298853888000,9.674887939453125,-1.2325897216796875,-0.251007080078125,-0.1442718505859375
1761383298863958000,9.6849580078125,-1.241180419921875,-0.2543487548828125,-0.1396026611328125
1761383298874028000,9.695028076171875,-1.2301177978515625,-0.2415313720703125,-0.133819580078125
1761383298884098000,9.70509814453125,-1.170257568359375,-0.20068359375,-0.1382904052734375
1761383298894168000,9.71516796875,-1.116546630859375,-0.1562957763671875,-0.1309356689453125
1761383298904238000,9.725238037109374,-1.06414794921875,-0.146392822265625,-0.0958099365234375
1761383298914308000,9.73530810546875,-0.9838104248046875,-0.1631317138671875,-0.0650634765625
1761383298924378000,9.745378173828126,-0.873565673828125,-0.1851806640625,-0.0314788818359375
1761383298934448000,9.7554482421875,-0.7905120849609375,-0.21502685546875,0.0115814208984375
1761383298944519200,9.765519287109376,-0.742767333984375,-0.2523345947265625,0.042755126953125
1761383298954589200,9.775589111328125,-0.7049102783203125,-0.2852783203125,0.058685302734375
1761383298964659000,9.785658935546875,-0.692718505859375,-0.300262451171875,0.0770263671875
1761383298974729000,9.79572900390625,-0.7062225341796875,-0.313140869140625,0.0994110107421875
1761383298984799200,9.80579931640625,-0.7012176513671875,-0.326202392578125,0.113250732421875
1761383298994869000,9.815868896484375,-0.68603515625,-0.3203887939453125,0.128082275390625
1761383299004939000,9.82593896484375,-0.6748046875,-0.306427001953125,0.1356201171875
1761383299015009300,9.83600927734375,-0.6540374755859375,-0.2919464111328125,0.1402130126953125
1761383299025079000,9.8460791015625,-0.643280029296875,-0.2628326416015625,0.2027587890625
1761383299035149000,9.856149169921874,-0.8252105712890625,-0.3142242431640625,0.2665557861328125
1761383299045219000,9.866218994140626,-0.8212432861328125,-0.3756256103515625,0.25286865234375
1761383299055289900,9.876289794921876,-0.764739990234375,-0.346221923828125,0.23040771484375
1761383299065360100,9.886360107421876,-0.7747344970703125,-0.30780029296875,0.1925506591796875
1761383299075430100,9.89643017578125,-0.751739501953125,-0.3007659912109375,0.1518096923828125
1761383299085500000,9.9065,-0.716064453125,-0.302825927734375,0.1300811767578125
1761383299095570200,9.916570068359375,-0.6841278076171875,-0.3148956298828125,0.1256866455078125
