time,seconds_elapsed,z,y,x
1761383289270845200,0.09184521484375,-0.02792448364198208,0.27341151237487793,-0.30914610624313354
1761383289280915200,0.101915283203125,-0.0371122844517231,0.2974781394004822,-0.3091872036457062
1761383289290985200,0.111985107421875,-0.06571169942617416,0.31789737939834595,-0.2896108329296112
1761383289301055200,0.12205517578125,-0.10292654484510422,0.33364230394363403,-0.2548792064189911
1761383289311126300,0.132126220703125,-0.13762086629867554,0.33607909083366394,-0.22038595378398895
1761383289321196000,0.142196044921875,-0.1666582226753235,0.33412668108940125,-0.173862025141716
1761383289331266000,0.15226611328125,-0.18140362203121185,0.33555173873901367,-0.11778383702039719
1761383289341336300,0.16233642578125,-0.1816427856683731,0.325714111328125,-0.07116087526082993
1761383289351407400,0.172407470703125,-0.1617170125246048,0.2944682836532593,-0.03773181140422821
1761383289361477000,0.18247705078125,-0.12568332254886627,0.24638406932353973,-0.02521306835114956
1761383289371547100,0.192547119140625,-0.08412843197584152,0.201607808470726,-0.03648143634200096
1761383289381617200,0.2026171875,-0.04597495123744011,0.15155340731143951,-0.07210396230220795
1761383289391688200,0.212688232421875,-0.019760923460125923,0.10249610245227814,-0.11714627593755722
1761383289401758200,0.22275830078125,-0.005477690137922764,0.07925254106521606,-0.15500488877296448
1761383289411828200,0.232828125,0.005439406260848045,0.08433811366558075,-0.17298442125320435
1761383289421898200,0.242898193359375,0.009783877059817314,0.09750709682703018,-0.1810608059167862
1761383289431969300,0.25296923828125,0.002649002242833376,0.104346364736557,-0.17012053728103638
1761383289442039300,0.263039306640625,-0.010986543260514736,0.09843005985021591,-0.1628619283437729
1761383289452109000,0.273109130859375,-0.017976010218262672,0.09805694967508316,-0.15668871998786926
1761383289462179000,0.283178955078125,-0.00947200134396553,0.13402746617794037,-0.14650629460811615
1761383289472250000,0.29325,0.017078382894396782,0.19306708872318268,-0.14208944141864777
1761383289482320100,0.303320068359375,0.04374760761857033,0.24193927645683289,-0.13437852263450623
1761383289492390100,0.31339013671875,0.07353852689266205,0.2750602066516876,-0.13138246536254883
1761383289502460200,0.323460205078125,0.09314525127410889,0.3012101352214813,-0.12073177099227905
1761383289512531200,0.33353125,0.10430602729320526,0.2904088795185089,-0.11514392495155334
1761383289522601200,0.343601318359375,0.10670463740825653,0.260506808757782,-0.11614350974559784
1761383289532671200,0.353671142578125,0.11023705452680588,0.22575603425502777,-0.12011986970901489
1761383289542741200,0.3637412109375,0.11472563445568085,0.1781999170780182,-0.12255879491567612
1761383289552812000,0.37381201171875,0.11849986761808395,0.12273931503295898,-0.12057607620954514
1761383289562882300,0.38388232421875,0.11812552064657211,0.08078530430793762,-0.11630693078041077
1761383289572952300,0.393952392578125,0.12067097425460815,0.04941273480653763,-0.1105869933962822
1761383289583023000,0.404023193359375,0.12697158753871918,0.02520911581814289,-0.10193243622779846
1761383289593093000,0.414093017578125,0.1414938122034073,0.028948459774255753,-0.08592017740011215
1761383289603163100,0.4241630859375,0.15952812135219574,0.07680025696754456,-0.06923742592334747
1761383289613233200,0.434233154296875,0.17212514579296112,0.13409684598445892,-0.044398918747901917
1761383289623304200,0.44430419921875,0.17000021040439606,0.18088458478450775,-0.027419405058026314
1761383289633374200,0.454374267578125,0.15863490104675293,0.24655494093894958,-0.005385741591453552
1761383289643444000,0.46444384765625,0.14476658403873444,0.31824326515197754,0.004197466652840376
1761383289653514200,0.47451416015625,0.1336766481399536,0.37036851048469543,0.003392925951629877
1761383289663585300,0.484585205078125,0.12348752468824387,0.39038729667663574,-0.015007918700575829
1761383289673655300,0.4946552734375,0.1103552058339119,0.36830011010169983,-0.05299151688814163
1761383289683725000,0.50472509765625,0.11227686703205109,0.31566524505615234,-0.10625270009040833
1761383289693795300,0.51479541015625,0.1344306468963623,0.2542774975299835,-0.16663774847984314
1761383289703865300,0.524865234375,0.180495485663414,0.1945512741804123,-0.21518130600452423
1761383289713936100,0.53493603515625,0.23505300283432007,0.14893051981925964,-0.25464722514152527
1761383289724006100,0.545006103515625,0.27784010767936707,0.1427106112241745,-0.255371630191803
1761383289734076200,0.555076171875,0.3067529797554016,0.1975536197423935,-0.20838652551174164
1761383289744146200,0.565146240234375,0.2959052324295044,0.2789923846721649,-0.10973576456308365
1761383289754217200,0.57521728515625,0.24478557705879211,0.32929790019989014,0.03193668648600578
1761383289764287200,0.585287353515625,0.16629040241241455,0.2716302275657654,0.1829117238521576
1761383289774357000,0.59535693359375,0.07222622632980347,0.13298261165618896,0.33200985193252563
1761383289784427300,0.60542724609375,-0.04390043765306473,0.057368554174900055,0.4460933208465576
1761383289794498300,0.615498291015625,-0.34031879901885986,0.18197014927864075,0.508833110332489
1761383289804568300,0.625568359375,-0.5881564617156982,0.427227646112442,0.5815538763999939
1761383289814638000,0.63563818359375,-0.6799446940422058,0.7498946189880371,0.6366293430328369
1761383289824708000,0.6457080078125,-0.5988237857818604,0.8845486044883728,0.6026179194450378
1761383289834779100,0.655779052734375,-0.47480306029319763,0.8067707419395447,0.4756469428539276
1761383289844849200,0.66584912109375,-0.3540112376213074,0.6083412170410156,0.30093884468078613
1761383289854918700,0.675918701171875,-0.2572564482688904,0.42351412773132324,0.13014288246631622
1761383289864989000,0.685989013671875,-0.17317399382591248,0.2710243761539459,-0.025234811007976532
1761383289875059700,0.696059814453125,-0.10937958210706711,0.14455673098564148,-0.17932212352752686
1761383289885129700,0.706129638671875,-0.042516086250543594,0.08085241913795471,-0.3151622414588928
1761383289895199700,0.71619970703125,0.03472330793738365,0.08993672579526901,-0.41052842140197754
1761383289905269500,0.72626953125,0.11311878263950348,0.145668163895607,-0.46926045417785645
1761383289915340500,0.736340576171875,0.16035179793834686,0.23005947470664978,-0.46508273482322693
1761383289925410800,0.746410888671875,0.18813291192054749,0.32368749380111694,-0.4050181806087494
1761383289935480800,0.756480712890625,0.2112901657819748,0.3924087584018707,-0.31246694922447205
1761383289945550600,0.766550537109375,0.2328430861234665,0.445701539516449,-0.1864374577999115
1761383289955621600,0.77662158203125,0.24871259927749634,0.46914055943489075,-0.05700730159878731
1761383289965692000,0.78669189453125,0.2693321108818054,0.4517025053501129,0.05712610483169556
1761383289975761700,0.79676171875,0.28766053915023804,0.40968579053878784,0.1580284833908081
1761383289985831700,0.806831787109375,0.2957974672317505,0.3468930423259735,0.23211070895195007
1761383289995902700,0.81690283203125,0.30265483260154724,0.2721676826477051,0.28270119428634644
1761383290005972700,0.82697265625,0.3130687475204468,0.23507758975028992,0.3232131004333496
1761383290016042800,0.837042724609375,0.3192259669303894,0.21272355318069458,0.3411729335784912
1761383290026112800,0.84711279296875,0.33677178621292114,0.2264811396598816,0.3483595550060272
1761383290036183800,0.857183837890625,0.3724142014980316,0.197050541639328,0.32876989245414734
1761383290046253600,0.867253662109375,0.4016551077365875,0.10342136025428772,0.27725911140441895
1761383290056323800,0.87732373046875,0.4090120792388916,-0.057929713279008865,0.20570021867752075
1761383290066393600,0.8873935546875,0.4082320034503937,-0.22235210239887238,0.13342460989952087
1761383290076464600,0.897464599609375,0.3869538903236389,-0.3476666212081909,0.0770590677857399
1761383290086534700,0.90753466796875,0.357534795999527,-0.44232434034347534,0.02373751625418663
1761383290096605000,0.91760498046875,0.3549256920814514,-0.5074372887611389,-0.03154651075601578
1761383290106674700,0.9276748046875,0.3777500092983246,-0.5468571186065674,-0.07445935904979706
1761383290116745700,0.937745849609375,0.4112882614135742,-0.5604938268661499,-0.09179307520389557
1761383290126815700,0.947815673828125,0.4299754500389099,-0.5454357862472534,-0.07397891581058502
1761383290136885800,0.9578857421875,0.42354336380958557,-0.5124858617782593,-0.03455135598778725
1761383290146955800,0.967955810546875,0.40788495540618896,-0.4662947654724121,0.008816986344754696
1761383290157026800,0.97802685546875,0.40381136536598206,-0.375706285238266,0.0472131110727787
1761383290167096600,0.9880966796875,0.40042150020599365,-0.27211567759513855,0.07521509379148483
1761383290177166600,0.99816650390625,0.3883906602859497,-0.2120472639799118,0.09207769483327866
1761383290187236900,1.00823681640625,0.35371163487434387,-0.21258364617824554,0.10336027294397354
1761383290197306600,1.018306640625,0.30766984820365906,-0.2573561668395996,0.10049711167812347
1761383290207377700,1.028377685546875,0.2547866404056549,-0.30711671710014343,0.08946913480758667
1761383290217447700,1.03844775390625,0.21446533501148224,-0.3597700893878937,0.06293179839849472
1761383290227517700,1.048517578125,0.18531101942062378,-0.41195377707481384,0.02437393181025982
1761383290237587700,1.058587646484375,0.17385676503181458,-0.4343735873699188,-0.017874188721179962
1761383290247658800,1.06865869140625,0.16786369681358337,-0.3828405439853668,-0.03311413154006004
1761383290257728800,1.078728759765625,0.16416697204113007,-0.2785167992115021,-0.03331280127167702
1761383290267798800,1.088798828125,0.15879328548908234,-0.1630983054637909,-0.032609373331069946
1761383290277868800,1.098868896484375,0.15741457045078278,-0.0833323672413826,-0.045712925493717194
1761383290287939800,1.10893994140625,0.1666078269481659,-0.04962585121393204,-0.0709877461194992
1761383290298009600,1.119009521484375,0.17931696772575378,-0.05613408610224724,-0.0928480327129364
1761383290308079600,1.12907958984375,0.1808512955904007,-0.10484201461076736,-0.11635255813598633
1761383290318150000,1.13914990234375,0.15330994129180908,-0.1830129772424698,-0.13197758793830872
1761383290328220700,1.149220703125,0.1159818023443222,-0.26095670461654663,-0.12895597517490387
1761383290338290700,1.159290771484375,0.06270020455121994,-0.2914229929447174,-0.1283048391342163
1761383290348360700,1.169360595703125,0.01820593699812889,-0.28736820816993713,-0.15063732862472534
1761383290358430700,1.1794306640625,-0.018895626068115234,-0.2523218095302582,-0.19311979413032532
1761383290368501800,1.189501708984375,-0.03455517068505287,-0.17355702817440033,-0.24186930060386658
1761383290378571800,1.19957177734375,-0.019112296402454376,-0.02968613989651203,-0.2816832661628723
1761383290388641800,1.209641845703125,0.024609537795186043,0.10115315020084381,-0.3312543034553528
1761383290398711800,1.2197119140625,0.08614107966423035,0.16789302229881287,-0.3833869993686676
1761383290408782800,1.229782958984375,0.1633562296628952,0.17467902600765228,-0.42845648527145386
1761383290418852900,1.239852783203125,0.23251080513000488,0.12991076707839966,-0.4629899561405182
1761383290428922600,1.249922607421875,0.29356154799461365,0.0809357762336731,-0.4662470817565918
1761383290438992600,1.25999267578125,0.3432958126068115,0.07372500002384186,-0.43444016575813293
1761383290449063700,1.270063720703125,0.37682241201400757,0.09345122426748276,-0.3804962635040283
1761383290459133700,1.2801337890625,0.39684778451919556,0.12923265993595123,-0.31366610527038574
1761383290469203700,1.29020361328125,0.41882750391960144,0.1675301045179367,-0.23540642857551575
1761383290479273700,1.300273681640625,0.4307355582714081,0.19434787333011627,-0.16124244034290314
1761383290489343700,1.31034375,0.4220391809940338,0.201009139418602,-0.1014036238193512
1761383290499414800,1.320414794921875,0.42831942439079285,0.18233610689640045,-0.058908622711896896
1761383290509484800,1.33048486328125,0.4444923996925354,0.19312691688537598,-0.03673407807946205
1761383290519554600,1.340554443359375,0.45073938369750977,0.2458796203136444,-0.03204291686415672
1761383290529624600,1.35062451171875,0.44156497716903687,0.29187777638435364,-0.051925014704465866
1761383290539695600,1.360695556640625,0.4430376887321472,0.3299497961997986,-0.08964122831821442
1761383290549766000,1.370765869140625,0.45996764302253723,0.37765368819236755,-0.12398376315832138
1761383290559835600,1.380835693359375,0.47794026136398315,0.4404275715351105,-0.14665605127811432
1761383290569905700,1.39090576171875,0.49404406547546387,0.4956029951572418,-0.15060657262802124
1761383290579976700,1.400976806640625,0.5206238031387329,0.5388998985290527,-0.15434858202934265
1761383290590046700,1.411046630859375,0.5357073545455933,0.5795658230781555,-0.14208759367465973
1761383290600116700,1.42111669921875,0.5393526554107666,0.6094653606414795,-0.13007965683937073
1761383290610186800,1.431186767578125,0.5189477205276489,0.6177226305007935,-0.12212744355201721
1761383290620257500,1.441257568359375,0.49787893891334534,0.6048619151115417,-0.12000623345375061
1761383290630327800,1.451327880859375,0.48329222202301025,0.5487301349639893,-0.1285468190908432
1761383290640397800,1.461397705078125,0.4922260642051697,0.4656528830528259,-0.14600810408592224
1761383290650467600,1.471467529296875,0.5153324007987976,0.41089296340942383,-0.15440957248210907
1761383290660538600,1.48153857421875,0.5279278755187988,0.3777525722980499,-0.14625364542007446
1761383290670608600,1.491608642578125,0.524095356464386,0.3555867075920105,-0.13659872114658356
1761383290680678700,1.5016787109375,0.5117074251174927,0.31326988339424133,-0.12823906540870667
1761383290690748700,1.511748779296875,0.49363189935684204,0.27182555198669434,-0.11054110527038574
1761383290700818700,1.521818603515625,0.46303510665893555,0.23777437210083008,-0.09528225660324097
1761383290710889700,1.5318896484375,0.4206526577472687,0.20473693311214447,-0.09250546991825104
1761383290720959700,1.541959716796875,0.3919067680835724,0.13984447717666626,-0.11405497044324875
1761383290731029800,1.55202978515625,0.37648195028305054,0.020236443728208542,-0.15930482745170593
1761383290741099800,1.562099853515625,0.3697124719619751,-0.19296450912952423,-0.212332621216774
1761383290751170600,1.572170654296875,0.3724595308303833,-0.4768228530883789,-0.26363247632980347
1761383290761240800,1.58224072265625,0.37248536944389343,-0.657034695148468,-0.27141156792640686
1761383290771310800,1.592310791015625,0.36773863434791565,-0.615411639213562,-0.21003583073616028
1761383290781380600,1.602380615234375,0.34559258818626404,-0.43804192543029785,-0.10899389535188675
1761383290791451600,1.61245166015625,0.30550992488861084,-0.25977522134780884,-0.008785711601376534
1761383290801521700,1.622521728515625,0.260745644569397,-0.04544214904308319,0.1020960658788681
1761383290811591700,1.632591796875,0.21864256262779236,0.27682793140411377,0.22348639369010925
1761383290821661700,1.64266162109375,0.20574620366096497,0.6610491275787354,0.3628368377685547
1761383290831732700,1.652732666015625,0.19547627866268158,0.9480213522911072,0.4607895016670227
1761383290841802800,1.662802734375,0.1353279948234558,0.9908425807952881,0.44694215059280396
1761383290851873300,1.672873291015625,0.049852848052978516,0.9147170186042786,0.35297125577926636
1761383290861943300,1.682943359375,-0.06430168449878693,0.8417261838912964,0.1877274215221405
1761383290872014300,1.693014404296875,-0.14339089393615723,0.7311884760856628,-0.009909563697874546
1761383290882084400,1.70308447265625,-0.1548057347536087,0.666991114616394,-0.20437918603420258
1761383290892154000,1.713154052734375,-0.13325785100460052,0.6894745826721191,-0.38769832253456116
1761383290902224400,1.723224365234375,-0.10862041264772415,0.7512236833572388,-0.5648073554039001
1761383290912294400,1.73329443359375,-0.08989854902029037,0.8051713705062866,-0.7316705584526062
1761383290922365200,1.743365234375,-0.061781954020261765,0.8271541595458984,-0.8509857654571533
1761383290932435200,1.753435302734375,0.009085632860660553,0.826042115688324,-0.8792763352394104
1761383290942505500,1.76350537109375,0.12566018104553223,0.7618471384048462,-0.7929717898368835
1761383290952575200,1.7735751953125,0.27324992418289185,0.660672664642334,-0.5764435529708862
1761383290962646300,1.783646240234375,0.4344084560871124,0.6023366451263428,-0.24283044040203094
1761383290972716300,1.79371630859375,0.6297758221626282,0.5409151315689087,0.13165093958377838
1761383290982786300,1.803786376953125,0.8790176510810852,0.3910422921180725,0.4716969430446625
1761383290992856300,1.813856201171875,1.1581027507781982,0.0788685530424118,0.6995710134506226
1761383291002927400,1.82392724609375,1.436441421508789,-0.3297272026538849,0.8215810656547546
1761383291012997400,1.833997314453125,1.687408685684204,-0.6406232714653015,0.8791505098342896
1761383291023067100,1.844067138671875,1.973205327987671,-0.6091665029525757,0.9242884516716003
1761383291033137400,1.854137451171875,2.2764573097229004,-0.203583225607872,0.9326578378677368
1761383291043207400,1.86420751953125,2.5083425045013428,0.29882529377937317,0.8534333109855652
1761383291053278200,1.8742783203125,2.5611884593963623,0.7915328145027161,0.6804032921791077
1761383291063348200,1.88434814453125,2.434417724609375,0.8460066914558411,0.4091787040233612
1761383291073418500,1.89441845703125,2.264021396636963,0.6479194760322571,0.1873413473367691
1761383291083488300,1.90448828125,2.155773401260376,0.47093665599823,0.13972723484039307
1761383291093559300,1.914559326171875,2.157951831817627,0.2322399914264679,0.2971753776073456
1761383291103629300,1.92462939453125,2.195141077041626,0.020429208874702454,0.6352564692497253
1761383291113699000,1.934698974609375,2.1599531173706055,-0.2224694788455963,1.0152170658111572
1761383291123769300,1.944769287109375,2.0219123363494873,-0.5169671773910522,1.2938258647918701
1761383291133840400,1.95484033203125,1.8492249250411987,-0.7496582865715027,1.4385336637496948
1761383291143910400,1.964910400390625,1.6984140872955322,-0.7716211080551147,1.4757928848266602
1761383291153980200,1.974980224609375,1.5794780254364014,-0.6858990788459778,1.3999196290969849
1761383291164050400,1.985050537109375,1.4558624029159546,-0.5395359992980957,1.2090455293655396
1761383291174121500,1.99512158203125,1.3044309616088867,-0.3039732873439789,0.8942724466323853
1761383291184191200,2.005191162109375,1.1817337274551392,-0.06516575813293457,0.4945570230484009
1761383291194261200,2.01526123046875,1.0572166442871094,0.12265331298112869,0.08882063627243042
1761383291204331500,2.02533154296875,1.0315454006195068,0.4516535699367523,-0.27405211329460144
1761383291214401300,2.0354013671875,1.080573320388794,0.89241623878479,-0.7029293775558472
1761383291224472300,2.045472412109375,0.9258351922035217,0.7165988683700562,-1.251607060432434
1761383291234542300,2.055542236328125,0.4758666455745697,-0.054122842848300934,-1.9909125566482544
1761383291244612000,2.065612060546875,0.02692907117307186,-1.1822211742401123,-2.7712342739105225
1761383291254682400,2.075682373046875,-0.29288816452026367,-1.4256592988967896,-3.1913113594055176
1761383291264753400,2.08575341796875,-0.4522016644477844,-0.8123784065246582,-3.157341957092285
1761383291274823200,2.0958232421875,-0.5487766265869141,0.05485266447067261,-2.7477610111236572
1761383291284893200,2.10589306640625,-0.7095857262611389,0.9869539737701416,-2.0705983638763428
1761383291294963500,2.11596337890625,-0.6748074889183044,2.228412628173828,-1.1330714225769043
1761383291305034500,2.126034423828125,-0.5036290884017944,3.1710550785064697,-0.25472012162208557
1761383291315104300,2.136104248046875,-0.414119154214859,3.4030046463012695,0.3481327295303345
1761383291325174300,2.14617431640625,-0.4512484073638916,3.302401304244995,0.7002572417259216
1761383291335244500,2.15624462890625,-0.5478900074958801,3.0088260173797607,0.9062750935554504
1761383291345314300,2.166314208984375,-0.5273599624633789,2.583345413208008,1.1136362552642822
1761383291355385300,2.17638525390625,-0.4927160143852234,2.0880496501922607,1.3186277151107788
1761383291365455400,2.186455322265625,-0.6139601469039917,1.3992639780044556,1.2928379774093628
1761383291375525000,2.196525146484375,-0.8565999865531921,0.5267817974090576,0.9453938007354736
1761383291385595400,2.206595458984375,-1.062805414199829,-0.31472811102867126,0.4723988473415375
1761383291395666400,2.21666650390625,-1.069353699684143,-0.45081615447998047,0.13919281959533691
1761383291405736200,2.226736083984375,-0.92327880859375,0.24208775162696838,-0.010182550176978111
1761383291415806200,2.23680615234375,-0.7824868559837341,1.2049552202224731,-0.19872166216373444
1761383291425876500,2.24687646484375,-0.6678673624992371,1.651326060295105,-0.31454917788505554
1761383291435947500,2.256947509765625,-0.6840280294418335,1.5432469844818115,-0.45028430223464966
1761383291446017300,2.267017333984375,-0.7964046001434326,1.1803065538406372,-0.5566746592521667
1761383291456087300,2.27708740234375,-0.8759128451347351,0.8444157242774963,-0.6037895083427429
1761383291466157300,2.2871572265625,-0.891921877861023,0.7460860013961792,-0.6002206206321716
1761383291476227300,2.297227294921875,-0.8844361305236816,0.9614357352256775,-0.6053162217140198
1761383291486298400,2.30729833984375,-0.8399211168289185,1.2811585664749146,-0.601628839969635
1761383291496368400,2.317368408203125,-0.766517698764801,1.4981104135513306,-0.5508106350898743
1761383291506438100,2.327438232421875,-0.7114821672439575,1.5903534889221191,-0.457211971282959
1761383291516508400,2.33750830078125,-0.6808083057403564,1.606066346168518,-0.3871366083621979
1761383291526579500,2.347579345703125,-0.7051700949668884,1.5120519399642944,-0.3531908690929413
1761383291536649200,2.357649169921875,-0.763562798500061,1.3117510080337524,-0.3495410680770874
1761383291546719200,2.36771923828125,-0.7000669240951538,0.847521185874939,-0.39966627955436707
1761383291556789500,2.37778955078125,-0.47307127714157104,0.021374428644776344,-0.46954044699668884
1761383291566859300,2.387859375,-0.1088440790772438,-0.9411301016807556,-0.5359327793121338
1761383291576930300,2.397930419921875,0.2852036654949188,-1.8726931810379028,-0.6068457961082458
1761383291587000300,2.408000244140625,0.3937714099884033,-2.61808180809021,-0.7431085705757141
1761383291597070300,2.4180703125,0.3302205801010132,-3.4957399368286133,-1.1385107040405273
1761383291607140400,2.428140380859375,0.0343516543507576,-4.000636100769043,-1.8184809684753418
1761383291617211400,2.43821142578125,-0.44725820422172546,-3.3730266094207764,-2.435886859893799
1761383291627281200,2.44828125,-0.3237447738647461,-1.564749836921692,-2.2380542755126953
1761383291637351200,2.45835107421875,0.13623419404029846,0.15993419289588928,-1.6504013538360596
1761383291647421400,2.46842138671875,0.34967297315597534,1.4825340509414673,-1.1565521955490112
1761383291657491200,2.4784912109375,0.28180816769599915,1.8184319734573364,-0.9873936176300049
1761383291667562200,2.488562255859375,0.22259651124477386,1.289665699005127,-0.9782451391220093
1761383291677632300,2.49863232421875,0.05309456214308739,-0.13805080950260162,-1.1764700412750244
1761383291687702500,2.50870263671875,-0.1151471734046936,-1.6118459701538086,-1.324183702468872
1761383291697772300,2.518772216796875,-0.1043800562620163,-2.354206085205078,-1.1512821912765503
1761383291707843300,2.52884326171875,0.03701435774564743,-2.2576582431793213,-0.6390814781188965
1761383291717913300,2.538913330078125,0.24926064908504486,-1.6090648174285889,0.07351738959550858
1761383291727983400,2.5489833984375,0.43455275893211365,-0.8301839828491211,0.757919192314148
1761383291738053400,2.559053466796875,0.5705506205558777,-0.1907099187374115,1.1627869606018066
1761383291748123400,2.569123291015625,0.7235705256462097,0.13435311615467072,1.2288538217544556
1761383291758194200,2.579194091796875,0.930929958820343,0.41496944427490234,1.055696725845337
1761383291768264200,2.58926416015625,1.1472965478897095,0.7520158886909485,0.7363885045051575
1761383291778334500,2.59933447265625,1.2838503122329712,0.9875747561454773,0.3895554542541504
1761383291788404200,2.609404296875,1.28789222240448,0.9147546291351318,0.12978485226631165
1761383291798475300,2.619475341796875,1.1813853979110718,0.5651857256889343,0.02054259553551674
1761383291808545300,2.629545166015625,1.0039552450180054,0.31560516357421875,0.08845293521881104
1761383291818615300,2.639615234375,0.8179517984390259,0.3716382384300232,0.2950342297554016
1761383291828685300,2.649685302734375,0.70273357629776,0.6480559706687927,0.5399118661880493
1761383291838755300,2.65975537109375,0.709456741809845,0.829103410243988,0.7183011770248413
1761383291848826000,2.669826171875,0.7557864189147949,0.8658909797668457,0.7985467314720154
1761383291858896100,2.679896240234375,0.7484659552574158,0.791088879108429,0.819756805896759
1761383291868966100,2.689966064453125,0.6265376210212708,0.6591079235076904,0.8278626799583435
1761383291879036000,2.700035888671875,0.3984307646751404,0.5718868374824524,0.849441409111023
1761383291889107000,2.71010693359375,0.1429353505373001,0.4954296350479126,0.8428892493247986
1761383291899177000,2.720177001953125,-0.013893753290176392,0.4864532947540283,0.7916478514671326
1761383291909247200,2.730247314453125,-0.026073720306158066,0.5383098125457764,0.7000513672828674
1761383291919317000,2.74031689453125,0.06610135734081268,0.6000407338142395,0.60895174741745
1761383291929387000,2.750386962890625,0.1960039734840393,0.7176582217216492,0.5518700480461121
1761383291939458000,2.7604580078125,0.3108023405075073,0.8335707187652588,0.529401957988739
1761383291949528000,2.770528076171875,0.39142340421676636,0.9252148866653442,0.5143745541572571
1761383291959598000,2.78059814453125,0.42973336577415466,1.0265674591064453,0.5165501236915588
1761383291969668000,2.790668212890625,0.43456780910491943,1.188057780265808,0.5410242676734924
1761383291979739000,2.80073876953125,0.3934895992279053,1.3066661357879639,0.5484949350357056
1761383291989809200,2.81080908203125,0.3123340308666229,1.3587099313735962,0.5159207582473755
1761383291999879200,2.820879150390625,0.2186439335346222,1.3332747220993042,0.4353586435317993
1761383292009949000,2.830948974609375,0.13546143472194672,1.2328975200653076,0.31869858503341675
1761383292020019000,2.84101904296875,0.08744078129529953,1.0568400621414185,0.18782992660999298
1761383292030090000,2.851090087890625,0.07456173747777939,0.9043077826499939,0.08573418110609055
1761383292040160000,2.861159912109375,0.09130148589611053,0.8455536961555481,0.013131361454725266
1761383292050230000,2.87122998046875,0.10207397490739822,0.7908036112785339,-0.041804857552051544
1761383292060300000,2.881300048828125,0.08769639581441879,0.6958693861961365,-0.0934743881225586
1761383292070371000,2.89137109375,0.04581339284777641,0.5787113308906555,-0.1273505836725235
1761383292080441000,2.901441162109375,-0.02004094608128071,0.4659954607486725,-0.14376088976860046
1761383292090511000,2.911510986328125,-0.09900926798582077,0.3640914559364319,-0.14615613222122192
1761383292100581000,2.9215810546875,-0.16988670825958252,0.24183642864227295,-0.14571085572242737
1761383292110651100,2.931651123046875,-0.21392607688903809,0.07814337313175201,-0.1472480297088623
1761383292120722200,2.94172216796875,-0.23400525748729706,-0.04544489458203316,-0.12203378975391388
1761383292130792200,2.951792236328125,-0.20281989872455597,-0.32572633028030396,-0.08802948892116547
1761383292140862000,2.961862060546875,-0.1276821494102478,-0.6359544992446899,-0.05300453305244446
1761383292150932000,2.971931884765625,-0.05978565663099289,-0.774401068687439,-0.007313741371035576
1761383292161002200,2.982002197265625,-0.02344130352139473,-0.7273831963539124,0.04557265341281891
1761383292171073000,2.992072998046875,-0.05152273550629616,-0.6427934765815735,0.06484915316104889
1761383292181143000,3.00214306640625,-0.1078735962510109,-0.5587226152420044,0.03590979799628258
1761383292191213000,3.012213134765625,-0.15821586549282074,-0.48796722292900085,-0.027895545586943626
1761383292201283000,3.022282958984375,-0.19302618503570557,-0.48507803678512573,-0.12445704638957977
1761383292211354000,3.03235400390625,-0.18157859146595,-0.5272694230079651,-0.2426380217075348
1761383292221424000,3.042424072265625,-0.08772677183151245,-0.6599981784820557,-0.3643650710582733
1761383292231494000,3.052493896484375,0.04776100814342499,-0.8328884243965149,-0.4636636972427368
1761383292241564200,3.062564208984375,0.15637747943401337,-0.93604576587677,-0.5002515912055969
1761383292251634200,3.07263427734375,0.1846860945224762,-0.9497602581977844,-0.4880889356136322
1761383292261705200,3.082705322265625,0.13754479587078094,-0.916783332824707,-0.4476788640022278
1761383292271775000,3.09277490234375,0.050955045968294144,-0.8226038217544556,-0.3888283371925354
1761383292281845000,3.102844970703125,-0.027977943420410156,-0.678368330001831,-0.32197532057762146
1761383292291915000,3.1129150390625,-0.0663069561123848,-0.4722020924091339,-0.26071780920028687
1761383292301985000,3.122985107421875,-0.06669335067272186,-0.26946139335632324,-0.22088733315467834
1761383292312056000,3.13305615234375,-0.04992714896798134,-0.09211110323667526,-0.2057989239692688
1761383292322126000,3.1431259765625,-0.029036730527877808,0.021659884601831436,-0.2147432118654251
1761383292332196000,3.153196044921875,-0.0201505608856678,0.07862569391727448,-0.23763413727283478
1761383292342266000,3.16326611328125,-0.03327883780002594,0.08357015252113342,-0.2585395872592926
1761383292352336100,3.173336181640625,-0.06812896579504013,0.08175467699766159,-0.25880029797554016
1761383292362407000,3.183406982421875,-0.13374686241149902,0.0765560045838356,-0.24355383217334747
1761383292372477000,3.193476806640625,-0.20734518766403198,0.03251184523105621,-0.22757060825824738
1761383292382547200,3.203547119140625,-0.2655203640460968,-0.036215294152498245,-0.21006755530834198
1761383292392617000,3.213616943359375,-0.3005302846431732,-0.0937502309679985,-0.20317742228507996
1761383292402688000,3.22368798828125,-0.32296767830848694,-0.16306042671203613,-0.2047336846590042
1761383292412758000,3.233758056640625,-0.32733339071273804,-0.23784971237182617,-0.209380105137825
1761383292422828000,3.243828125,-0.31584975123405457,-0.3000616431236267,-0.22429251670837402
1761383292432898000,3.25389794921875,-0.297258198261261,-0.39321368932724,-0.2610420286655426
1761383292442968000,3.263968017578125,-0.2864203453063965,-0.533407986164093,-0.2891703248023987
1761383292453039000,3.2740390625,-0.2689073979854584,-0.6596466302871704,-0.294378399848938
1761383292463109000,3.284109130859375,-0.24425742030143738,-0.7885223031044006,-0.3064977824687958
1761383292473179100,3.29417919921875,-0.2134110927581787,-0.9850137829780579,-0.3275676369667053
1761383292483249000,3.304248779296875,-0.1888388842344284,-1.225749135017395,-0.3774328827857971
1761383292493319000,3.31431884765625,-0.18542790412902832,-1.443331003189087,-0.42722973227500916
1761383292503390000,3.324389892578125,-0.21195347607135773,-1.5187290906906128,-0.44511643052101135
1761383292513460200,3.334460205078125,-0.2761463224887848,-1.4084995985031128,-0.43465951085090637
1761383292523530000,3.344530029296875,-0.3690737783908844,-1.1867436170578003,-0.4174532890319824
1761383292533600000,3.35460009765625,-0.49819421768188477,-0.943569540977478,-0.40983131527900696
1761383292543670000,3.364669921875,-0.6457083225250244,-0.7010233998298645,-0.41115179657936096
1761383292553741000,3.374740966796875,-0.8049544095993042,-0.5174589157104492,-0.416270911693573
1761383292563811000,3.38481103515625,-0.9891836047172546,-0.4291176497936249,-0.4267244040966034
1761383292573881000,3.394881103515625,-1.129541277885437,-0.40795081853866577,-0.3888385593891144
1761383292583951000,3.404951171875,-1.178092122077942,-0.451069176197052,-0.2678471505641937
1761383292594022100,3.415022216796875,-1.1698582172393799,-0.47507837414741516,-0.08233027905225754
1761383292604092200,3.425092041015625,-1.1688491106033325,-0.5069637298583984,0.11183691769838333
1761383292614162000,3.435161865234375,-1.2332125902175903,-0.6165698170661926,0.25893765687942505
1761383292624232000,3.44523193359375,-1.3568181991577148,-0.8218724131584167,0.3376569151878357
1761383292634302200,3.45530224609375,-1.447167992591858,-1.039448618888855,0.368186354637146
1761383292644373000,3.465373046875,-1.4506850242614746,-1.1639562845230103,0.3510679006576538
1761383292654443000,3.475443115234375,-1.3989413976669312,-1.2602136135101318,0.3268384635448456
1761383292664513000,3.485512939453125,-1.363318920135498,-1.3101952075958252,0.30123692750930786
1761383292674583000,3.4955830078125,-1.4002660512924194,-1.3354730606079102,0.26195529103279114
1761383292684653000,3.505653076171875,-1.4359463453292847,-1.518625020980835,0.20927691459655762
1761383292694724000,3.51572412109375,-1.4288833141326904,-1.6737490892410278,0.1287866085767746
1761383292704794000,3.525794189453125,-1.2916948795318604,-1.716735601425171,-0.011233009397983551
1761383292714864000,3.535864013671875,-0.9820050597190857,-1.6904833316802979,-0.17162588238716125
1761383292724934100,3.54593408203125,-0.6135744452476501,-1.357813835144043,-0.37467801570892334
1761383292735004000,3.55600390625,-0.16848380863666534,-0.9437310695648193,-0.5026423931121826
1761383292745075000,3.566074951171875,0.24842128157615662,-0.38499748706817627,-0.5651299953460693
1761383292755145000,3.57614501953125,0.512103259563446,0.18315061926841736,-0.6198083758354187
1761383292765215200,3.58621533203125,0.5752773880958557,0.29447272419929504,-0.7473084330558777
1761383292775285000,3.596284912109375,0.4203014075756073,-0.25667327642440796,-0.9665433168411255
1761383292785355000,3.60635498046875,0.3412369191646576,-1.2562419176101685,-1.0332717895507812
1761383292795426000,3.616426025390625,0.49461477994918823,-1.5412427186965942,-0.8686589002609253
1761383292805496000,3.62649609375,0.8504212498664856,-0.6032019257545471,-0.540603518486023
1761383292815566000,3.636566162109375,1.2425554990768433,0.22814323008060455,-0.20760293304920197
1761383292825636000,3.646635986328125,1.6123077869415283,-0.1817292869091034,0.09376142174005508
1761383292835706000,3.6567060546875,1.8156979084014893,-1.1009540557861328,0.28856682777404785
1761383292845777200,3.666777099609375,2.058271646499634,-1.9351352453231812,0.5050040483474731
1761383292855847000,3.676846923828125,2.381235361099243,-1.9756349325180054,0.8241756558418274
1761383292865917000,3.6869169921875,2.3800437450408936,-1.4299001693725586,0.9667289853096008
1761383292875986700,3.696986572265625,2.2449159622192383,-0.800009548664093,0.935932457447052
1761383292886057000,3.707056884765625,2.1669464111328125,-0.4229815602302551,0.8216350674629211
1761383292896128000,3.7171279296875,2.0459771156311035,-0.3018910884857178,0.6438317894935608
1761383292906198000,3.727197998046875,1.8628112077713013,-0.23846422135829926,0.5123475790023804
1761383292916267800,3.737267822265625,1.6486518383026123,-0.18825697898864746,0.4493078887462616
1761383292926338000,3.747338134765625,1.4700406789779663,-0.06397970765829086,0.4252542555332184
1761383292936408000,3.757407958984375,1.3561372756958008,-0.0017277887091040611,0.3864187002182007
1761383292946478800,3.767478759765625,1.3271815776824951,-0.04145263135433197,0.3132980465888977
1761383292956548900,3.777548828125,1.448394536972046,-0.06909304857254028,0.180289164185524
1761383292966619100,3.787619140625,1.6729198694229126,0.05361765995621681,-0.09801860898733139
1761383292976689000,3.79768896484375,1.8910341262817383,0.16125036776065826,-0.6785001158714294
1761383292986759000,3.807759033203125,1.9125696420669556,-0.2630298435688019,-1.5734069347381592
1761383292996830000,3.817829833984375,1.6897107362747192,-1.0123409032821655,-2.3436243534088135
1761383293006899700,3.827899658203125,1.304098129272461,-1.3701987266540527,-2.4957127571105957
1761383293016970000,3.837969970703125,0.8721541166305542,-1.4403924942016602,-2.156325340270996
1761383293027040000,3.8480400390625,0.5147656798362732,-1.3428804874420166,-1.5276731252670288
1761383293037109800,3.85810986328125,0.23704618215560913,-0.9021072387695312,-0.7803598046302795
1761383293047180800,3.868180908203125,0.10641667991876602,-0.3648165464401245,-0.09259061515331268
1761383293057251000,3.8782509765625,-0.01161328423768282,0.24942876398563385,0.5964120626449585
1761383293067320800,3.88832080078125,-0.08680731058120728,0.7838703393936157,1.1358698606491089
1761383293077390800,3.898390869140625,-0.039096519351005554,0.8528986573219299,1.2717576026916504
1761383293087461000,3.908461181640625,0.18064835667610168,0.3937649428844452,0.9822906255722046
1761383293097532200,3.9185322265625,0.3870220482349396,-0.2656092345714569,0.7410886883735657
1761383293107602000,3.928601806640625,0.9592716097831726,-0.9630790948867798,0.9777118563652039
1761383293117672000,3.938671875,1.5945061445236206,-1.6020079851150513,1.7081286907196045
1761383293127741700,3.94874169921875,1.9927343130111694,-2.3088672161102295,2.8485286235809326
1761383293137812000,3.95881201171875,1.982081413269043,-3.0182347297668457,4.057797431945801
1761383293147883000,3.968883056640625,1.352212905883789,-2.9392077922821045,4.937830448150635
1761383293157953000,3.978953125,0.23043036460876465,-2.096557140350342,5.100436687469482
1761383293168022800,3.989022705078125,-0.9206761121749878,-1.848554253578186,4.351332187652588
1761383293178093000,3.999093017578125,-1.5302973985671997,-1.7012159824371338,3.373222827911377
1761383293188163000,4.0091630859375,-1.7615119218826294,-0.870613157749176,2.1786880493164062
1761383293198233900,4.01923388671875,-1.703946590423584,0.08260945975780487,1.1939094066619873
1761383293208303900,4.029303955078125,-1.2467000484466553,1.0686780214309692,0.48645034432411194
1761383293218374000,4.039373779296875,-0.7441625595092773,1.85077702999115,-0.13544408977031708
1761383293228444000,4.04944384765625,-0.4119763672351837,2.395045518875122,-0.648034393787384
1761383293238514000,4.059513916015625,-0.2751775085926056,2.713473081588745,-0.9407531023025513
1761383293248585000,4.0695849609375,-0.2419588416814804,2.8083159923553467,-0.9266788363456726
1761383293258654700,4.07965478515625,-0.19185280799865723,2.653381109237671,-0.672529399394989
1761383293268725000,4.08972509765625,-0.13096505403518677,2.3434324264526367,-0.3010517954826355
1761383293278795000,4.099794921875,-0.11141771823167801,1.9553749561309814,-0.015933480113744736
1761383293288864800,4.10986474609375,-0.1775899976491928,1.5028280019760132,0.08543724566698074
1761383293298935800,4.119935791015625,-0.325916588306427,0.9823674559593201,0.026006139814853668
1761383293309006000,4.130006103515625,-0.5237067341804504,0.4666650891304016,-0.1916056126356125
1761383293319075800,4.140075927734375,-0.71794593334198,0.03139565512537956,-0.39533209800720215
1761383293329145900,4.150145751953125,-0.8160684704780579,-0.23913761973381042,-0.3948117792606354
1761383293339216000,4.1602158203125,-0.8513692021369934,-0.42726385593414307,-0.23852309584617615
1761383293349287000,4.170286865234375,-0.8290653228759766,-0.5197458863258362,-0.05345300957560539
1761383293359357000,4.18035693359375,-0.7383438944816589,-0.37248000502586365,0.09692317247390747
1761383293369427000,4.190427001953125,-0.5768243074417114,-0.09139678627252579,0.15342214703559875
1761383293379496700,4.20049658203125,-0.40628957748413086,0.03663361445069313,0.09149273484945297
1761383293389567000,4.21056689453125,-0.29607629776000977,-0.030951591208577156,-0.13771449029445648
1761383293399638000,4.220637939453125,-0.2418397068977356,-0.2092246562242508,-0.4332848787307739
1761383293409708000,4.2307080078125,-0.20026172697544098,-0.29197657108306885,-0.5878147482872009
1761383293419777800,4.24077783203125,-0.09766610711812973,-0.29046231508255005,-0.5718919634819031
1761383293429848000,4.25084814453125,0.042489632964134216,-0.10988333076238632,-0.45007872581481934
1761383293439918000,4.26091796875,0.25933992862701416,0.2151791900396347,-0.3760252594947815
1761383293449988900,4.27098876953125,0.495700478553772,0.35240668058395386,-0.45233047008514404
1761383293460059000,4.281058837890625,0.6761770248413086,0.40296652913093567,-0.5918910503387451
1761383293470129000,4.29112890625,0.8482679128646851,0.25445738434791565,-0.7262478470802307
1761383293480199000,4.301198974609375,0.8134977221488953,-0.16530953347682953,-0.7179294228553772
1761383293490269000,4.31126904296875,0.422668993473053,-0.6315526366233826,-0.7172064185142517
1761383293500340000,4.321340087890625,-0.13963378965854645,-0.9832960367202759,-1.1178046464920044
1761383293510409700,4.33140966796875,-0.6369209885597229,-0.8342580795288086,-1.7279537916183472
1761383293520480000,4.34147998046875,-0.9423602819442749,-0.5084837079048157,-2.3142735958099365
1761383293530550000,4.351550048828125,-0.9651272892951965,-0.2924378216266632,-2.7944705486297607
1761383293540619800,4.361619873046875,-0.7192466855049133,-0.10536140948534012,-3.0364270210266113
1761383293550690000,4.37168994140625,-0.39336100220680237,0.01743941567838192,-3.100419521331787
1761383293560761000,4.381760986328125,-0.09139235317707062,0.21811339259147644,-3.070640802383423
1761383293570830800,4.391830810546875,0.12403430044651031,0.4571121037006378,-3.0702760219573975
1761383293580900900,4.40190087890625,0.2089710235595703,0.721122145652771,-3.033221483230591
1761383293590971000,4.411970947265625,0.21265766024589539,1.0762341022491455,-2.890444040298462
1761383293601041000,4.422041015625,0.19260938465595245,1.4899383783340454,-2.6440281867980957
1761383293611112000,4.43211181640625,0.18284428119659424,1.8848170042037964,-2.2753725051879883
1761383293621182000,4.442181884765625,0.19346176087856293,2.203245162963867,-1.8382805585861206
1761383293631251700,4.452251708984375,0.19441407918930054,2.282188653945923,-1.4672843217849731
1761383293641322000,4.462322021484375,0.1126403957605362,1.9576716423034668,-1.186877727508545
1761383293651392000,4.47239208984375,-0.0251590758562088,1.4296863079071045,-0.8416093587875366
1761383293661463000,4.482463134765625,-0.17396798729896545,0.9522536993026733,-0.3455761969089508
1761383293671532800,4.49253271484375,-0.32211992144584656,0.6234639883041382,0.23646968603134155
1761383293681603000,4.50260302734375,-0.45082998275756836,0.4205884337425232,0.7357415556907654
1761383293691673000,4.512673095703125,-0.6174094080924988,0.3942663371562958,1.1080474853515625
1761383293701742800,4.522742919921875,-0.8478900194168091,0.553888201713562,1.4184839725494385
1761383293711814000,4.53281396484375,-0.9077749252319336,0.47717374563217163,1.440531611442566
1761383293721884000,4.5428837890625,-0.9533738493919373,0.335145503282547,1.3137965202331543
1761383293731954000,4.552953857421875,-1.0608621835708618,0.27600380778312683,1.1770505905151367
1761383293742024000,4.56302392578125,-1.1556984186172485,0.16259655356407166,1.079891562461853
1761383293752094000,4.573093994140625,-1.2449864149093628,-0.11499828845262527,1.0023550987243652
1761383293762164700,4.583164794921875,-1.3180789947509766,-0.5359929203987122,0.9211910963058472
1761383293772235000,4.593235107421875,-1.333372950553894,-0.986814022064209,0.8377705216407776
1761383293782305000,4.603304931640625,-1.3050295114517212,-1.2643567323684692,0.80030357837677
1761383293792374800,4.613374755859375,-1.2362011671066284,-1.2586995363235474,0.8183472752571106
1761383293802445000,4.623445068359375,-1.122143030166626,-1.0078520774841309,0.8852022290229797
1761383293812515000,4.63351513671875,-0.9695928692817688,-0.6759694218635559,0.9329935908317566
1761383293822585900,4.6435859375,-0.8154956698417664,-0.4247659742832184,0.9217023253440857
1761383293832656000,4.65365576171875,-0.7095853686332703,-0.32490232586860657,0.8477761149406433
1761383293842726000,4.663725830078125,-0.6440899968147278,-0.35679981112480164,0.7297546863555908
1761383293852796400,4.67379638671875,-0.5965521335601807,-0.48316606879234314,0.5918274521827698
1761383293862866400,4.683866455078125,-0.5592318773269653,-0.6413761973381042,0.44440096616744995
1761383293872937500,4.6939375,-0.5423269271850586,-0.7211101055145264,0.2947464883327484
1761383293883007500,4.704007568359375,-0.5409050583839417,-0.6381869912147522,0.16240815818309784
1761383293893077200,4.7140771484375,-0.5256883502006531,-0.40756064653396606,0.07631456106901169
1761383293903147500,4.7241474609375,-0.464761346578598,-0.13607828319072723,0.05328594520688057
1761383293913217500,4.734217529296875,-0.33654746413230896,0.059293344616889954,0.10231872648000717
1761383293923288300,4.744288330078125,-0.1395915150642395,0.11228838562965393,0.2187047302722931
1761383293933358300,4.7543583984375,0.0818210244178772,0.0852789580821991,0.34655871987342834
1761383293943428600,4.7644287109375,0.27131345868110657,0.05696076899766922,0.4097645878791809
1761383293953498400,4.774498291015625,0.34848150610923767,0.06390798836946487,0.3654402196407318
1761383293963568400,4.784568359375,0.2974199056625366,0.12888245284557343,0.20771610736846924
1761383293973638700,4.794638671875,0.19386668503284454,0.1885601282119751,0.007828805595636368
1761383293983709400,4.80470947265625,0.11977169662714005,0.16336874663829803,-0.21762801706790924
1761383293993779500,4.814779541015625,0.11022455990314484,0.036638885736465454,-0.43514224886894226
1761383294003849500,4.824849365234375,0.13469155132770538,-0.17510958015918732,-0.6078487634658813
1761383294013919200,4.834919189453125,0.15118342638015747,-0.3762500584125519,-0.7230263352394104
1761383294023989500,4.844989501953125,0.14449463784694672,-0.4794251620769501,-0.7602046132087708
1761383294034060500,4.855060546875,0.09205049276351929,-0.4793332815170288,-0.7241219878196716
1761383294044130300,4.86513037109375,0.007517495192587376,-0.5072066783905029,-0.625010073184967
1761383294054200300,4.875200439453125,-0.023299051448702812,-0.6081709265708923,-0.47776350378990173
1761383294064270600,4.8852705078125,0.03792755305767059,-0.7233926057815552,-0.29961293935775757
1761383294074340400,4.89534033203125,0.1467234492301941,-0.8735824823379517,-0.07964987307786942
1761383294084411400,4.905411376953125,0.2258227914571762,-1.0818915367126465,0.15220573544502258
1761383294094481400,4.9154814453125,0.2145431786775589,-1.1824973821640015,0.36478039622306824
1761383294104551400,4.925551513671875,0.10832992941141129,-1.0599875450134277,0.5475419163703918
1761383294114621400,4.935621337890625,-0.025060230866074562,-0.8298472762107849,0.7146788835525513
1761383294124691500,4.94569140625,-0.15541744232177734,-0.6146219968795776,0.8587806820869446
1761383294134761200,4.95576123046875,-0.2413087785243988,-0.4736863374710083,0.9311939477920532
1761383294144832300,4.965832275390625,-0.2761261463165283,-0.4061030447483063,0.9187309145927429
1761383294154902500,4.975902587890625,-0.23943665623664856,-0.325664758682251,0.8550959825515747
1761383294164972500,4.98597265625,-0.15809333324432373,-0.08996966481208801,0.7662638425827026
1761383294175042300,4.996042236328125,-0.060867391526699066,0.2683892548084259,0.6815803647041321
1761383294185112600,5.006112548828125,0.05342695862054825,0.589849054813385,0.5895159840583801
1761383294195183600,5.01618359375,0.14177991449832916,0.7745572328567505,0.4606607258319855
1761383294205253400,5.02625341796875,0.18144503235816956,0.8237606883049011,0.2902083098888397
1761383294215323400,5.036323486328125,0.17541098594665527,0.8140562176704407,0.12330776453018188
1761383294225393400,5.046393310546875,0.15221086144447327,0.852215051651001,-0.021760214120149612
1761383294235463400,5.05646337890625,0.15649420022964478,0.9867504835128784,-0.15987834334373474
1761383294245533400,5.066533447265625,0.24111267924308777,1.139788031578064,-0.32731446623802185
1761383294255604500,5.0766044921875,0.3424716591835022,1.1962143182754517,-0.5389869809150696
1761383294265674200,5.08667431640625,0.38152560591697693,1.2007486820220947,-0.7088963985443115
1761383294275744500,5.09674462890625,0.3631727993488312,1.2802561521530151,-0.8073447346687317
1761383294285814500,5.106814453125,0.2422863245010376,1.5111898183822632,-0.809037983417511
1761383294295884300,5.11688427734375,0.1933436542749405,1.5158106088638306,-0.8484155535697937
1761383294305955300,5.126955322265625,0.17292945086956024,1.1563994884490967,-0.9542279839515686
1761383294316025600,5.137025634765625,0.08422553539276123,0.7653743624687195,-1.063941478729248
1761383294326095400,5.147095458984375,-0.06246563419699669,0.5383561253547668,-1.113165020942688
1761383294336165400,5.157165283203125,-0.13378798961639404,0.3977946937084198,-1.121597170829773
1761383294346235400,5.1672353515625,-0.06810645759105682,0.27346980571746826,-1.085148572921753
1761383294356305400,5.177305419921875,0.06063997372984886,0.20298947393894196,-0.9988501667976379
1761383294366376400,5.18737646484375,0.26231399178504944,0.035631630569696426,-0.8545220494270325
1761383294376446500,5.197446533203125,0.6185964941978455,-0.20638719201087952,-0.6604127883911133
1761383294386516200,5.20751611328125,0.8581179976463318,-0.14388678967952728,-0.515920877456665
1761383294396586500,5.21758642578125,1.0249249935150146,0.10292847454547882,-0.46931302547454834
1761383294406656500,5.227656494140625,1.0941152572631836,0.4759928584098816,-0.4775336682796478
1761383294416727600,5.2377275390625,0.734883189201355,0.9163156151771545,-0.5282017588615417
1761383294426797300,5.24779736328125,-0.12611675262451172,1.261696696281433,-0.6313193440437317
1761383294436867600,5.25786767578125,-0.7850800156593323,1.3781076669692993,-0.6109325885772705
1761383294446937300,5.267937255859375,-0.7921323776245117,0.9650331139564514,-0.53139728307724
1761383294457007400,5.27800732421875,-0.5742137432098389,0.9810088276863098,-0.640095591545105
1761383294467077400,5.288077392578125,-0.4093523919582367,1.1698620319366455,-0.6618118286132812
1761383294477148400,5.2981484375,-0.2966510057449341,1.200282335281372,-0.5884520411491394
1761383294487218400,5.308218505859375,-0.34224963188171387,1.2094500064849854,-0.5465866327285767
1761383294497288400,5.318288330078125,-0.39065349102020264,1.345435380935669,-0.5381697416305542
1761383294507358200,5.328358154296875,-0.4126168489456177,1.5671113729476929,-0.6341061592102051
1761383294517428500,5.338428466796875,-0.4634227454662323,1.774253249168396,-0.8880207538604736
1761383294527498500,5.34849853515625,-0.5126408338546753,1.8118515014648438,-1.353316307067871
1761383294537569500,5.358569580078125,-0.4940936267375946,1.376234531402588,-1.9248270988464355
1761383294547639300,5.368639404296875,-0.5038157105445862,0.6285585165023804,-2.3389134407043457
1761383294557709600,5.37870947265625,-0.4231482148170471,-0.09455884248018265,-2.3639843463897705
1761383294567779600,5.388779541015625,-0.11319515109062195,-0.6429953575134277,-2.00227689743042
1761383294577849300,5.398849365234375,0.22588348388671875,-0.9576588273048401,-1.4137482643127441
1761383294587920400,5.40892041015625,0.18545962870121002,-1.1181691884994507,-0.8445956110954285
1761383294597990400,5.418990478515625,-0.04511071741580963,-1.3571860790252686,-0.25146546959877014
1761383294608060400,5.429060302734375,-0.22935059666633606,-1.3886263370513916,0.26967787742614746
1761383294618130400,5.43913037109375,-0.1636744886636734,-1.67300546169281,0.7060689926147461
1761383294628200400,5.449200439453125,-0.0825444832444191,-2.048806667327881,1.1197900772094727
1761383294638270500,5.4592705078125,-0.06348252296447754,-2.2691686153411865,1.5287656784057617
1761383294648341500,5.469341552734375,-0.12983092665672302,-2.115701913833618,1.9702261686325073
1761383294658411500,5.47941162109375,-0.2611421048641205,-1.8211921453475952,2.390113353729248
1761383294668481300,5.489481201171875,-0.5065844058990479,-1.5676125288009644,2.929222345352173
1761383294678551600,5.499551513671875,-0.4234358072280884,-1.7459611892700195,3.36586856842041
1761383294688621600,5.50962158203125,-0.03787080571055412,-1.9566012620925903,3.604565143585205
1761383294698691300,5.51969140625,0.4791433811187744,-1.8911181688308716,3.6131575107574463
1761383294708762400,5.529762451171875,0.9662885069847107,-1.6751515865325928,3.360657215118408
1761383294718832400,5.539832275390625,1.4035933017730713,-1.4063382148742676,2.895576000213623
1761383294728902400,5.54990234375,1.7664457559585571,-1.1155940294265747,2.1457736492156982
1761383294738972400,5.559972412109375,1.878359317779541,-0.7242239713668823,0.958932101726532
1761383294749042400,5.57004248046875,1.5939955711364746,0.06716468930244446,-0.4840465784072876
1761383294759112400,5.580112548828125,1.1773349046707153,0.921708345413208,-1.613320231437683
1761383294769183500,5.59018359375,0.8225967884063721,1.5932395458221436,-1.8269940614700317
1761383294779253500,5.60025341796875,0.46201592683792114,1.504927158355713,-1.3353395462036133
1761383294789323300,5.6103232421875,-0.23628300428390503,0.7585127353668213,-0.3712952136993408
1761383294799393500,5.6203935546875,-0.9400032162666321,-0.4905121326446533,0.7590846419334412
1761383294809463600,5.630463623046875,-1.3944369554519653,-1.5446401834487915,1.6482675075531006
1761383294819534600,5.64053466796875,-1.6076395511627197,-1.840181827545166,2.1571271419525146
1761383294829604400,5.650604248046875,-1.5436429977416992,-1.4468493461608887,2.1833078861236572
1761383294839674400,5.66067431640625,-1.3029937744140625,-0.7515876889228821,1.8112348318099976
1761383294849744400,5.670744384765625,-0.9653416872024536,-0.06825731694698334,1.1960872411727905
1761383294859814400,5.680814453125,-0.5371786952018738,0.5177803039550781,0.47037264704704285
1761383294869884400,5.690884521484375,-0.10935969650745392,1.0866416692733765,-0.25790631771087646
1761383294879955500,5.70095556640625,0.2394004613161087,1.6530115604400635,-0.9252651929855347
1761383294890025500,5.711025390625,0.48220914602279663,2.0487754344940186,-1.5055283308029175
1761383294900095500,5.721095458984375,0.6265406608581543,2.427103281021118,-1.835253357887268
1761383294910165500,5.73116552734375,0.7078986167907715,2.7608447074890137,-1.8683526515960693
1761383294920235500,5.741235595703125,0.8159530758857727,2.92875599861145,-1.6270649433135986
1761383294930305500,5.751305419921875,1.0005806684494019,2.895994186401367,-1.289843201637268
1761383294940376600,5.76137646484375,1.164605975151062,2.7152318954467773,-1.0142444372177124
1761383294950446300,5.7714462890625,1.2148667573928833,2.270623207092285,-0.8914122581481934
1761383294960516400,5.781516357421875,1.2100684642791748,1.8497145175933838,-0.757684588432312
1761383294970586600,5.791586669921875,1.1770718097686768,1.4923728704452515,-0.5458788871765137
1761383294980656400,5.801656494140625,1.1526057720184326,1.2912945747375488,-0.21734890341758728
1761383294990726400,5.811726318359375,1.1168185472488403,1.1436872482299805,0.12409311532974243
1761383295000797400,5.82179736328125,1.04275381565094,0.943008542060852,0.4003335237503052
1761383295010867500,5.831867431640625,0.9206990003585815,0.705267608165741,0.600581705570221
1761383295020937500,5.8419375,0.7493149638175964,0.3506052792072296,0.765823245048523
1761383295031007500,5.852007568359375,0.5378788709640503,-0.10236754268407822,0.8868247866630554
1761383295041077200,5.8620771484375,0.2775830328464508,-0.5206420421600342,0.9162652492523193
1761383295051147500,5.8721474609375,-0.010572577826678753,-0.7946059107780457,0.9017371535301208
1761383295061218600,5.882218505859375,-0.2924622595310211,-1.0093647241592407,0.8854675889015198
1761383295071288300,5.892288330078125,-0.5268057584762573,-1.1178126335144043,0.8313699960708618
1761383295081358300,5.9023583984375,-0.7093559503555298,-1.08015775680542,0.7461153864860535
1761383295091428600,5.9124287109375,-0.8352840542793274,-0.8449633717536926,0.672847330570221
1761383295101498400,5.922498291015625,-0.8739845752716064,-0.5658032894134521,0.5731053352355957
1761383295111568400,5.932568359375,-0.8535040616989136,-0.39429542422294617,0.3706792891025543
1761383295121639400,5.942639404296875,-0.7861727476119995,-0.3843860924243927,0.09898403286933899
1761383295131709400,5.95270947265625,-0.6667973399162292,-0.5244050025939941,-0.16347767412662506
1761383295141779500,5.962779541015625,-0.5197473168373108,-0.6030097007751465,-0.29033732414245605
1761383295151849500,5.972849365234375,-0.35853126645088196,-0.6282151937484741,-0.2621980905532837
1761383295161919200,5.982919189453125,-0.17369376122951508,-0.6914486289024353,-0.1873885542154312
1761383295171989500,5.992989501953125,-0.01237171608954668,-0.8391304612159729,-0.25482431054115295
1761383295182060500,6.003060546875,0.0712527185678482,-1.0820538997650146,-0.6316293478012085
1761383295192130300,6.01313037109375,0.11311627924442291,-0.9540448188781738,-1.0017138719558716
1761383295202200300,6.023200439453125,0.25372302532196045,-0.5990867018699646,-0.9001595973968506
1761383295212270600,6.0332705078125,0.47222021222114563,-0.3856109380722046,-0.3446146249771118
1761383295222340400,6.04334033203125,0.09969831258058548,-0.8441244959831238,-0.3947964608669281
1761383295232410400,6.053410400390625,-0.632629930973053,-1.5756479501724243,-1.0707796812057495
1761383295242481400,6.0634814453125,-1.0427035093307495,-1.7114195823669434,-1.4175046682357788
1761383295252551400,6.073551513671875,-1.0463685989379883,-1.6047389507293701,-1.3187042474746704
1761383295262621400,6.083621337890625,-0.8435555696487427,-1.540706992149353,-1.0895612239837646
1761383295272691500,6.09369140625,-0.6338337659835815,-1.590842604637146,-1.049933671951294
1761383295282761200,6.10376123046875,-0.5373435616493225,-1.5317963361740112,-1.3429564237594604
1761383295292831500,6.11383154296875,-0.487467885017395,-1.2073886394500732,-1.7619060277938843
1761383295302902500,6.123902587890625,-0.3864825963973999,-0.7053912281990051,-2.2049059867858887
1761383295312972500,6.13397265625,-0.22783249616622925,-0.20866289734840393,-2.5588462352752686
1761383295323042300,6.144042236328125,-0.04731909558176994,0.26708438992500305,-2.6893017292022705
1761383295333112600,6.154112548828125,0.1634514480829239,0.7025320529937744,-2.5950663089752197
1761383295343182300,6.164182373046875,0.36689871549606323,1.110264778137207,-2.3361265659332275
1761383295353252400,6.17425244140625,0.49714726209640503,1.2955715656280518,-2.054224729537964
1761383295363323400,6.184323486328125,0.45466479659080505,1.1717495918273926,-1.762573003768921
1761383295373393400,6.194393310546875,0.2947065532207489,0.9377738237380981,-1.3341093063354492
1761383295383463400,6.20446337890625,0.09479042887687683,0.6031162738800049,-0.810414731502533
1761383295393533400,6.214533447265625,-0.12567216157913208,0.1602802872657776,-0.2883574068546295
1761383295403603200,6.224603271484375,-0.32473284006118774,-0.2886195182800293,0.17778465151786804
1761383295413673500,6.234673583984375,-0.4959765076637268,-0.5799781084060669,0.5324284434318542
1761383295423744500,6.24474462890625,-0.6389411687850952,-0.6110919117927551,0.7383338212966919
1761383295433814500,6.254814453125,-0.7513686418533325,-0.4544093608856201,0.8217248320579529
1761383295443884300,6.26488427734375,-0.8252876400947571,-0.13178743422031403,0.8602696657180786
1761383295453954600,6.27495458984375,-0.8658840656280518,0.30153098702430725,0.9210554957389832
1761383295464024600,6.285024658203125,-0.8562026619911194,0.6870638728141785,1.003851294517517
1761383295474094300,6.29509423828125,-0.811993420124054,0.960406482219696,1.0937974452972412
1761383295484165400,6.305165283203125,-0.7624909281730652,1.1857532262802124,1.2266666889190674
1761383295494235400,6.3152353515625,-0.659396231174469,1.1893072128295898,1.3108042478561401
1761383295504305400,6.325305419921875,-0.608620822429657,1.1033382415771484,1.351974368095398
1761383295514375400,6.33537548828125,-0.6192423105239868,1.0085872411727905,1.3981304168701172
1761383295524445400,6.345445556640625,-0.6231598854064941,0.8877713680267334,1.4583237171173096
1761383295534515500,6.355515380859375,-0.6144114136695862,0.6969220638275146,1.4833441972732544
1761383295544585500,6.36558544921875,-0.6087405681610107,0.46646785736083984,1.4481866359710693
1761383295554656500,6.375656494140625,-0.5740339756011963,0.31736597418785095,1.383847951889038
1761383295564726300,6.385726318359375,-0.49661165475845337,0.21332164108753204,1.3130265474319458
1761383295574796500,6.395796630859375,-0.39745765924453735,0.07592649757862091,1.2217453718185425
1761383295584866600,6.405866455078125,-0.33263930678367615,-0.07759863883256912,1.119907259941101
1761383295594936300,6.415936279296875,-0.33138948678970337,-0.12895424664020538,1.0248830318450928
1761383295605006300,6.42600634765625,-0.37040984630584717,-0.03880777209997177,0.9094439744949341
1761383295615077400,6.436077392578125,-0.40879160165786743,0.06516470015048981,0.7468979358673096
1761383295625147400,6.4461474609375,-0.4034353494644165,0.1499761939048767,0.5813571214675903
1761383295635217400,6.456217529296875,-0.3597930669784546,0.28753963112831116,0.5121650099754333
1761383295645287400,6.466287353515625,-0.24583931267261505,0.5334112644195557,0.6080003380775452
1761383295655357400,6.476357421875,-0.050621628761291504,0.7753426432609558,0.8111609220504761
1761383295665427500,6.486427490234375,0.18888406455516815,0.7799654006958008,0.9765515327453613
1761383295675498500,6.49649853515625,0.4086014926433563,0.49189239740371704,0.9859503507614136
1761383295685568300,6.506568359375,0.4299372136592865,-0.025964120402932167,0.7520200610160828
1761383295695638500,6.516638427734375,0.29836905002593994,-0.5710977911949158,0.38834148645401
1761383295705708500,6.52670849609375,0.14691556990146637,-0.9320077300071716,0.06717293709516525
1761383295715778300,6.5367783203125,0.03641090169548988,-0.9877546429634094,-0.13186639547348022
1761383295725848300,6.546848388671875,0.00498429499566555,-0.8385242819786072,-0.2312672883272171
1761383295735918600,6.556918701171875,0.017162131145596504,-0.6432810425758362,-0.2860730290412903
1761383295745989400,6.5669892578125,0.03816341981291771,-0.4299956262111664,-0.3200877904891968
1761383295756059400,6.577059326171875,0.05287445709109306,-0.17514680325984955,-0.33349788188934326
1761383295766129400,6.58712939453125,0.07226099073886871,0.06552286446094513,-0.35624900460243225
1761383295776199400,6.597199462890625,0.09581505507230759,0.24509289860725403,-0.40953221917152405
1761383295786269400,6.60726953125,0.1039331927895546,0.3144553005695343,-0.48814019560813904
1761383295796339500,6.61733935546875,0.10735029727220535,0.2958994507789612,-0.5430798530578613
1761383295806410200,6.62741015625,0.1307465136051178,0.2887468934059143,-0.5166814923286438
1761383295816480500,6.63748046875,0.1508949249982834,0.3125843107700348,-0.40015751123428345
1761383295826550500,6.647550537109375,0.16465358436107635,0.3637846112251282,-0.23157130181789398
1761383295836620300,6.657620361328125,0.15757223963737488,0.45556673407554626,-0.06721377372741699
1761383295846690300,6.667690185546875,0.13942217826843262,0.49038541316986084,0.055145587772130966
1761383295856760600,6.677760498046875,0.07354623079299927,0.45445722341537476,0.12527035176753998
1761383295866830300,6.687830322265625,-0.03278569132089615,0.38924020528793335,0.1539062112569809
1761383295876901400,6.6979013671875,-0.14943455159664154,0.3354440927505493,0.1615564078092575
1761383295886971400,6.707971435546875,-0.24541394412517548,0.38432836532592773,0.14474952220916748
1761383295897041400,6.71804150390625,-0.31604018807411194,0.5040289163589478,0.09603897482156754
1761383295907111400,6.728111328125,-0.3110188841819763,0.5691729187965393,0.0016726977191865444
1761383295917181400,6.738181396484375,-0.23750603199005127,0.5532647967338562,-0.08930567651987076
1761383295927251500,6.74825146484375,-0.10902006179094315,0.4547539949417114,-0.16512608528137207
1761383295937322500,6.758322509765625,-0.012923093512654305,0.3605566620826721,-0.24395965039730072
1761383295947392500,6.768392578125,0.025017712265253067,0.2578503489494324,-0.3207908272743225
1761383295957462300,6.778462158203125,0.02231593430042267,0.15228450298309326,-0.3727589547634125
1761383295967532300,6.7885322265625,0.013746147975325584,0.044493790715932846,-0.3697369396686554
1761383295977602600,6.7986025390625,0.020715374499559402,-0.0331014022231102,-0.327707976102829
1761383295987672300,6.80867236328125,0.017165912315249443,-0.185846745967865,-0.2381346970796585
1761383295997742300,6.818742431640625,0.09422048181295395,-0.20044086873531342,-0.07603101432323456
1761383296007813400,6.8288134765625,0.1626332849264145,-0.20541732013225555,0.06466863304376602
1761383296017883600,6.838883544921875,0.16657184064388275,-0.26831480860710144,0.1618465781211853
1761383296027953400,6.848953369140625,0.13170458376407623,-0.3163132965564728,0.2368936985731125
1761383296038023400,6.8590234375,0.09965930134057999,-0.3305337727069855,0.2866399586200714
1761383296048093400,6.869093505859375,0.08791594952344894,-0.3356316387653351,0.31339386105537415
1761383296058163500,6.87916357421875,0.0731780156493187,-0.3324901759624481,0.31225454807281494
1761383296068233500,6.8892333984375,0.03573581203818321,-0.30193156003952026,0.29440897703170776
1761383296078304500,6.899304443359375,-0.006272356957197189,-0.2457125037908554,0.25514546036720276
1761383296088374300,6.909374267578125,-0.03156151995062828,-0.16602668166160583,0.1979232281446457
1761383296098444500,6.919444580078125,-0.035441212356090546,-0.06676294654607773,0.12080101668834686
1761383296108514600,6.9295146484375,-0.026481835171580315,0.030889935791492462,0.03651396930217743
1761383296118584300,6.939584228515625,-0.024189386516809464,0.1403043121099472,-0.041979506611824036
1761383296128654600,6.949654541015625,-0.03577776625752449,0.2494688183069229,-0.10086020827293396
1761383296138725600,6.9597255859375,-0.06823983788490295,0.3190803825855255,-0.1303456574678421
1761383296148795400,6.96979541015625,-0.11138256639242172,0.33524227142333984,-0.13606731593608856
1761383296158865400,6.979865478515625,-0.15775112807750702,0.2848778963088989,-0.11739614605903625
1761383296168935400,6.989935302734375,-0.19767291843891144,0.16938361525535583,-0.083050437271595
1761383296179005400,7.00000537109375,-0.21929964423179626,0.012573767453432083,-0.03291669487953186
1761383296189075500,7.010075439453125,-0.22463341057300568,-0.18541216850280762,0.014969056472182274
1761383296199145200,7.020145263671875,-0.20992131531238556,-0.43656185269355774,0.05450128763914108
1761383296209216300,7.03021630859375,-0.20064625144004822,-0.6489944458007812,0.1245981976389885
1761383296219286500,7.04028662109375,-0.18780049681663513,-0.6192541122436523,0.24728497862815857
1761383296229356500,7.0503564453125,-0.1587677150964737,-0.39057454466819763,0.36070066690444946
1761383296239426300,7.06042626953125,-0.11744450032711029,-0.22145210206508636,0.3981305956840515
1761383296249496600,7.07049658203125,-0.14868000149726868,-0.22353103756904602,0.3864322006702423
1761383296259566600,7.080566650390625,-0.19628825783729553,-0.3079729378223419,0.3851136863231659
1761383296269636400,7.09063623046875,-0.1937219351530075,-0.3202868103981018,0.4210212826728821
1761383296279707400,7.100707275390625,-0.1542818397283554,-0.25740212202072144,0.4762440621852875
1761383296289777400,7.11077734375,-0.0527060367166996,-0.13005582988262177,0.5428918600082397
1761383296299847400,7.120847412109375,0.05661086365580559,0.09330827742815018,0.6010332107543945
1761383296309917400,7.13091748046875,0.05324840918183327,0.29397183656692505,0.6354403495788574
1761383296319987500,7.140987548828125,-0.09244993329048157,0.40803101658821106,0.6127544641494751
1761383296330057500,7.151057373046875,-0.375896692276001,0.4669181704521179,0.50328528881073
1761383296340127500,7.16112744140625,-0.7438904047012329,0.4810592830181122,0.27796483039855957
1761383296350198500,7.171198486328125,-1.1737960577011108,0.443707138299942,-0.001116282306611538
1761383296360268300,7.181268310546875,-1.5048147439956665,0.20556887984275818,-0.31065788865089417
1761383296370338600,7.191338623046875,-1.546856164932251,0.07102612406015396,-0.5039401650428772
1761383296380408600,7.20140869140625,-1.2693229913711548,0.11081454902887344,-0.5471683740615845
1761383296390478300,7.211478271484375,-0.8642379641532898,0.14525382220745087,-0.4958624541759491
1761383296400548400,7.22154833984375,-0.5260769724845886,0.17154428362846375,-0.30974823236465454
1761383296410618600,7.23161865234375,-0.2551824748516083,-0.11941438913345337,-0.1720181554555893
1761383296420689400,7.241689453125,-0.08077767491340637,-0.7695223689079285,-0.17503951489925385
1761383296430759400,7.251759521484375,-0.008071488700807095,-1.606047511100769,-0.2332301288843155
1761383296440829400,7.261829345703125,0.01677314192056656,-2.306394577026367,-0.2631145417690277
1761383296450899500,7.2718994140625,0.12120714038610458,-2.7047903537750244,-0.27221083641052246
1761383296460969500,7.281969482421875,0.3518243432044983,-2.830092668533325,-0.28827500343322754
1761383296471039500,7.29203955078125,0.6399809122085571,-2.5825440883636475,-0.2471567839384079
1761383296481109500,7.302109619140625,0.9387609362602234,-1.9854902029037476,-0.06848663091659546
1761383296491180500,7.3121806640625,1.163580298423767,-1.2373045682907104,0.22442400455474854
1761383296501250600,7.32225048828125,1.1803057193756104,-0.6761789917945862,0.5603002905845642
1761383296511320300,7.3323203125,1.006941318511963,-0.4040467441082001,0.8553581833839417
1761383296521390300,7.342390380859375,0.7759535908699036,-0.2531842589378357,1.0903379917144775
1761383296531460600,7.352460693359375,0.569636881351471,-0.23050200939178467,1.195994257926941
1761383296541530400,7.3625302734375,0.4045320749282837,-0.19022676348686218,1.108548879623413
1761383296551600400,7.372600341796875,0.2794388234615326,-0.027793722227215767,0.7555934190750122
1761383296561670700,7.382670654296875,0.21818797290325165,0.21871726214885712,0.18744799494743347
1761383296571741400,7.392741455078125,0.13224540650844574,0.6105263233184814,-0.4776703417301178
1761383296581811500,7.4028115234375,0.03561234846711159,1.1808457374572754,-1.0107332468032837
1761383296591881500,7.412881591796875,0.10450642555952072,1.7502552270889282,-1.3384394645690918
1761383296601951500,7.422951416015625,0.2745189070701599,2.0656065940856934,-1.5197112560272217
1761383296612021500,7.433021484375,0.1834925413131714,2.1226375102996826,-1.5319575071334839
1761383296622091500,7.443091552734375,-0.023040931671857834,2.3750360012054443,-1.50460684299469
1761383296632162300,7.453162353515625,-0.31133460998535156,2.3434805870056152,-1.3187668323516846
1761383296642232300,7.463232421875,-0.6753402352333069,2.0339455604553223,-0.9296822547912598
1761383296652302600,7.473302490234375,-0.99675452709198,1.6993978023529053,-0.44241592288017273
1761383296662372400,7.483372314453125,-1.1950902938842773,1.5022921562194824,0.11026698350906372
1761383296672442400,7.4934423828125,-1.351645827293396,1.406032681465149,0.7071561217308044
1761383296682512600,7.5035126953125,-1.436313271522522,1.15330970287323,1.2678380012512207
1761383296692582400,7.51358251953125,-1.402502417564392,0.6928542256355286,1.6921755075454712
1761383296702652400,7.52365234375,-1.2899314165115356,0.26199978590011597,1.9991730451583862
1761383296712723500,7.533723388671875,-1.164325475692749,-0.07092347741127014,2.172536611557007
1761383296722793200,7.543793212890625,-1.0013008117675781,-0.24146007001399994,2.1586523056030273
1761383296732863500,7.553863525390625,-0.8407271504402161,-0.229878768324852,1.8967093229293823
1761383296742933500,7.56393359375,-0.7488880157470703,-0.04881924390792847,1.4131489992141724
1761383296753003300,7.574003173828125,-0.7127374410629272,0.22814802825450897,0.8442330956459045
1761383296763073500,7.584073486328125,-0.6881295442581177,0.5225111842155457,0.2769739329814911
1761383296773143600,7.5941435546875,-0.6386046409606934,0.7306710481643677,-0.20584851503372192
1761383296783214300,7.60421435546875,-0.6128987669944763,0.798947274684906,-0.5602071285247803
1761383296793284400,7.614284423828125,-0.5871262550354004,0.7622641921043396,-0.8261711597442627
1761383296803354600,7.624354736328125,-0.5495895147323608,0.6846216320991516,-0.9890583157539368
1761383296813424400,7.63442431640625,-0.4768850803375244,0.6337211728096008,-0.9959498643875122
1761383296823494400,7.644494384765625,-0.36875301599502563,0.5934499502182007,-0.8421779274940491
1761383296833564400,7.654564453125,-0.2348366379737854,0.5459678769111633,-0.5191020965576172
1761383296843634400,7.664634521484375,-0.1537705361843109,0.4069415330886841,-0.07786820828914642
1761383296853705000,7.674705078125,-0.13440266251564026,0.1166125237941742,0.3561278283596039
1761383296863774700,7.684774658203125,-0.13365164399147034,-0.23010282218456268,0.7142042517662048
1761383296873844700,7.6948447265625,-0.11933303624391556,-0.5851228833198547,0.9745391011238098
1761383296883915000,7.7049150390625,-0.10956509411334991,-0.9144147634506226,1.095889687538147
1761383296893984800,7.71498486328125,-0.08180256932973862,-1.269463062286377,1.051811695098877
1761383296904054800,7.7250546875,-0.046041376888751984,-1.6029917001724243,0.8801097869873047
1761383296914124800,7.735124755859375,-0.008244731463491917,-1.604567527770996,0.7403656840324402
1761383296924194800,7.74519482421875,0.04251059144735336,-1.1947933435440063,0.6885539293289185
1761383296934265900,7.755265869140625,0.1411612629890442,-0.5547616481781006,0.6640735864639282
1761383296944336000,7.7653359375,0.29160457849502563,-0.025839485228061676,0.5256525874137878
1761383296954406000,7.775406005859375,0.487900048494339,0.3068728446960449,0.23957392573356628
1761383296964476000,7.785475830078125,0.7387514114379883,0.37952786684036255,-0.07103881239891052
1761383296974546000,7.7955458984375,1.0277107954025269,0.25944381952285767,-0.24962401390075684
1761383296984615700,7.80561572265625,1.2688571214675903,-0.16709765791893005,-0.2573050856590271
1761383296994686000,7.81568603515625,1.2340611219406128,-1.0336685180664062,-0.3316589891910553
1761383297004757000,7.825757080078125,0.7175026535987854,-1.6271063089370728,-0.5356427431106567
1761383297014826800,7.83582666015625,0.09382488578557968,-1.8662128448486328,-0.8288791179656982
1761383297024896800,7.845896728515625,-0.524993360042572,-1.9986226558685303,-1.3266572952270508
1761383297034967000,7.855967041015625,-0.7843251824378967,-1.565963625907898,-1.7125297784805298
1761383297045036800,7.866036865234375,-0.36534154415130615,-0.9131432175636292,-1.738157033920288
1761383297055106800,7.87610693359375,0.4730217456817627,-0.3553907871246338,-1.3988745212554932
1761383297065177000,7.886177001953125,1.3037993907928467,-0.028628937900066376,-0.9722169041633606
1761383297075246800,7.896246826171875,1.8648993968963623,-0.025244221091270447,-0.7800508737564087
1761383297085316900,7.90631689453125,2.064338207244873,-0.3603806793689728,-0.8812091946601868
1761383297095388000,7.916387939453125,1.8399080038070679,-0.8616853952407837,-1.067852258682251
1761383297105457700,7.926457763671875,1.3823148012161255,-1.6709412336349487,-1.29072904586792
1761383297115528000,7.93652783203125,0.9209964871406555,-2.1139931678771973,-1.4251612424850464
1761383297125598000,7.946597900390625,0.7062538266181946,-2.1511213779449463,-1.5075544118881226
1761383297135667700,7.956667724609375,0.8106176257133484,-1.735671043395996,-1.4564703702926636
1761383297145738000,7.966738037109375,1.0531927347183228,-0.8668267130851746,-1.314704179763794
1761383297155807700,7.976807861328125,1.2552919387817383,0.18297523260116577,-1.2312488555908203
1761383297165878800,7.986878662109375,1.320263147354126,1.1321215629577637,-1.3120633363723755
1761383297175948800,7.99694873046875,1.1772245168685913,1.7761316299438477,-1.6520649194717407
1761383297186018800,8.007018798828126,0.8547044992446899,1.7598775625228882,-2.1746528148651123
1761383297196088800,8.0170888671875,0.534062922000885,1.6146047115325928,-2.346095323562622
1761383297206158800,8.027158935546876,0.301298052072525,1.6605490446090698,-2.017561912536621
1761383297216228900,8.037228759765625,0.11153823137283325,1.7440800666809082,-1.3937997817993164
1761383297226299000,8.047298828125,-0.0877266675233841,1.8028104305267334,-0.597000002861023
1761383297236370000,8.057369873046875,-0.2650189995765686,1.7941718101501465,0.29744040966033936
1761383297246440000,8.06743994140625,-0.36141371726989746,1.6210112571716309,1.1350098848342896
1761383297256509700,8.077509765625,-0.3884848654270172,1.3221867084503174,1.7996788024902344
1761383297266580000,8.087580078125,-0.41369834542274475,0.8707571625709534,2.2523086071014404
1761383297276650000,8.09764990234375,-0.45436590909957886,0.29429441690444946,2.504544734954834
1761383297286719700,8.1077197265625,-0.5082770586013794,-0.29061219096183777,2.595747232437134
1761383297296789800,8.117789794921874,-0.550896406173706,-0.7941204309463501,2.538881540298462
1761383297306859800,8.12785986328125,-0.6034567952156067,-1.0305556058883667,2.3675496578216553
1761383297316929800,8.1379296875,-0.6999920606613159,-1.010541319847107,2.1506237983703613
1761383297327000800,8.148000732421876,-0.7399495840072632,-1.084678053855896,1.7621805667877197
1761383297337070800,8.15807080078125,-0.7171469330787659,-0.9861522912979126,1.264458417892456
1761383297347140900,8.168140869140625,-0.7081810832023621,-0.8248699307441711,0.7636421322822571
1761383297357211000,8.1782109375,-0.7448785901069641,-0.675973653793335,0.28182095289230347
1761383297367281000,8.188281005859375,-0.8441484570503235,-0.4771764278411865,-0.129472017288208
1761383297377351000,8.198350830078125,-0.8574962019920349,-0.29705724120140076,-0.43625229597091675
1761383297387421000,8.2084208984375,-0.7825369834899902,-0.14708079397678375,-0.6315722465515137
1761383297397492000,8.218491943359375,-0.666824460029602,-0.11140155792236328,-0.7729301452636719
1761383297407561700,8.228561767578125,-0.64792400598526,-0.07875759154558182,-0.8654268383979797
1761383297417631700,8.2386318359375,-0.6863422989845276,0.04192143306136131,-0.868833065032959
1761383297427702000,8.248701904296874,-0.6811802983283997,0.260108083486557,-0.7718101143836975
1761383297437771800,8.258771728515624,-0.5708562731742859,0.5475384593009949,-0.5719600319862366
1761383297447841800,8.268841796875,-0.37029173970222473,0.8870020508766174,-0.33436718583106995
1761383297457911800,8.278911865234376,-0.16371966898441315,1.1640174388885498,-0.13899894058704376
1761383297467981800,8.28898193359375,0.06409725546836853,1.2858295440673828,0.01782555878162384
1761383297478052900,8.299052978515626,0.3087086081504822,1.2665218114852905,0.13683688640594482
1761383297488123000,8.309122802734375,0.5158146619796753,1.1343978643417358,0.18128690123558044
1761383297498193000,8.31919287109375,0.5826851725578308,0.9173036217689514,0.111658476293087
1761383297508263000,8.329262939453125,0.5868458151817322,0.5988371968269348,0.024031149223446846
1761383297518333000,8.3393330078125,0.5515206456184387,0.24884501099586487,-0.023299887776374817
1761383297528402700,8.349402587890625,0.5115532875061035,-0.03595982864499092,0.02163216471672058
1761383297538473000,8.359472900390625,0.4671117663383484,-0.2626945972442627,0.10835239291191101
1761383297548542700,8.369542724609374,0.4092189073562622,-0.41135090589523315,0.18938305974006653
1761383297558612700,8.37961279296875,0.3701058626174927,-0.4781704246997833,0.2521201968193054
1761383297568683800,8.389683837890624,0.37285637855529785,-0.43244341015815735,0.2564246654510498
1761383297578754000,8.399754150390624,0.38695821166038513,-0.3309694826602936,0.18170619010925293
1761383297588823800,8.40982373046875,0.42102402448654175,-0.20035207271575928,0.08282329887151718
1761383297598893800,8.419893798828125,0.41738763451576233,-0.04655281454324722,-0.00660719582810998
1761383297608963800,8.4299638671875,0.4071970582008362,0.05646571144461632,-0.07650505751371384
1761383297619033900,8.440033935546875,0.368937611579895,0.0968574807047844,-0.10031708329916
1761383297629103900,8.450103759765625,0.3134399950504303,0.10430926829576492,-0.07088622450828552
1761383297639173600,8.460173583984375,0.2709755599498749,0.12536388635635376,0.0023163408041000366
1761383297649244700,8.47024462890625,0.25736892223358154,0.1540573090314865,0.09725164622068405
1761383297659315000,8.48031494140625,0.2625574469566345,0.14208103716373444,0.17771802842617035
1761383297669385000,8.490385009765625,0.2805372476577759,0.08411812782287598,0.22625732421875
1761383297679454700,8.500454833984374,0.3222957253456116,-0.007019457407295704,0.24952134490013123
1761383297689525000,8.51052490234375,0.35032975673675537,-0.05394728481769562,0.25836142897605896
1761383297699594800,8.5205947265625,0.34140339493751526,-0.026298845186829567,0.2667696177959442
1761383297709664800,8.530664794921876,0.28524157404899597,0.00267608230933547,0.2569281756877899
1761383297719734800,8.54073486328125,0.1713852733373642,0.05163228511810303,0.22114963829517365
1761383297729805800,8.550805908203126,-0.036077626049518585,0.006139636971056461,0.21302807331085205
1761383297739875800,8.560875732421875,-0.1350720077753067,0.282977819442749,0.29268398880958557
1761383297749945900,8.57094580078125,-0.11894391477108002,0.5019990801811218,0.296724796295166
1761383297760016000,8.581015869140625,-0.03893618285655975,0.48774874210357666,0.19455300271511078
1761383297770086000,8.5910859375,0.03274732455611229,0.4648516774177551,0.07328863441944122
1761383297780156000,8.601156005859375,0.0769047662615776,0.44466251134872437,-0.04743983969092369
1761383297790225700,8.6112255859375,0.09822789579629898,0.34894344210624695,-0.1736169457435608
1761383297800296000,8.6212958984375,0.10639617592096329,0.26251256465911865,-0.26627612113952637
1761383297810366000,8.631365966796874,0.09651930630207062,0.27022799849510193,-0.29410722851753235
1761383297820437000,8.64143701171875,0.07362490147352219,0.32726165652275085,-0.3050684332847595
1761383297830506800,8.6515068359375,0.04879864677786827,0.37899065017700195,-0.3102535903453827
1761383297840576800,8.66157666015625,0.03273021802306175,0.3993982970714569,-0.33822882175445557
1761383297850646800,8.671646728515626,0.025942353531718254,0.36691465973854065,-0.3903506100177765
1761383297860717300,8.68171728515625,0.028558067977428436,0.27069827914237976,-0.45586147904396057
1761383297870787000,8.691787109375,0.015245459042489529,0.12603643536567688,-0.5215952396392822
1761383297880857300,8.701857421875,-0.016234630718827248,-0.03797785937786102,-0.5778669118881226
1761383297890927000,8.711927001953125,-0.07753793150186539,-0.18810318410396576,-0.6185306906700134
1761383297900998100,8.721998046875,-0.16281290352344513,-0.3234597146511078,-0.6375938653945923
1761383297911068200,8.732068115234375,-0.2556488513946533,-0.4146205186843872,-0.6540167331695557
1761383297921138200,8.74213818359375,-0.3403457999229431,-0.45613712072372437,-0.648642897605896
1761383297931208200,8.752208251953125,-0.4227522611618042,-0.4511663317680359,-0.6460726857185364
1761383297941278200,8.7622783203125,-0.4848933219909668,-0.4129042327404022,-0.6530817747116089
1761383297951348000,8.772347900390624,-0.5017737746238708,-0.3265296518802643,-0.6729025840759277
1761383297961418200,8.782418212890626,-0.4692782163619995,-0.30121368169784546,-0.7075235843658447
1761383297971488300,8.79248828125,-0.40232235193252563,-0.3529660701751709,-0.7606672644615173
1761383297981558000,8.80255810546875,-0.3039056360721588,-0.42830201983451843,-0.7804056406021118
1761383297991629000,8.812629150390626,-0.1986633688211441,-0.4512177109718323,-0.7914886474609375
1761383298001699300,8.82269921875,-0.12240614742040634,-0.4427109658718109,-0.7954955697059631
1761383298011769300,8.832769287109375,-0.05951719358563423,-0.42705875635147095,-0.7845728993415833
1761383298021839000,8.842839111328125,-0.0035477709025144577,-0.4380858540534973,-0.8142677545547485
1761383298031909000,8.8529091796875,0.10883788764476776,-0.4592427909374237,-0.8968390226364136
1761383298041979100,8.862979248046875,0.3741184175014496,-0.3208690881729126,-0.9822779893875122
1761383298052049200,8.873049072265625,0.6353646516799927,-0.03379419445991516,-1.1302847862243652
1761383298062119200,8.883119140625,0.7323052287101746,0.0947137251496315,-1.414443016052246
1761383298072189200,8.893189208984374,0.6404938101768494,-0.3502344489097595,-1.8118537664413452
1761383298082260200,8.90326025390625,0.6113734841346741,-1.1410930156707764,-2.024312973022461
1761383298092330200,8.913330322265624,1.0218205451965332,-1.2775208950042725,-1.71352219581604
1761383298102400000,8.92339990234375,1.5359861850738525,-0.7611470222473145,-0.9866833090782166
1761383298112470300,8.93347021484375,1.573515772819519,0.036745890974998474,-0.13973630964756012
1761383298122540300,8.943540283203125,1.1310217380523682,0.6694006323814392,0.489502876996994
1761383298132610000,8.953610107421875,0.7168551683425903,1.0541677474975586,0.8789569139480591
1761383298142680000,8.96368017578125,0.46110987663269043,1.3101818561553955,1.0792516469955444
1761383298152750300,8.973750244140625,0.21596695482730865,1.2257136106491089,1.0913485288619995
1761383298162820000,8.983820068359375,0.17936889827251434,0.8888790011405945,1.1185020208358765
1761383298172891100,8.99389111328125,0.382153183221817,0.5710858702659607,1.225526213645935
1761383298182961200,9.003961181640625,0.6265174746513367,0.15456141531467438,1.2231223583221436
1761383298193031200,9.01403125,0.6070098280906677,-0.5577539801597595,1.050795078277588
1761383298203101200,9.02410107421875,0.3329225480556488,-1.0316656827926636,1.1091903448104858
1761383298213171200,9.034171142578124,-0.011558681726455688,-1.121308445930481,1.4064240455627441
1761383298223241200,9.0442412109375,-0.38824278116226196,-0.9422703385353088,1.7653359174728394
1761383298233311200,9.054311279296876,-0.6681415438652039,-0.7797381281852722,2.093951940536499
1761383298243381200,9.06438134765625,-0.7837049961090088,-0.8509787917137146,2.337679386138916
1761383298253451000,9.074450927734375,-0.8382118940353394,-1.1080225706100464,2.4277455806732178
1761383298263522000,9.08452197265625,-0.9489726424217224,-1.42499840259552,2.387909173965454
1761383298273592300,9.09459228515625,-1.003705620765686,-1.610815405845642,2.3153927326202393
1761383298283662000,9.104662109375,-1.2286373376846313,-1.6633174419403076,2.049537181854248
1761383298293732000,9.114732177734375,-1.3143961429595947,-1.470378041267395,1.7149465084075928
1761383298303802400,9.12480224609375,-1.2911814451217651,-1.0703377723693848,1.2968930006027222
1761383298313872100,9.1348720703125,-1.2449244260787964,-0.6377213001251221,0.7536832690238953
1761383298323942100,9.144942138671874,-1.1879124641418457,-0.27474966645240784,0.3052138388156891
1761383298334012200,9.15501220703125,-1.2170476913452148,-0.088356614112854,0.18179604411125183
1761383298344082200,9.165082275390626,-1.3695318698883057,0.007994850166141987,0.4930737018585205
1761383298354153200,9.1751533203125,-1.597568154335022,0.19275431334972382,1.087427020072937
1761383298364223200,9.18522314453125,-1.8179792165756226,0.1697111576795578,1.6195179224014282
1761383298374293000,9.19529296875,-2.0127904415130615,-0.0036555659025907516,2.0260610580444336
1761383298384363300,9.20536328125,-2.159519672393799,-0.253330260515213,2.30820894241333
1761383298394433300,9.215433349609375,-2.1294820308685303,-0.5083098411560059,2.525571346282959
1761383298404503000,9.2255029296875,-1.8838353157043457,-0.7262048125267029,2.682988166809082
1761383298414573300,9.2355732421875,-1.441637396812439,-0.8163429498672485,2.6068944931030273
1761383298424643300,9.245643310546875,-0.9423640370368958,-0.6444758772850037,2.2308526039123535
1761383298434713000,9.255713134765625,-0.43458420038223267,-0.28918832540512085,1.429436445236206
1761383298444784000,9.2657841796875,-0.07147357612848282,0.35038578510284424,0.37623873353004456
1761383298454854100,9.275854248046874,0.14396710693836212,1.1224696636199951,-0.7175761461257935
1761383298464924200,9.285924072265624,0.18739180266857147,1.8979183435440063,-1.631068229675293
1761383298474994200,9.295994140625,0.09710770845413208,2.4627184867858887,-2.243234395980835
1761383298485064200,9.306064208984376,-0.08290190249681473,2.6852478981018066,-2.4926557540893555
1761383298495134200,9.31613427734375,-0.35774677991867065,2.5934643745422363,-2.4149513244628906
1761383298505204200,9.326204345703125,-0.6550953984260559,2.269871950149536,-2.048973560333252
1761383298515274200,9.336274169921875,-0.8762956857681274,1.9619739055633545,-1.44675612449646
1761383298525344300,9.34634423828125,-1.096793293952942,1.7684166431427002,-0.7518240809440613
1761383298535414300,9.356414306640625,-1.2801084518432617,1.5048271417617798,-0.025078583508729935
1761383298545485300,9.3664853515625,-1.4486713409423828,1.2875524759292603,0.6307092308998108
1761383298555555000,9.37655517578125,-1.5055785179138184,1.0402129888534546,1.1620886325836182
1761383298565625000,9.386625,-1.375138521194458,0.6800529956817627,1.5047483444213867
1761383298575695400,9.3966953125,-1.0899007320404053,0.08080228418111801,1.5892678499221802
1761383298585765000,9.40676513671875,-0.6914735436439514,-0.7199485898017883,1.4385803937911987
1761383298595835100,9.416835205078126,-0.16149543225765228,-1.6049895286560059,1.150526762008667
1761383298605905400,9.426905517578126,0.415280282497406,-2.1557869911193848,0.8183774352073669
1761383298615975200,9.43697509765625,0.7567825317382812,-2.061676025390625,0.4090610146522522
1761383298626045200,9.447045166015625,0.949225664138794,-1.6471139192581177,-0.034051522612571716
1761383298636116200,9.4571162109375,0.9839977622032166,-0.772979736328125,-0.432405561208725
1761383298646186200,9.467186279296875,0.9193102717399597,-0.013904451392591,-0.8150303959846497
1761383298656256300,9.47725634765625,0.9378786683082581,-0.6060705780982971,-1.2314950227737427
1761383298666326300,9.487326171875,0.7873436212539673,-1.2865861654281616,-1.5436726808547974
1761383298676396000,9.49739599609375,0.5540613532066345,-1.3111215829849243,-1.6380468606948853
1761383298686466300,9.50746630859375,0.40990209579467773,-0.7584181427955627,-1.4826894998550415
1761383298696536000,9.5175361328125,0.3321172893047333,-0.11123007535934448,-1.2214816808700562
1761383298706606000,9.527606201171874,0.2573254108428955,0.14833597838878632,-0.97720867395401
1761383298716676400,9.53767626953125,0.17445902526378632,-0.05065355822443962,-0.7681926488876343
1761383298726746000,9.54774609375,0.10864556580781937,-0.6793071031570435,-0.677338719367981
1761383298736817200,9.557817138671876,0.10950017720460892,-1.679352045059204,-0.766923189163208
1761383298746887200,9.56788720703125,0.2134465128183365,-2.6536550521850586,-0.962279736995697
1761383298756957200,9.577957275390625,0.3288564383983612,-3.1258645057678223,-1.1075690984725952
1761383298767027200,9.588027099609375,0.3839087188243866,-2.9090499877929688,-1.13334059715271
1761383298777097200,9.59809716796875,0.3913876712322235,-2.224015951156616,-1.0885353088378906
1761383298787167000,9.6081669921875,0.4453323781490326,-1.3355284929275513,-1.0189422369003296
1761383298797237200,9.6182373046875,0.6032591462135315,-0.5435648560523987,-0.9620084762573242
1761383298807307300,9.628307373046875,0.7742552161216736,0.04972594976425171,-0.9015140533447266
1761383298817377000,9.638376953125,0.8725833892822266,0.6398795247077942,-0.7546417713165283
1761383298827447300,9.648447265625,0.8713148832321167,1.0826315879821777,-0.5432679653167725
1761383298837517300,9.658517333984374,0.7280504107475281,1.2180994749069214,-0.41497495770454407
1761383298847588000,9.668588134765624,0.5276297330856323,1.080259919166565,-0.43964871764183044
1761383298857662000,9.678661865234375,0.36449354887008667,0.7687481641769409,-0.5472662448883057
1761383298867732000,9.68873193359375,0.21760472655296326,0.5247335433959961,-0.5915732383728027
1761383298877802200,9.69880224609375,0.08026816695928574,0.5428441166877747,-0.4589619040489197
1761383298887872000,9.7088720703125,-0.03858703374862671,0.783828616142273,-0.1659107804298401
1761383298897942000,9.71894189453125,-0.10827024281024933,1.131188154220581,0.21888324618339539
1761383298908012000,9.729011962890626,-0.11614283174276352,1.5232986211776733,0.615769624710083
1761383298918082000,9.73908203125,-0.11002475023269653,1.9364126920700073,0.957154393196106
1761383298928152000,9.749152099609375,-0.11662973463535309,2.221588134765625,1.1800435781478882
1761383298938222000,9.75922216796875,-0.15007929503917694,2.2937850952148438,1.2440590858459473
1761383298948292900,9.76929296875,-0.19227029383182526,2.18279767036438,1.2126622200012207
1761383298958363100,9.779363037109375,-0.25614458322525024,1.923016905784607,1.1312512159347534
1761383298968433200,9.78943310546875,-0.34183835983276367,1.5674899816513062,1.0110095739364624
1761383298978503000,9.7995029296875,-0.4037608504295349,1.2257810831069946,0.894925057888031
1761383298988573200,9.8095732421875,-0.4496985077857971,0.9663599729537964,0.7632815837860107
1761383298998643200,9.819643310546875,-0.48848477005958557,0.823081910610199,0.5871142745018005
1761383299008713000,9.829712890625,-0.5058404803276062,0.8273646235466003,0.3980556130409241
1761383299018783000,9.839782958984374,-0.5697273015975952,0.9318342804908752,0.35419654846191406
1761383299028853000,9.84985302734375,-0.5922233462333679,0.5892216563224792,0.2693675458431244
1761383299038923000,9.859923095703126,-0.42267850041389465,0.25865116715431213,0.14699076116085052
1761383299048993000,9.869992919921875,-0.24346701800823212,0.08593577146530151,0.03488878905773163
1761383299059064000,9.88006396484375,-0.12212993204593658,-0.08616169542074203,-0.07336204499006271
1761383299069134000,9.890134033203125,-0.017147082835435867,-0.15901757776737213,-0.19826793670654297
1761383299079204000,9.9002041015625,0.11806000769138336,-0.08574523031711578,-0.30438902974128723
1761383299089274000,9.910274169921875,0.2677089273929596,0.08631831407546997,-0.26607242226600647
1761383299099344100,9.92034423828125,0.33393535017967224,0.21973976492881775,-0.0800524652004242
