time,seconds_elapsed,z,y,x
1761841472943275500,0.083275634765625,0.3676771280944347,0.29988018767535685,-0.45982598109021783
1761841472953345500,0.093345458984375,0.40047582036852836,0.5633920078963041,-0.43805064100325103
1761841472963414500,0.10341455078125,0.4920592945665121,0.7102239065855741,-0.48591187785267825
1761841472973484500,0.113484619140625,0.5961404312878846,0.6112731184899807,-0.6648509794205427
1761841472983553500,0.123553466796875,0.6470090332597493,0.6114245096594095,-0.7180208440721034
1761841472993623600,0.13362353515625,0.41830841417908665,0.7496142522096634,-0.5532581518948078
1761841473003693600,0.143693603515625,0.16208324383497238,1.412665488731861,-0.42148587517142294
1761841473013762600,0.153762451171875,-0.3156511727809906,1.7523562932699919,-0.3316355083763599
1761841473023831600,0.16383154296875,-0.5668436096549033,1.8316741601347921,-0.37169776191264386
1761841473033901600,0.173901611328125,-1.3338275143384932,1.4863994179844855,-0.3401090299502015
1761841473043971600,0.1839716796875,-2.2652210599780083,0.7851046677857637,-0.18898469476401805
1761841473054040300,0.194040283203125,-2.826611080402136,-0.1601654275149107,0.08744681278467178
1761841473064110600,0.204110595703125,-2.8787773209691045,-0.9809954886764287,0.6915501857757568
1761841473074179300,0.214179443359375,-2.0322084229171273,-1.473196237540245,1.3277265671148895
1761841473084249600,0.22424951171875,-1.3733739273071288,-1.7080851898670195,1.567251947070658
1761841473094318600,0.234318603515625,-1.2704939830690622,-1.4723042571365832,1.3155892623364924
1761841473104388400,0.244388427734375,-1.1980530162364245,-1.0729209081798792,1.0544634604692458
1761841473114457600,0.25445751953125,-1.1072487097173929,-0.7081792490154505,0.9350231343135237
1761841473124527400,0.26452734375,-1.1159937417089938,-0.6053893211483955,0.8898048131883144
1761841473134596600,0.2745966796875,-0.7502554727226496,-0.5751993500679731,0.7704533343598247
1761841473144666400,0.284666259765625,-0.7819652007162571,-0.4278092329740524,0.6396142468333244
1761841473154735600,0.294735595703125,-2.789204017549753,-0.5707224969148635,1.3585671110585331
1761841473164805400,0.304805419921875,-1.7761983566284179,-1.2295002939015627,1.9387217454463241
1761841473174874600,0.31487451171875,-0.11402969928383827,-0.6882827084124088,0.829116243469715
1761841473184944600,0.324944580078125,-1.1659703632771967,-0.3305471286177635,0.47794279866963624
1761841473195014400,0.335014404296875,-1.316270814859867,-0.859370511958003,0.6625174219064414
1761841473205083600,0.345083740234375,-0.9984317766457795,-1.7755121279299257,1.3273124333560467
1761841473215153400,0.3551533203125,-1.4199527231305837,-1.7968968612641094,1.3828969579339025
1761841473225222700,0.36522265625,-2.8161633361458778,-1.646285444036126,0.8702423999104648
1761841473235292400,0.37529248046875,-3.6887703462958332,-1.629821215969324,0.21026088968981055
1761841473245361700,0.385361572265625,-3.9694560041576623,-1.4132657927125691,-0.3487602827111259
1761841473255431400,0.395431396484375,-3.7755660016953945,-0.681139266398549,-1.083794841958955
1761841473265500700,0.405500732421875,-3.3147134540364145,-0.11577683521211146,-2.1071016052074727
1761841473275570400,0.4155703125,-2.599801974156499,0.3443371690392494,-3.2413159171313044
1761841473285639400,0.425639404296875,-2.4764848065674303,1.0658189672201872,-4.591898459176719
1761841473295709700,0.435709716796875,-2.079042654806375,1.7520277919679879,-5.968699146062136
1761841473305778400,0.4457783203125,-2.0735046021625396,2.358029692056775,-7.041918744927644
1761841473315848700,0.4558486328125,-1.6636439905941485,2.6083593746215104,-8.015416571325064
1761841473325917400,0.46591748046875,-1.0484604206621646,2.9339088410824536,-8.514246967461705
1761841473335987500,0.475987548828125,-0.63579001237005,3.1277573424905536,-8.509615216007829
1761841473346057500,0.486057373046875,-0.09283362038955092,3.2228929562121627,-8.291990702214836
1761841473356126500,0.49612646484375,0.4010094888538122,3.7472330566585064,-8.282115789410472
1761841473366196500,0.506196533203125,0.9364597429879009,4.214725480723381,-8.340563302204012
1761841473376265500,0.516265380859375,1.5420359650105238,4.580834336587786,-7.91819947515428
1761841473386335500,0.52633544921875,1.722732139378786,5.109583485648035,-7.225183893001079
1761841473396404500,0.536404541015625,1.7828537228643893,5.72982024731636,-6.283052680248022
1761841473406474500,0.546474609375,1.7110019540965555,6.6425131841391325,-5.051569103574752
1761841473416543500,0.55654345703125,1.6127929242789745,7.3652628102988,-3.5613010274633763
1761841473426613500,0.566613525390625,1.302311263090372,8.552576405856012,-2.15636160293892
1761841473436682500,0.5766826171875,1.265076634195447,10.426752906155585,-0.7832834437079728
1761841473446752500,0.58675244140625,1.2234178321827203,11.855193471646308,1.1895181198641658
1761841473456821500,0.596821533203125,1.2462497686505316,12.544997106015682,3.4445173532962796
1761841473466891500,0.6068916015625,1.532255160230398,13.435064954054354,5.333668719887733
1761841473476961500,0.61696142578125,2.1771733586907387,14.81073955951929,7.331687288433313
1761841473487030500,0.627030517578125,3.049538376778364,15.335792192149162,9.728331081044674
1761841473497100500,0.6371005859375,3.562319556856155,15.129454796046018,12.450474071234463
1761841473507169500,0.64716943359375,3.79866279964447,13.926194274294376,15.369591585898398
1761841473517239600,0.657239501953125,3.4928397779166698,11.756657109570503,18.71984660117626
1761841473527308500,0.66730859375,3.532860822659731,9.777197695544361,21.837256152653694
1761841473537378600,0.677378662109375,3.2603871128261086,8.102882673332095,24.29279987800121
1761841473547447600,0.687447509765625,2.6120348482638596,6.820936737400293,25.577462087154387
1761841473557521000,0.69752099609375,2.402498363858461,6.839511089488863,25.262423493313786
1761841473567590000,0.70758984375,2.353469982925802,8.618661866182089,23.735710769641397
1761841473577660000,0.717659912109375,1.9537796138465404,10.63918686556816,21.86171021043062
1761841473587729000,0.72772900390625,1.997124834576249,12.033833882528542,19.833435619831086
1761841473597799000,0.737798828125,2.555090141248703,12.71730597578883,17.31534571419954
1761841473607869000,0.747868896484375,2.171786404955387,12.459890718877315,13.88452020164728
1761841473617938000,0.75793798828125,-0.34011619034335017,11.621738936036824,9.677166126474738
1761841473628008000,0.768008056640625,-4.018868562102318,10.905333710467815,5.018393979203701
1761841473638076700,0.77807666015625,-7.545169880115985,10.580568672382832,1.2380381128832698
1761841473648147000,0.78814697265625,-8.15326553761363,10.950877318024634,-0.29455548552125693
1761841473658216000,0.7982158203125,-3.9583062491118906,13.36577105307579,-1.8216273978948592
1761841473668286000,0.808285888671875,4.113697886353731,17.92984656256437,-7.117207502406835
1761841473678355000,0.81835498046875,13.009656937003134,22.051656443703173,-16.614059731829165
1761841473688424700,0.8284248046875,18.929803356820344,21.95968075531721,-25.253585522341726
1761841473698494000,0.838493896484375,20.332486380720137,20.316746375274658,-29.535327606761452
1761841473708563700,0.848563720703125,19.7415744977355,17.3947226177752,-30.06368863328695
1761841473718634000,0.858634033203125,18.41417672418356,13.926519268465041,-26.992718176901338
1761841473728702700,0.86870263671875,14.466241062438487,12.83913085899353,-22.385881384050844
1761841473738773000,0.87877294921875,10.77292664297223,12.480690345799923,-17.604980986714363
1761841473748842000,0.888842041015625,7.11790775963068,10.92434820753932,-12.90091716082096
1761841473758911700,0.898911865234375,4.135509905189275,9.33220936423242,-9.42857539653182
1761841473768981000,0.90898095703125,1.6068518437922,8.585379774305224,-6.895805808162689
1761841473779050800,0.91905078125,-0.526377122699283,8.403692835333944,-4.605524248947203
1761841473789120000,0.9291201171875,-1.7552052529603241,8.751029186189173,-2.450704322492331
1761841473799189800,0.939189697265625,-2.2259072867214678,10.229600687026977,-0.1599622330930084
1761841473809259800,0.949259765625,-2.2096172461777925,11.887739650464058,2.8810063951954246
1761841473819328800,0.959328857421875,-1.9407564661443233,12.78953885282874,6.704066261732578
1761841473829398800,0.969398681640625,-2.9715976434856652,12.488575546091795,11.26903725875616
1761841473839468000,0.979468017578125,-4.061938473021984,11.380699644386768,16.427092222106456
1761841473849537800,0.989537841796875,-3.687757954382896,9.440134316900371,22.077712091457844
1761841473859607000,0.99960693359375,-2.6545792740046976,6.82920421500802,27.67523633043766
1761841473869676800,1.0096767578125,-0.31253464819565413,5.319903229385614,30.926625313293933
1761841473879746000,1.01974609375,2.1867688700318335,3.178117410418391,31.772234426403045
1761841473889815800,1.02981591796875,3.681982878112793,3.763007548895478,30.814871742248535
1761841473899885000,1.039885009765625,4.626177453136444,6.310033041632175,28.194457772696015
1761841473909954800,1.049954833984375,4.601859004437923,9.084197310960292,24.928895303058624
1761841473920023800,1.06002392578125,4.593991339802741,11.460756931442022,21.09131269791126
1761841473930094000,1.070093994140625,4.317532944247127,13.147653202807902,16.918749950134753
1761841473940163800,1.080163818359375,2.8714480009943246,13.953116183489561,12.371203550642727
1761841473950233000,1.090233154296875,0.361650707411766,14.180395829856394,7.409851893609762
1761841473960302800,1.100302734375,-1.8647768037915229,13.927344613373279,2.7618659287691116
1761841473970371800,1.110371826171875,-2.8215479517936704,13.761864128315448,-0.9992939464330672
1761841473980441900,1.12044189453125,0.030828926571086046,15.15742650655508,-5.099643106392025
1761841473990510800,1.1305107421875,5.842215623396635,18.448352550029753,-11.619272253662347
1761841474000580900,1.140580810546875,12.300561742186545,22.2923064437747,-21.053777040243148
1761841474010649900,1.15064990234375,16.968236742359398,22.37120754653215,-29.47953382334709
1761841474020720000,1.16072021484375,18.54655690367222,19.42920599988699,-33.73143022007942
1761841474030790000,1.170789794921875,16.872555185192823,16.891090374314786,-32.743485350656506
1761841474040859000,1.18085888671875,12.83426412974,15.630695175933838,-28.077506633007523
1761841474050929000,1.190928955078125,9.16064809795618,13.951127640020847,-22.362982154500482
1761841474060998000,1.200997802734375,6.246767899423837,11.820767470431328,-16.549825452327728
1761841474071068000,1.21106787109375,3.9139059663712974,9.848665433430671,-11.807452061784266
1761841474081137000,1.221136962890625,1.7402058367490767,8.220744498124718,-8.159049966233969
1761841474091207000,1.23120703125,0.005485701402090489,7.239875850698351,-5.128083018934727
1761841474101277000,1.24127685546875,-1.4874381133824586,7.139477786403894,-2.4952371455714104
1761841474111345700,1.251345703125,-3.0160061095327135,8.395071137461066,0.0006532032117247582
1761841474121416000,1.261416015625,-4.141338465212285,10.113426961451768,2.8752643444120882
1761841474131485000,1.27148486328125,-5.248132124638557,11.497782886022328,6.496115585213899
1761841474141555000,1.281554931640625,-7.084893963301181,11.408915685045718,11.241546025240421
1761841474151624000,1.2916240234375,-7.954722156387567,10.103375523036718,16.529785703861712
1761841474161693700,1.301693603515625,-7.8746806514233345,8.28737590189576,21.797618554270265
1761841474171763000,1.311762939453125,-5.741164063629507,5.931597788158059,26.093031436645983
1761841474181832700,1.321832763671875,-2.4568746816903353,3.0459803920358417,29.260368509852885
1761841474191903000,1.331903076171875,0.48302375519573687,1.6110551407009361,30.56106999965906
1761841474201971700,1.3419716796875,2.6413655721664426,2.672661458662152,29.620410613024234
1761841474212041700,1.352041748046875,3.4987802738815543,5.148599152740836,26.91127557296753
1761841474222111000,1.362111083984375,3.4341017577439543,7.883413408455252,23.352844255721568
1761841474232180700,1.3721806640625,3.436688851627707,9.851948108363151,19.541241310483215
1761841474242250000,1.38225,3.6256612714320418,10.9286000197649,15.863929931312798
1761841474252319700,1.39231982421875,3.1013655946493146,11.203491312134265,12.246252644371985
1761841474262389000,1.402388916015625,1.9964573105782268,10.929594876021147,8.576983701881765
1761841474272458800,1.412458740234375,-0.0045364743858575815,10.642886889129876,4.4083264371111985
1761841474282528800,1.42252880859375,-2.349457678544521,10.401375303792953,0.0030859833166003224
1761841474292597800,1.43259765625,-3.4844729315876957,10.374391435277461,-4.066983481451869
1761841474302667800,1.442667724609375,-1.3317688282430171,11.771468894255161,-8.078975728043913
1761841474312737000,1.452737060546875,3.9064170719206333,14.844952794766424,-13.301649001777172
1761841474322806800,1.462806884765625,10.715649343001841,17.885224161505697,-20.26592336601019
1761841474332876000,1.4728759765625,16.6721448410511,18.06415332620144,-26.845011833465097
1761841474342945800,1.48294580078125,18.822396290546653,16.41470386517644,-30.398448995685577
1761841474353015000,1.49301513671875,18.34693917121291,14.029285230934619,-29.66874355903864
1761841474363084800,1.503084716796875,15.038015698754787,12.95684889140129,-25.423608911526202
1761841474373154800,1.51315478515625,11.127335124170779,12.51816170606017,-20.213145715546606
1761841474383223800,1.523223876953125,7.576204485327005,11.07878707410097,-14.740610961282252
1761841474393293800,1.5332939453125,4.740868831199407,9.773213594344258,-10.052277788484096
1761841474403363000,1.543363037109375,2.1704279760837553,9.244763720491529,-6.298100027254224
1761841474413432800,1.553432861328125,0.029603147635795173,9.32549613032937,-3.1589497686117887
1761841474423502000,1.563502197265625,-1.676332791775465,10.010068293786048,-0.25173954936265946
1761841474433571800,1.57357177734375,-3.6215965062111612,10.811042146354913,3.009595657968521
1761841474443641900,1.583641845703125,-5.510340461045503,10.875647012734413,7.126015078240632
1761841474453710800,1.5937109375,-6.931330126008391,10.557190134882926,11.729764426469803
1761841474463780900,1.60378076171875,-7.864898677599429,9.276270619389415,16.408073048859833
1761841474473849900,1.613849853515625,-7.963233964145183,7.145518235611915,20.99391966065168
1761841474483920000,1.623919921875,-6.900836788067221,5.242455832567811,25.047204871618746
1761841474493988900,1.63398876953125,-4.158584491306543,3.58663040677011,27.558888417339322
1761841474504059000,1.644058837890625,-0.9366851492416113,2.461456748783588,28.218037385725975
1761841474514128000,1.6541279296875,1.3302403035014867,3.157397862994671,27.25303383142948
1761841474524198000,1.664197998046875,2.8032506630808114,4.567316683366895,24.742970580387112
1761841474534268000,1.674267822265625,3.1869846074849364,6.137911218863725,21.836454188621044
1761841474544337000,1.6843369140625,2.8878157829493283,7.208878070366382,19.058862282931802
1761841474554407000,1.694406982421875,2.2505454688936473,7.89055977307856,16.261220107382535
1761841474564472600,1.70447265625,1.317843178743124,8.340594281864165,13.372854289335011
1761841474574542800,1.71454296875,-0.20225626426935195,8.597629599547385,10.200552287197112
1761841474584611600,1.724611572265625,-2.799730087739229,9.23356954178214,6.008345512273907
1761841474594681900,1.734681884765625,-5.80725536917448,9.955539415740967,0.9255155935168266
1761841474604752000,1.744751953125,-6.575086246076226,10.689833349221944,-4.096073966857791
1761841474614820600,1.754820556640625,-3.619125732183456,11.8939262301445,-8.173249171978235
1761841474624891000,1.764890869140625,2.175717899185419,14.408967269599437,-12.764321409463882
1761841474634959600,1.774959716796875,9.195530026245116,16.606823350834844,-18.886892435854673
1761841474645030000,1.78502978515625,14.672621713161467,16.637538807094096,-24.601448478543755
1761841474655098600,1.7950986328125,16.63353833928108,15.225776989203691,-27.325589364552496
1761841474665168600,1.805168701171875,16.08864118849635,12.894295696854591,-26.332734511256216
1761841474675239000,1.815239013671875,14.604068985939024,10.56796170426607,-22.477677039694786
1761841474685307600,1.8253076171875,11.014057120037078,10.657470710277556,-17.66420240648985
1761841474695378000,1.8353779296875,7.7146975947380065,10.154625233280658,-13.211910863184928
1761841474705446700,1.84544677734375,4.818749358737469,8.749425842645763,-9.088121790927648
1761841474715517000,1.855516845703125,2.5130069032788276,7.701755695578456,-5.666787744820118
1761841474725585700,1.865585693359375,0.5436076954960822,7.295176882159709,-2.643895967426896
1761841474735655700,1.87565576171875,-1.6415344501167535,7.112783256223797,0.4625451769210398
1761841474745726000,1.885725830078125,-4.040602839526533,6.78563629143834,3.8027030149459837
1761841474755794700,1.895794677734375,-6.038349605393409,6.692866822326183,7.302195821011066
1761841474765865000,1.905864990234375,-6.8409753168225285,6.337112187215685,10.820592064988613
1761841474775933700,1.91593359375,-6.791160023295879,6.156410752150416,14.174620753586291
1761841474786003700,1.926003662109375,-6.101407242330908,5.235345708301663,17.450213618850707
1761841474796072700,1.93607275390625,-5.728289969009161,3.8592058234125375,20.41131500276327
1761841474806142700,1.946142822265625,-4.690987486699223,3.1216736386626955,22.592170849359036
1761841474816211700,1.956211669921875,-3.0904420495748517,1.3052367951482533,23.615858063292503
1761841474826281700,1.96628173828125,-2.070237855451554,1.133576744672656,23.222390660381315
1761841474836351700,1.976351806640625,-0.7055658516466617,1.9992630156487226,21.451424943709373
1761841474846420700,1.986420654296875,0.2398644026517868,3.074356591692567,19.16649965083003
1761841474856490800,1.99649072265625,0.9501163662880658,4.041425846347212,16.848752284801005
1761841474866559700,2.006559814453125,1.2411807948231697,4.915773562684655,14.512537534189223
1761841474876629800,2.016629638671875,0.7044440080098807,5.783705566760897,11.930073063802718
1761841474886698800,2.02669873046875,-1.1410755029302089,6.883211115005612,8.726876741707324
1761841474896768800,2.036768798828125,-4.011149366027117,8.082401026317477,4.2335482546150685
1761841474906838500,2.046838623046875,-6.492241958650946,8.826333141237496,-1.2359236049473286
1761841474916907800,2.05690771484375,-6.162134390494227,9.465144254994392,-6.588561813721061
1761841474926977800,2.066977783203125,-2.158641676700115,11.344695434069633,-10.83852052038908
1761841474937046800,2.077046875,4.006602954769134,13.69356625263691,-15.613629474842547
1761841474947116800,2.08711669921875,9.670217914772033,14.034627761006355,-21.190206787383556
1761841474957185800,2.097185791015625,11.257803917080164,13.30258423680067,-25.140164894866942
1761841474967255800,2.107255859375,12.204383341413736,12.421253821969032,-26.155058561491966
1761841474977325600,2.11732568359375,12.034493223220109,9.786652337110041,-24.431682278990746
1761841474987394800,2.127394775390625,11.790048507040739,8.055349353262782,-20.669033042013645
1761841474997464600,2.137464599609375,9.88516531831026,8.34465144830048,-16.349858175778387
1761841475007533800,2.147533935546875,7.420086871898174,8.202962173196672,-12.018857262670993
1761841475017603800,2.157603759765625,4.879595749366283,7.38303753644228,-7.902357762899994
1761841475027672800,2.1676728515625,2.6443711837232113,7.433360194969177,-4.223661651372909
1761841475037742800,2.177742919921875,0.7306482704550027,8.136956207847595,-1.1169807069197297
1761841475047812600,2.1878125,-0.7531821738243103,8.836483948373795,1.490055164013058
1761841475057881900,2.1978818359375,-2.000640733742714,9.254334097391366,4.007107981681823
1761841475067951600,2.20795166015625,-3.3550855041742325,8.832036321315169,6.883183642476797
1761841475078020900,2.218020751953125,-4.098959751427174,7.699032408094405,10.120883122676611
1761841475088090600,2.228090576171875,-4.594519163069129,6.240641525498032,13.721571865415573
1761841475098159900,2.238159912109375,-4.234065556487441,4.13930520581901,17.363533698785304
1761841475108230000,2.24822998046875,-3.581262742257118,3.184435507524013,20.603788708686828
1761841475118299600,2.258299560546875,-1.566071505114436,2.2078221794545647,22.462107714641093
1761841475128369000,2.268368896484375,-0.0012543839752674102,1.6234943510353563,23.04151153066158
1761841475138438700,2.278438720703125,1.0164414805889128,2.556467859342694,21.924272757327554
1761841475148508000,2.2885078125,1.459738205552101,4.499148571547866,19.74871501713991
1761841475158577700,2.29857763671875,1.4338345334887503,6.541243013185262,17.42210045404434
1761841475168647000,2.30864697265625,1.4262795880645514,7.8475044752061365,15.12338745883107
1761841475178716700,2.318716552734375,1.1708008521735667,8.58363322289884,12.798651549088953
1761841475188786700,2.32878662109375,0.5962006370425224,8.886000551214813,10.14816860448718
1761841475198856000,2.33885595703125,-0.3458177629858255,8.830252945029734,7.059567798864841
1761841475208925700,2.34892578125,-1.7097557534277439,8.803308824002743,3.430717376002669
1761841475218995000,2.358994873046875,-2.9969314067065715,8.79898453106284,-0.3761597097575664
1761841475229064700,2.369064697265625,-2.2238696434140204,8.905767327958344,-3.8017888227105137
1761841475239134000,2.379134033203125,0.9797862590171396,10.30197618740797,-7.5384034547209735
1761841475249203700,2.38920361328125,4.531862508147955,12.46055239765644,-12.518826891970633
1761841475259273700,2.399273681640625,7.652774514788389,13.028045995652676,-17.83348579096198
1761841475269342700,2.4093427734375,10.137215833318233,12.180543031620978,-21.863099034440516
1761841475279412700,2.419412841796875,11.102146906900405,11.21362925978899,-23.608006765270233
1761841475289482000,2.42948193359375,11.218425846415757,9.400254141932725,-22.74701303602457
1761841475299551700,2.4395517578125,9.881369433158635,8.41067144217491,-19.7809642588377
1761841475309620700,2.449620849609375,8.142077788645029,8.364655540931224,-16.223389850682018
1761841475319690800,2.459690673828125,5.892786119204759,7.343371296486258,-12.4624532628417
1761841475329760800,2.4697607421875,3.758315591686964,6.022866205057501,-9.117110569524764
1761841475339829800,2.479829833984375,1.9896856244862078,5.403260142508149,-6.238950503671169
1761841475349899800,2.489899658203125,0.5826636945992708,5.3457729991793626,-3.595252396903932
1761841475359968800,2.49996875,-0.5175146383404732,5.603039787530899,-1.2223033681347966
1761841475370038800,2.510038818359375,-1.5610089610278606,6.351560399284958,0.7599201037772
1761841475380107800,2.520107666015625,-2.5176193655103445,7.060929150345921,2.663321675647795
1761841475390177800,2.530177734375,-3.2842864593297243,7.091952649641037,4.959252054405212
1761841475400247800,2.540247802734375,-3.898248378512263,6.87931586113274,7.791866174614429
1761841475410316800,2.55031689453125,-4.277884824469686,5.972734100666642,10.895892512905597
1761841475420386800,2.56038671875,-4.498956263846159,5.206749728414416,14.050073167419432
1761841475430455800,2.570455810546875,-4.302145405501127,4.190022416621447,16.735625087314844
1761841475440525800,2.58052587890625,-2.4648563280940055,3.006245763018727,18.140526956307887
1761841475450594600,2.590594482421875,-0.8049106074959039,1.6826760233223437,18.968661203002927
1761841475460664800,2.600664794921875,0.9895535467285662,1.5655799222052096,18.82424922493696
1761841475470734800,2.61073486328125,2.6857494882941246,2.469327336028218,17.880081537920237
1761841475480803800,2.620803955078125,3.290789849874377,3.8642899948090315,16.116416499650477
1761841475490873900,2.630873779296875,3.4719840368926524,5.199741895478963,14.222428798943756
1761841475500942600,2.640942626953125,3.4417940658122297,6.099320499184727,12.252083834743498
1761841475511012900,2.651012939453125,3.143739339998364,6.455014344018697,10.264883597332238
1761841475521081600,2.66108154296875,2.484241996565461,6.47826604026854,8.068416340106726
1761841475531152000,2.67115185546875,1.550688204152137,6.142738200628757,5.540282594844698
1761841475541222000,2.681221923828125,0.24744696673527358,5.562321408173442,2.831761302772164
1761841475551290600,2.69129052734375,-1.044473908309266,5.578752318492532,-0.49319881999045606
1761841475561360400,2.7013603515625,-1.0731657497864215,6.326742768892646,-4.354573511874675
1761841475571429400,2.711429443359375,0.6019890842508524,7.495626389268041,-8.44677911286652
1761841475581499400,2.72149951171875,3.216366769313812,8.717159649813174,-12.85308222745657
1761841475591569200,2.731569091796875,5.840337554565072,8.648913212060927,-17.488527859675884
1761841475601638400,2.741638427734375,7.112657584017515,7.748843609967827,-21.040258217978476
1761841475611708200,2.751708251953125,7.8932918283909554,6.629364948752522,-22.62923655142784
1761841475621777400,2.76177734375,6.63403001795411,5.731463922870159,-21.777401111149786
1761841475631847200,2.77184716796875,4.945552614876628,5.591089822018146,-19.254419926345346
1761841475641916200,2.781916259765625,3.587475625422597,5.555670133590698,-16.041704080754517
1761841475651986400,2.791986328125,2.43301157554388,5.015754862871765,-12.48175885181427
1761841475662056200,2.80205615234375,1.5407878646455704,4.2202673327595,-9.144147045010328
1761841475672125400,2.81212548828125,0.739255793672055,3.6496313450843094,-6.331559813785552
1761841475682195200,2.8221953125,-0.009403203639388083,3.572245323064923,-3.887609203337133
1761841475692264200,2.83226416015625,-0.772308314576745,3.8671167426675557,-1.679390279649943
1761841475702334200,2.842334228515625,-1.639714395082742,4.294323333573341,0.41814416352808476
1761841475712403200,2.8524033203125,-2.7962995287686585,4.623049091982841,2.5322709911972283
1761841475722473200,2.86247314453125,-4.04624347576201,4.572469828346371,5.084381239852309
1761841475732543200,2.872543212890625,-5.011741535577178,3.7054262975424526,8.451378715616464
1761841475742612500,2.882612548828125,-5.4690545109331605,2.72037305790782,12.288110256892441
1761841475752682200,2.89268212890625,-5.129211146181822,1.8656167617470025,16.12772933630347
1761841475762751200,2.902751220703125,-5.735059901535511,1.6103332561671733,19.35195441790223
1761841475772821200,2.9128212890625,-4.5242941187202925,0.4611012617230415,20.951226181828975
1761841475782890200,2.92289013671875,-2.984876811775565,0.3748310915023088,21.339224797940254
1761841475792960300,2.932960205078125,-1.061074403041601,1.629069520819187,20.27971808260679
1761841475803030300,2.9430302734375,0.27711079504974184,3.1343197697460647,18.51139323583245
1761841475813099300,2.953099365234375,0.8985399083077907,4.532793066996335,16.311469116151333
1761841475823169300,2.963169189453125,1.1450894878119229,5.61676377697885,13.794054917824267
1761841475833238300,2.97323828125,1.001278982770443,6.276236570492387,10.985763922488688
1761841475843308300,2.983308349609375,-0.12038811013353988,6.625225364729761,7.690577883481979
1761841475853378300,2.99337841796875,-1.317524029791355,6.876943286782502,3.7243320735424756
1761841475863447300,3.003447265625,-2.00946935236454,7.36343559487164,-0.5376210223019122
1761841475873517300,3.013517333984375,-0.8453671210467815,7.950254071062803,-4.491987593877315
1761841475883586000,3.0235859375,2.0261948617160317,9.244212516349554,-8.131955623081327
1761841475893656300,3.03365625,5.527630618542433,10.784340017390251,-12.212069804263114
1761841475903725000,3.04372509765625,8.497276543438435,11.540889037299156,-16.506797626984117
1761841475913795300,3.05379541015625,10.087094250321387,11.420954497885702,-19.898621500968932
1761841475923865300,3.063865234375,10.718220070272684,10.54002506507039,-21.33332112685442
1761841475933934300,3.073934326171875,10.633644429010152,9.306368236011267,-20.6017498963356
1761841475944004400,3.08400439453125,9.162471806252002,8.867273638913035,-18.040978202319145
1761841475954073000,3.094072998046875,7.477251943665743,8.94285231924951,-14.887116696757078
1761841475964143400,3.104143310546875,5.685089125186205,8.35436854019463,-11.42385372645855
1761841475974212000,3.114212158203125,4.150633824563026,7.3017182666271925,-8.11564804688096
1761841475984282400,3.124282470703125,2.7907214363753794,6.794359111598133,-5.167476287168264
1761841475994352400,3.134352294921875,1.7664719123840331,6.8148179622590535,-2.4979922894984483
1761841476004421000,3.144421142578125,0.773873079675436,7.055718722221255,-0.06187807176411152
1761841476014491400,3.154491455078125,-0.7245533876460045,7.475736862927675,2.380653173405677
1761841476024560000,3.16456005859375,-2.4986019458293915,7.4696180877864355,5.399357874372601
1761841476034630400,3.17463037109375,-4.608883788508177,6.880019625487924,9.414052950182557
1761841476044700200,3.1847001953125,-5.691373320022225,5.04366636762619,13.786520430666208
1761841476054769200,3.19476904296875,-6.213484638503194,3.1736253596961497,18.591091626447437
1761841476064839400,3.20483935546875,-6.942611983001232,1.1986118191629647,22.682435057651997
1761841476074908200,3.214908203125,-5.277250667095184,-1.0577508115768433,24.800398687005043
1761841476084978400,3.224978515625,-3.3928678300797936,-1.6680290738105772,25.03388011062145
1761841476095047200,3.235047119140625,-1.62529701654315,-0.21295418389439583,23.229306723380088
1761841476105117400,3.245117431640625,-0.21642620738651602,2.1056500912249088,20.329360357654092
1761841476115187200,3.255187255859375,0.5186614702880382,4.186163403105735,17.10106115848422
1761841476125256200,3.265256103515625,1.2618243544012306,5.8946904915213585,13.727696485775708
1761841476135326200,3.275326171875,2.046128227198124,7.087233219903707,10.427556039232014
1761841476145395200,3.285395263671875,2.6098458137869835,7.794385463958978,6.919926103940606
1761841476155465500,3.295465576171875,2.2044354596257207,8.194303650444745,2.8880431619644162
1761841476165534200,3.3055341796875,1.801787555915117,8.381565759199857,-1.6777549335330724
1761841476175604200,3.315604248046875,2.4901100118160246,8.773931922870874,-6.066392043051123
1761841476185674200,3.32567431640625,4.1500586550235745,9.287540201422571,-10.16441246780157
1761841476195743200,3.3357431640625,5.113783275425434,9.389397816875576,-13.990612093669176
1761841476205813200,3.345813232421875,5.771610055297613,9.576046762168406,-17.413723086321355
1761841476215882200,3.35588232421875,6.482972026002407,9.494660856857895,-19.296309103047847
1761841476225952300,3.3659521484375,7.505438758230209,8.449635671341419,-19.430309577214718
1761841476236022300,3.376022216796875,7.487994286954402,7.5500488843291995,-17.771946157371996
1761841476246091300,3.38609130859375,6.332552331954241,7.2580182411104435,-15.200945330286025
1761841476256161300,3.396161376953125,5.034400526630878,6.9945070054113865,-12.58549044444561
1761841476266230300,3.406230224609375,3.61729150249362,6.328389951577782,-9.752461898216605
1761841476276300300,3.41630029296875,2.567056473374367,5.56844193688035,-7.125918047606945
1761841476286370300,3.426370361328125,1.6544085447371004,5.415618104299902,-4.771718142971396
1761841476296439300,3.436439208984375,1.0308261259026825,5.602634129339457,-2.6947689533129333
1761841476306509300,3.44650927734375,0.45572724053449926,6.075380236148834,-0.9099771019928157
1761841476316578000,3.456578125,-0.48274713021144267,6.344538537824153,0.7603318263832479
1761841476326648300,3.4666484375,-1.782590541883558,5.8820618960946796,2.824956883454323
1761841476336717300,3.47671728515625,-3.0468033988565204,4.840475452855229,5.555238756436109
1761841476346787300,3.486787353515625,-3.9546120707690715,3.922401992037892,8.411240181973577
1761841476356857300,3.496857421875,-4.049196480348706,3.404896706047654,10.669470944672822
1761841476366926000,3.506926025390625,-3.7816876994460817,2.625005388996005,13.136146304887532
1761841476376996400,3.516996337890625,-3.9046255123287437,1.7025690567940472,15.833352422219514
1761841476387065000,3.527065185546875,-2.926955368682742,-0.1630576418250799,17.4744373750031
1761841476397135400,3.53713525390625,-2.2296428199879825,-1.1078817469239235,18.120966515791416
1761841476407205400,3.547205322265625,-1.8352128556549547,-0.957094973129034,17.374408144021032
1761841476417274000,3.557274169921875,-1.3496147199265658,-0.04825637364685535,15.766147602474689
1761841476427344400,3.567344482421875,-0.7850912237823009,1.3451239843785763,13.943646928876637
1761841476437413000,3.5774130859375,0.09036942223310471,2.24136379905045,12.24188158968091
1761841476447483400,3.5874833984375,0.5765944576881825,3.1256033793270586,10.443675983905791
1761841476457552100,3.59755224609375,0.28439284181669355,4.128561108964681,7.949701113355159
1761841476467622400,3.607622314453125,-0.6086293259829283,4.8881332760870455,4.773541851267218
1761841476477692400,3.6176923828125,-1.1259966648072004,5.61967352694571,0.5453004708886147
1761841476487761200,3.62776123046875,-0.24489940114431083,6.590065204021334,-4.203244301766157
1761841476497831400,3.63783154296875,2.1696932320684192,7.760449876609444,-8.564562611725925
1761841476507900200,3.647900146484375,5.42127393810451,8.254340478256344,-12.586659488224983
1761841476517970400,3.657970458984375,8.279063416102527,7.522220966205,-15.857597221159933
1761841476528040200,3.668040283203125,8.929657322111725,7.153149168881773,-18.167148421251774
1761841476538109200,3.678109130859375,8.670545198154448,6.824957078957557,-19.263955816453695
1761841476548179200,3.68817919921875,7.490835647860169,6.067606679537892,-18.577347178733348
1761841476558248200,3.698248291015625,5.867407932320237,5.6227200550347565,-16.228116294682025
1761841476568319000,3.708319091796875,4.573551778364181,5.267133762228489,-13.239589143705368
1761841476578389200,3.71838916015625,3.2748283106327056,4.958507958039641,-9.965719448971747
1761841476588458000,3.7284580078125,1.8479995642527938,4.7903597150772805,-6.859501153594255
1761841476598528300,3.7385283203125,0.5566694216430187,5.0506975814372295,-4.22172103869915
1761841476608597000,3.748596923828125,-0.5345848694764077,5.642701935833692,-1.840691871587932
1761841476618667000,3.7586669921875,-1.1368977057889103,6.299637904345989,0.34669085602592675
1761841476628736000,3.768736083984375,-1.5838424318656323,6.585500088062882,2.4159718856766816
1761841476638806000,3.778805908203125,-2.636199567705393,6.02978811327517,5.000183784252405
1761841476648876300,3.788876220703125,-3.880833133330941,4.273180592301488,8.043058611488341
1761841476658945000,3.798945068359375,-4.708406239011883,3.0085668994426724,11.003248141252994
1761841476669015300,3.809015380859375,-4.950353293156623,2.226995666480064,13.756702800029515
1761841476679084000,3.819083984375,-4.1731922778517,1.2701005998373032,16.23711091752052
1761841476689154000,3.829154052734375,-2.750271937087178,0.9054027798146009,18.14725597230196
1761841476699223000,3.83922314453125,-1.653588022134453,0.01571487100422382,19.30894646630287
1761841476709293000,3.84929296875,-0.4634253207564354,0.3850654852688312,19.413337399625778
1761841476719363300,3.85936328125,0.4484656520336866,1.9979794055789708,18.15714023745656
1761841476729432000,3.86943212890625,1.1583505359232424,3.968665730562806,16.291576667201518
1761841476739502000,3.879502197265625,1.5818986043214798,5.802180550128221,14.217122509229183
1761841476749571000,3.889571044921875,1.9555659127414224,6.944761269989609,12.283052973502874
1761841476759641000,3.89964111328125,2.17080601561591,7.747352494627237,10.208990445196628
1761841476769711000,3.909711181640625,1.65431619027853,8.347942306539416,7.695618215736746
1761841476779780000,3.919780029296875,0.8308155947335064,8.602174841761588,4.835622167605162
1761841476789850000,3.92985009765625,0.22063903930857776,8.5459631251961,1.7308967411339282
1761841476799919000,3.939919189453125,1.1298645192164927,8.893657203447818,-1.7024381238907575
1761841476809989000,3.949989013671875,2.835775214588642,9.601903087958693,-5.579357883170247
1761841476820059100,3.96005908203125,5.066368028777838,10.505990693521499,-10.14596963313818
1761841476830128000,3.970128173828125,7.407861012053489,10.759765548104047,-14.703480961805582
1761841476840198100,3.9801982421875,9.450977782475947,9.901125103986264,-18.11040654333234
1761841476850267100,3.99026708984375,10.680188738042116,8.159950129944086,-19.590780709677933
1761841476860337000,4.0003369140625,9.99480759629011,7.10938367691338,-19.020424123466015
1761841476870406100,4.01040625,8.890096296095848,6.516175791946053,-16.9320489921689
1761841476880475100,4.02047509765625,6.920018458399176,6.831345903211831,-14.05138483453989
1761841476890545200,4.030545166015625,5.158571096178889,6.427080042910576,-11.174045437419414
1761841476900615200,4.040615234375,3.441821538341045,5.534877520930767,-8.311523670202494
1761841476910684200,4.05068408203125,1.9527170991815626,4.98316601395607,-5.7285226087212555
1761841476920754200,4.060754150390625,0.7773118219524622,4.913617845955491,-3.4215164169371124
1761841476930823200,4.0708232421875,0.009158873489499092,5.270156909441948,-1.2761115306898951
1761841476940893200,4.08089306640625,-0.5358426144525409,5.806692474594712,0.8566383105151355
1761841476950963000,4.090962890625,-1.7083118382297455,6.009582360592484,3.141128865239024
1761841476961032200,4.1010322265625,-3.40553792656064,5.337924039244651,5.764443232408166
1761841476971102200,4.111102294921875,-4.683274135842919,4.4363411099791525,8.966569294923543
1761841476981171200,4.121171142578125,-5.349781065776944,3.5977953593850134,12.83362700088024
1761841476991241200,4.1312412109375,-5.635970581752061,2.7076778269857167,16.600099011015892
1761841477001310200,4.141310302734375,-5.399617986613512,1.6200404111891984,19.462390476608274
1761841477011380200,4.151380126953125,-3.674035718500614,0.048343467408418654,20.518932496917248
1761841477021450000,4.161449951171875,-2.4589167089119552,-0.3110667676001787,20.531062495172023
1761841477031519200,4.171519287109375,-1.102348954977095,1.2148434075176715,19.14460813701749
1761841477041589000,4.181589111328125,-0.38253319031223654,2.7794343186855315,17.362377514487505
1761841477051658200,4.191658203125,0.18690145874917505,4.023684437951445,15.47990255692005
1761841477061728300,4.201728271484375,0.4758098782941699,5.438243777605891,13.187952479970454
1761841477071797200,4.21179736328125,0.37496903866827486,6.696683165743947,10.556916578638553
1761841477081867300,4.2218671875,-0.07303191846311093,7.648547252482175,7.492570508828758
1761841477091937000,4.23193701171875,-0.8376327274024487,8.539830906051396,3.869898774601519
1761841477102006300,4.24200634765625,-0.5581405901741237,8.964998684605956,-0.02523994745761156
1761841477112076000,4.252075927734375,1.603219040247798,9.54323579493463,-3.7421751887470482
1761841477122145300,4.262145263671875,4.954249716073274,10.626046813488006,-7.620804090031981
1761841477132215000,4.272215087890625,7.864937256044149,10.977386554765701,-12.279503756588698
1761841477142285000,4.28228515625,9.506178860694169,10.509504839122295,-16.36735174689293
1761841477152354300,4.292354248046875,10.53351466026306,8.966955663892627,-18.831010974156854
1761841477162424000,4.302424072265625,9.136185856872796,8.448283087688685,-18.96770960136652
1761841477172493300,4.312493408203125,10.46260864791274,7.996917622560262,-18.43459524283409
1761841477182563000,4.32256298828125,9.034848465901613,7.185797054508328,-15.938651702558994
1761841477192633000,4.332633056640625,7.455432326045632,6.62595601709187,-12.976007180857657
1761841477202702000,4.3427021484375,5.945444527202844,6.638221624425054,-10.441750568801163
1761841477212772000,4.352772216796875,3.81790993642807,6.139481244659423,-7.636458170759678
1761841477222841000,4.362841064453125,2.1237683701090515,5.784287750563025,-4.949014738029241
1761841477232911000,4.3729111328125,1.3098615323394536,5.788711412224173,-2.483876378123462
1761841477242981000,4.382981201171875,-0.14181421665772795,6.153061441722512,-0.08344901185277849
1761841477253050000,4.393050048828125,-2.8421318901389836,5.392354717612267,2.6193922252893445
1761841477263120100,4.4031201171875,-5.878285300165414,3.015627339348197,6.348426777434349
1761841477273189000,4.413189208984375,-7.408256148850917,0.7315291449427604,10.249753832739591
1761841477283259100,4.423259033203125,-7.3137611711204045,-0.06491700106859206,13.654833494138717
1761841477293329200,4.4333291015625,-6.606798896679281,0.3374661142259836,16.839208211386204
1761841477303398100,4.443398193359375,-6.833315157458186,0.9770219088703394,18.82001962454319
1761841477313468200,4.45346826171875,-5.461917498660087,-0.33890871424973007,18.747966780245303
1761841477323537200,4.463537109375,-3.6600028092339634,-0.4442044874578714,17.222686135202647
1761841477333607200,4.473607177734375,-2.5923756235480306,1.4849112252533434,15.229930601751803
1761841477343676200,4.48367626953125,-1.2910194692254067,3.17599325787127,13.299172967052458
1761841477353746200,4.49374609375,-0.13611308240666986,4.588423184281587,11.482801589989661
1761841477363816000,4.50381591796875,1.068180435654521,5.465091452521086,9.433482457795739
1761841477373885200,4.51388525390625,1.9247627781987189,6.069769995051622,7.15901250795722
1761841477383955200,4.523955078125,2.40764741718471,5.90634351991415,4.766466798314452
1761841477394024200,4.534024169921875,2.5470208165615795,5.700412366524338,1.9869462626501917
1761841477404094200,4.54409423828125,2.3908768996477128,5.387395633900165,-0.9196990161925553
1761841477414164000,4.5541640625,2.729113413724303,5.10817712598145,-3.923500600929558
1761841477424233200,4.564233154296875,3.290857069891691,5.496636929863691,-6.9416013446539635
1761841477434303000,4.574302978515625,3.8887639263302085,5.704635537177324,-9.86332641146779
1761841477444372200,4.584372314453125,4.542333048757911,5.807130866011977,-12.446689876520633
1761841477454442000,4.59444189453125,5.927889581289887,5.042419582435488,-14.046232858604192
1761841477464512000,4.604511962890625,6.71527096183598,4.208920009315014,-14.59171219319105
1761841477474581200,4.614581298828125,7.06992085057497,3.5986622053474187,-14.145768753111362
1761841477484651000,4.624651123046875,6.234326935523748,3.350093102714419,-12.81456574205756
1761841477494722000,4.63472216796875,5.217994176006317,3.3296751685857773,-10.973923847091198
1761841477504791000,4.644791015625,4.102942683583498,3.2003321648359297,-8.7128961471498
1761841477514861000,4.654861083984375,2.7182214328318834,2.9728613798111674,-6.34769729411602
1761841477524931000,4.66493115234375,1.2456699229359627,2.979414454716444,-4.130473080065846
1761841477535000000,4.675,-0.1282405954658985,3.076944854620099,-1.983974553363025
1761841477545070000,4.685070068359375,-1.486685833710432,2.660288883823156,0.2264207279825583
1761841477555139000,4.69513916015625,-2.8883406836062666,1.7287696659773588,2.7100448483780024
1761841477565212700,4.705212646484375,-3.590179623684287,1.5013438891381023,4.959312844681739
1761841477575282000,4.715281982421875,-4.808444237822294,1.861846595558524,7.318411042752862
1761841477585351700,4.7253515625,-5.63684970267415,1.6479665289908647,9.652574706053734
1761841477595421700,4.735421630859375,-5.2765165076017375,1.7920593581050632,11.740725380945205
1761841477605490700,4.74549072265625,-5.142291577029228,1.9419950680285691,13.742113133662938
1761841477615560700,4.755560791015625,-4.4886178251832725,0.7773018850803375,15.036671298408507
1761841477625629700,4.765629638671875,-3.766776546040177,-0.0012058686584234238,15.565221710026263
1761841477635699700,4.77569970703125,-2.718990663638711,0.5284276620209217,14.995055677950381
1761841477645769700,4.785769775390625,-1.7745177100650966,1.4446025957405566,13.811401189422607
1761841477655838700,4.795838623046875,-1.1535003194130957,2.392815174233913,12.28630642234087
1761841477665908700,4.80590869140625,-0.7185026362396776,3.2318577684342857,10.632686982154846
1761841477675977700,4.815977783203125,-0.4361054982848465,4.024605059927702,8.595242996671795
1761841477686047700,4.8260478515625,-0.22464739816710352,4.909873398730158,6.207171802094578
1761841477696117800,4.83611767578125,0.07329495331346988,5.568530784207582,3.3220261151373385
1761841477706186800,4.846186767578125,0.7357032888222486,6.056808806669712,0.1829503830358386
1761841477716256800,4.8562568359375,1.519559929308295,6.353096522811055,-3.0145035960152744
1761841477726325800,4.86632568359375,2.90245279558897,6.910316564074158,-6.46727995135188
1761841477736395800,4.876395751953125,3.898675664013624,7.539433382290602,-9.85424411034584
1761841477746465800,4.8864658203125,5.316880082172155,7.794527502778172,-12.651950583302973
1761841477756534800,4.89653466796875,7.287016956579685,6.689450876402854,-14.630185423970222
1761841477766604500,4.9066044921875,7.570240023964643,6.162087628743052,-15.369911903893946
1761841477776673800,4.916673828125,8.010496066057682,5.493376466763019,-14.996390725946425
1761841477786743800,4.926743896484375,7.838778732436895,4.744706801927089,-13.405702081447838
1761841477796813800,4.936813720703125,6.930919207119941,4.527617125663161,-11.336958702337741
1761841477806882800,4.9468828125,5.944319322565198,4.302188660120964,-9.247060891517997
1761841477816952800,4.956952880859375,4.5455245382755995,3.714782154908776,-7.013473571687936
1761841477827021800,4.967021728515625,3.1199399467378854,3.441213635575771,-4.97244062180221
1761841477837091600,4.977091552734375,1.7589355255298316,3.401962990683317,-2.9622832871735096
1761841477847161900,4.987161865234375,0.675011869559437,3.295512202221155,-0.9377955216363072
1761841477857230600,4.997230712890625,-0.8315745964072644,3.5418408324509856,1.249188744711876
1761841477867300900,5.00730078125,-2.7126015471234917,2.9639632030844685,3.9495463118121026
1761841477877369600,5.01736962890625,-4.418473444855213,2.166019511991739,7.197836451870202
1761841477887439600,5.027439697265625,-5.295821512052417,1.9768460166573523,10.340457601493597
1761841477897508900,5.0375087890625,-5.594481218022108,1.654723017513752,13.158125496983528
1761841477907578600,5.04757861328125,-5.761802947032451,1.0674170500665903,15.343082349157333
1761841477917649000,5.05764892578125,-4.211069296303391,-0.4296528150141239,16.079625522869826
1761841477927717600,5.067717529296875,-2.7705741358816622,-1.477595933803916,16.06145507540703
1761841477937787600,5.07778759765625,-1.5247729877814649,-0.7460486686825751,15.004291123807429
1761841477947856600,5.087856689453125,-0.8438554013095796,0.5626917506724596,13.269317927014827
1761841477957926700,5.0979267578125,-0.4077646622024476,1.7143237919956444,11.271924796891211
1761841477967997000,5.107996826171875,-0.015296937853097915,2.702531696268916,9.224979408091306
1761841477978065700,5.118065673828125,0.44700770831033587,3.6788819894880054,6.774378399842977
1761841477988136000,5.128135986328125,0.7969225313514471,4.028349507153034,4.1098605001479385
1761841477998204700,5.13820458984375,1.0248685326725244,4.05679760300219,1.1798698554225264
1761841478008274700,5.148274658203125,1.4557329154334961,4.401388454541563,-1.7945733867526052
1761841478018345000,5.158344970703125,2.04474071836248,4.86708756544888,-4.916352823877334
1761841478028413700,5.16841357421875,2.5713503711760044,4.951809921705722,-7.818769379109144
1761841478038484000,5.17848388671875,3.3937633176147934,4.587931601372361,-10.372034643018246
1761841478048552700,5.188552734375,3.629635435760021,4.235387160480022,-12.18697394145131
1761841478058622700,5.198622802734375,4.081628385137021,3.738188164937496,-13.10839905078411
1761841478068692700,5.208692626953125,3.7305467102736234,3.427513611525297,-13.182919746500254
1761841478078761700,5.21876171875,3.386479590347409,3.2147733626425263,-12.437007855939864
1761841478088831700,5.228831787109375,2.990132832607627,3.033649902772903,-10.936181268674135
1761841478098900700,5.238900634765625,2.841566072949767,2.9076112012654542,-9.18405293894112
1761841478108970800,5.248970703125,2.4997061076790095,2.9213597406327723,-7.269199560338258
1761841478119040800,5.259040771484375,2.1254215441435576,2.763811802139878,-5.276333552250266
1761841478129109800,5.26910986328125,1.6702034952402114,2.549280578187108,-3.209872731119394
1761841478139179800,5.2791796875,1.1047862651266156,2.2591005312711,-1.1191276558205485
1761841478149248800,5.289248779296875,0.18417802513465284,2.0070809959232805,0.8926379177223891
1761841478159318800,5.29931884765625,-1.0201412118896842,1.7105080330997704,3.0119316997006536
1761841478169388800,5.309388916015625,-2.0129241689935324,0.8369809854954481,5.381358107301592
1761841478179457800,5.319457763671875,-2.673512230272591,0.49881695213317867,7.8710092694342135
1761841478189527800,5.32952783203125,-2.934081859561801,0.6125514678627252,10.013444492220877
1761841478199596500,5.339596435546875,-3.5006823081105947,0.6659884590178727,11.962304769843817
1761841478209666800,5.349666748046875,-4.267504884752631,0.21904256389737128,13.399654617977141
1761841478219736800,5.35973681640625,-3.4861686295896765,-0.428462728446722,13.64091368985772
1761841478229805800,5.369805908203125,-2.829322092926502,-0.8875818764418363,13.048002742010354
1761841478239875800,5.379875732421875,-2.0981290480703114,-0.4704688095271587,11.798655007344484
1761841478249944600,5.389944580078125,-1.3125203762851654,0.535626049092412,10.37967317507267
1761841478260014800,5.400014892578125,-0.8372751461364328,1.515461261817813,8.641862709027528
1761841478270084900,5.4100849609375,-0.6797079184211791,2.704914792013168,6.394381888401508
1761841478280153900,5.42015380859375,-0.5573018012624233,3.6732629805624484,3.7243206753656266
1761841478290223900,5.430223876953125,-0.134188617150113,4.315052233347297,0.6972030969709158
1761841478300292600,5.440292724609375,0.9115992233019322,4.7780379936426876,-2.2658310085698963
1761841478310363000,5.45036279296875,2.5097540389627215,5.110835531535744,-5.087376914536953
1761841478320432600,5.4604326171875,4.327735189309716,5.029531459289789,-7.620703552266955
1761841478330502000,5.470501953125,4.882964349016547,4.57715301772654,-9.802720259335636
1761841478340572000,5.480572021484375,4.189145633786916,4.871790628573298,-11.743023721015453
1761841478350641000,5.490640869140625,3.2586855696052313,5.205011944836378,-13.00071609017849
1761841478360711000,5.5007109375,2.984627220928669,4.611475558567047,-12.973900563967227
1761841478370780700,5.51078076171875,3.4011288779467344,3.68851607927382,-11.612312936043738
1761841478380850000,5.520849853515625,3.737655080974102,3.810981013947725,-9.916065483486651
1761841478390919700,5.530919677734375,3.904397548791766,3.7817128338873385,-8.230340593987703
1761841478400989000,5.540989013671875,3.5700007590085265,3.2935219051867723,-6.3930480094492435
1761841478411058700,5.55105859375,3.0815035408377645,2.7198247763752934,-4.589118765330315
1761841478421128700,5.561128662109375,2.621774736511707,2.395005377754569,-2.854296375185251
1761841478431197700,5.57119775390625,2.179485142764449,2.3165642937242983,-1.2144428638927638
1761841478441267700,5.581267822265625,0.9042254065982996,2.2387188374996185,0.6780888658519834
1761841478451337000,5.5913369140625,-0.29840996899232264,1.6683417930215596,2.7947718808099626
1761841478461406700,5.60140673828125,-1.1260340742081403,0.8775573260337114,5.430946021813154
1761841478471476700,5.611476806640625,-1.1410060178905725,0.20734569636285305,8.077000044056772
1761841478481545700,5.621545654296875,-1.714259494587779,0.21686112820506095,10.288616355097293
1761841478491615700,5.63161572265625,-2.5915344965487717,0.4988999542415142,11.75753973762393
1761841478501684700,5.641684814453125,-3.105081400302052,-0.19382395148873327,12.32051030523777
1761841478511754800,5.651754638671875,-3.270968712595105,-0.3545551961928606,12.262496507686375
1761841478521824800,5.66182470703125,-2.3825053771436213,-0.3449257825821638,11.340468171763419
1761841478531893800,5.671893798828125,-1.9402321500092743,-0.3253326088398695,10.085365234571695
1761841478541963800,5.6819638671875,-1.50690619944036,0.5229635513961315,8.486941611906886
1761841478552032800,5.69203271484375,-1.0836164897173644,0.9586194062173365,6.863859348803758
1761841478562098400,5.702098388671875,-0.8060176919549703,1.3072323528796435,5.2266351631015535
1761841478572168700,5.712168701171875,-0.6156009185612201,1.6171885288894174,3.543696397189796
1761841478582237400,5.722237548828125,-0.3077519439637661,1.820680472433567,1.5476988130778073
1761841478592307500,5.732307373046875,-0.3186788500390947,2.590911396214366,-1.047239938956499
1761841478602376400,5.74237646484375,-0.4076676315687597,3.8755665911048647,-3.762940621139109
1761841478612446500,5.752446533203125,1.141667112147808,3.69038070410192,-6.274736102801561
1761841478622516700,5.762516845703125,2.2735715396940708,3.528932251039147,-8.577895556029677
1761841478632585500,5.77258544921875,3.860909120199084,4.078686778727174,-10.814655660676955
1761841478642655500,5.782655517578125,4.8724587370932095,4.739717323076725,-12.357861253988743
1761841478652725500,5.7927255859375,5.105357392385602,4.447912305307388,-12.657106066370009
1761841478662794500,5.80279443359375,4.754080779471993,3.582530570235848,-11.602478939771652
1761841478672864500,5.812864501953125,4.247527680128813,3.6447470801740884,-9.723056355512142
1761841478682933500,5.82293359375,3.5813767240256067,4.04327644264996,-7.513051571321487
1761841478693003800,5.833003662109375,2.9943945817053317,3.8717327120304104,-4.978030404633284
1761841478703073500,5.843073486328125,2.2315281953431665,3.4869600722283125,-2.610402278625965
1761841478713142500,5.853142578125,1.3939936676181852,3.4537171433180567,-0.8336787290796637
1761841478723212500,5.863212646484375,0.6463982078850269,3.5091029304534196,0.7415474848058075
1761841478733281500,5.873281494140625,-0.30619170890972014,2.9727848074436185,2.734510888853669
1761841478743351600,5.8833515625,-0.942485286887735,1.9581559292346238,5.536156454825401
1761841478753421600,5.893421630859375,-1.3496066827505826,1.1400099925905465,8.527470021650194
1761841478763490600,5.903490478515625,-1.7341688946723937,0.44872927140593527,10.98874732221365
1761841478773560600,5.913560546875,-1.6905054017737506,0.14845862310826777,13.02079909326434
1761841478783629600,5.923629638671875,-2.1802682559661566,0.2891670704811811,14.261605794078111
1761841478793699600,5.933699462890625,-1.5513134964436293,0.1506798062890768,14.35627612837553
1761841478803768600,5.9437685546875,-0.31121348259449005,-0.3169821291238069,13.500933556759357
1761841478813838600,5.953838623046875,0.0939028570562601,0.06421966645419597,12.19768121342659
1761841478823908600,5.96390869140625,0.1145227434977889,0.8252168979436159,10.580593222302198
1761841478833977300,5.973977294921875,0.037328736919164655,1.6296633950591086,8.672605053293704
1761841478844047600,5.984047607421875,-0.170350575312227,2.105990867486596,6.552786151462793
1761841478854117600,5.99411767578125,-0.22706088904961944,2.3573259277015923,4.08936131747663
1761841478864186600,6.0041865234375,0.056756052575260396,2.2820821784079075,1.596929876975715
1761841478874256600,6.014256591796875,0.09269421191886067,2.2517519220739604,-0.8965440583154559
1761841478884325600,6.02432568359375,0.2497815471626818,2.8201012601166964,-3.6472193155065176
1761841478894395600,6.034395751953125,0.8934035683326422,3.558638822516799,-6.3026183814615
1761841478904465400,6.04446533203125,1.9117536590218542,4.090853601861,-8.840589630126953
1761841478914534700,6.05453466796875,2.9483009390503168,4.603378176829219,-11.09193764757514
1761841478924604700,6.064604736328125,3.3808868849068876,5.075319981518388,-12.803161719989776
1761841478934673700,6.074673583984375,3.967018547877669,4.512070012441277,-13.609280534231662
1761841478944743700,6.08474365234375,3.8943461103767154,4.352376878613233,-13.39650638307929
1761841478954813400,6.0948134765625,4.255554919239878,4.2117917653590435,-12.13233049711585
1761841478964882700,6.104882568359375,4.05677948282361,3.7680624941974874,-10.280497346049547
1761841478974952400,6.114952392578125,3.889195888006687,3.399111108383536,-8.374927928620576
1761841478985021700,6.125021728515625,3.505004262962937,3.312603037753701,-6.4825926712960005
1761841478995091500,6.135091552734375,2.9963620823860166,3.4369343508213754,-4.68665764080137
1761841479005161500,6.145161376953125,2.450727849498391,3.893599091401696,-3.07969415332824
1761841479015230700,6.155230712890625,1.8337059582233428,4.520847193136811,-1.591053386157751
1761841479025300500,6.165300537109375,1.59047222526893,5.160189637291431,-0.12018672407623379
1761841479035369700,6.17536962890625,1.2893337080955505,5.310279076471924,1.5069725426748395
1761841479045439500,6.185439453125,0.6301916078411043,4.811459786251187,3.6144910581201315
1761841479055509500,6.195509521484375,0.18974632678627967,3.5955098787963387,5.950505317723751
1761841479065578500,6.20557861328125,-1.1841095388188958,2.094321472480893,8.85424639955759
1761841479075648500,6.2156484375,-2.7878844593837857,0.6740063457787037,11.877466093730925
1761841479085717500,6.225717529296875,-3.384702936063707,-0.5577665692299604,14.347745615917443
1761841479095787500,6.23578759765625,-3.6006691612556576,-0.5233265394896268,15.96006507746577
1761841479105857500,6.245857421875,-2.980356119480729,0.08473930739164352,16.3402451287806
1761841479115926500,6.255926513671875,-1.6333809542775153,0.35703473804891106,15.388188734340666
1761841479125996500,6.26599658203125,-0.6747472272738814,0.37064825285971165,13.610483480280637
1761841479136066600,6.276066650390625,0.19605624058544635,1.0922826112538575,11.599780786728859
1761841479146135600,6.286135498046875,0.40711481999158855,2.2093711624622343,9.223246300688386
1761841479156205600,6.29620556640625,0.20341683248132467,3.3256986661702395,6.65738166744709
1761841479166274600,6.306274658203125,0.04471680134385824,3.7136236325234173,3.9529070204168555
1761841479176344600,6.316344482421875,0.2340317509755492,3.7014433653861283,0.9610261750981212
1761841479186414600,6.32641455078125,0.8516860949352383,3.773738786268234,-2.088681420767307
1761841479196483600,6.336483642578125,1.7323346649825573,4.021283222028613,-5.282316718313098
1761841479206553300,6.34655322265625,2.3588293180018662,4.030288366261124,-8.301847494840622
1761841479216622600,6.35662255859375,2.9611767872363326,3.9058196905493734,-10.811369478613138
1761841479226692400,6.3666923828125,3.2825705953225492,3.9123973153740166,-12.659841628813743
1761841479236762600,6.3767626953125,3.5354765581160783,3.656263914966583,-13.890405168032645
1761841479246831600,6.38683154296875,3.533469894468784,3.695757136443257,-14.566395381104945
1761841479256901400,6.3969013671875,3.4833901047870515,3.4759453417390582,-14.261087907683848
1761841479266970600,6.406970703125,3.427002154871821,3.066392480945587,-12.912879985815286
1761841479277040400,6.417040283203125,3.4110827012062073,3.0881741046428677,-11.089641645592451
1761841479287110700,6.427110595703125,3.028484482833743,3.000166150844097,-8.923685261964797
1761841479297179400,6.437179443359375,2.2187594607934353,2.808665089344978,-6.856924581104517
1761841479307249700,6.447249755859375,1.3766530951082705,3.3587177231967447,-4.963032741987705
1761841479317318400,6.457318359375,0.8029667799517511,4.095100153389573,-3.077348759245872
1761841479327388400,6.467388427734375,0.45080987707227466,4.582283950874209,-1.2702503835715353
1761841479337458700,6.477458740234375,-0.022694646888971326,4.8007279643565415,0.4842012745425105
1761841479347527400,6.48752734375,-0.5652575095072389,4.564088953492045,2.2504430314324795
1761841479357597700,6.49759765625,-1.072762502747774,3.8971243429183957,4.884473876796663
1761841479367667500,6.50766748046875,-2.2328251032859088,2.7580495853513476,8.44746943321824
1761841479377736400,6.517736328125,-3.1101041969001293,1.3444488615959882,12.189610135173798
1761841479387806700,6.527806640625,-3.3656805479466914,0.54506666213274,15.238540609186886
1761841479397875500,6.53787548828125,-2.521661918899417,-0.4763964460104704,17.077800694406033
1761841479407945700,6.54794580078125,-0.8905372191160916,-0.8223591704249381,17.368778029179573
1761841479418015500,6.558015380859375,0.5241894399292767,0.1941939538449049,16.23166901872754
1761841479428084700,6.568084716796875,1.4618274329163132,1.9037106378197668,14.207992277312277
1761841479438154500,6.578154541015625,1.9058938270777463,3.494888527140021,11.802176167207955
1761841479448223500,6.588223388671875,2.5325688051000235,4.395444451445341,9.302508053451776
1761841479458293500,6.59829345703125,2.7246932591944932,4.597703053802252,6.809966430574655
1761841479468363500,6.608363525390625,2.606799285697937,4.321912766766548,4.21080129301697
1761841479478432800,6.618432861328125,2.1242451938405633,3.8252380873590703,1.5655897129468619
1761841479488502500,6.62850244140625,1.6613626016587018,3.3119612327188253,-1.3686194262564182
1761841479498571500,6.638571533203125,1.6925879071362315,3.1865473851114507,-4.378431357324123
1761841479508641500,6.6486416015625,1.9194151335604488,3.6136762346059084,-7.326405548638105
1761841479518711600,6.658711669921875,2.791396851418912,4.0823774499386545,-10.002746572595834
1761841479528780500,6.668780517578125,3.939418008768558,4.141141773596406,-11.892217088139056
1761841479538850600,6.6788505859375,4.6456113446637985,4.172886572903394,-13.132301319897174
1761841479548919600,6.68891943359375,4.759806171381474,3.956082143321633,-13.77821671270132
1761841479558989600,6.698989501953125,3.7716099575459956,4.031570807287097,-13.492213659209012
1761841479569059600,6.7090595703125,2.8760820905357596,4.190796323603392,-12.29857670584917
1761841479579128800,6.71912890625,2.3222794565007088,3.974797949707508,-10.405657511156797
1761841479589198600,6.729198486328125,2.0109777111008764,3.79733827304244,-8.15520439672172
1761841479599268600,6.7392685546875,1.7533827137082814,3.8254812484651803,-6.007760405862331
1761841479609337600,6.749337646484375,1.4042708776131272,3.8418835172116754,-3.84629490391314
1761841479619407600,6.75940771484375,1.0021838226556778,3.7673166442662476,-1.7823966267466544
1761841479629476600,6.7694765625,0.4079170762851834,3.6122453250199555,0.4583334044449031
1761841479639546600,6.779546630859375,-1.0865408527314662,2.6851228808283802,3.1225270406216383
1761841479649616600,6.78961669921875,-2.39222480712533,1.3564742304325104,6.409338634514809
1761841479659685600,6.799685546875,-3.1034944233715533,0.3668780866712332,9.821730664753913
1761841479669755600,6.809755615234375,-3.227753255724907,0.03747545191347599,12.861805632138251
1761841479679824600,6.81982470703125,-2.973192511461675,-0.8728203606396913,14.891889902508257
1761841479689894700,6.829894775390625,-1.9210951956018805,-1.515927125763893,15.475132858300208
1761841479699964400,6.83996435546875,-0.8726686772093176,-0.8508236328870058,14.983498511147499
1761841479710033700,6.85003369140625,-0.1164244854658842,0.47645840533077716,13.702088581788539
1761841479720103700,6.860103759765625,0.28193507340103385,1.601941275396943,11.999269934147595
1761841479730172700,6.870172607421875,0.6378346699401736,2.547340550035238,10.09678562325239
1761841479740242700,6.88024267578125,1.115894665248692,3.2724843778550623,8.121816506382823
1761841479750312400,6.8903125,1.3315876264572142,3.5067771178543565,6.218997264444828
1761841479760381700,6.900381591796875,1.3275219844534993,3.2464579561948774,3.98576007322669
1761841479770451500,6.910451416015625,0.7064584165722131,3.082478523349762,1.1628931477889417
1761841479780520700,6.920520751953125,0.2794172453612089,2.95338627949059,-1.857254883854091
1761841479790590500,6.930590576171875,0.6210065769970416,2.9765871223360296,-4.930566058146954
1761841479800660700,6.94066064453125,1.4851849276281892,3.5110090563356873,-7.97898098385334
1761841479810729700,6.950729736328125,2.3526871619850396,4.294655342006683,-10.635230821418762
1761841479820799500,6.960799560546875,3.4656945813596245,4.784176058006286,-12.771663004398345
1761841479830869800,6.970869873046875,4.590495314380527,4.906646253377199,-14.246630343264341
1761841479840938500,6.9809384765625,4.945224113574624,4.77967348589003,-14.59870775116682
1761841479851008800,6.9910087890625,4.709377129870653,4.363906572887301,-13.695403989458084
1761841479861077500,7.001077392578125,4.196209580823779,4.180468990856409,-11.96807867707014
1761841479871147500,7.0111474609375,3.4135511371463534,4.160906212252378,-9.91373791732192
1761841479881217800,7.0212177734375,2.6362933834686872,3.896653802797198,-7.555286784982681
1761841479891286500,7.03128662109375,2.079869168758392,3.856774796873331,-5.23967876906991
1761841479901356800,7.041356689453125,1.6802013037718833,4.161525220933556,-3.189235309021175
1761841479911425500,7.051425537109375,1.1973692717559634,4.544850000014901,-1.447903829243034
1761841479921495600,7.06149560546875,0.5540644998416304,4.871979429143667,0.12751703043170273
1761841479931565600,7.071565673828125,-0.307672887378186,4.82518085308969,2.080938259294629
1761841479941634600,7.081634521484375,-0.930509164020419,4.358997758057713,4.567354385028779
1761841479951704800,7.091704833984375,-1.5295675285816193,3.767655666962266,7.828912002938985
1761841479961774600,7.101774658203125,-2.2587533252686263,2.8361843799114226,11.542397103774547
1761841479971843800,7.11184375,-2.076046833991259,1.4913485648244618,14.459219785499572
1761841479981913600,7.12191357421875,-1.2220984932124614,0.13364742294549942,16.314041012465953
1761841479991982600,7.131982666015625,0.10245265873670577,-0.08218202412426472,17.099171983736753
1761841480002052600,7.142052490234375,1.6569734267890452,0.4674111755222082,16.916283267760274
1761841480012122600,7.15212255859375,2.622518832877278,1.9234657241255044,15.679361299425363
1761841480022191600,7.162191650390625,2.9929341537639496,3.229624894815683,13.955154995840788
1761841480032261600,7.17226171875,2.939246110457182,3.9302842697203157,11.885672781062125
1761841480042330600,7.18233056640625,2.6306945405483244,4.30917077409327,9.64361106287539
1761841480052400600,7.192400634765625,1.8918276000633836,4.428710176709294,7.295786538490653
1761841480062470700,7.202470703125,0.8850614180535078,4.258438365721703,4.7365065443366765
1761841480072539600,7.21253955078125,-0.15933423738777636,4.078810697367787,2.0045777809306977
1761841480082609700,7.222609619140625,-0.7374132345452904,3.656439856055379,-0.7705407203823328
1761841480092678700,7.2326787109375,-0.590641833871603,3.561542142742872,-3.6273514164760705
1761841480102748700,7.242748779296875,0.3606955986440182,4.112874295011163,-6.6911746314555405
1761841480112818700,7.252818603515625,1.3926920835003256,4.9061459026396275,-10.149039542102813
1761841480122887700,7.2628876953125,2.7066227649748322,5.764283657932281,-13.542919764095544
1761841480132957700,7.272957763671875,3.9699984404712914,5.839469539558887,-16.274515642285348
1761841480143027500,7.28302734375,4.86149310644269,5.375055207765102,-17.54000787154436
1761841480153096700,7.2930966796875,4.920848381730914,4.84756102720201,-17.189208228492735
1761841480163166500,7.30316650390625,4.415691120660305,4.45872596026659,-15.326874726200103
1761841480173235700,7.313235595703125,3.7936674755752082,4.346237060683966,-12.932730349189042
1761841480183305700,7.3233056640625,2.8772610711872577,4.326238813272118,-10.19447559763193
1761841480193375500,7.33337548828125,2.229859969870001,3.9295623851865527,-7.420584300026297
1761841480203444700,7.34344482421875,1.9936779089927672,3.912176366099715,-4.798048808275163
1761841480213514500,7.353514404296875,1.7708005892381071,4.062805903506279,-2.47086258277148
1761841480223583700,7.363583740234375,1.4532587804049253,4.337455203813314,-0.44450332427397365
1761841480233653500,7.373653564453125,0.9223696967065333,4.5704736860930915,1.6902645787551998
1761841480243723500,7.3837236328125,-0.21262568259239195,3.971106693974137,4.145831392717361
1761841480253792500,7.39379248046875,-2.097061126577854,2.5189994216918943,7.4753282821267835
1761841480263862500,7.403862548828125,-3.3674972419798372,1.0646855792760848,11.483894645923375
1761841480273932800,7.413932861328125,-3.686301910355687,0.3202110280424356,15.092828654438255
1761841480284001500,7.42400146484375,-3.398199254235625,-0.6333405733913183,17.483921827185153
1761841480294071600,7.434071533203125,-2.4319234880462286,-1.7727689667016266,18.2728814168334
1761841480304140500,7.444140625,-0.8600570329174398,-1.082775947239995,17.268960395121574
1761841480314210600,7.45421044921875,0.35307694033384324,0.6736410195976495,15.383804820168017
1761841480324280800,7.46428076171875,1.2847574862211941,2.5314035607129335,12.969900096154213
1761841480334349600,7.474349609375,1.8189977800436317,4.154461858418584,10.300179367119073
1761841480344419800,7.484419921875,1.896216044280678,5.133963893666863,7.618763524115085
1761841480354488600,7.494488525390625,1.6781515316352247,5.38531765858233,4.789031096822023
1761841480364558600,7.50455859375,1.5386967375852167,5.229710332763195,1.6868556470945477
1761841480374628600,7.514628662109375,1.3074039100542665,4.879904961445927,-1.6689076102107763
1761841480384697600,7.524697509765625,1.8846628230005502,4.361143537914753,-5.149148018795252
1761841480394767600,7.534767578125,3.130253835481405,4.09115170802474,-8.570802967420219
1761841480404837600,7.544837646484375,4.175837239402532,4.622973688659072,-11.50220304055214
1761841480414906600,7.55490673828125,4.960051095828414,5.168015800872444,-13.759474602830409
1761841480424976600,7.5649765625,4.999256732535362,5.219307012170553,-14.988240152716635
1761841480435045600,7.575045654296875,4.357030257377028,4.968295777082443,-15.023068304991721
1761841480445115600,7.58511572265625,3.459252565613389,4.841372693955898,-13.967035987770556
1761841480455185700,7.595185546875,2.4939538277626037,4.658693821337819,-12.177531574845313
1761841480465254700,7.605254638671875,1.7767194578930734,4.488672770240902,-10.270713618659972
1761841480475324700,7.61532470703125,1.1507152187392116,4.335680595356226,-8.111977249413728
1761841480485393400,7.625393310546875,0.9386460009858012,4.066101437920332,-5.9486214036732905
1761841480495463700,7.635463623046875,0.9438219423189759,3.999951095664501,-3.953261240682006
1761841480505533700,7.64553369140625,0.923843860912323,4.182822860506176,-2.028017839359492
1761841480515602700,7.655602783203125,0.621332447950542,4.337078187194466,0.11665588306896388
1761841480525672700,7.665672607421875,-0.29933599779605863,3.8853830517202614,2.8185747812017796
1761841480535742500,7.675742431640625,-1.23239119303748,2.8354911369502545,6.124142221230268
1761841480545811700,7.685811767578125,-2.268519955392927,1.560512117421627,9.882146847271919
1761841480555881700,7.6958818359375,-1.8844504954241215,0.882972336819768,12.952806338012218
1761841480565951200,7.705951171875,-1.2251286546885967,0.2753530646622181,15.030564213705063
1761841480576021200,7.716021240234375,-0.22532208255827427,-0.5867074170321226,15.987348221188782
1761841480586091000,7.726091064453125,0.8489081546545029,-0.4473866246253252,15.714188282656668
1761841480596160300,7.73616015625,1.6638117483764885,0.43810850867033,14.592410112327336
1761841480606230000,7.74622998046875,1.9280705875724553,1.2164233701854943,13.232674249750374
1761841480616299300,7.75629931640625,1.814652590446174,2.0829308944165708,11.508341689437627
1761841480626369300,7.766369384765625,1.407758719728887,3.0561767918795346,9.526106380957364
1761841480636439000,7.77643896484375,0.877014451328665,3.6223382644891737,7.452537189126014
1761841480646508300,7.78650830078125,0.3916999548472464,3.817631704008579,5.128589799413085
1761841480656578000,7.796578125,-0.05665419963598251,3.9134775118261573,2.3884303832784295
1761841480666647300,7.806647216796875,-0.27801892287060614,4.238334904369712,-1.0998936707794666
1761841480676717000,7.816717041015625,0.8095313991643488,4.780473696357012,-4.9668882483720775
1761841480686787000,7.826787109375,2.9551293237656355,5.318273582357168,-8.854906324771045
1761841480696856000,7.83685595703125,5.2757893623709675,5.840113682681322,-12.677985188269615
1761841480706926000,7.846926025390625,6.397067766484618,6.118732471141219,-15.415602810966968
1761841480716996000,7.85699609375,6.120772452536225,5.866055348667502,-16.35959397237301
1761841480727065000,7.867065185546875,5.506980629223585,5.380857172042131,-15.962214948976039
1761841480737135000,7.877135009765625,3.8035628466457125,5.436295566147566,-13.778264643496275
1761841480747204000,7.8872041015625,2.6747017323181033,5.306074610519409,-11.188847869753836
1761841480757274000,7.897274169921875,1.9814276453591881,5.19118858666718,-8.350053015083073
1761841480767344000,7.90734423828125,1.4685072029411792,4.706753211107849,-5.627478647738695
1761841480777413000,7.9174130859375,1.1111305195868015,4.251909256213903,-3.11990282959789
1761841480787483100,7.927483154296875,0.9858180865272879,3.8610125805735587,-0.8220254814911633
1761841480797552000,7.93755224609375,0.6070902798473835,3.411079194074869,1.4379294015869497
1761841480807622100,7.9476220703125,-0.465371194127202,2.5726661299496887,4.205752485194802
1761841480817692200,7.957692138671875,-2.0044317965887486,0.9887748905062674,7.674231144315004
1761841480827761200,7.96776123046875,-2.4934917632088065,-0.35133623414635656,11.14527293192148
1761841480837831000,7.977830810546875,-2.586227914573252,-0.05104103592932224,14.119789093202352
1761841480847901200,7.987901123046875,-2.4068752637684345,-0.5398761077523231,16.241055271232128
1761841480857970200,7.99797021484375,-1.6139236818745732,-1.0979665021091698,16.886497201305627
1761841480868040200,8.008040283203124,-0.29231793572753667,-0.739116823592782,16.09087756924629
1761841480878108000,8.01810791015625,0.8567267194509506,0.16393676274716854,14.58865280562043
1761841480888178200,8.02817822265625,1.5409464162081479,1.327559686115384,12.719162417310475
1761841480898247200,8.0382470703125,1.7198831796884535,2.1082091280579567,10.749869592511653
1761841480908317200,8.048317138671875,1.4630658886700867,2.6125994964092967,8.712796193906664
1761841480918386200,8.05838623046875,0.5679081701464951,3.2196482752025126,6.452633001840114
1761841480928456200,8.068456298828124,-0.605276508423686,3.918090558579564,3.602323065942526
1761841480938526200,8.078526123046874,-0.8300330660536884,4.146961273530126,0.5114715587839483
1761841480948595000,8.088594970703125,0.02196867070198059,3.986567882478237,-2.300259932394326
1761841480958665200,8.098665283203125,2.012988320270926,3.8997880091696975,-4.972905901226401
1761841480968735200,8.1087353515625,3.8113007474213836,4.19842667235136,-7.337545366811752
1761841480978804200,8.11880419921875,4.930494161954522,4.508713103228807,-9.396935226643086
1761841480988874200,8.128874267578125,5.339150950691104,4.333613725954294,-10.921534319162369
1761841480998943000,8.13894287109375,4.840782911369204,4.028491545972228,-11.60455165439248
1761841481009013200,8.14901318359375,3.5816520338356495,3.618682080069184,-11.181411582273244
1761841481019083000,8.1590830078125,2.3111536668524146,3.115552525433898,-9.708010177549719
1761841481029152300,8.16915234375,1.3580468865767121,2.9238509729266164,-7.927507986247539
1761841481039222300,8.17922216796875,0.5001338799506425,2.920003649848699,-6.075023677796125
1761841481049291000,8.189291015625,0.04344079005867243,2.7021172702491283,-4.322602502596378
1761841481059361300,8.199361328125,-0.3117708242163062,2.4773832167118788,-2.6372847325935957
1761841481069431000,8.20943115234375,-0.5493745884597301,2.167039502689242,-0.7323666186802089
1761841481079500300,8.219500244140624,-0.7497238500639796,1.7711019102722405,1.62966105697155
1761841481089570000,8.229570068359376,-1.2666583504289388,1.050405124989152,4.379003604254127
1761841481099640000,8.23964013671875,-1.5280562472358346,-0.039376901620626445,7.2747174469769
1761841481109709000,8.249708984375,-1.4976394816622136,-0.775907800373435,9.896661694836617
1761841481119779000,8.259779052734375,-1.5954083664968608,-1.6847423082023858,11.742122388261556
1761841481129848300,8.269848388671875,-1.5830451440081,-2.685698050367832,12.446541407960652
1761841481139918000,8.27991796875,-1.537007615454495,-3.0551059477776286,12.118245857661961
1761841481149988000,8.289988037109374,-1.3028680201902985,-2.8861329444289208,11.03464281194806
1761841481160057000,8.30005712890625,-1.4875968110755085,-2.2503952467679977,9.570607201462984
1761841481170127000,8.310127197265626,-2.0423504622250794,-1.235513855102658,7.676416087138652
1761841481180196000,8.320196044921875,-2.5278952603310345,-0.23229367513656615,5.6250236558020115
1761841481190266000,8.33026611328125,-2.6091014251604676,0.7495154680103063,3.6360225064486262
1761841481200336100,8.340336181640625,-2.1232892082899806,1.6766373276799915,1.4208432422295212
1761841481210405000,8.350405029296875,-1.2883432357534765,2.6137135951310393,-1.2868348770171403
1761841481220475100,8.36047509765625,0.07404021872282028,3.3692964003562924,-4.319196493545174
1761841481230545200,8.370545166015624,1.6185539720237254,3.8817531707853075,-7.148693943038582
1761841481240614100,8.3806142578125,3.1182015786379575,4.031235291722417,-9.61119464791715
1761841481250684000,8.390683837890625,3.875297711035609,4.105543805992603,-11.336521479964256
1761841481260753200,8.400753173828125,4.174232142293453,3.9953216822981834,-12.179481539869307
1761841481270823200,8.4108232421875,3.876608209112286,3.891499488773942,-12.109749247473477
1761841481280893200,8.42089306640625,3.2009500044733286,3.802515383419394,-11.009254688191414
1761841481290962200,8.430962158203124,2.5731308248519897,3.6150428467839952,-9.468304180330037
1761841481301032200,8.4410322265625,1.9733090747028588,3.503565170070529,-7.665766098308563
1761841481311102200,8.451102294921874,1.5187259627021847,3.352152373331785,-5.9980035664796825
1761841481321171000,8.4611708984375,1.1336379733406006,3.296339885216951,-4.43313734550178
1761841481331241200,8.4712412109375,0.725449094376713,3.2509932615369554,-2.7325878118366003
1761841481341310000,8.48131005859375,-0.0786275465130806,2.826343953898549,-0.49165414783172307
1761841481351380200,8.491380126953125,-0.6671567721448838,1.8551053046047687,2.6973993018165228
1761841481361450200,8.5014501953125,-1.014942620333284,0.9162070824235677,6.192051974374055
1761841481371519000,8.51151904296875,-1.821790917893499,-0.04625263260900974,9.382720238807797
1761841481381589200,8.52158935546875,-2.835631422203779,-0.747619279000163,12.345284681010245
1761841481391658000,8.531657958984376,-3.07045256999135,-1.3196511049479245,14.344061958968638
1761841481401728300,8.541728271484375,-2.6711709278434514,-1.788723491680622,15.148269386631249
1761841481411798300,8.55179833984375,-1.7502226422421634,-1.9766724136561153,14.604623112690447
1761841481421867000,8.561866943359375,-0.9171002318710089,-1.2743711167633534,13.368561560577154
1761841481431937300,8.571937255859375,-0.5279074375391006,-0.032871172988414764,11.776944695317745
1761841481442007000,8.582007080078125,-0.5947791528720409,1.3972721047669647,9.822463655203581
1761841481452076300,8.592076171875,-1.0785434242367744,3.004382891756296,7.418857037842273
1761841481462146000,8.60214599609375,-1.325754682520032,4.491526990628242,4.594840942369401
1761841481472215300,8.61221533203125,-0.80256784376204,5.726046573996544,1.0861074297502635
1761841481482285000,8.62228515625,0.1545814716364257,6.690116062313318,-2.968453500241041
1761841481492355000,8.63235498046875,2.0601742882072926,7.067984329554438,-6.752420250535011
1761841481502424300,8.64242431640625,5.071469735831022,6.717068951168656,-10.062506921553611
1761841481512494000,8.652494140625,7.183002455353736,6.364925492292643,-12.450634230232238
1761841481522563300,8.662563232421874,7.4965727302074425,6.217293383136392,-13.84578510506153
1761841481532633000,8.672633056640626,6.802765120893716,5.955479599004984,-13.918006291663646
1761841481542703000,8.682703125,5.572463447481393,5.72970860363543,-12.567390139609575
1761841481552772000,8.692772216796875,4.488851049417257,5.657110400414466,-10.457615661931037
1761841481562842000,8.702842041015625,3.7038591943562027,5.423312750455737,-8.109791137546301
1761841481572912000,8.712912109375,2.934911296123266,4.883171269765496,-5.878982050257921
1761841481582981000,8.722981201171875,2.2237872258275746,4.299066728708148,-4.021827704168856
1761841481593051100,8.733051025390624,1.4873545267522335,3.7803351157933474,-2.253940079768002
1761841481603120000,8.7431201171875,0.9158383221764117,3.325811478894949,-0.33601080085113644
1761841481613190100,8.753190185546876,0.37066118540652093,3.010524463251233,1.9547147027395664
1761841481623260000,8.763260009765625,-0.5006797503303736,2.212518228316307,4.88429267501086
1761841481633329200,8.7733291015625,-1.7386492549568413,0.9236562293857336,8.285952591094373
1761841481643399200,8.783399169921875,-3.3582647187322374,-0.19887246704995631,11.387084961509704
1761841481653469200,8.79346923828125,-3.6201322788774966,-1.708274574959278,13.544403280651569
1761841481663538200,8.8035380859375,-4.845113049528003,-2.577799401184916,15.413421375274657
1761841481673608200,8.813608154296874,-5.134288887837529,-2.1901351315945385,15.73798416878581
1761841481683677200,8.82367724609375,-3.829489899584651,-2.2850942197054622,14.618711259275674
1761841481693747000,8.833746826171875,-2.9547575678437945,-1.4461539168357849,13.027252214926481
1761841481703817200,8.843817138671875,-1.8434335715115069,0.16505086146891115,11.020931097459792
1761841481713886000,8.853885986328125,-0.8298353515245019,1.8864736718147992,8.683316416922212
1761841481723956200,8.863956298828125,0.21960136682391165,3.673436583563685,5.789767643278837
1761841481734026200,8.874026123046875,1.321416361054778,4.902333650875091,2.331843403659761
1761841481744095000,8.884094970703124,2.2560949197143314,5.459460753157734,-1.633469217082858
1761841481754165200,8.894165283203124,3.70765040333271,5.38658490203917,-5.833388758340478
1761841481764234000,8.90423388671875,4.9214346571862695,5.917789043036103,-9.55899275151491
1761841481774304300,8.91430419921875,6.065847853171825,5.845296053755283,-12.160948688834905
1761841481784374300,8.924374267578125,6.860197903686761,4.569963398483395,-13.465560630083083
1761841481794443000,8.934443115234375,5.566443456539512,4.448611393487453,-13.453556888556479
1761841481804513300,8.94451318359375,4.336044167971611,4.70218283445239,-12.554744593048095
1761841481814582000,8.95458203125,3.1447032165944573,4.6956893807798625,-10.609355206406116
1761841481824652300,8.96465234375,2.2665596151053906,4.449013544547557,-8.700144217604398
1761841481834722000,8.97472216796875,1.536050460860133,4.055662461492419,-6.708065560501813
1761841481844791300,8.984791259765625,0.9571388122707605,3.478782610991597,-4.79641390054971
1761841481854861000,8.994861083984375,0.5532644355051219,3.140916099271178,-3.1117788521140812
1761841481864931000,9.00493115234375,0.34925694365426896,3.210941237133741,-1.66073190253973
1761841481875000300,9.015000244140625,-0.40965982829928393,3.2456074768453833,-0.1157770544078201
1761841481885070000,9.025070068359375,-1.8459056607134638,2.5114865618437525,2.180504841201007
1761841481895139300,9.035139404296874,-2.925115878295898,1.2301549584180116,5.41366346310079
1761841481905209000,9.045208984375,-2.8075340394884347,-0.15019816025197505,8.296347143858672
1761841481915279000,9.055279052734376,-3.533106321853399,-0.5935369707912206,10.521714332354069
1761841481925348000,9.06534814453125,-3.3640281045645475,-1.0711591592043637,12.090398065793513
1761841481935418000,9.075418212890625,-3.583431902989745,-1.5389350763857363,12.91703009123206
1761841481945488100,9.085488037109375,-3.584436696118116,-1.7182850968420504,12.643320702123642
1761841481955557000,9.09555712890625,-2.760775210922956,-1.9707821865737436,11.32023202394247
1761841481965627100,9.105627197265624,-2.2120516337178646,-0.9864064078092575,9.840969618231057
1761841481975696100,9.115696044921876,-1.5589859307676552,0.41756314876973627,8.308329258075355
1761841481985766100,9.12576611328125,-0.7807301059633492,1.7165595882236957,6.8168018295526505
1761841481995836000,9.1358359375,-0.11707330476343632,2.6366157472908496,5.294056255945563
1761841482005905200,9.1459052734375,0.1023070397209376,3.332058848851919,3.5429803578749297
1761841482015975200,9.15597509765625,0.2869020481586456,4.072920470285416,1.4821286087974905
1761841482026044200,9.166044189453125,0.8804255749464035,4.491752616077661,-0.7037029803842306
1761841482036114200,9.1761142578125,0.8588509450633078,5.232652231433987,-2.924750552114844
1761841482046184000,9.186183837890624,2.2497021499373018,5.77383416108787,-4.86251777331531
1761841482056253200,9.196253173828126,3.7618507800757883,5.347833438840508,-6.948136883902549
1761841482066323000,9.206322998046875,3.8638174088612196,5.147542337164283,-8.088574746516347
1761841482076393200,9.216393310546875,4.477664469492435,4.624268989166617,-9.268028860744833
1761841482086462000,9.2264619140625,5.50016393494606,4.187265226867795,-9.915558118486404
1761841482096532200,9.2365322265625,5.754678209719062,3.517803538781404,-9.483738480827212
1761841482106601200,9.246601318359374,5.665666631835699,2.3768583111673593,-8.166644074624775
1761841482116671000,9.2566708984375,5.18540591161251,1.862107876843214,-6.478929472613334
1761841482126741200,9.2667412109375,4.4517444308161735,2.3849703059524296,-4.961252288311719
1761841482136810000,9.27681005859375,3.6208489027142523,2.5480291168212887,-3.43968686439991
1761841482146880300,9.28688037109375,2.5987095027446747,2.6199206330776215,-1.8302797831669448
1761841482156950300,9.2969501953125,2.4379008088901637,2.577360425245762,-0.40574893846586346
1761841482167019000,9.30701904296875,1.509959157270193,2.570205292794108,1.4274819495916367
1761841482177089300,9.31708935546875,0.509178187149763,1.7151871308267115,3.5836227493867274
1761841482187158000,9.327157958984374,-0.6864362037628888,0.5304407554090023,6.039661272513866
1761841482197228300,9.337228271484374,-1.8294465472131967,-0.5188461792051792,8.448238664025068
1761841482207298000,9.347298095703126,-2.734568756520748,-1.4020084856390953,10.695738189351559
1761841482217367300,9.3573671875,-4.0951358092248435,-1.5818360604792832,12.664896574115753
1761841482227437000,9.36743701171875,-5.386097995305061,-1.4319184707343577,13.586302978748082
1761841482237507000,9.377507080078125,-5.1474534898370505,-1.1033739141106604,13.241853581506014
1761841482247576300,9.387576416015625,-4.711989942717552,-0.9946592723697424,12.00875555537343
1761841482257646000,9.39764599609375,-3.7404853359639643,-0.6309077932864428,10.23988944132924
1761841482267715300,9.40771533203125,-2.9039532632797953,0.29203765748143196,8.250039566192031
1761841482277785000,9.41778515625,-1.767333497649431,1.3314900113016366,6.232622469693422
1761841482287855000,9.427855224609376,-0.7444943519126623,1.9590759666889905,4.121694145804644
1761841482297924000,9.437924072265625,0.09608312370479107,2.886568997758627,1.5953198114305733
1761841482307994000,9.447994140625,0.6081628775149583,3.8171442127525803,-1.5120412242412566
1761841482318063000,9.45806298828125,1.9479034152895212,4.380580059790611,-4.884229838907719
1761841482328133000,9.468133056640625,3.1140485506117344,4.733587442019582,-7.963944742763042
1761841482338203100,9.478203125,5.201674324846268,5.18512709467113,-10.32558853366375
1761841482348272000,9.488272216796876,7.11870855461955,4.493966784995794,-11.65074641933441
1761841482358342100,9.498342041015626,7.299961778348684,3.8531624515950678,-11.958235328447818
1761841482368412000,9.508411865234375,5.9195414396613835,3.889318637603521,-11.485682113862037
1761841482378481200,9.518481201171875,4.4329310092747205,4.2294121777236455,-10.227644876784085
1761841482388551200,9.52855126953125,3.045485886517167,4.227888329157233,-8.27423000459671
1761841482398621200,9.53862109375,2.127501857548952,4.040041698512435,-6.172939277625083
1761841482408690200,9.548690185546874,1.339957541526109,3.8299867431908843,-4.146808713316918
1761841482418760000,9.558760009765624,0.04248772711753845,3.3742718506813048,-1.9647784161143003
1761841482428829200,9.5688291015625,-1.932189128807187,2.061754835397005,1.0994621474944055
1761841482438899000,9.57889892578125,-3.676322368133068,0.1835579935401678,5.6151686167418955
1761841482448969200,9.58896923828125,-4.501286752620339,-1.7523416802227496,10.698244619214535
1761841482459038000,9.599037841796875,-5.672611336407065,-2.3536568838000296,15.509982053363322
1761841482469108200,9.609108154296875,-5.757398574593663,-2.1316841116696597,18.177384568583964
1761841482479177200,9.61917724609375,-4.543949836304783,-2.4269237800627947,18.58864481781721
1761841482489247000,9.6292470703125,-2.3352836072415113,-2.5764684448421,17.37699289981723
1761841482499317200,9.639317138671874,-0.7500637495428323,-0.8532558284699916,15.2027830671072
1761841482509386000,9.649385986328125,0.36504334552474316,1.2056436174958944,12.28074878821373
1761841482519456300,9.659456298828125,0.8531418467015027,2.955416908535361,9.078583562731742
1761841482529526300,9.6695263671875,1.2270809578001498,4.242783700472116,5.658395179527997
1761841482539595000,9.679594970703125,1.9138117605954408,4.721268643194437,2.114568433956802
1761841482549665300,9.689665283203125,2.764561743724346,4.814303485244512,-1.519580679835379
1761841482559734000,9.699734130859374,3.7731133478462695,4.941740947633981,-5.1115749517261975
1761841482569807400,9.709807373046875,4.658205745559931,5.165459102126956,-8.244323526632785
1761841482579877000,9.719877197265625,5.277961445713043,5.29501311827898,-10.698756660389899
1761841482589946400,9.7299462890625,5.187652813756466,5.179138667911291,-12.185754628789423
1761841482600016100,9.74001611328125,4.259090692150592,5.190885219806432,-12.69809507936239
1761841482610086100,9.750086181640626,3.096228816282749,5.074100084334612,-12.061629067426919
1761841482620155100,9.760155029296875,2.1566326749652625,4.289831282851099,-10.550502035421133
1761841482630225200,9.77022509765625,1.6604133381098507,3.8562791223108768,-8.93464504739642
1761841482640294100,9.780294189453125,1.3146785772323608,3.374730115842819,-7.27701111087203
1761841482650364200,9.7903642578125,1.13486320428662,2.7121301302194594,-5.585197841370105
1761841482660434200,9.80043408203125,0.9649632953513413,2.3875462939202783,-3.9166716316923496
1761841482670503200,9.810503173828126,0.7714204988915473,2.2883605280250308,-2.263022965411842
1761841482680573200,9.8205732421875,0.24226211144328116,2.1426094103097912,-0.48551367231532927
1761841482690643200,9.830643310546876,-0.7792625176288187,1.6970786426842213,1.5845910582758485
1761841482700712200,9.840712158203125,-1.6767589082330465,0.8184007881879806,4.058147556306421
1761841482710782200,9.8507822265625,-2.0361891631163656,0.3529793251782655,6.549055732762813
1761841482720851200,9.860851318359375,-2.0747985874958337,0.6170207222312688,8.77250276685059
1761841482730921200,9.870921142578124,-1.7425756346203385,0.7318354344129562,10.318914462727308
1761841482740991200,9.8809912109375,-1.260094315738231,0.3413087611287832,11.023700562173127
1761841482751060200,9.891060302734376,-0.45894262238442896,-0.4020370783358812,10.635450601649284
1761841482761130000,9.9011298828125,0.30483401069045063,-0.5394160890251398,9.537160858935117
1761841482771200300,9.9112001953125,1.029899950968474,-0.08251227899193764,7.983266698348522
1761841482781269000,9.92126904296875,1.705384552606195,0.5280313561797142,6.399175552418828
1761841482791339300,9.93133935546875,2.444014031073451,1.1698130101799964,4.715572477379441
1761841482801408300,9.941408203125,3.0518162585824724,1.8886217897593973,2.94173938857764
1761841482811478000,9.95147802734375,3.165817316293716,2.414824761468172,1.3224728843703866
1761841482821548300,9.96154833984375,3.044572278803587,2.6039152546942232,-0.05782601989433169
1761841482831617000,9.971616943359376,2.669273569789529,2.657100316914916,-1.0867966541234404
1761841482841687300,9.981687255859375,2.1711700266227125,2.67688053766191,-1.4648060103356837
1761841482851757300,9.99175732421875,1.785484071367979,2.7057383833557367,-1.3983061239898205
1761841482861826300,10.001826416015625,1.1152192502051592,2.377977670586109,-1.107500054129958
1761841482871896300,10.011896240234375,0.7459346869140863,1.633599565464258,-0.9074209877692162
1761841482881965000,10.021965087890624,0.3089320936590433,1.4980477702021597,-0.7415867208376526
1761841482892035300,10.032035400390624,-0.2381213583767414,1.6822364628612994,-0.6584149550236761
1761841482902105000,10.04210498046875,-0.20285598372817037,1.45302614069283,-0.7216125849537551
1761841482912174300,10.05217431640625,-0.07683949405252934,0.7806383360266685,-0.7571073844440281
1761841482922244000,10.062244140625,0.17342530658245087,0.31475919237732886,-0.8394951602734625
1761841482932314000,10.072314208984375,0.36100247263610363,0.1595551866620779,-0.8811739090956747
1761841482942383400,10.08238330078125,0.3073895403921604,0.26236674183905123,-0.9670506960846483
1761841482952453000,10.092453125,0.4656055874049663,0.17399287733733654,-1.0780800445087253
1761841482962522400,10.1025224609375,0.5613923585116863,0.6437076536267995,-1.1241266331516206
1761841482972592000,10.112592041015626,0.3428647583991289,1.0240016867101192,-0.8431279638178646
1761841482982662100,10.122662109375,0.5285235236108303,0.6733943513602018,-0.6231770529039203
1761841482992731100,10.132731201171875,0.9311550607085227,0.4837099838942289,-0.4847551090329885
1761841483002801200,10.14280126953125,1.39700147113204,0.39781799933612344,-0.392438352124393
1761841483012871200,10.15287109375,0.5651502497404813,1.2279431275874375,-0.5834232807949185
1761841483022940200,10.162940185546875,-0.6127636493086814,1.5995488273024558,-1.3924217421263456
1761841483033010200,10.17301025390625,-6.304732597136497,0.2834773344069719,-5.563957484942675
1761841483043079200,10.1830791015625,-7.438118203151226,-1.0536094739884136,-10.088044682914019
1761841483053149200,10.193149169921876,-3.86166315343678,-1.1273147616684436,-1.2262199570566414
1761841483063219000,10.203218994140625,-4.224830695152282,-1.4096224677741527,-0.6485676608785986
1761841483073288200,10.2132880859375,-3.502137767615914,-2.065990281009674,0.2477691844269633
1761841483083358200,10.223358154296875,-3.6176708572000265,-1.7346973024606704,1.310991120891273
1761841483093427200,10.23342724609375,-2.6588930455505846,-1.6513251917690037,1.3588792457476258
1761841483103497200,10.243497314453125,-2.003488524389267,-1.624235524791479,1.2307073316037653
1761841483113567200,10.253567138671874,-2.110700360351801,-1.4017226544350385,0.9487821950748562
1761841483123636200,10.26363623046875,-2.5635055028945204,-0.2025982095748186,0.47080987804979085
1761841483133706000,10.2737060546875,-2.582177470138669,0.35434447605162855,0.14609569336920974
1761841483143776300,10.2837763671875,-1.766138150385022,0.041541678439080715,0.35848785946667194
1761841483153845000,10.293844970703125,-1.4320096561491489,-0.3659960431396961,0.35065380484014746
1761841483163915300,10.303915283203125,-0.8170505426228046,-0.552472554475069,0.23825082997530697
1761841483173984300,10.313984375,-0.15654782153964042,-0.45029666685312986,0.14739771587848663
1761841483184054000,10.324053955078124,0.17948329144716263,-0.41691082234084603,-0.12641060355976222
1761841483194124300,10.334124267578124,0.27629180681705473,-0.41967122696489095,-0.3274870103947818
1761841483204193000,10.344193115234376,0.3091208942294121,-0.3235083160221576,-0.36285920641869307
1761841483214263300,10.35426318359375,0.18728841224014758,-0.20439181499332187,-0.38648251245990395
1761841483224333300,10.364333251953125,0.1827349867194891,-0.08425766135454177,-0.35639132557883857
1761841483234402300,10.37440234375,0.11500059014260768,-0.06630202568620443,-0.35216917783915996
1761841483244472300,10.384472412109375,0.08508008365333079,-0.16977496738135814,-0.2559847857169807
1761841483254541000,10.394541015625,0.013283844465017318,-0.38831747280210255,-0.09090382137075066
1761841483264611300,10.404611328125,-0.014843933388590812,-0.4803913608655333,-0.07078472405821085
1761841483274681000,10.41468115234375,0.18499065669178963,-0.3829164905413985,-0.08767214597314596
1761841483284750300,10.424750244140625,0.2425304069906473,-0.2687751475766301,-0.13742548017948866
1761841483294820000,10.434820068359375,0.14423369888961315,-0.21982903809994458,-0.15558248363882302
1761841483304890000,10.44489013671875,0.22667700429856777,-0.277115690420568,-0.0684526278488338
1761841483314959400,10.45495947265625,0.29396774876117704,-0.3629582828789949,-0.029754794533550736
1761841483325029000,10.465029052734375,0.16687573880851267,0.04367927498966455,-0.0352976694829762
1761841483335098400,10.475098388671874,0.22024083377122877,0.40420653132945294,0.00451323964074254
1761841483345168100,10.485168212890626,0.09806932908594608,0.35271950519829987,-0.03813245451748371
1761841483355238100,10.495238037109376,-0.04121288487613201,0.18207856863737104,-0.1381589090205729
1761841483365307100,10.50530712890625,0.08218202412426472,0.05922171203643083,-0.22024054151028394
1761841483375377200,10.515377197265625,0.3252957839608192,0.051181905704736706,-0.23388021367564796
1761841483385447200,10.525447265625,0.43164954178929327,0.1469134394928813,-0.2465282444551587
1761841483395516200,10.53551611328125,0.5981184533625841,0.2578150698840618,-0.15137085729315877
1761841483405586200,10.545586181640624,0.3591980535626411,0.28530864148735996,0.09530278698205948
1761841483415655200,10.5556552734375,0.11212649601101875,0.0634928134843707,0.18326821681335567
1761841483425725200,10.56572509765625,0.30733050368130205,-0.10615589716881513,0.07181582067161799
1761841483435795000,10.575794921875,0.4922194535642862,-0.11543225955814122,-0.08044979350417852
1761841483445864200,10.5858642578125,0.5383873304992914,0.026813772645592687,-0.2137877121090889
1761841483455934200,10.595934326171875,0.5027344178378582,0.13389701379239557,-0.2886528373487294
1761841483466004200,10.606004150390625,0.3994751188933849,0.16604454868137836,-0.34828254566416145
1761841483476073200,10.6160732421875,0.37942835616469384,-0.007474281403422356,-0.4079755284741521
1761841483486143200,10.626143310546874,0.4253595017343759,-0.09118336896449326,-0.2764044734112918
1761841483496212200,10.636212158203126,0.46886312789618967,-0.00002396539747714996,-0.1882553575761616
1761841483506282000,10.646281982421876,0.14076163886487483,-0.012848960179090499,-0.02951528668925166
1761841483516352300,10.656352294921875,-0.27703181152939793,-0.10635784948170185,0.223069627456367
1761841483526421000,10.6664208984375,-0.4637193352669477,-0.16430091988444329,0.33419776007980107
1761841483536491300,10.6764912109375,-0.49537996342182156,-0.13869476946294307,0.22134616466462612
1761841483546561300,10.686561279296875,-0.3786918585836887,-0.035060207465291024,0.12873992329016326
1761841483556630000,10.696630126953124,-0.40731998717486856,0.24379355879426,0.08068360226005315
1761841483566700300,10.7067001953125,-0.5340156912863254,0.8179699955552816,-0.055266983061283824
1761841483576769500,10.71676953125,0.08684650880396366,0.32051907107830047,0.029088731840252874
1761841483586839600,10.726839599609375,0.321327464851737,-0.11741115841567516,0.11789631158411502
1761841483596909600,10.73690966796875,0.39002982967793937,-0.3393506127983332,0.2291353572361171
1761841483606978600,10.746978515625,0.39386546231806274,-0.6488999615728854,0.3557711478538811
1761841483617048600,10.757048583984375,-0.04836392567455768,-0.4505009572535753,0.2534079209662974
1761841483627118600,10.76711865234375,-0.20615619431734084,0.028102643412351608,0.17698431423828004
1761841483637187600,10.7771875,-0.16616963636577128,0.07941665106415748,0.21766733002141117
1761841483647257600,10.787257568359376,-0.12120061382651329,-0.017340426379442213,0.28100422229170796
1761841483657326300,10.797326416015625,-0.07323474755883216,-0.051553077104687685,0.32358605743348595
1761841483667396600,10.807396728515625,0.0037426936596632,-0.028809330376982686,0.2634362707667053
1761841483677466600,10.817466552734375,0.11680033304095268,-0.0369955594420433,0.17082812969610095
1761841483687535600,10.82753564453125,0.17372107465863226,-0.051478842824697495,0.12567118336930871
1761841483697605600,10.837605712890625,-0.23711831881403922,0.511153286615014,-0.14032880040556192
1761841483707675400,10.84767529296875,-0.1955313399285078,0.6771954972088337,-0.13901859458982943
1761841483717744600,10.85774462890625,-0.12053893504738807,0.072945993745327,0.06133680449426174
1761841483727814400,10.867814453125,-0.23630524886548518,-0.1942237644612789,0.0988404595889151
1761841483737883600,10.877883544921875,-0.02289104624390602,-0.1333995856642723,0.11118117798492312
1761841483747953700,10.88795361328125,0.08666004632115364,-0.13878303226828576,0.030603374186903235
1761841483758023400,10.8980234375,0.11530220343768596,-0.20458149234652517,-0.04472308495417237
1761841483768092700,10.9080927734375,0.030788521495461463,-0.25743863778710363,-0.0721061819203198
1761841483778162400,10.918162353515624,-0.14304244327843188,-0.20175825161933897,-0.023399580287933347
1761841483788232400,10.928232421875,-0.12538988220989702,-0.05311258150637149,-0.003989800288528204
1761841483798301400,10.938301513671876,-0.09894494287669658,0.12788520615696905,-0.024114742819964886
1761841483808371500,10.948371337890626,0.007692308068275451,0.20303134029507636,-0.061210693896561856
1761841483818440400,10.9584404296875,0.02215162605345249,0.15872867271006105,-0.04222030835300684
1761841483828510500,10.968510498046875,-0.08499123632609844,0.010810147827863693,-0.02056245716586709
1761841483838580700,10.978580810546875,-0.10805822365880012,-0.12000059038698672,-0.01933233084902167
1761841483848649500,10.9886494140625,0.05491700057983398,-0.14496902742683887,-0.034379823985695834
1761841483858719500,10.998719482421874,0.19546704252064226,-0.045910687303543085,-0.04471826264858245
1761841483868789500,11.00878955078125,0.22201427318453787,0.008207271853089332,-0.08420198564454913
1761841483878858500,11.0188583984375,0.06967384020686149,-0.004077624702453613,-0.07893032885193824
1761841483888928800,11.0289287109375,0.1097410621792078,-0.041944706282019614,-0.05395166267901659
1761841483898997500,11.03899755859375,0.07774024228453635,-0.16480243966579436,0.024163550397753714
1761841483909067500,11.049067626953125,-0.0960772784858942,-0.35559681420028205,0.1337600895397365
1761841483919137500,11.059137451171875,-0.19468378318846224,-0.5151221902459859,0.19307050277292728
1761841483929206500,11.06920654296875,0.052502925175428386,-0.5864648404479026,0.17577333101332188
1761841483939276500,11.079276611328124,0.11456921298801899,-0.018355740901827813,-0.0572853371463716
1761841483949346600,11.0893466796875,0.21432254963815212,0.22135727058053015,-0.12082783499136567
1761841483959415600,11.09941552734375,0.33795711261332034,0.0660486354470253,-0.04815919688269496
1761841483969485600,11.109485595703125,0.2236252155125141,-0.06088204646408558,0.03148702515363693
1761841483979554600,11.119554443359375,-0.07789981676042079,-0.09515957911908626,0.1085077209919691
1761841483989624600,11.12962451171875,-0.208537536495924,-0.137255092048645,0.10052052163034676
1761841483999694600,11.139694580078125,-0.14346154547333717,-0.14871698178350926,0.05068681566417217
1761841484009763600,11.149763671875,-0.07706161237061024,-0.08777823669612407,0.023126681630685923
1761841484019833600,11.15983349609375,0.006810264536738395,-0.0252098445802927,-0.0215184427164495
1761841484029903600,11.169903564453126,0.14821487748026846,0.01283317808806896,-0.03352846785336733
1761841484039972600,11.17997265625,0.21480361115336416,0.011550737062096595,-0.029583237358927726
1761841484050042600,11.190042724609375,0.3916857801914215,0.011782207730412483,-0.08040303175300359
1761841484060111600,11.200111572265625,0.4922323130458593,0.21822949394881724,0.035141163747012615
1761841484070181600,11.210181640625,-0.10476619637608528,0.11487433341443538,0.1718121722973883
1761841484080251400,11.22025146484375,-0.12134089908003806,-0.15884557708799837,0.07790018208660185
1761841484090320600,11.230320556640624,0.17780512910187243,-0.03872925136685371,-0.04113412055149674
1761841484100390400,11.240390380859376,0.2631383107334375,0.07598550757169723,-0.10693448032587766
1761841484110459600,11.250459716796875,0.2507902858138084,0.08689502412080764,-0.07244885787814855
1761841484120529700,11.26052978515625,0.15997370433509348,0.099319036886096,-0.029360169192776082
