time,seconds_elapsed,z,y,x
1761841472925655600,0.065655517578125,-0.7584075927734375,-0.5669403076171875,0.1557464599609375
1761841472935725600,0.0757255859375,-0.752044677734375,-0.5553741455078125,0.1614227294921875
1761841472945794600,0.085794677734375,-0.7443389892578125,-0.536163330078125,0.1718902587890625
1761841472955864300,0.0958642578125,-0.7316131591796875,-0.512603759765625,0.1859283447265625
1761841472965933600,0.10593359375,-0.716796875,-0.5206146240234375,0.183319091796875
1761841472976003300,0.11600341796875,-0.696502685546875,-0.52783203125,0.188079833984375
1761841472986072600,0.126072509765625,-0.70294189453125,-0.524627685546875,0.216888427734375
1761841472996142600,0.136142578125,-0.715576171875,-0.47943115234375,0.2547149658203125
1761841473006211600,0.146211669921875,-0.75054931640625,-0.429168701171875,0.287200927734375
1761841473016281600,0.156281494140625,-0.7591705322265625,-0.4172821044921875,0.312103271484375
1761841473026350600,0.1663505859375,-0.8025360107421875,-0.4438934326171875,0.3311309814453125
1761841473036420600,0.176420654296875,-0.8751068115234375,-0.510650634765625,0.362548828125
1761841473046489600,0.186489501953125,-0.935760498046875,-0.61163330078125,0.3970794677734375
1761841473056559600,0.1965595703125,-0.9472503662109375,-0.7165069580078125,0.454315185546875
1761841473066628400,0.20662841796875,-0.8752593994140625,-0.7879791259765625,0.5322418212890625
1761841473076698600,0.21669873046875,-0.772979736328125,-0.8369293212890625,0.580535888671875
1761841473086767400,0.226767333984375,-0.731597900390625,-0.8372039794921875,0.5719146728515625
1761841473096837600,0.236837646484375,-0.7173919677734375,-0.813507080078125,0.5396881103515625
1761841473106907600,0.24690771484375,-0.6943359375,-0.7833099365234375,0.519805908203125
1761841473116976400,0.256976318359375,-0.6842041015625,-0.7718353271484375,0.504180908203125
1761841473127046700,0.267046630859375,-0.6550445556640625,-0.7838592529296875,0.4906768798828125
1761841473137115400,0.277115478515625,-0.6230316162109375,-0.7826385498046875,0.4585113525390625
1761841473147185700,0.287185546875,-0.7242279052734375,-0.7885589599609375,0.4652557373046875
1761841473157254400,0.29725439453125,-0.8538970947265625,-0.8762664794921875,0.5471343994140625
1761841473167324400,0.307324462890625,-0.55426025390625,-0.8753662109375,0.44195556640625
1761841473177393400,0.317393310546875,-0.6224517822265625,-0.8336334228515625,0.3341064453125
1761841473187463400,0.32746337890625,-0.676239013671875,-0.858978271484375,0.30609130859375
1761841473197532400,0.337532470703125,-0.6467132568359375,-0.9742431640625,0.322601318359375
1761841473207602400,0.3476025390625,-0.6485137939453125,-1.016326904296875,0.31298828125
1761841473217671400,0.35767138671875,-0.7705230712890625,-1.00823974609375,0.2235870361328125
1761841473227741400,0.367741455078125,-0.8885040283203125,-1.009613037109375,0.094390869140625
1761841473237810700,0.377810791015625,-0.92926025390625,-1.004974365234375,-0.0334320068359375
1761841473247880400,0.38788037109375,-0.916412353515625,-0.9502716064453125,-0.168304443359375
1761841473257949700,0.39794970703125,-0.866485595703125,-0.8769378662109375,-0.33746337890625
1761841473268019500,0.40801953125,-0.7626800537109375,-0.833160400390625,-0.5171966552734375
1761841473278089500,0.41808935546875,-0.7062835693359375,-0.7624359130859375,-0.71014404296875
1761841473288158500,0.428158447265625,-0.63470458984375,-0.68896484375,-0.9143524169921875
1761841473298228500,0.438228515625,-0.5769500732421875,-0.615631103515625,-1.0828857421875
1761841473308297500,0.44829736328125,-0.5137176513671875,-0.5792388916015625,-1.2280731201171875
1761841473318367500,0.458367431640625,-0.3978271484375,-0.5503082275390625,-1.331146240234375
1761841473328436700,0.468436767578125,-0.30712890625,-0.524871826171875,-1.3689727783203125
1761841473338506500,0.478506591796875,-0.2070465087890625,-0.5189361572265625,-1.3626708984375
1761841473348575500,0.488575439453125,-0.11358642578125,-0.4903717041015625,-1.35626220703125
1761841473358645500,0.4986455078125,-0.0181884765625,-0.4356842041015625,-1.36419677734375
1761841473368714500,0.508714599609375,0.0732269287109375,-0.4164276123046875,-1.32525634765625
1761841473378784500,0.518784423828125,0.13623046875,-0.3790435791015625,-1.239288330078125
1761841473388853500,0.528853515625,0.1536407470703125,-0.343505859375,-1.1121826171875
1761841473398923500,0.538923583984375,0.1588592529296875,-0.2833251953125,-0.9485931396484375
1761841473408993500,0.54899365234375,0.1426849365234375,-0.222076416015625,-0.7364349365234375
1761841473419062500,0.5590625,0.112579345703125,-0.1580963134765625,-0.5055084228515625
1761841473429132500,0.569132568359375,0.0778656005859375,0.0030059814453125,-0.276275634765625
1761841473439201500,0.579201416015625,0.0753326416015625,0.1659088134765625,0.0066986083984375
1761841473449271600,0.589271484375,0.0618438720703125,0.2632598876953125,0.3561859130859375
1761841473459340500,0.599340576171875,0.091217041015625,0.35162353515625,0.690673828125
1761841473469410300,0.609410400390625,0.151611328125,0.524383544921875,1.014007568359375
1761841473479479600,0.6194794921875,0.277130126953125,0.6758270263671875,1.3710784912109375
1761841473489549300,0.62954931640625,0.38470458984375,0.749786376953125,1.7501220703125
1761841473499618600,0.63961865234375,0.47064208984375,0.754547119140625,2.132232666015625
1761841473509688600,0.6496884765625,0.506439208984375,0.630828857421875,2.5222930908203125
1761841473519757600,0.659757568359375,0.5236053466796875,0.470306396484375,2.89764404296875
1761841473529827600,0.66982763671875,0.5426177978515625,0.313507080078125,3.1921539306640625
1761841473539897300,0.6798974609375,0.4712982177734375,0.1572418212890625,3.369903564453125
1761841473549966600,0.689966552734375,0.405914306640625,0.0459136962890625,3.3700103759765625
1761841473560040000,0.7000400390625,0.359893798828125,0.1094818115234375,3.2033538818359375
1761841473570109000,0.71010888671875,0.27825927734375,0.2442626953125,2.9377593994140625
1761841473580179000,0.720178955078125,0.2071380615234375,0.337249755859375,2.6378326416015625
1761841473590248000,0.730248046875,0.2138671875,0.3665618896484375,2.2765655517578125
1761841473600318000,0.74031787109375,0.199188232421875,0.327667236328125,1.820831298828125
1761841473610387000,0.750386962890625,0.0037841796875,0.2291412353515625,1.2584228515625
1761841473620457000,0.76045703125,-0.3573760986328125,0.1398162841796875,0.6300048828125
1761841473630526000,0.77052587890625,-0.734039306640625,0.1186370849609375,0.0135650634765625
1761841473640596000,0.780595947265625,-0.8985137939453125,0.1675567626953125,-0.388763427734375
1761841473650666000,0.790666015625,-0.5875244140625,0.4034423828125,-0.643096923828125
1761841473660735000,0.80073486328125,0.2077178955078125,0.88861083984375,-1.1153411865234375
1761841473670805000,0.810804931640625,1.2039337158203125,1.468597412109375,-2.0290374755859375
1761841473680874000,0.8208740234375,2.009185791015625,1.692962646484375,-3.0506439208984375
1761841473690944000,0.830944091796875,2.3588409423828125,1.5545196533203125,-3.668365478515625
1761841473701012700,0.8410126953125,2.2981719970703125,1.34161376953125,-3.8484039306640625
1761841473711083000,0.8510830078125,2.253875732421875,0.906494140625,-3.646484375
1761841473721151700,0.86115185546875,1.867645263671875,0.65496826171875,-3.156646728515625
1761841473731222000,0.871221923828125,1.4580078125,0.5671234130859375,-2.63140869140625
1761841473741290800,0.881290771484375,1.037811279296875,0.393524169921875,-2.072601318359375
1761841473751360800,0.89136083984375,0.66375732421875,0.15960693359375,-1.5953826904296875
1761841473761431000,0.90143115234375,0.3522491455078125,0.00146484375,-1.234832763671875
1761841473771499800,0.911499755859375,0.071807861328125,-0.07470703125,-0.9076690673828125
1761841473781570000,0.921570068359375,-0.1324005126953125,-0.1006317138671875,-0.5829010009765625
1761841473791638800,0.931638671875,-0.239501953125,-0.013916015625,-0.248809814453125
1761841473801709000,0.941708984375,-0.278533935546875,0.1560211181640625,0.1557464599609375
1761841473811777800,0.95177783203125,-0.25537109375,0.2911834716796875,0.6557464599609375
1761841473821847800,0.961847900390625,-0.289581298828125,0.338714599609375,1.2348480224609375
1761841473831916800,0.971916748046875,-0.402313232421875,0.2833709716796875,1.8669281005859375
1761841473841986800,0.98198681640625,-0.382568359375,0.1959991455078125,2.52691650390625
1761841473852055800,0.992055908203125,-0.242462158203125,-0.056915283203125,3.1788787841796875
1761841473862125800,1.002125732421875,-0.05963134765625,-0.1875,3.6518402099609375
1761841473872195800,1.01219580078125,0.2499542236328125,-0.4320220947265625,3.7969818115234375
1761841473882264800,1.022264892578125,0.4072723388671875,-0.5174102783203125,3.7272796630859375
1761841473892334800,1.0323349609375,0.5139312744140625,-0.3599395751953125,3.4339141845703125
1761841473902403800,1.04240380859375,0.5038299560546875,-0.113189697265625,3.0123443603515625
1761841473912473900,1.052473876953125,0.4678192138671875,0.103729248046875,2.514862060546875
1761841473922542800,1.06254296875,0.4398193359375,0.2913818359375,1.95452880859375
1761841473932612900,1.07261279296875,0.3366241455078125,0.4044189453125,1.3585052490234375
1761841473942681900,1.082681884765625,0.101898193359375,0.470672607421875,0.71099853515625
1761841473952751900,1.092751953125,-0.127838134765625,0.5127105712890625,0.063873291015625
1761841473962822000,1.10282177734375,-0.2709197998046875,0.54736328125,-0.4883880615234375
1761841473972891000,1.112890869140625,-0.09259033203125,0.7058563232421875,-0.992767333984375
1761841473982961000,1.1229609375,0.46429443359375,1.0690155029296875,-1.6277008056640625
1761841473993030000,1.13302978515625,1.18231201171875,1.5554962158203125,-2.5663299560546875
1761841474003100000,1.143099853515625,1.7600860595703125,1.7942047119140625,-3.539031982421875
1761841474013169000,1.1531689453125,2.056884765625,1.5605316162109375,-4.1616058349609375
1761841474023239000,1.163239013671875,1.9828643798828125,1.23272705078125,-4.2413330078125
1761841474033308000,1.173307861328125,1.604705810546875,1.0116729736328125,-3.8320465087890625
1761841474043378000,1.1833779296875,1.1680908203125,0.8095550537109375,-3.2245330810546875
1761841474053448000,1.193447998046875,0.808319091796875,0.533843994140625,-2.5565948486328125
1761841474063517000,1.203516845703125,0.52630615234375,0.2652740478515625,-1.9528350830078125
1761841474073587000,1.2135869140625,0.26171875,0.0291748046875,-1.463348388671875
1761841474083656000,1.223656005859375,0.03497314453125,-0.1417999267578125,-1.048553466796875
1761841474093726000,1.233725830078125,-0.1602783203125,-0.229339599609375,-0.6680145263671875
1761841474103794700,1.243794677734375,-0.3508148193359375,-0.1789398193359375,-0.3043060302734375
1761841474113865000,1.253864990234375,-0.51788330078125,-0.0208740234375,0.096923828125
1761841474123933700,1.26393359375,-0.6232757568359375,0.1407012939453125,0.564300537109375
1761841474134004000,1.27400390625,-0.797882080078125,0.220123291015625,1.1505584716796875
1761841474144074000,1.284073974609375,-0.9063568115234375,0.1434478759765625,1.800048828125
1761841474154143000,1.29414306640625,-0.8995361328125,0.015167236328125,2.445648193359375
1761841474164213000,1.304212890625,-0.7517242431640625,-0.1659088134765625,2.9971771240234375
1761841474174281700,1.31428173828125,-0.3944854736328125,-0.4452056884765625,3.3872222900390625
1761841474184352000,1.32435205078125,-0.0718994140625,-0.6739044189453125,3.59747314453125
1761841474194420700,1.334420654296875,0.189117431640625,-0.6796722412109375,3.543975830078125
1761841474204491000,1.344490966796875,0.313323974609375,-0.4954986572265625,3.260162353515625
1761841474214559700,1.354559814453125,0.3183441162109375,-0.2467803955078125,2.8326568603515625
1761841474224629800,1.364629638671875,0.2894287109375,-0.0360107421875,2.3411712646484375
1761841474234698800,1.37469873046875,0.30389404296875,0.0889892578125,1.8442230224609375
1761841474244768800,1.384768798828125,0.2743988037109375,0.1437225341796875,1.3497467041015625
1761841474254839000,1.394839111328125,0.1861419677734375,0.144500732421875,0.8548583984375
1761841474264907800,1.40490771484375,0.02337646484375,0.1382598876953125,0.3230133056640625
1761841474274978000,1.41497802734375,-0.1969451904296875,0.166717529296875,-0.2534332275390625
1761841474285046800,1.425046875,-0.34930419921875,0.205230712890625,-0.8045501708984375
1761841474295116800,1.43511669921875,-0.21661376953125,0.3650970458984375,-1.308746337890625
1761841474305185800,1.445185791015625,0.279266357421875,0.697509765625,-1.8584136962890625
1761841474315255800,1.455255859375,0.9923858642578125,1.121002197265625,-2.562042236328125
1761841474325326000,1.465326171875,1.7038116455078125,1.2972869873046875,-3.3035888671875
1761841474335394800,1.475394775390625,2.10589599609375,1.17962646484375,-3.809112548828125
1761841474345464800,1.48546484375,2.1126708984375,0.9262237548828125,-3.879425048828125
1761841474355533800,1.495533935546875,1.872222900390625,0.690399169921875,-3.51971435546875
1761841474365603800,1.505603759765625,1.42596435546875,0.59283447265625,-2.9526824951171875
1761841474375672800,1.5156728515625,1.007598876953125,0.4150238037109375,-2.32745361328125
1761841474385742800,1.525742919921875,0.651458740234375,0.1969451904296875,-1.7326812744140625
1761841474395812900,1.535812744140625,0.3328094482421875,0.0609893798828125,-1.2230072021484375
1761841474405881900,1.5458818359375,0.0500335693359375,0.0020751953125,-0.781036376953125
1761841474415952000,1.555951904296875,-0.178497314453125,0.0164337158203125,-0.3630523681640625
1761841474426020900,1.566020751953125,-0.3949432373046875,0.0887908935546875,0.0720367431640625
1761841474436091000,1.5760908203125,-0.625701904296875,0.1226806640625,0.5931396484375
1761841474446160000,1.586159912109375,-0.7934112548828125,0.116241455078125,1.1764984130859375
1761841474456230000,1.59622998046875,-0.9150543212890625,0.0599365234375,1.7681427001953125
1761841474466299000,1.606298828125,-0.9378204345703125,-0.11639404296875,2.326446533203125
1761841474476369000,1.616368896484375,-0.8638763427734375,-0.300079345703125,2.8249053955078125
1761841474486439000,1.62643896484375,-0.6374969482421875,-0.4622802734375,3.1801300048828125
1761841474496508000,1.6365078125,-0.270355224609375,-0.6300201416015625,3.3011474609375
1761841474506578000,1.646577880859375,-0.0037078857421875,-0.631500244140625,3.2364501953125
1761841474516647000,1.65664697265625,0.1854705810546875,-0.533905029296875,2.9720916748046875
1761841474526717000,1.666717041015625,0.2551116943359375,-0.390533447265625,2.602691650390625
1761841474536786000,1.676785888671875,0.2364501953125,-0.282073974609375,2.2230987548828125
1761841474546856000,1.68685595703125,0.1710968017578125,-0.212188720703125,1.8373260498046875
1761841474556921600,1.696921630859375,0.0816650390625,-0.157806396484375,1.43023681640625
1761841474566992000,1.706991943359375,-0.0468597412109375,-0.1163787841796875,1.004058837890625
1761841474577061600,1.7170615234375,-0.262542724609375,-0.0384979248046875,0.4934539794921875
1761841474587131000,1.727130859375,-0.556365966796875,0.0848846435546875,-0.1268463134765625
1761841474597201000,1.737200927734375,-0.715301513671875,0.2219085693359375,-0.7809295654296875
1761841474607270000,1.747269775390625,-0.490142822265625,0.394073486328125,-1.3329315185546875
1761841474617340000,1.75733984375,0.0738525390625,0.6814117431640625,-1.833282470703125
1761841474627408600,1.76740869140625,0.830810546875,1.0143890380859375,-2.4527587890625
1761841474637479000,1.77747900390625,1.5313720703125,1.1436920166015625,-3.105224609375
1761841474647548700,1.787548583984375,1.873504638671875,1.044464111328125,-3.5182037353515625
1761841474657618000,1.797617919921875,1.883758544921875,0.822265625,-3.5253143310546875
1761841474667687700,1.807687744140625,1.788970947265625,0.4800262451171875,-3.2059783935546875
1761841474677756700,1.817756591796875,1.4183349609375,0.3597564697265625,-2.65447998046875
1761841474687827000,1.827826904296875,1.0404815673828125,0.291351318359375,-2.1284637451171875
1761841474697895700,1.837895751953125,0.681121826171875,0.1043243408203125,-1.6078033447265625
1761841474707966000,1.847966064453125,0.3815460205078125,-0.079833984375,-1.1414947509765625
1761841474718035700,1.85803564453125,0.1332550048828125,-0.1864776611328125,-0.7261505126953125
1761841474728104700,1.868104736328125,-0.1177825927734375,-0.236663818359375,-0.3109283447265625
1761841474738174700,1.8781748046875,-0.3949737548828125,-0.2852630615234375,0.1290283203125
1761841474748243700,1.88824365234375,-0.6536102294921875,-0.310302734375,0.5830841064453125
1761841474758313700,1.898313720703125,-0.8061065673828125,-0.325347900390625,1.038360595703125
1761841474768382700,1.9083828125,-0.847198486328125,-0.345245361328125,1.4685516357421875
1761841474778453000,1.918452880859375,-0.79559326171875,-0.3840484619140625,1.8654327392578125
1761841474788522800,1.928522705078125,-0.7353515625,-0.520538330078125,2.2307586669921875
1761841474798591700,1.938591796875,-0.681793212890625,-0.59027099609375,2.5116729736328125
1761841474808661800,1.948661865234375,-0.481536865234375,-0.7573699951171875,2.661773681640625
1761841474818730800,1.958730712890625,-0.366455078125,-0.8598785400390625,2.6573028564453125
1761841474828800800,1.96880078125,-0.2226409912109375,-0.8061370849609375,2.477874755859375
1761841474838869800,1.978869873046875,-0.1048431396484375,-0.7113494873046875,2.192291259765625
1761841474848939800,1.988939697265625,-0.0243682861328125,-0.6162872314453125,1.877838134765625
1761841474859009800,1.999009765625,0.0276641845703125,-0.526275634765625,1.549163818359375
1761841474869078800,2.009078857421875,0.0058746337890625,-0.4325408935546875,1.1965484619140625
1761841474879148800,2.019148681640625,-0.1236572265625,-0.3104248046875,0.78955078125
1761841474889217800,2.0292177734375,-0.3859405517578125,-0.1507110595703125,0.2666168212890625
1761841474899287800,2.039287841796875,-0.6565399169921875,0.000335693359375,-0.3826904296875
1761841474909356800,2.049356689453125,-0.716339111328125,0.1215972900390625,-1.06494140625
1761841474919426600,2.059426513671875,-0.381011962890625,0.33489990234375,-1.6278228759765625
1761841474929495800,2.069495849609375,0.248565673828125,0.6531829833984375,-2.136688232421875
1761841474939565600,2.079565673828125,0.9365692138671875,0.8497161865234375,-2.732757568359375
1761841474949635800,2.0896357421875,1.3004608154296875,0.7827606201171875,-3.2410125732421875
1761841474959704800,2.099704833984375,1.4124908447265625,0.74224853515625,-3.4618377685546875
1761841474969774800,2.10977490234375,1.409271240234375,0.500091552734375,-3.3480072021484375
1761841474979843800,2.11984375,1.4280242919921875,0.1990966796875,-3.0053863525390625
1761841474989913600,2.12991357421875,1.238311767578125,0.114349365234375,-2.508636474609375
1761841474999982800,2.13998291015625,0.9854888916015625,0.0780792236328125,-2.00433349609375
1761841475010052600,2.150052490234375,0.6785736083984375,-0.0635528564453125,-1.489501953125
1761841475020123000,2.160122802734375,0.3995361328125,-0.1552886962890625,-1.000335693359375
1761841475030191600,2.170191650390625,0.1536865234375,-0.1443634033203125,-0.5532684326171875
1761841475040261600,2.18026171875,-0.04632568359375,-0.101898193359375,-0.151123046875
1761841475050331000,2.190330810546875,-0.198089599609375,-0.0613555908203125,0.228851318359375
1761841475060400600,2.200400634765625,-0.3493499755859375,-0.067962646484375,0.6341552734375
1761841475070470000,2.210469970703125,-0.4543304443359375,-0.1545257568359375,1.069671630859375
1761841475080539600,2.22053955078125,-0.5102691650390625,-0.2586822509765625,1.52362060546875
1761841475090609700,2.230609619140625,-0.4989166259765625,-0.4446258544921875,1.96917724609375
1761841475100678700,2.2406787109375,-0.4389801025390625,-0.5758819580078125,2.3693695068359375
1761841475110748700,2.250748779296875,-0.283447265625,-0.6476287841796875,2.6262359619140625
1761841475120817700,2.260817626953125,-0.07373046875,-0.761932373046875,2.714019775390625
1761841475130887700,2.2708876953125,0.038360595703125,-0.7344512939453125,2.62115478515625
1761841475140957000,2.28095703125,0.1103515625,-0.590301513671875,2.355072021484375
1761841475151026700,2.291026611328125,0.10980224609375,-0.3898468017578125,2.034881591796875
1761841475161096700,2.3010966796875,0.10784912109375,-0.2369842529296875,1.6966400146484375
1761841475171165700,2.311165771484375,0.089874267578125,-0.1467132568359375,1.3568878173828125
1761841475181235700,2.321235595703125,0.0485992431640625,-0.0862274169921875,0.98309326171875
1761841475191304700,2.3313046875,-0.0293426513671875,-0.0567169189453125,0.5701446533203125
1761841475201374700,2.341374755859375,-0.135467529296875,-0.0212249755859375,0.0986480712890625
1761841475211443700,2.351443603515625,-0.268341064453125,0.0376434326171875,-0.403656005859375
1761841475221513700,2.361513671875,-0.2509765625,0.1056671142578125,-0.874267578125
1761841475231583700,2.371583740234375,0.04266357421875,0.2669219970703125,-1.3081817626953125
1761841475241652700,2.38165283203125,0.461822509765625,0.554107666015625,-1.832427978515625
1761841475251722800,2.39172265625,0.829620361328125,0.748565673828125,-2.4148712158203125
1761841475261791700,2.401791748046875,1.1400909423828125,0.7231597900390625,-2.9100189208984375
1761841475271861800,2.41186181640625,1.3035888671875,0.631683349609375,-3.1791839599609375
1761841475281930800,2.4219306640625,1.3507537841796875,0.454193115234375,-3.1771697998046875
1761841475292000800,2.432000732421875,1.240753173828125,0.252471923828125,-2.90765380859375
1761841475302070800,2.44207080078125,1.0521697998046875,0.1815643310546875,-2.5140380859375
1761841475312139800,2.452139892578125,0.8082122802734375,0.06304931640625,-2.078094482421875
1761841475322209800,2.462209716796875,0.54217529296875,-0.1385040283203125,-1.6489410400390625
1761841475332278800,2.47227880859375,0.3130035400390625,-0.2862548828125,-1.2648468017578125
1761841475342348800,2.482348876953125,0.1157684326171875,-0.35638427734375,-0.9009552001953125
1761841475352418600,2.49241845703125,-0.0402069091796875,-0.3838958740234375,-0.5514068603515625
1761841475362487800,2.50248779296875,-0.1793975830078125,-0.3549652099609375,-0.231170654296875
1761841475372557800,2.512557861328125,-0.31231689453125,-0.2882537841796875,0.0719146728515625
1761841475382626800,2.522626708984375,-0.4093017578125,-0.2686920166015625,0.4001007080078125
1761841475392696800,2.53269677734375,-0.4955291748046875,-0.27001953125,0.784393310546875
1761841475402765800,2.542765869140625,-0.5384979248046875,-0.3260345458984375,1.1951751708984375
1761841475412835800,2.5528359375,-0.5640411376953125,-0.392059326171875,1.603729248046875
1761841475422905600,2.562905517578125,-0.5474700927734375,-0.4633636474609375,1.963958740234375
1761841475432974800,2.572974853515625,-0.4182891845703125,-0.562255859375,2.1913604736328125
1761841475443044600,2.583044677734375,-0.1966094970703125,-0.7069549560546875,2.2976837158203125
1761841475453113900,2.59311376953125,-0.0348968505859375,-0.779205322265625,2.3062286376953125
1761841475463184000,2.603183837890625,0.16375732421875,-0.7335662841796875,2.19866943359375
1761841475473252900,2.6132529296875,0.2552947998046875,-0.621978759765625,1.9872283935546875
1761841475483323000,2.623322998046875,0.2715911865234375,-0.4943389892578125,1.71905517578125
1761841475493392600,2.633392578125,0.2636566162109375,-0.395538330078125,1.4371337890625
1761841475503462000,2.6434619140625,0.2321624755859375,-0.3439788818359375,1.1392364501953125
1761841475513531600,2.65353173828125,0.1676177978515625,-0.3270721435546875,0.8251953125
1761841475523601000,2.663600830078125,0.070892333984375,-0.32818603515625,0.47003173828125
1761841475533670700,2.673670654296875,-0.0496978759765625,-0.3557281494140625,0.0936279296875
1761841475543740000,2.683739990234375,-0.19207763671875,-0.344879150390625,-0.329132080078125
1761841475553809700,2.6938095703125,-0.2413330078125,-0.2374420166015625,-0.809967041015625
1761841475563879200,2.703879150390625,-0.1084442138671875,-0.075286865234375,-1.3073577880859375
1761841475573948200,2.7139482421875,0.1656494140625,0.114501953125,-1.8134613037109375
1761841475584018200,2.72401806640625,0.4671783447265625,0.2074432373046875,-2.3253326416015625
1761841475594087400,2.73408740234375,0.6607513427734375,0.1520538330078125,-2.770172119140625
1761841475604157200,2.7441572265625,0.7697601318359375,0.0433197021484375,-3.008697509765625
1761841475614226400,2.754226318359375,0.7092132568359375,-0.086151123046875,-2.9983978271484375
1761841475624296200,2.764296142578125,0.5086212158203125,-0.1616058349609375,-2.7511749267578125
1761841475634366200,2.7743662109375,0.3484649658203125,-0.197906494140625,-2.3990325927734375
1761841475644435200,2.784435302734375,0.19903564453125,-0.2752532958984375,-1.9845428466796875
1761841475654505200,2.794505126953125,0.084197998046875,-0.3933563232421875,-1.5641632080078125
1761841475664574200,2.80457421875,-0.0157623291015625,-0.501922607421875,-1.1854400634765625
1761841475674644200,2.814644287109375,-0.1108856201171875,-0.5608367919921875,-0.846893310546875
1761841475684714200,2.82471435546875,-0.2003326416015625,-0.56988525390625,-0.5303497314453125
1761841475694783200,2.834783203125,-0.2949066162109375,-0.5451812744140625,-0.227264404296875
1761841475704853200,2.844853271484375,-0.4072113037109375,-0.5203094482421875,0.075225830078125
1761841475714922200,2.854922119140625,-0.543121337890625,-0.506805419921875,0.3995361328125
1761841475724992300,2.8649921875,-0.6409454345703125,-0.569000244140625,0.78778076171875
1761841475735061200,2.875061279296875,-0.7286224365234375,-0.658905029296875,1.23858642578125
1761841475745131300,2.88513134765625,-0.6810455322265625,-0.7585601806640625,1.6736297607421875
1761841475755201300,2.895201171875,-0.709808349609375,-0.793792724609375,2.0635833740234375
1761841475765270300,2.905270263671875,-0.6410064697265625,-0.8776397705078125,2.27685546875
1761841475775340300,2.91534033203125,-0.4681396484375,-0.966644287109375,2.3377532958984375
1761841475785409300,2.9254091796875,-0.2666168212890625,-0.8775482177734375,2.225799560546875
1761841475795479300,2.935479248046875,-0.0829925537109375,-0.7356109619140625,2.000274658203125
1761841475805548300,2.94554833984375,0.0141448974609375,-0.585601806640625,1.7121734619140625
1761841475815618300,2.955618408203125,0.0613861083984375,-0.453704833984375,1.379913330078125
1761841475825688300,2.965688232421875,0.081756591796875,-0.357025146484375,1.0118865966796875
1761841475835757300,2.97575732421875,0.011016845703125,-0.281951904296875,0.6039581298828125
1761841475845827300,2.985827392578125,-0.0987396240234375,-0.2224578857421875,0.1253509521484375
1761841475855896300,2.995896240234375,-0.1804656982421875,-0.131317138671875,-0.398712158203125
1761841475865966300,3.00596630859375,-0.1099090576171875,-0.018402099609375,-0.9044189453125
1761841475876035300,3.016035400390625,0.170867919921875,0.139373779296875,-1.3548583984375
1761841475886105300,3.026105224609375,0.552154541015625,0.3614044189453125,-1.798980712890625
1761841475896175000,3.036175048828125,0.9196624755859375,0.515838623046875,-2.272705078125
1761841475906244400,3.046244384765625,1.1652679443359375,0.5563201904296875,-2.683380126953125
1761841475916314400,3.056314453125,1.250823974609375,0.4949798583984375,-2.9055328369140625
1761841475926383400,3.06638330078125,1.2847747802734375,0.3474884033203125,-2.8988494873046875
1761841475936453400,3.076453369140625,1.159881591796875,0.2245330810546875,-2.6610565185546875
1761841475946523100,3.086523193359375,0.972442626953125,0.179351806640625,-2.3091583251953125
1761841475956592400,3.09659228515625,0.762725830078125,0.099395751953125,-1.90570068359375
1761841475966662100,3.106662109375,0.5675811767578125,-0.05596923828125,-1.486358642578125
1761841475976731400,3.1167314453125,0.3914794921875,-0.185546875,-1.09130859375
1761841475986801200,3.12680126953125,0.2442626953125,-0.2399444580078125,-0.7168426513671875
1761841475996870400,3.136870361328125,0.1179046630859375,-0.258392333984375,-0.358673095703125
1761841476006940400,3.1469404296875,-0.039947509765625,-0.2408599853515625,-0.0043487548828125
1761841476017010200,3.15701025390625,-0.2362823486328125,-0.2283172607421875,0.38677978515625
1761841476027079400,3.167079345703125,-0.4561614990234375,-0.262359619140625,0.8698883056640625
1761841476037149200,3.177149169921875,-0.6419219970703125,-0.381622314453125,1.407196044921875
1761841476047218400,3.187218505859375,-0.6830902099609375,-0.584503173828125,1.949676513671875
1761841476057288200,3.1972880859375,-0.7685089111328125,-0.744384765625,2.4556732177734375
1761841476067358200,3.207358154296875,-0.7006378173828125,-0.9884185791015625,2.759185791015625
1761841476077427200,3.21742724609375,-0.4664154052734375,-1.1382904052734375,2.8271331787109375
1761841476087497200,3.227497314453125,-0.29095458984375,-1.0724945068359375,2.6624755859375
1761841476097566500,3.23756640625,-0.110809326171875,-0.86663818359375,2.3173980712890625
1761841476107636200,3.24763623046875,-0.0117340087890625,-0.6456451416015625,1.9051055908203125
1761841476117705500,3.25770556640625,0.069976806640625,-0.4571990966796875,1.4588470458984375
1761841476127775200,3.267775146484375,0.1594696044921875,-0.29931640625,1.011383056640625
1761841476137845200,3.27784521484375,0.246673583984375,-0.185211181640625,0.5555267333984375
1761841476147914200,3.287914306640625,0.2530059814453125,-0.0961151123046875,0.0634918212890625
1761841476157984300,3.297984375,0.2135467529296875,-0.02069091796875,-0.4873504638671875
1761841476168053200,3.30805322265625,0.244476318359375,0.056732177734375,-1.027587890625
1761841476178123300,3.318123291015625,0.423614501953125,0.167633056640625,-1.5290679931640625
1761841476188192300,3.328192138671875,0.558929443359375,0.2344207763671875,-1.9682769775390625
1761841476198262300,3.33826220703125,0.65606689453125,0.27496337890625,-2.375244140625
1761841476208332300,3.348332275390625,0.7000885009765625,0.300445556640625,-2.6396636962890625
1761841476218401300,3.3584013671875,0.82452392578125,0.2126617431640625,-2.716033935546875
1761841476228471300,3.36847119140625,0.845794677734375,0.0765380859375,-2.5834503173828125
1761841476238540300,3.378540283203125,0.7397003173828125,-0.00970458984375,-2.30145263671875
1761841476248610300,3.3886103515625,0.5838470458984375,-0.074310302734375,-1.9856719970703125
1761841476258680300,3.398680419921875,0.4122161865234375,-0.1666717529296875,-1.639373779296875
1761841476268749300,3.408749267578125,0.261962890625,-0.2940521240234375,-1.2875518798828125
1761841476278819300,3.4188193359375,0.13897705078125,-0.3685455322265625,-0.9588775634765625
1761841476288888300,3.428888427734375,0.0394134521484375,-0.389190673828125,-0.6496734619140625
1761841476298958300,3.438958251953125,-0.0355682373046875,-0.373016357421875,-0.3671722412109375
1761841476309027000,3.449027099609375,-0.13214111328125,-0.3411712646484375,-0.1034393310546875
1761841476319097300,3.459097412109375,-0.265411376953125,-0.364593505859375,0.1762847900390625
1761841476329167400,3.46916748046875,-0.4202423095703125,-0.4486846923828125,0.5178375244140625
1761841476339236400,3.479236328125,-0.533935546875,-0.54974365234375,0.887939453125
1761841476349306400,3.489306396484375,-0.6033172607421875,-0.5951385498046875,1.2049713134765625
1761841476359375400,3.499375244140625,-0.5631561279296875,-0.657196044921875,1.4735565185546875
1761841476369445400,3.5094453125,-0.5888824462890625,-0.729461669921875,1.7808074951171875
1761841476379515100,3.51951513671875,-0.5263519287109375,-0.888153076171875,1.9972991943359375
1761841476389584400,3.52958447265625,-0.430938720703125,-1.048248291015625,2.081573486328125
1761841476399654100,3.539654052734375,-0.387939453125,-1.0704498291015625,2.0238800048828125
1761841476409723400,3.549723388671875,-0.3432464599609375,-1.0226898193359375,1.82440185546875
1761841476419793400,3.55979345703125,-0.2907257080078125,-0.89166259765625,1.570526123046875
1761841476429862100,3.569862060546875,-0.212066650390625,-0.7840423583984375,1.3040771484375
1761841476439932400,3.579932373046875,-0.130645751953125,-0.6963653564453125,1.04052734375
1761841476450002200,3.590002197265625,-0.1265716552734375,-0.5793304443359375,0.7091217041015625
1761841476460071400,3.600071533203125,-0.188323974609375,-0.4640045166015625,0.310333251953125
1761841476470141200,3.61014111328125,-0.24969482421875,-0.3560638427734375,-0.188568115234375
1761841476480210400,3.62021044921875,-0.1953887939453125,-0.215087890625,-0.764068603515625
1761841476490280200,3.6302802734375,0.03741455078125,-0.0502777099609375,-1.31134033203125
1761841476500350200,3.64035009765625,0.3795013427734375,0.0894775390625,-1.7944488525390625
1761841476510419500,3.65041943359375,0.7281036376953125,0.0813140869140625,-2.1956787109375
1761841476520489200,3.6604892578125,0.9060821533203125,0.0175018310546875,-2.4790496826171875
1761841476530558500,3.670558349609375,0.874053955078125,0.0001983642578125,-2.634002685546875
1761841476540628200,3.680628173828125,0.776397705078125,-0.1033477783203125,-2.60540771484375
1761841476550698200,3.6906982421875,0.594482421875,-0.1999664306640625,-2.371185302734375
1761841476560768000,3.70076806640625,0.4070587158203125,-0.2804412841796875,-2.01556396484375
1761841476570838300,3.71083837890625,0.2485809326171875,-0.3554534912109375,-1.6093902587890625
1761841476580907000,3.720906982421875,0.06573486328125,-0.420745849609375,-1.186767578125
1761841476590977300,3.730977294921875,-0.1085205078125,-0.4389801025390625,-0.7945556640625
1761841476601046000,3.7410458984375,-0.2534942626953125,-0.4099884033203125,-0.4302825927734375
1761841476611116300,3.7511162109375,-0.3557281494140625,-0.346282958984375,-0.0773773193359375
1761841476621186000,3.76118603515625,-0.407012939453125,-0.2923583984375,0.2584686279296875
1761841476631255000,3.771255126953125,-0.480438232421875,-0.2913360595703125,0.614410400390625
1761841476641325300,3.7813251953125,-0.6112060546875,-0.3997955322265625,1.023468017578125
1761841476651394000,3.79139404296875,-0.7006683349609375,-0.5381927490234375,1.421661376953125
1761841476661464300,3.80146435546875,-0.7343597412109375,-0.5884857177734375,1.7711639404296875
1761841476671534000,3.8115341796875,-0.688629150390625,-0.67254638671875,2.077362060546875
1761841476681603000,3.82160302734375,-0.5377044677734375,-0.7203521728515625,2.305419921875
1761841476691673000,3.831673095703125,-0.39794921875,-0.808990478515625,2.439422607421875
1761841476701742000,3.8417421875,-0.270660400390625,-0.8649749755859375,2.4566497802734375
1761841476711812000,3.85181201171875,-0.1590423583984375,-0.76263427734375,2.3147430419921875
1761841476721881000,3.861881103515625,-0.0761871337890625,-0.6036376953125,2.0615081787109375
1761841476731951400,3.871951416015625,-0.015716552734375,-0.4303131103515625,1.758087158203125
1761841476742021000,3.882021240234375,0.0235595703125,-0.307891845703125,1.451202392578125
1761841476752090000,3.892090087890625,0.072174072265625,-0.2272796630859375,1.135955810546875
1761841476762160000,3.90216015625,0.056396484375,-0.153564453125,0.78240966796875
1761841476772229000,3.91222900390625,0.0002593994140625,-0.0939178466796875,0.3792877197265625
1761841476782299100,3.922299072265625,-0.063079833984375,-0.064056396484375,-0.0432891845703125
1761841476792369200,3.932369140625,-0.0021209716796875,-0.0010986328125,-0.4878082275390625
1761841476802438100,3.942438232421875,0.1896209716796875,0.107574462890625,-0.956024169921875
1761841476812508200,3.952508056640625,0.4320831298828125,0.2477874755859375,-1.4663848876953125
1761841476822577200,3.9625771484375,0.702392578125,0.3497161865234375,-1.9889068603515625
1761841476832647200,3.972647216796875,0.9406890869140625,0.320465087890625,-2.4141082763671875
1761841476842716200,3.982716064453125,1.1293792724609375,0.160369873046875,-2.63824462890625
1761841476852786200,3.9927861328125,1.0931854248046875,-0.000579833984375,-2.629913330078125
1761841476862856200,4.002856201171875,0.986572265625,-0.1212158203125,-2.4354248046875
1761841476872923100,4.012923095703125,0.7588958740234375,-0.1482086181640625,-2.0893096923828125
1761841476882993200,4.0229931640625,0.545989990234375,-0.1960601806640625,-1.7291717529296875
1761841476893062100,4.033062255859375,0.324737548828125,-0.317962646484375,-1.346160888671875
1761841476903132200,4.043132080078125,0.1305084228515625,-0.422637939453125,-0.9786376953125
1761841476913202000,4.053201904296875,-0.0343170166015625,-0.4697723388671875,-0.63458251953125
1761841476923271200,4.063271240234375,-0.1575164794921875,-0.4584808349609375,-0.3065338134765625
1761841476933341000,4.0733408203125,-0.2355499267578125,-0.407135009765625,0.015380859375
1761841476943410200,4.08341015625,-0.34033203125,-0.3531951904296875,0.3497161865234375
1761841476953480200,4.093480224609375,-0.5194854736328125,-0.368499755859375,0.7040557861328125
1761841476963549200,4.103549072265625,-0.67742919921875,-0.43212890625,1.09564208984375
1761841476973619200,4.113619140625,-0.7638092041015625,-0.4952239990234375,1.5403900146484375
1761841476983689000,4.12368896484375,-0.8030853271484375,-0.5572662353515625,1.981475830078125
1761841476993758200,4.13375830078125,-0.813812255859375,-0.654876708984375,2.3477020263671875
1761841477003828000,4.143827880859375,-0.6503448486328125,-0.8071746826171875,2.5008392333984375
1761841477013897200,4.153897216796875,-0.5167236328125,-0.9338836669921875,2.5152435302734375
1761841477023967000,4.163967041015625,-0.3665313720703125,-0.86151123046875,2.3619537353515625
1761841477034037000,4.174037109375,-0.2698516845703125,-0.70843505859375,2.1064453125
1761841477044106200,4.184106201171875,-0.2034912109375,-0.603240966796875,1.82891845703125
1761841477054176000,4.194176025390625,-0.1495361328125,-0.478668212890625,1.5047149658203125
1761841477064245200,4.204245361328125,-0.1328887939453125,-0.343658447265625,1.1328125
1761841477074315000,4.21431494140625,-0.14031982421875,-0.22900390625,0.718963623046875
1761841477084384300,4.22438427734375,-0.186614990234375,-0.1075439453125,0.24713134765625
1761841477094454000,4.2344541015625,-0.18218994140625,-0.0061798095703125,-0.262054443359375
1761841477104524000,4.24452392578125,0.0166473388671875,0.084197998046875,-0.7564239501953125
1761841477114593000,4.254593017578125,0.36712646484375,0.241119384765625,-1.2085723876953125
1761841477124663000,4.2646630859375,0.75726318359375,0.353973388671875,-1.7232208251953125
1761841477134732300,4.274732177734375,0.9592132568359375,0.377716064453125,-2.202545166015625
1761841477144802000,4.284802001953125,1.158203125,0.2431640625,-2.5382537841796875
1761841477154872000,4.2948720703125,1.0415191650390625,0.1289215087890625,-2.616943359375
1761841477164941000,4.304941162109375,1.1009979248046875,0.0712738037109375,-2.5487823486328125
1761841477175011000,4.315010986328125,1.053192138671875,-0.0458526611328125,-2.3277130126953125
1761841477185080000,4.325080078125,0.8147125244140625,-0.1685943603515625,-1.939727783203125
1761841477195150000,4.335150146484375,0.6485748291015625,-0.2245941162109375,-1.597747802734375
1761841477205220000,4.34522021484375,0.3964080810546875,-0.2881927490234375,-1.2218780517578125
1761841477215289000,4.3552890625,0.157012939453125,-0.370208740234375,-0.8346710205078125
1761841477225359000,4.365359130859375,0.0062713623046875,-0.3936767578125,-0.461639404296875
1761841477235428000,4.375427978515625,-0.130706787109375,-0.3695831298828125,-0.097259521484375
1761841477245498000,4.385498046875,-0.3835906982421875,-0.3646087646484375,0.2706451416015625
1761841477255567000,4.395567138671875,-0.7286834716796875,-0.540435791015625,0.715789794921875
1761841477265637000,4.40563720703125,-0.968475341796875,-0.770294189453125,1.2076568603515625
1761841477275707100,4.41570703125,-1.0268096923828125,-0.8876800537109375,1.62371826171875
1761841477285776100,4.425776123046875,-0.9577789306640625,-0.8746795654296875,1.9982757568359375
1761841477295846100,4.43584619140625,-0.9340667724609375,-0.7934417724609375,2.26129150390625
1761841477305915100,4.4459150390625,-0.8809051513671875,-0.8568572998046875,2.32122802734375
1761841477315985200,4.455985107421875,-0.6482086181640625,-0.997833251953125,2.1674652099609375
1761841477326055200,4.46605517578125,-0.5154876708984375,-0.8552398681640625,1.9184722900390625
1761841477336124200,4.476124267578125,-0.371978759765625,-0.6979827880859375,1.6457977294921875
1761841477346194000,4.48619384765625,-0.2345733642578125,-0.5518646240234375,1.3803863525390625
1761841477356263200,4.49626318359375,-0.0912322998046875,-0.4607696533203125,1.0970306396484375
1761841477366333200,4.506333251953125,0.028900146484375,-0.3854217529296875,0.782958984375
1761841477376403200,4.5164033203125,0.1131591796875,-0.370941162109375,0.4584503173828125
1761841477386472200,4.52647216796875,0.1547698974609375,-0.38690185546875,0.1055908203125
1761841477396542000,4.5365419921875,0.165740966796875,-0.387054443359375,-0.2675933837890625
1761841477406611200,4.546611083984375,0.1878814697265625,-0.4094390869140625,-0.6413116455078125
1761841477416681000,4.556680908203125,0.2631988525390625,-0.363494873046875,-1.0104217529296875
1761841477426751200,4.566751220703125,0.3300933837890625,-0.3062286376953125,-1.360260009765625
1761841477436820000,4.576820068359375,0.40740966796875,-0.27838134765625,-1.672210693359375
1761841477446890200,4.58689013671875,0.53936767578125,-0.3090362548828125,-1.89031982421875
1761841477456959200,4.596959228515625,0.6391448974609375,-0.4092254638671875,-1.980316162109375
1761841477467029000,4.607029052734375,0.6924285888671875,-0.4877166748046875,-1.9512176513671875
1761841477477099300,4.617099365234375,0.6293792724609375,-0.549530029296875,-1.8105316162109375
1761841477487168000,4.62716796875,0.500091552734375,-0.5743408203125,-1.5898895263671875
1761841477497238300,4.63723828125,0.368499755859375,-0.6036834716796875,-1.31585693359375
1761841477507307000,4.64730712890625,0.206695556640625,-0.6441192626953125,-1.0037384033203125
1761841477517377000,4.657376953125,0.030975341796875,-0.6691131591796875,-0.697479248046875
1761841477527447300,4.667447265625,-0.1400604248046875,-0.666717529296875,-0.3983306884765625
1761841477537516000,4.67751611328125,-0.292724609375,-0.6804351806640625,-0.098663330078125
1761841477547586300,4.68758642578125,-0.4743194580078125,-0.7634429931640625,0.22711181640625
1761841477557655000,4.697655029296875,-0.5644073486328125,-0.8213958740234375,0.5354766845703125
1761841477567728600,4.707728759765625,-0.685150146484375,-0.7696380615234375,0.8314666748046875
1761841477577797600,4.717797607421875,-0.8082275390625,-0.7646636962890625,1.127166748046875
1761841477587867600,4.72786767578125,-0.8057098388671875,-0.75946044921875,1.3793792724609375
1761841477597938000,4.73793798828125,-0.768951416015625,-0.72784423828125,1.6151885986328125
1761841477608006700,4.748006591796875,-0.7176513671875,-0.793121337890625,1.7777099609375
1761841477618077000,4.758076904296875,-0.6299591064453125,-0.92864990234375,1.850067138671875
1761841477628145700,4.768145751953125,-0.520416259765625,-0.9247283935546875,1.8016510009765625
1761841477638215700,4.778215576171875,-0.3961334228515625,-0.8533935546875,1.648223876953125
1761841477648286000,4.788285888671875,-0.311737060546875,-0.7680511474609375,1.443939208984375
1761841477658354700,4.798354736328125,-0.2381744384765625,-0.68743896484375,1.2066192626953125
1761841477668425000,4.808425048828125,-0.189697265625,-0.6118621826171875,0.934234619140625
1761841477678493700,4.81849365234375,-0.1412200927734375,-0.519134521484375,0.614532470703125
1761841477688563700,4.828563720703125,-0.09796142578125,-0.4291229248046875,0.2505645751953125
1761841477698633700,4.8386337890625,-0.0113525390625,-0.352264404296875,-0.1568450927734375
1761841477708702700,4.84870263671875,0.0848541259765625,-0.2889556884765625,-0.5591278076171875
1761841477718772700,4.858772705078125,0.2373046875,-0.2158660888671875,-0.971405029296875
1761841477728841700,4.868841796875,0.3983612060546875,-0.1216888427734375,-1.3780975341796875
1761841477738911700,4.878911865234375,0.50177001953125,-0.039947509765625,-1.7230224609375
1761841477748981800,4.888981689453125,0.7671051025390625,-0.1114654541015625,-1.97552490234375
1761841477759050800,4.89905078125,0.833770751953125,-0.194061279296875,-2.0922393798828125
1761841477769120800,4.909120849609375,0.8703460693359375,-0.260498046875,-2.07745361328125
1761841477779189800,4.919189697265625,0.878814697265625,-0.36688232421875,-1.92633056640625
1761841477789259800,4.929259765625,0.7710723876953125,-0.432647705078125,-1.6678314208984375
1761841477799329800,4.939329833984375,0.6582183837890625,-0.4746551513671875,-1.404876708984375
1761841477809398500,4.9493984375,0.49041748046875,-0.548065185546875,-1.1084136962890625
1761841477819468800,4.95946875,0.3137054443359375,-0.615203857421875,-0.81817626953125
1761841477829537800,4.969537841796875,0.133636474609375,-0.6341094970703125,-0.53076171875
1761841477839607800,4.97960791015625,-0.0086212158203125,-0.6557464599609375,-0.2425079345703125
1761841477849677800,4.989677734375,-0.1844635009765625,-0.6301116943359375,0.06610107421875
1761841477859746800,4.999746826171875,-0.3814544677734375,-0.64239501953125,0.399139404296875
1761841477869816800,5.00981689453125,-0.5999603271484375,-0.718353271484375,0.79638671875
1761841477879885600,5.019885498046875,-0.736053466796875,-0.73321533203125,1.1915435791015625
1761841477889955800,5.029955810546875,-0.7830352783203125,-0.74432373046875,1.5368194580078125
1761841477900024600,5.040024658203125,-0.81378173828125,-0.7844390869140625,1.8198394775390625
1761841477910094800,5.0500947265625,-0.712158203125,-0.896209716796875,1.9478912353515625
1761841477920164900,5.060164794921875,-0.5408782958984375,-1.064056396484375,1.952484130859375
1761841477930233600,5.070233642578125,-0.398284912109375,-1.0618133544921875,1.8450164794921875
1761841477940304000,5.080303955078125,-0.3057861328125,-0.95098876953125,1.6316070556640625
1761841477950372600,5.09037255859375,-0.25457763671875,-0.8365631103515625,1.3610992431640625
1761841477960443000,5.10044287109375,-0.208770751953125,-0.7431182861328125,1.0771026611328125
1761841477970513000,5.110512939453125,-0.1593017578125,-0.6398773193359375,0.7539520263671875
1761841477980582000,5.120581787109375,-0.10577392578125,-0.57080078125,0.4002685546875
1761841477990652000,5.13065185546875,-0.072601318359375,-0.55230712890625,0.02227783203125
1761841478000720600,5.140720703125,-0.023345947265625,-0.512420654296875,-0.360504150390625
1761841478010791000,5.150791015625,0.0466461181640625,-0.439788818359375,-0.7458038330078125
1761841478020860700,5.160860595703125,0.113800048828125,-0.392181396484375,-1.112091064453125
1761841478030930000,5.170929931640625,0.1973114013671875,-0.39019775390625,-1.4280548095703125
1761841478040999700,5.180999755859375,0.255584716796875,-0.4267120361328125,-1.6693115234375
1761841478051068700,5.191068603515625,0.3048095703125,-0.459625244140625,-1.8079681396484375
1761841478061139000,5.201138916015625,0.287139892578125,-0.5095672607421875,-1.836334228515625
1761841478071208700,5.211208740234375,0.25335693359375,-0.540985107421875,-1.77685546875
1761841478081278000,5.22127783203125,0.195556640625,-0.5750732421875,-1.6130523681640625
1761841478091347700,5.23134765625,0.1734619140625,-0.611297607421875,-1.4025421142578125
1761841478101416700,5.241416748046875,0.1312408447265625,-0.6287384033203125,-1.1635284423828125
1761841478111486700,5.25148681640625,0.0889129638671875,-0.655426025390625,-0.9091339111328125
1761841478121556700,5.261556640625,0.03094482421875,-0.6908416748046875,-0.6416168212890625
1761841478131625700,5.271625732421875,-0.0296630859375,-0.7284698486328125,-0.366363525390625
1761841478141695700,5.28169580078125,-0.1213531494140625,-0.76458740234375,-0.094207763671875
1761841478151765000,5.291764892578125,-0.2513885498046875,-0.7893524169921875,0.1763458251953125
1761841478161834800,5.301834716796875,-0.366973876953125,-0.859466552734375,0.4609222412109375
1761841478171904800,5.31190478515625,-0.473663330078125,-0.9202728271484375,0.7659759521484375
1761841478181973800,5.321973876953125,-0.5128021240234375,-0.914703369140625,1.031768798828125
1761841478192043800,5.332043701171875,-0.552886962890625,-0.897003173828125,1.2550048828125
1761841478202112800,5.34211279296875,-0.6425018310546875,-0.926300048828125,1.4309234619140625
1761841478212182800,5.352182861328125,-0.6148223876953125,-0.98748779296875,1.485107421875
1761841478222252800,5.362252685546875,-0.51751708984375,-1.0579681396484375,1.4187164306640625
1761841478232321800,5.37232177734375,-0.4459228515625,-1.0555267333984375,1.2639312744140625
1761841478242391800,5.382391845703125,-0.3462371826171875,-0.965484619140625,1.061431884765625
1761841478252460800,5.392460693359375,-0.2708740234375,-0.861785888671875,0.8311920166015625
1761841478262530800,5.40253076171875,-0.2261199951171875,-0.7391815185546875,0.54559326171875
1761841478272600600,5.4126005859375,-0.1950836181640625,-0.6084442138671875,0.20941162109375
1761841478282669800,5.422669921875,-0.14453125,-0.5113067626953125,-0.1656951904296875
1761841478292739800,5.43273974609375,-0.036865234375,-0.4287261962890625,-0.547119140625
1761841478302808800,5.442808837890625,0.1423797607421875,-0.3693695068359375,-0.8965301513671875
1761841478312878800,5.45287890625,0.3335418701171875,-0.3164215087890625,-1.215087890625
1761841478322948600,5.462948486328125,0.4767303466796875,-0.3566131591796875,-1.47308349609375
1761841478333017900,5.473017822265625,0.444091796875,-0.34381103515625,-1.6934661865234375
1761841478343087600,5.483087646484375,0.35333251953125,-0.304473876953125,-1.85406494140625
1761841478353156900,5.493156982421875,0.288330078125,-0.3270263671875,-1.887939453125
1761841478363226600,5.5032265625,0.3177032470703125,-0.4560089111328125,-1.767578125
1761841478373296600,5.513296630859375,0.34808349609375,-0.4965057373046875,-1.55694580078125
1761841478383366000,5.523365966796875,0.368743896484375,-0.504974365234375,-1.3441925048828125
1761841478393435600,5.533435546875,0.3395843505859375,-0.5640411376953125,-1.1074371337890625
1761841478403505000,5.5435048828125,0.276397705078125,-0.646026611328125,-0.86181640625
1761841478413574700,5.55357470703125,0.210357666015625,-0.710479736328125,-0.6168975830078125
1761841478423644700,5.563644775390625,0.1493072509765625,-0.7389373779296875,-0.3773956298828125
1761841478433713700,5.573713623046875,0.0345916748046875,-0.7518310546875,-0.1247406005859375
1761841478443783700,5.58378369140625,-0.1234588623046875,-0.7928314208984375,0.15155029296875
1761841478453852700,5.593852783203125,-0.2464141845703125,-0.8673095703125,0.4652557373046875
1761841478463922700,5.603922607421875,-0.29315185546875,-0.9405059814453125,0.7942962646484375
1761841478473992700,5.61399267578125,-0.3369140625,-0.965118408203125,1.0727691650390625
1761841478484061700,5.624061767578125,-0.438629150390625,-0.9205474853515625,1.27490234375
1761841478494131700,5.634131591796875,-0.5225830078125,-0.957427978515625,1.3620147705078125
1761841478504200700,5.64420068359375,-0.560699462890625,-1.01239013671875,1.360076904296875
1761841478514270700,5.654270751953125,-0.504364013671875,-0.9988250732421875,1.2623291015625
1761841478524341000,5.664341064453125,-0.4404296875,-1.019989013671875,1.0966644287109375
1761841478534409700,5.67440966796875,-0.3951873779296875,-0.9534759521484375,0.889923095703125
1761841478544479700,5.684479736328125,-0.3480224609375,-0.8824920654296875,0.6595306396484375
1761841478554548700,5.694548828125,-0.3026580810546875,-0.8450927734375,0.427001953125
1761841478564614700,5.70461474609375,-0.2753143310546875,-0.7920379638671875,0.187225341796875
1761841478574684700,5.7146845703125,-0.2283172607421875,-0.7580718994140625,-0.0697784423828125
1761841478584753400,5.72475341796875,-0.19500732421875,-0.6824798583984375,-0.3848114013671875
1761841478594823700,5.73482373046875,-0.202117919921875,-0.5297698974609375,-0.7298431396484375
1761841478604892400,5.744892333984375,-0.0568389892578125,-0.4602813720703125,-1.0465240478515625
1761841478614962700,5.754962646484375,0.09869384765625,-0.4800872802734375,-1.3297882080078125
1761841478625032700,5.76503271484375,0.2685394287109375,-0.43572998046875,-1.583404541015625
1761841478635101400,5.775101318359375,0.4161224365234375,-0.3577117919921875,-1.7808837890625
1761841478645171700,5.785171630859375,0.4749298095703125,-0.3542938232421875,-1.8473358154296875
1761841478655241500,5.795241455078125,0.4484100341796875,-0.4574432373046875,-1.758544921875
1761841478665310700,5.805310791015625,0.3929595947265625,-0.522857666015625,-1.542877197265625
1761841478675380500,5.81538037109375,0.313812255859375,-0.50164794921875,-1.2712860107421875
1761841478685449700,5.82544970703125,0.226318359375,-0.5251922607421875,-0.9530181884765625
1761841478695519500,5.83551953125,0.1546783447265625,-0.5887908935546875,-0.6241455078125
1761841478705589500,5.845589599609375,0.0383758544921875,-0.6236572265625,-0.3375244140625
1761841478715658800,5.85565869140625,-0.0413360595703125,-0.6232452392578125,-0.09619140625
1761841478725728500,5.865728515625,-0.147705078125,-0.6569366455078125,0.163909912109375
1761841478735797800,5.8757978515625,-0.2401885986328125,-0.7444305419921875,0.490447998046875
1761841478745867500,5.885867431640625,-0.288726806640625,-0.8376617431640625,0.86224365234375
1761841478755937500,5.8959375,-0.3534698486328125,-0.9007720947265625,1.1786041259765625
1761841478766006500,5.906006591796875,-0.3547821044921875,-0.9493408203125,1.4255523681640625
1761841478776076500,5.91607666015625,-0.394439697265625,-0.9424285888671875,1.5921783447265625
1761841478786145500,5.9261455078125,-0.4056396484375,-0.9372100830078125,1.6352386474609375
1761841478796215600,5.936215576171875,-0.259246826171875,-0.99615478515625,1.543121337890625
1761841478806284500,5.946284423828125,-0.195770263671875,-0.9921417236328125,1.3785858154296875
1761841478816354600,5.9563544921875,-0.1807403564453125,-0.928955078125,1.1720123291015625
1761841478826424600,5.966424560546875,-0.1883392333984375,-0.8408660888671875,0.9195709228515625
1761841478836493600,5.97649365234375,-0.2001800537109375,-0.7755279541015625,0.6434478759765625
1761841478846563600,5.9865634765625,-0.2132568359375,-0.7301177978515625,0.32659912109375
1761841478856633600,5.996633544921875,-0.18353271484375,-0.709075927734375,-0.0086517333984375
1761841478866702600,6.00670263671875,-0.1556854248046875,-0.6995391845703125,-0.3337554931640625
1761841478876772600,6.016772705078125,-0.1360321044921875,-0.640167236328125,-0.6772003173828125
1761841478886841600,6.026841552734375,-0.0685882568359375,-0.534423828125,-1.0152587890625
1761841478896911600,6.03691162109375,0.044189453125,-0.4510040283203125,-1.32269287109375
1761841478906981400,6.0469814453125,0.1772003173828125,-0.382965087890625,-1.5987091064453125
1761841478917050600,6.057050537109375,0.2439117431640625,-0.3124847412109375,-1.810028076171875
1761841478927120400,6.067120361328125,0.3345184326171875,-0.34344482421875,-1.9285125732421875
1761841478937189600,6.077189697265625,0.330474853515625,-0.3938446044921875,-1.9265289306640625
1761841478947259600,6.087259765625,0.3655853271484375,-0.4189910888671875,-1.8096160888671875
1761841478957329400,6.097329345703125,0.3585968017578125,-0.47625732421875,-1.5904693603515625
1761841478967398700,6.107398681640625,0.327850341796875,-0.5477294921875,-1.3485107421875
1761841478977468400,6.117468505859375,0.28778076171875,-0.5878448486328125,-1.0964813232421875
1761841478987537700,6.12753759765625,0.2221221923828125,-0.6071624755859375,-0.8436279296875
1761841478997607400,6.137607421875,0.1549224853515625,-0.589111328125,-0.6030731201171875
1761841479007677400,6.147677490234375,0.075927734375,-0.5440826416015625,-0.3721466064453125
1761841479017746400,6.157746337890625,0.019378662109375,-0.4812164306640625,-0.1410980224609375
1761841479027816400,6.16781640625,-0.0103302001953125,-0.4437408447265625,0.098541259765625
1761841479037885700,6.1778857421875,-0.0836944580078125,-0.4629669189453125,0.3788299560546875
1761841479047955500,6.18795556640625,-0.1566314697265625,-0.54266357421875,0.6923675537109375
1761841479058025500,6.198025390625,-0.246795654296875,-0.68487548828125,1.0247344970703125
1761841479068094500,6.208094482421875,-0.4568939208984375,-0.8021392822265625,1.39324951171875
1761841479078164500,6.21816455078125,-0.557647705078125,-0.946136474609375,1.687042236328125
1761841479088233500,6.2282333984375,-0.6179656982421875,-0.982086181640625,1.8896636962890625
1761841479098303500,6.238303466796875,-0.59808349609375,-0.946075439453125,1.9426116943359375
1761841479108373800,6.248373779296875,-0.48736572265625,-0.89385986328125,1.84881591796875
1761841479118442500,6.2584423828125,-0.381195068359375,-0.9221038818359375,1.6209869384765625
1761841479128512500,6.268512451171875,-0.2877960205078125,-0.8752899169921875,1.3463134765625
1761841479138582500,6.27858251953125,-0.2382965087890625,-0.7837066650390625,1.03594970703125
1761841479148651500,6.288651611328125,-0.24798583984375,-0.6522979736328125,0.688568115234375
1761841479158721500,6.298721435546875,-0.262908935546875,-0.57464599609375,0.33251953125
1761841479168790500,6.30879052734375,-0.2457275390625,-0.5491943359375,-0.0523681640625
1761841479178860500,6.318860595703125,-0.18951416015625,-0.526123046875,-0.441986083984375
1761841479188930600,6.3289306640625,-0.0834197998046875,-0.4781494140625,-0.8346710205078125
1761841479198999600,6.33899951171875,0.003570556640625,-0.4385223388671875,-1.2093963623046875
1761841479209069600,6.349069580078125,0.0886993408203125,-0.437347412109375,-1.527252197265625
1761841479219138600,6.359138671875,0.1212158203125,-0.415252685546875,-1.7664031982421875
1761841479229208600,6.36920849609375,0.1748199462890625,-0.440826416015625,-1.9179534912109375
1761841479239278600,6.379278564453125,0.174957275390625,-0.4486541748046875,-2.0040435791015625
1761841479249347300,6.389347412109375,0.1666412353515625,-0.469573974609375,-1.9918670654296875
1761841479259417600,6.39941748046875,0.154388427734375,-0.5311126708984375,-1.8535919189453125
1761841479269486600,6.409486572265625,0.1401214599609375,-0.5696868896484375,-1.6324310302734375
1761841479279556600,6.419556640625,0.1052093505859375,-0.5865631103515625,-1.363372802734375
1761841479289626600,6.429626708984375,0.0190582275390625,-0.63677978515625,-1.071929931640625
1761841479299695600,6.439695556640625,-0.085357666015625,-0.628082275390625,-0.7959136962890625
1761841479309765600,6.449765625,-0.1658782958984375,-0.5630035400390625,-0.5142364501953125
1761841479319834400,6.45983447265625,-0.2144622802734375,-0.51019287109375,-0.2313385009765625
1761841479329904600,6.469904541015625,-0.2536773681640625,-0.474456787109375,0.045806884765625
1761841479339974700,6.479974609375,-0.3123779296875,-0.4671783447265625,0.3212127685546875
1761841479350043600,6.490043701171875,-0.3386077880859375,-0.50836181640625,0.629791259765625
1761841479360113700,6.50011376953125,-0.446868896484375,-0.5721435546875,1.044525146484375
1761841479370183400,6.510183349609375,-0.528839111328125,-0.7194671630859375,1.475738525390625
1761841479380252700,6.520252685546875,-0.57781982421875,-0.79644775390625,1.8440093994140625
1761841479390322400,6.530322509765625,-0.5451812744140625,-0.89825439453125,2.0845489501953125
1761841479400391700,6.5403916015625,-0.3849029541015625,-0.989776611328125,2.14129638671875
1761841479410461700,6.550461669921875,-0.2329864501953125,-0.95001220703125,2.029998779296875
1761841479420531500,6.560531494140625,-0.116790771484375,-0.813140869140625,1.783843994140625
1761841479430600700,6.5706005859375,-0.0635528564453125,-0.65130615234375,1.4748077392578125
1761841479440670500,6.58067041015625,-0.008331298828125,-0.5434722900390625,1.137908935546875
1761841479450739700,6.59073974609375,0.0355377197265625,-0.501220703125,0.800262451171875
1761841479460809500,6.6008095703125,0.0302276611328125,-0.512939453125,0.4521026611328125
1761841479470879500,6.61087939453125,0.0005035400390625,-0.5458831787109375,0.101165771484375
1761841479480948500,6.620948486328125,-0.0567626953125,-0.58502197265625,-0.2686614990234375
1761841479491018500,6.6310185546875,-0.0616607666015625,-0.5963592529296875,-0.6531524658203125
1761841479501087700,6.641087646484375,-0.0393524169921875,-0.547637939453125,-1.0206298828125
1761841479511157500,6.651157470703125,0.03057861328125,-0.4723968505859375,-1.362335205078125
1761841479521227500,6.6612275390625,0.1564483642578125,-0.436309814453125,-1.6157379150390625
1761841479531296500,6.671296630859375,0.2486419677734375,-0.4316253662109375,-1.7765960693359375
1761841479541366500,6.681366455078125,0.2821197509765625,-0.4426727294921875,-1.8569183349609375
1761841479551435500,6.691435546875,0.20440673828125,-0.469482421875,-1.8385162353515625
1761841479561505500,6.701505615234375,0.0825958251953125,-0.459503173828125,-1.7021942138671875
1761841479571575600,6.711575439453125,0.0010833740234375,-0.4930877685546875,-1.4775543212890625
1761841479581644500,6.72164453125,-0.055755615234375,-0.5334014892578125,-1.17950439453125
1761841479591714600,6.731714599609375,-0.0893707275390625,-0.554718017578125,-0.8827362060546875
1761841479601784800,6.741784912109375,-0.134185791015625,-0.5585174560546875,-0.5738372802734375
1761841479611853600,6.751853515625,-0.1744384765625,-0.5691680908203125,-0.2750091552734375
1761841479621923600,6.761923583984375,-0.2266387939453125,-0.5707244873046875,0.03228759765625
1761841479631992600,6.77199267578125,-0.3424072265625,-0.624786376953125,0.3649444580078125
1761841479642062600,6.7820625,-0.4996795654296875,-0.73846435546875,0.74835205078125
1761841479652132900,6.7921328125,-0.5915985107421875,-0.8477935791015625,1.148834228515625
1761841479662201600,6.80220166015625,-0.62677001953125,-0.8898162841796875,1.506591796875
1761841479672271600,6.812271728515625,-0.61260986328125,-0.95355224609375,1.7620697021484375
1761841479682340600,6.822340576171875,-0.5330047607421875,-1.057159423828125,1.8570098876953125
1761841479692410600,6.83241064453125,-0.4142303466796875,-1.0515899658203125,1.80487060546875
1761841479702480600,6.842480712890625,-0.327728271484375,-0.939422607421875,1.6477508544921875
1761841479712549600,6.852549560546875,-0.2708587646484375,-0.82464599609375,1.4228668212890625
1761841479722619600,6.86261962890625,-0.2368927001953125,-0.731597900390625,1.1640777587890625
1761841479732688600,6.872688720703125,-0.185272216796875,-0.64886474609375,0.885986328125
1761841479742758700,6.882758544921875,-0.1446380615234375,-0.6004791259765625,0.6124420166015625
1761841479752828700,6.89282861328125,-0.124420166015625,-0.6048583984375,0.3221282958984375
1761841479762897700,6.902897705078125,-0.1591644287109375,-0.6125335693359375,-0.0254974365234375
1761841479772967700,6.9129677734375,-0.2065887451171875,-0.60430908203125,-0.4091644287109375
1761841479783036700,6.92303662109375,-0.184783935546875,-0.5860443115234375,-0.7912139892578125
1761841479793106400,6.9331064453125,-0.0894927978515625,-0.5308990478515625,-1.1661376953125
1761841479803176700,6.9431767578125,0.0201263427734375,-0.428863525390625,-1.4986572265625
1761841479813245400,6.953245361328125,0.1359100341796875,-0.3551788330078125,-1.7613983154296875
1761841479823315700,6.963315673828125,0.2733001708984375,-0.3286895751953125,-1.9454345703125
1761841479833385700,6.9733857421875,0.3386383056640625,-0.3404083251953125,-2.0132904052734375
1761841479843454700,6.983454833984375,0.3316192626953125,-0.3946533203125,-1.9355316162109375
1761841479853524700,6.993524658203125,0.271209716796875,-0.4511260986328125,-1.732574462890625
1761841479863593500,7.003593505859375,0.189361572265625,-0.47711181640625,-1.474884033203125
1761841479873663700,7.013663818359375,0.0874786376953125,-0.52001953125,-1.1700897216796875
1761841479883733800,7.023733642578125,0.00592041015625,-0.5582275390625,-0.8466949462890625
1761841479893802800,7.033802734375,-0.0523681640625,-0.5504302978515625,-0.537811279296875
1761841479903872800,7.043872802734375,-0.104248046875,-0.5199127197265625,-0.2531585693359375
1761841479913941500,7.05394140625,-0.1684722900390625,-0.479217529296875,0.0059661865234375
1761841479924011800,7.06401171875,-0.247344970703125,-0.4563446044921875,0.282501220703125
1761841479934081500,7.07408154296875,-0.323699951171875,-0.4731903076171875,0.607818603515625
1761841479944150800,7.08415087890625,-0.365142822265625,-0.5074615478515625,0.98236083984375
1761841479954220500,7.094220458984375,-0.4356536865234375,-0.5680389404296875,1.420501708984375
1761841479964290600,7.10429052734375,-0.4512786865234375,-0.669830322265625,1.7918853759765625
1761841479974359800,7.11435986328125,-0.37310791015625,-0.8278961181640625,2.030792236328125
1761841479984429600,7.1244296875,-0.2560577392578125,-0.897430419921875,2.1347808837890625
1761841479994498800,7.134498779296875,-0.1025390625,-0.886962890625,2.1201171875
1761841480004568600,7.144568603515625,0.01727294921875,-0.7856903076171875,1.9754180908203125
1761841480014638600,7.154638671875,0.0648040771484375,-0.65155029296875,1.7480010986328125
1761841480024707600,7.16470751953125,0.0633392333984375,-0.5740814208984375,1.4722900390625
1761841480034777600,7.174777587890625,0.032989501953125,-0.53607177734375,1.1650390625
1761841480044846600,7.1848466796875,-0.0338287353515625,-0.51397705078125,0.8392181396484375
1761841480054916600,7.19491650390625,-0.134368896484375,-0.5188140869140625,0.4942474365234375
1761841480064986600,7.204986572265625,-0.249969482421875,-0.5193634033203125,0.119964599609375
1761841480075055600,7.2150556640625,-0.321563720703125,-0.5306854248046875,-0.260040283203125
1761841480085125600,7.225125732421875,-0.3311309814453125,-0.531097412109375,-0.6412200927734375
1761841480095194600,7.235194580078125,-0.2389373779296875,-0.4601287841796875,-1.0233917236328125
1761841480105264600,7.2452646484375,-0.10845947265625,-0.3571624755859375,-1.430755615234375
1761841480115334700,7.255334716796875,0.031585693359375,-0.235687255859375,-1.8262939453125
1761841480125403600,7.265403564453125,0.182952880859375,-0.183258056640625,-2.1631622314453125
1761841480135473700,7.2754736328125,0.2995758056640625,-0.2187652587890625,-2.3517303466796875
1761841480145543700,7.285543701171875,0.33447265625,-0.289093017578125,-2.35699462890625
1761841480155612700,7.29561279296875,0.288543701171875,-0.3584747314453125,-2.17913818359375
1761841480165682400,7.305682373046875,0.2129058837890625,-0.4126739501953125,-1.891510009765625
1761841480175751700,7.315751708984375,0.1120147705078125,-0.4373931884765625,-1.56011962890625
1761841480185821400,7.325821533203125,0.011962890625,-0.4968109130859375,-1.19659423828125
1761841480195891700,7.3358916015625,-0.0397186279296875,-0.5413818359375,-0.8394012451171875
1761841480205960700,7.345960693359375,-0.0706634521484375,-0.5426025390625,-0.49493408203125
1761841480216030700,7.35603076171875,-0.1080322265625,-0.5320892333984375,-0.1857147216796875
1761841480226099700,7.366099609375,-0.1535186767578125,-0.49835205078125,0.1228179931640625
1761841480236169500,7.37616943359375,-0.2385711669921875,-0.5126800537109375,0.4518585205078125
1761841480246239700,7.38623974609375,-0.4124603271484375,-0.6233673095703125,0.8311614990234375
1761841480256308500,7.39630859375,-0.57366943359375,-0.766510009765625,1.285552978515625
1761841480266378800,7.406378662109375,-0.6360626220703125,-0.863433837890625,1.713836669921875
1761841480276448800,7.41644873046875,-0.6266937255859375,-0.9282989501953125,2.0140838623046875
1761841480286517500,7.426517578125,-0.5567626953125,-1.07781982421875,2.1346588134765625
1761841480296587800,7.436587890625,-0.4059295654296875,-1.0970001220703125,2.045928955078125
1761841480306656500,7.446656494140625,-0.2626953125,-0.9537506103515625,1.8106689453125
1761841480316726800,7.456726806640625,-0.1571502685546875,-0.7764739990234375,1.50299072265625
1761841480326796500,7.466796630859375,-0.07952880859375,-0.6004180908203125,1.1501312255859375
1761841480336865500,7.476865478515625,-0.0475006103515625,-0.4701690673828125,0.7865142822265625
1761841480346935800,7.486935791015625,-0.0540008544921875,-0.408050537109375,0.4147796630859375
1761841480357004500,7.497004638671875,-0.0629730224609375,-0.3927459716796875,0.020111083984375
1761841480367074800,7.50707470703125,-0.0714874267578125,-0.39630126953125,-0.3990020751953125
1761841480377144600,7.51714453125,-0.0405731201171875,-0.41229248046875,-0.8268280029296875
1761841480387213800,7.5272138671875,0.0896453857421875,-0.43096923828125,-1.2427215576171875
1761841480397283600,7.53728369140625,0.2162322998046875,-0.3802337646484375,-1.6053466796875
1761841480407353600,7.547353515625,0.31268310546875,-0.301727294921875,-1.8846893310546875
1761841480417422600,7.557422607421875,0.343841552734375,-0.275970458984375,-2.0515289306640625
1761841480427492600,7.56749267578125,0.2852020263671875,-0.307403564453125,-2.0785675048828125
1761841480437561900,7.577561767578125,0.18316650390625,-0.34759521484375,-1.9717864990234375
1761841480447631600,7.587631591796875,0.063385009765625,-0.385711669921875,-1.7515869140625
1761841480457701600,7.59770166015625,-0.0358734130859375,-0.43536376953125,-1.4908447265625
1761841480467770600,7.6077705078125,-0.1168975830078125,-0.4723358154296875,-1.2004852294921875
1761841480477840600,7.617840576171875,-0.1648101806640625,-0.51959228515625,-0.8883209228515625
1761841480487909600,7.62790966796875,-0.16748046875,-0.551300048828125,-0.585235595703125
1761841480497979600,7.637979736328125,-0.1652069091796875,-0.5477447509765625,-0.295013427734375
1761841480508049700,7.648049560546875,-0.16937255859375,-0.5242462158203125,0.0066375732421875
1761841480518118700,7.65811865234375,-0.232086181640625,-0.53155517578125,0.3443450927734375
1761841480528188700,7.668188720703125,-0.322174072265625,-0.60687255859375,0.7375030517578125
1761841480538258400,7.678258544921875,-0.4227752685546875,-0.722869873046875,1.16326904296875
1761841480548327700,7.68832763671875,-0.4380645751953125,-0.80828857421875,1.55035400390625
1761841480558397400,7.6983974609375,-0.3669891357421875,-0.8597564697265625,1.801849365234375
1761841480568467200,7.70846728515625,-0.278839111328125,-0.9527435302734375,1.9316253662109375
1761841480578537200,7.718537109375,-0.17425537109375,-1.0011138916015625,1.907989501953125
1761841480588607000,7.72860693359375,-0.0812530517578125,-0.9365997314453125,1.7628173828125
1761841480598676200,7.73867626953125,-0.040802001953125,-0.86468505859375,1.5608062744140625
1761841480608746000,7.74874609375,-0.049560546875,-0.7905120849609375,1.321746826171875
1761841480618815200,7.758815185546875,-0.083404541015625,-0.692840576171875,1.038787841796875
1761841480628885000,7.768885009765625,-0.1376800537109375,-0.60968017578125,0.740203857421875
1761841480638955000,7.778955078125,-0.1850738525390625,-0.565948486328125,0.419708251953125
1761841480649024300,7.789024169921875,-0.22174072265625,-0.532501220703125,0.0634002685546875
1761841480659094000,7.799093994140625,-0.2449188232421875,-0.4818878173828125,-0.35638427734375
1761841480669163300,7.809163330078125,-0.16839599609375,-0.3939971923828125,-0.82843017578125
1761841480679233000,7.81923291015625,0.0473480224609375,-0.307159423828125,-1.2902374267578125
1761841480689303000,7.829302978515625,0.3099517822265625,-0.2250213623046875,-1.7322235107421875
1761841480699372000,7.8393720703125,0.496337890625,-0.171417236328125,-2.0831451416015625
1761841480709442000,7.849442138671875,0.5032196044921875,-0.1822357177734375,-2.2419281005859375
1761841480719512300,7.85951220703125,0.442657470703125,-0.2531280517578125,-2.22174072265625
1761841480729581000,7.8695810546875,0.284759521484375,-0.289215087890625,-2.0142364501953125
1761841480739651300,7.8796513671875,0.1128082275390625,-0.3285675048828125,-1.6873321533203125
1761841480749720000,7.889719970703125,0.015594482421875,-0.3682098388671875,-1.3306884765625
1761841480759790000,7.8997900390625,-0.057708740234375,-0.43115234375,-0.9568023681640625
1761841480769860000,7.909860107421875,-0.1112823486328125,-0.5039825439453125,-0.60443115234375
1761841480779929000,7.91992919921875,-0.136077880859375,-0.55645751953125,-0.2696990966796875
1761841480789999400,7.929999267578125,-0.159088134765625,-0.6029052734375,0.047149658203125
1761841480800068000,7.940068115234375,-0.2435302734375,-0.664642333984375,0.3869781494140625
1761841480810138000,7.95013818359375,-0.3949737548828125,-0.78753662109375,0.7875518798828125
1761841480820208000,7.9602080078125,-0.502197265625,-0.9555816650390625,1.2041168212890625
1761841480830277000,7.970277099609375,-0.505645751953125,-0.9629974365234375,1.5562286376953125
1761841480840347100,7.98034716796875,-0.50799560546875,-0.9619293212890625,1.820068359375
1761841480850417200,7.990417236328125,-0.4505767822265625,-1.0483551025390625,1.93328857421875
1761841480860486100,8.000486083984375,-0.32073974609375,-1.050689697265625,1.865081787109375
1761841480870556200,8.01055615234375,-0.1903076171875,-0.9853515625,1.6866302490234375
1761841480880625200,8.020625244140625,-0.0983428955078125,-0.8757781982421875,1.4477691650390625
1761841480890695200,8.030695068359375,-0.063385009765625,-0.7814483642578125,1.1858367919921875
1761841480900765200,8.04076513671875,-0.0718231201171875,-0.7212982177734375,0.9083404541015625
1761841480910834200,8.050834228515624,-0.1372528076171875,-0.6602630615234375,0.616485595703125
1761841480920904200,8.060904296875,-0.25958251953125,-0.5718994140625,0.2699432373046875
1761841480930973000,8.070972900390625,-0.3126983642578125,-0.5086212158203125,-0.1265411376953125
1761841480941043200,8.081043212890625,-0.2628326416015625,-0.488677978515625,-0.4997406005859375
1761841480951113200,8.09111328125,-0.074737548828125,-0.4815826416015625,-0.8411407470703125
1761841480961182200,8.10118212890625,0.1434783935546875,-0.4441986083984375,-1.1436614990234375
1761841480971252200,8.111252197265625,0.287353515625,-0.389312744140625,-1.391510009765625
1761841480981322000,8.121322021484374,0.35650634765625,-0.3859405517578125,-1.577392578125
1761841480991391200,8.13139111328125,0.3301544189453125,-0.422271728515625,-1.6678314208984375
1761841481001461000,8.1414609375,0.2046661376953125,-0.4716644287109375,-1.637451171875
1761841481011530200,8.1515302734375,0.048431396484375,-0.5408172607421875,-1.4749908447265625
1761841481021600300,8.161600341796875,-0.0804901123046875,-0.5968475341796875,-1.241607666015625
1761841481031670000,8.171669921875,-0.1869659423828125,-0.6142425537109375,-0.99200439453125
1761841481041739300,8.1817392578125,-0.2636871337890625,-0.6466064453125,-0.7388916015625
1761841481051809000,8.19180908203125,-0.3028564453125,-0.68212890625,-0.4982757568359375
1761841481061879000,8.201879150390624,-0.341278076171875,-0.7185211181640625,-0.24615478515625
1761841481071948000,8.211947998046876,-0.3550872802734375,-0.7589111328125,0.0434417724609375
1761841481082018000,8.22201806640625,-0.40191650390625,-0.8137664794921875,0.3731842041015625
1761841481092087000,8.232087158203125,-0.446533203125,-0.9164581298828125,0.7168731689453125
1761841481102157000,8.242156982421875,-0.44610595703125,-1.00140380859375,1.040130615234375
1761841481112227300,8.252227294921875,-0.451934814453125,-1.07659912109375,1.2839813232421875
1761841481122296000,8.262296142578125,-0.450714111328125,-1.1869659423828125,1.404937744140625
1761841481132366000,8.272365966796874,-0.4461212158203125,-1.2540435791015625,1.3917388916015625
1761841481142435000,8.28243505859375,-0.4249725341796875,-1.2593536376953125,1.2731781005859375
1761841481152505000,8.292505126953126,-0.418182373046875,-1.2185516357421875,1.0896148681640625
1761841481162575400,8.302575439453125,-0.46502685546875,-1.126007080078125,0.8518524169921875
1761841481172644000,8.31264404296875,-0.513275146484375,-1.02069091796875,0.5718841552734375
1761841481182714000,8.322714111328125,-0.535125732421875,-0.911651611328125,0.288909912109375
1761841481192783000,8.332783203125,-0.4830322265625,-0.80413818359375,-0.005828857421875
1761841481202853000,8.34285302734375,-0.3925628662109375,-0.689483642578125,-0.3407440185546875
1761841481212923100,8.352923095703124,-0.2415771484375,-0.5833587646484375,-0.7132568359375
1761841481222992100,8.3629921875,-0.063507080078125,-0.500885009765625,-1.0666351318359375
1761841481233062100,8.373062255859375,0.127349853515625,-0.4590911865234375,-1.3707122802734375
1761841481243132200,8.383132080078125,0.24920654296875,-0.4429168701171875,-1.596343994140625
1761841481253201200,8.393201171875,0.307586669921875,-0.447784423828125,-1.7150726318359375
1761841481263271200,8.403271240234375,0.301971435546875,-0.4720001220703125,-1.7291412353515625
1761841481273340200,8.413340087890624,0.2399749755859375,-0.492919921875,-1.622283935546875
1761841481283410200,8.42341015625,0.1668853759765625,-0.53009033203125,-1.43634033203125
1761841481293480200,8.433480224609376,0.0972747802734375,-0.5633697509765625,-1.2108612060546875
1761841481303549000,8.443548828125,0.03936767578125,-0.5955352783203125,-0.97711181640625
1761841481313619200,8.453619140625,-0.0054168701171875,-0.6232452392578125,-0.7579193115234375
1761841481323689200,8.463689208984375,-0.0455322265625,-0.6380615234375,-0.530181884765625
1761841481333758200,8.47375830078125,-0.1144561767578125,-0.6702880859375,-0.2664794921875
1761841481343828200,8.483828125,-0.1962127685546875,-0.7588958740234375,0.0811614990234375
1761841481353897200,8.493897216796874,-0.23675537109375,-0.859832763671875,0.4961395263671875
1761841481363967200,8.50396728515625,-0.3003692626953125,-0.9576416015625,0.865997314453125
1761841481374037000,8.514037109375,-0.4087066650390625,-1.0385894775390625,1.213226318359375
1761841481384106200,8.524106201171875,-0.465240478515625,-1.1005401611328125,1.4605255126953125
1761841481394176300,8.53417626953125,-0.4381256103515625,-1.1533203125,1.5765533447265625
1761841481404245200,8.544245361328125,-0.3474884033203125,-1.1956939697265625,1.531890869140625
1761841481414315300,8.554315185546875,-0.2444305419921875,-1.156768798828125,1.3726348876953125
1761841481424385000,8.564385009765624,-0.1742401123046875,-1.0427398681640625,1.156707763671875
1761841481434454300,8.574454345703124,-0.150604248046875,-0.8913726806640625,0.89569091796875
1761841481444524000,8.58452392578125,-0.173065185546875,-0.7157440185546875,0.5846099853515625
1761841481454594000,8.594593994140626,-0.1905670166015625,-0.5281524658203125,0.22515869140625
1761841481464663000,8.6046630859375,-0.14080810546875,-0.356842041015625,-0.1870574951171875
1761841481474733000,8.614733154296875,-0.0204010009765625,-0.205078125,-0.6656494140625
1761841481484802300,8.62480224609375,0.1661834716796875,-0.1008148193359375,-1.126678466796875
1761841481494872000,8.6348720703125,0.4740447998046875,-0.07867431640625,-1.523773193359375
1761841481504943000,8.644943115234375,0.77056884765625,-0.1070098876953125,-1.8238372802734375
1761841481515013000,8.65501318359375,0.8724212646484375,-0.1257476806640625,-2.0107879638671875
1761841481525082000,8.66508203125,0.8213043212890625,-0.158538818359375,-2.0528411865234375
1761841481535152000,8.675152099609376,0.700836181640625,-0.2135772705078125,-1.9389801025390625
1761841481545222100,8.68522216796875,0.552947998046875,-0.255218505859375,-1.6977691650390625
1761841481555291100,8.695291015625,0.4455413818359375,-0.3020782470703125,-1.4114227294921875
1761841481565361000,8.70536083984375,0.3438873291015625,-0.380950927734375,-1.11370849609375
1761841481575430100,8.71543017578125,0.2497711181640625,-0.4713897705078125,-0.8425750732421875
1761841481585500200,8.725500244140624,0.1536865234375,-0.5504608154296875,-0.5911407470703125
1761841481595570200,8.735570068359374,0.066986083984375,-0.620574951171875,-0.3291168212890625
1761841481605639200,8.74563916015625,-0.0033416748046875,-0.667266845703125,-0.037567138671875
1761841481615709200,8.755709228515625,-0.09893798828125,-0.7280731201171875,0.3066253662109375
1761841481625779200,8.765779296875,-0.2307586669921875,-0.8506011962890625,0.7077484130859375
1761841481635848000,8.775847900390625,-0.4031982421875,-0.970489501953125,1.094512939453125
1761841481645918200,8.785918212890625,-0.52386474609375,-1.0921630859375,1.3831329345703125
1761841481655987000,8.795987060546874,-0.5743560791015625,-1.243621826171875,1.58489990234375
1761841481666057200,8.80605712890625,-0.6902923583984375,-1.221466064453125,1.6717987060546875
1761841481676127200,8.816127197265626,-0.585784912109375,-1.2201690673828125,1.5543670654296875
1761841481686196000,8.826196044921875,-0.4736480712890625,-1.184234619140625,1.3434600830078125
1761841481696266200,8.836266357421875,-0.359832763671875,-1.0312957763671875,1.0808868408203125
1761841481706335000,8.8463349609375,-0.2319488525390625,-0.8471832275390625,0.7737884521484375
1761841481716405200,8.8564052734375,-0.1115875244140625,-0.643096923828125,0.4181671142578125
1761841481726475300,8.866475341796875,0.03424072265625,-0.46502685546875,0.003814697265625
1761841481736544300,8.876544189453124,0.152679443359375,-0.350494384765625,-0.4537353515625
1761841481746614300,8.8866142578125,0.3043060302734375,-0.30987548828125,-0.940673828125
1761841481756684000,8.89668408203125,0.4821014404296875,-0.270782470703125,-1.3838043212890625
1761841481766753300,8.906753173828125,0.584625244140625,-0.2003631591796875,-1.71966552734375
1761841481776823000,8.916822998046875,0.71038818359375,-0.3170318603515625,-1.904022216796875
1761841481786892300,8.926892333984375,0.6288604736328125,-0.393157958984375,-1.9266204833984375
1761841481796962000,8.936962158203125,0.4669189453125,-0.3892822265625,-1.8413238525390625
1761841481807032000,8.947031982421874,0.3206024169921875,-0.4025115966796875,-1.6183624267578125
1761841481817101300,8.957101318359374,0.194061279296875,-0.4504547119140625,-1.3605804443359375
1761841481827171000,8.967171142578126,0.0948486328125,-0.5074615478515625,-1.0914154052734375
1761841481837241000,8.977240966796876,0.0104827880859375,-0.5841522216796875,-0.81719970703125
1761841481847310000,8.98731005859375,-0.0526123046875,-0.6475982666015625,-0.559356689453125
1761841481857380000,8.997380126953125,-0.08929443359375,-0.66497802734375,-0.3262786865234375
1761841481867449000,9.007448974609375,-0.1471099853515625,-0.6531219482421875,-0.101837158203125
1761841481877519000,9.01751904296875,-0.281463623046875,-0.6919097900390625,0.1687774658203125
1761841481887589000,9.027589111328124,-0.436279296875,-0.803924560546875,0.53802490234375
1761841481897658000,9.037658203125,-0.444854736328125,-0.9402008056640625,0.9099273681640625
1761841481907728100,9.04772802734375,-0.5172882080078125,-1.015655517578125,1.2020416259765625
1761841481917797000,9.057797119140625,-0.5249481201171875,-1.0449981689453125,1.4002532958984375
1761841481927867100,9.0678671875,-0.5192413330078125,-1.10699462890625,1.5114898681640625
1761841481937937000,9.07793701171875,-0.55169677734375,-1.1319580078125,1.50445556640625
1761841481948006100,9.088006103515625,-0.4678192138671875,-1.178131103515625,1.3537750244140625
1761841481958076200,9.098076171875,-0.39263916015625,-1.1371307373046875,1.14453125
1761841481968146200,9.108146240234374,-0.31793212890625,-1.0003662109375,0.9199066162109375
1761841481978215200,9.118215087890626,-0.227752685546875,-0.863311767578125,0.6881103515625
1761841481988285200,9.12828515625,-0.12298583984375,-0.7460479736328125,0.453216552734375
1761841481998354200,9.138354248046875,-0.058380126953125,-0.6591339111328125,0.2039794921875
1761841482008424000,9.148423828125,-0.011077880859375,-0.561798095703125,-0.0775604248046875
1761841482018494200,9.158494140625,0.0706329345703125,-0.476959228515625,-0.3698272705078125
1761841482028563000,9.16856298828125,0.1529693603515625,-0.4028167724609375,-0.6637115478515625
1761841482038633200,9.17863330078125,0.2436981201171875,-0.2757415771484375,-0.910858154296875
1761841482048703200,9.188703125,0.482879638671875,-0.2756195068359375,-1.164642333984375
1761841482058772000,9.19877197265625,0.5775146484375,-0.2916412353515625,-1.331817626953125
1761841482068842200,9.20884228515625,0.6231231689453125,-0.315185546875,-1.4417266845703125
1761841482078911000,9.218910888671875,0.7592315673828125,-0.3767242431640625,-1.5321044921875
1761841482088981200,9.228981201171875,0.81671142578125,-0.4348907470703125,-1.5028533935546875
1761841482099051300,9.23905126953125,0.8172760009765625,-0.5624847412109375,-1.3664703369140625
1761841482109120300,9.249120361328124,0.7758331298828125,-0.68310546875,-1.1571197509765625
1761841482119190300,9.259190185546874,0.67724609375,-0.680633544921875,-0.94146728515625
1761841482129260000,9.269260009765626,0.5788726806640625,-0.6718597412109375,-0.7350311279296875
1761841482139329300,9.279329345703125,0.4391021728515625,-0.6926422119140625,-0.5066070556640625
1761841482149399000,9.28939892578125,0.359100341796875,-0.709991455078125,-0.290771484375
1761841482159468300,9.29946826171875,0.26922607421875,-0.7230682373046875,-0.0516815185546875
1761841482169538000,9.3095380859375,0.121734619140625,-0.779693603515625,0.22772216796875
1761841482179608000,9.319608154296875,-0.0248260498046875,-0.9026336669921875,0.53564453125
1761841482189677300,9.32967724609375,-0.1872711181640625,-1.0096435546875,0.84503173828125
1761841482199747000,9.3397470703125,-0.3138427734375,-1.105743408203125,1.121734619140625
1761841482209816300,9.34981640625,-0.4600830078125,-1.1468353271484375,1.365997314453125
1761841482219886000,9.359885986328125,-0.6352996826171875,-1.1381378173828125,1.5081939697265625
1761841482229956000,9.3699560546875,-0.6756744384765625,-1.103790283203125,1.5001373291015625
1761841482240025000,9.380025146484375,-0.6390838623046875,-1.09661865234375,1.3681488037109375
1761841482250095000,9.39009521484375,-0.5376129150390625,-1.07232666015625,1.146484375
1761841482260165000,9.4001650390625,-0.4449615478515625,-1.0089263916015625,0.8912811279296875
1761841482270234000,9.410234130859376,-0.319793701171875,-0.8860931396484375,0.6126861572265625
1761841482280304000,9.42030419921875,-0.2005615234375,-0.8078460693359375,0.33538818359375
1761841482290373000,9.430373046875,-0.061676025390625,-0.712982177734375,0.022430419921875
1761841482300443100,9.440443115234375,-0.0162811279296875,-0.594451904296875,-0.3347930908203125
1761841482310513000,9.450512939453125,0.13629150390625,-0.5000152587890625,-0.7326202392578125
1761841482320582100,9.46058203125,0.2722320556640625,-0.4513397216796875,-1.105072021484375
1761841482330652200,9.470652099609374,0.4450225830078125,-0.3771209716796875,-1.4011383056640625
1761841482340722200,9.48072216796875,0.6976470947265625,-0.4132232666015625,-1.5832061767578125
1761841482350791200,9.490791259765626,0.7584991455078125,-0.4963226318359375,-1.630645751953125
1761841482360861200,9.500861083984375,0.6613922119140625,-0.5395660400390625,-1.5826416015625
1761841482370930200,9.51093017578125,0.465576171875,-0.5194244384765625,-1.43304443359375
1761841482381000000,9.521,0.2999267578125,-0.526123046875,-1.1972808837890625
1761841482391070200,9.5310703125,0.1606597900390625,-0.555267333984375,-0.9119415283203125
1761841482401139000,9.541138916015624,0.064483642578125,-0.5875396728515625,-0.6272735595703125
1761841482411209200,9.551209228515624,-0.053253173828125,-0.6228179931640625,-0.3388824462890625
1761841482421279200,9.561279296875,-0.2454833984375,-0.71966552734375,0.0029449462890625
1761841482431348000,9.571347900390625,-0.45416259765625,-0.89630126953125,0.476348876953125
1761841482441418200,9.581418212890625,-0.564239501953125,-1.0898590087890625,1.027374267578125
1761841482451487000,9.591487060546875,-0.6888580322265625,-1.21453857421875,1.574127197265625
1761841482461557200,9.60155712890625,-0.7204742431640625,-1.2043914794921875,1.9313201904296875
1761841482471627300,9.611627197265625,-0.66497802734375,-1.2095794677734375,2.02947998046875
1761841482481696300,9.6216962890625,-0.4238433837890625,-1.269134521484375,1.90216064453125
1761841482491766300,9.631766357421874,-0.2229766845703125,-1.163299560546875,1.6492919921875
1761841482501836000,9.6418359375,-0.0751495361328125,-0.947174072265625,1.2998199462890625
1761841482511905300,9.6519052734375,0.01678466796875,-0.748016357421875,0.8980560302734375
1761841482521975000,9.66197509765625,0.06341552734375,-0.579132080078125,0.4765167236328125
1761841482532044300,9.672044189453125,0.14605712890625,-0.4778594970703125,0.0382843017578125
1761841482542114000,9.682114013671875,0.24017333984375,-0.435394287109375,-0.3989715576171875
1761841482552184000,9.69218408203125,0.3612060546875,-0.397979736328125,-0.83056640625
1761841482562253300,9.70225341796875,0.4620513916015625,-0.3561553955078125,-1.2122955322265625
1761841482572326100,9.712326171875,0.54461669921875,-0.321685791015625,-1.5199432373046875
1761841482582396200,9.722396240234374,0.55889892578125,-0.319061279296875,-1.7159576416015625
1761841482592465200,9.732465087890626,0.4828338623046875,-0.33734130859375,-1.7980194091796875
1761841482602535200,9.74253515625,0.3458709716796875,-0.340911865234375,-1.754730224609375
1761841482612604200,9.752604248046875,0.2211151123046875,-0.424346923828125,-1.58892822265625
1761841482622674200,9.762674072265625,0.1378936767578125,-0.5079193115234375,-1.377655029296875
1761841482632744200,9.772744140625,0.0857391357421875,-0.5657806396484375,-1.1610260009765625
1761841482642813200,9.782813232421875,0.0489654541015625,-0.652374267578125,-0.931182861328125
1761841482652883200,9.79288330078125,0.0228424072265625,-0.7161865234375,-0.70074462890625
1761841482662953200,9.802953125,-0.002777099609375,-0.744049072265625,-0.47003173828125
1761841482673022200,9.813022216796876,-0.044830322265625,-0.7627716064453125,-0.2320709228515625
1761841482683092200,9.82309228515625,-0.1418304443359375,-0.797882080078125,0.0284881591796875
1761841482693161200,9.8331611328125,-0.2504119873046875,-0.8751678466796875,0.3250579833984375
1761841482703231000,9.84323095703125,-0.319732666015625,-0.948272705078125,0.6358795166015625
1761841482713301200,9.85330126953125,-0.33197021484375,-0.938446044921875,0.9189910888671875
1761841482723370000,9.863369873046874,-0.3172454833984375,-0.906219482421875,1.136322021484375
1761841482733440300,9.873440185546874,-0.2654571533203125,-0.9268951416015625,1.2630615234375
1761841482743509200,9.88350927734375,-0.193511962890625,-0.99359130859375,1.2693634033203125
1761841482753579300,9.893579345703126,-0.1064300537109375,-1.043060302734375,1.1772308349609375
1761841482763649300,9.903649169921875,-0.0361785888671875,-1.01123046875,1.0177764892578125
1761841482773718000,9.913718017578125,0.0303955078125,-0.95635986328125,0.8375244140625
1761841482783788300,9.923788330078125,0.090484619140625,-0.8909759521484375,0.6522979736328125
1761841482793858300,9.9338583984375,0.1482086181640625,-0.821197509765625,0.4535369873046875
1761841482803927300,9.94392724609375,0.1669464111328125,-0.7541351318359375,0.2658233642578125
1761841482813997300,9.953997314453124,0.13665771484375,-0.7208251953125,0.1090087890625
1761841482824066000,9.964066162109376,0.091156005859375,-0.7081298828125,-0.0147247314453125
1761841482834136300,9.97413623046875,0.012542724609375,-0.69952392578125,-0.073089599609375
1761841482844206000,9.9842060546875,-0.0514678955078125,-0.6895904541015625,-0.06884765625
1761841482854275300,9.994275390625,-0.139251708984375,-0.692291259765625,-0.0304718017578125
1761841482864345000,10.004344970703125,-0.2207489013671875,-0.752471923828125,0.0121917724609375
1761841482874415000,10.0144150390625,-0.28173828125,-0.7850189208984375,0.0458831787109375
1761841482884484400,10.024484375,-0.37017822265625,-0.7545166015625,0.07843017578125
1761841482894554000,10.03455419921875,-0.4102020263671875,-0.7436370849609375,0.092437744140625
1761841482904623400,10.044623291015625,-0.4209136962890625,-0.790008544921875,0.102264404296875
1761841482914693000,10.054693115234375,-0.424530029296875,-0.8361663818359375,0.10711669921875
1761841482924763100,10.06476318359375,-0.422088623046875,-0.849395751953125,0.109039306640625
1761841482934832000,10.07483203125,-0.4486236572265625,-0.830291748046875,0.1095123291015625
1761841482944902100,10.084902099609375,-0.469818115234375,-0.813568115234375,0.098907470703125
1761841482954972200,10.09497216796875,-0.478424072265625,-0.7812957763671875,0.0922393798828125
1761841482965041200,10.105041259765626,-0.5197296142578125,-0.69757080078125,0.110565185546875
1761841482975111200,10.115111083984376,-0.544769287109375,-0.699188232421875,0.1412353515625
1761841482985180200,10.12518017578125,-0.5382537841796875,-0.7032623291015625,0.1602020263671875
1761841482995250200,10.135250244140625,-0.501953125,-0.6967926025390625,0.18109130859375
1761841483005320200,10.1453203125,-0.56744384765625,-0.632965087890625,0.18450927734375
1761841483015389200,10.15538916015625,-0.659698486328125,-0.48992919921875,0.1817626953125
1761841483025459200,10.165459228515624,-1.1936798095703125,-0.593658447265625,-0.1826171875
1761841483035529200,10.175529296875,-1.5052337646484375,-0.6874847412109375,-0.63873291015625
1761841483045598200,10.18559814453125,-1.191131591796875,-0.7385406494140625,-0.1371002197265625
1761841483055668200,10.195668212890626,-1.15997314453125,-0.7100677490234375,0.322174072265625
1761841483065737200,10.2057373046875,-1.107635498046875,-0.7703094482421875,0.3253631591796875
1761841483075807000,10.215806884765625,-1.1139984130859375,-0.7459716796875,0.4882354736328125
1761841483085877200,10.225877197265625,-1.0638427734375,-0.709259033203125,0.5213623046875
1761841483095946000,10.235946044921874,-0.984527587890625,-0.6847381591796875,0.5117034912109375
1761841483106016300,10.246016357421874,-0.9872894287109375,-0.6737518310546875,0.477294921875
1761841483116086300,10.256086181640624,-1.01727294921875,-0.5743865966796875,0.4270477294921875
1761841483126155300,10.2661552734375,-1.0927276611328125,-0.4580230712890625,0.3528900146484375
1761841483136225300,10.276225341796875,-1.0205078125,-0.4690093994140625,0.334503173828125
1761841483146294000,10.2862939453125,-0.9881134033203125,-0.5034027099609375,0.32452392578125
1761841483156364300,10.2963642578125,-0.949676513671875,-0.533905029296875,0.28497314453125
1761841483166434300,10.306434326171875,-0.8837738037109375,-0.52685546875,0.259674072265625
1761841483176503300,10.31650341796875,-0.8424072265625,-0.5159149169921875,0.222412109375
1761841483186573300,10.3265732421875,-0.8311920166015625,-0.5142059326171875,0.1855926513671875
1761841483196643000,10.33664306640625,-0.82733154296875,-0.5046844482421875,0.1694183349609375
1761841483206712300,10.34671240234375,-0.8384246826171875,-0.49078369140625,0.1626739501953125
1761841483216782000,10.356781982421875,-0.84454345703125,-0.4770050048828125,0.160400390625
1761841483226851300,10.366851318359375,-0.8491363525390625,-0.471405029296875,0.1592864990234375
1761841483236921000,10.376921142578125,-0.8521575927734375,-0.4794769287109375,0.161773681640625
1761841483246991000,10.3869912109375,-0.8572998046875,-0.5024566650390625,0.1751251220703125
1761841483257060400,10.397060302734374,-0.86114501953125,-0.523895263671875,0.1829071044921875
1761841483267130000,10.407130126953126,-0.8482818603515625,-0.5226287841796875,0.1777801513671875
1761841483277199400,10.417199462890625,-0.829498291015625,-0.51324462890625,0.174530029296875
1761841483287269000,10.42726904296875,-0.8371429443359375,-0.5087127685546875,0.168670654296875
1761841483297339100,10.437339111328125,-0.8388824462890625,-0.5076446533203125,0.17254638671875
1761841483307408100,10.447408203125,-0.8201751708984375,-0.526397705078125,0.1810302734375
1761841483317478100,10.45747802734375,-0.8363037109375,-0.5015411376953125,0.1766204833984375
1761841483327548200,10.467548095703124,-0.8335418701171875,-0.4550018310546875,0.179840087890625
1761841483337617200,10.4776171875,-0.8375701904296875,-0.4460601806640625,0.1767425537109375
1761841483347687200,10.487687255859376,-0.85650634765625,-0.46270751953125,0.166046142578125
1761841483357757200,10.497757080078125,-0.8555908203125,-0.4778289794921875,0.1524810791015625
1761841483367826200,10.507826171875,-0.8309783935546875,-0.4833831787109375,0.146881103515625
1761841483377896200,10.517896240234375,-0.81683349609375,-0.4771728515625,0.1417694091796875
1761841483387965200,10.527965087890625,-0.8004913330078125,-0.466705322265625,0.144073486328125
1761841483398035200,10.53803515625,-0.80462646484375,-0.459381103515625,0.1626434326171875
1761841483408105200,10.548105224609374,-0.8408050537109375,-0.4761199951171875,0.1791839599609375
1761841483418174200,10.55817431640625,-0.8335418701171875,-0.4999237060546875,0.1714324951171875
1761841483428244200,10.568244140625,-0.8093414306640625,-0.508148193359375,0.1559600830078125
1761841483438313200,10.578313232421875,-0.800048828125,-0.4982147216796875,0.1421051025390625
1761841483448383000,10.588383056640625,-0.79974365234375,-0.4840087890625,0.13397216796875
1761841483458453200,10.598453369140625,-0.809295654296875,-0.478057861328125,0.132904052734375
1761841483468522000,10.60852197265625,-0.813934326171875,-0.48748779296875,0.1261749267578125
1761841483478592300,10.61859228515625,-0.8105316162109375,-0.5056610107421875,0.13775634765625
1761841483488662300,10.628662353515624,-0.799407958984375,-0.50238037109375,0.15301513671875
1761841483498731300,10.638731201171876,-0.8162841796875,-0.4998626708984375,0.1667938232421875
1761841483508801300,10.64880126953125,-0.858734130859375,-0.51220703125,0.192962646484375
1761841483518870000,10.6588701171875,-0.885040283203125,-0.5232696533203125,0.2125091552734375
1761841483528940300,10.668940185546875,-0.8910980224609375,-0.5283966064453125,0.2069244384765625
1761841483539010300,10.67901025390625,-0.88275146484375,-0.523651123046875,0.191986083984375
1761841483549079300,10.689079345703124,-0.8696746826171875,-0.514312744140625,0.1884307861328125
1761841483559149300,10.6991494140625,-0.9009246826171875,-0.446685791015625,0.16680908203125
1761841483569219600,10.709219482421876,-0.8456268310546875,-0.4665374755859375,0.1708831787109375
1761841483579288600,10.71928857421875,-0.8082275390625,-0.5232086181640625,0.17901611328125
1761841483589358600,10.729358642578125,-0.7949371337890625,-0.551544189453125,0.1912689208984375
1761841483599427600,10.739427490234375,-0.7914886474609375,-0.5776824951171875,0.2057647705078125
1761841483609497600,10.74949755859375,-0.81903076171875,-0.5871429443359375,0.2069854736328125
1761841483619567600,10.759567626953125,-0.85498046875,-0.53448486328125,0.19439697265625
1761841483629636600,10.76963671875,-0.8526763916015625,-0.51239013671875,0.1954803466796875
1761841483639706600,10.77970654296875,-0.8486480712890625,-0.521209716796875,0.20123291015625
1761841483649776400,10.7897763671875,-0.843353271484375,-0.528167724609375,0.2064208984375
1761841483659845600,10.799845703125,-0.837890625,-0.5271759033203125,0.203887939453125
1761841483669915400,10.809915283203125,-0.826202392578125,-0.5269317626953125,0.193695068359375
1761841483679984600,10.819984619140625,-0.817291259765625,-0.52862548828125,0.186981201171875
1761841483690054700,10.8300546875,-0.8335113525390625,-0.5064544677734375,0.172271728515625
1761841483700124400,10.84012451171875,-0.8691864013671875,-0.4426727294921875,0.149627685546875
1761841483710193700,10.850193603515624,-0.8420562744140625,-0.4942474365234375,0.1702728271484375
1761841483720263400,10.860263427734376,-0.8587799072265625,-0.53851318359375,0.1779022216796875
1761841483730333400,10.87033349609375,-0.8477325439453125,-0.53973388671875,0.178741455078125
1761841483740402400,10.88040234375,-0.8295440673828125,-0.5347137451171875,0.173065185546875
1761841483750472400,10.890472412109375,-0.8261260986328125,-0.5404815673828125,0.1630859375
1761841483760541400,10.90054150390625,-0.828094482421875,-0.5463409423828125,0.1559600830078125
1761841483770611500,10.910611572265625,-0.84735107421875,-0.5461883544921875,0.15728759765625
1761841483780681700,10.920681640625,-0.8525543212890625,-0.533843994140625,0.1589508056640625
1761841483790750500,10.93075048828125,-0.8491973876953125,-0.51593017578125,0.156097412109375
1761841483800820500,10.940820556640626,-0.8418426513671875,-0.50433349609375,0.1503448486328125
1761841483810890500,10.950890380859375,-0.8347015380859375,-0.503204345703125,0.147705078125
1761841483820959500,10.96095947265625,-0.843231201171875,-0.5153961181640625,0.1493988037109375
1761841483831029800,10.97102978515625,-0.8526763916015625,-0.529296875,0.1483154296875
1761841483841098500,10.981098388671874,-0.8436431884765625,-0.53497314453125,0.145294189453125
1761841483851168500,10.99116845703125,-0.827423095703125,-0.5266265869140625,0.1424713134765625
1761841483861238500,11.001238525390624,-0.8196563720703125,-0.5153350830078125,0.1376495361328125
1761841483871307500,11.0113076171875,-0.83477783203125,-0.5132598876953125,0.134674072265625
1761841483881377500,11.02137744140625,-0.8389434814453125,-0.5134735107421875,0.1347808837890625
1761841483891447600,11.031447509765625,-0.83740234375,-0.519805908203125,0.1388397216796875
1761841483901516500,11.0415166015625,-0.8533477783203125,-0.536712646484375,0.1473846435546875
1761841483911586600,11.051586669921875,-0.872222900390625,-0.551116943359375,0.15289306640625
1761841483921655600,11.061655517578124,-0.856048583984375,-0.5701751708984375,0.1547393798828125
1761841483931725600,11.0717255859375,-0.8441009521484375,-0.5300140380859375,0.13323974609375
1761841483941795600,11.081795654296876,-0.8352508544921875,-0.483551025390625,0.1165924072265625
1761841483951864600,11.091864501953125,-0.82452392578125,-0.49005126953125,0.1202392578125
1761841483961934600,11.1019345703125,-0.8222503662109375,-0.5067291259765625,0.1279296875
1761841483972004600,11.112004638671875,-0.8516998291015625,-0.51263427734375,0.1367340087890625
1761841483982073600,11.122073486328125,-0.8737335205078125,-0.51568603515625,0.1378326416015625
1761841483992143600,11.1321435546875,-0.8724365234375,-0.5197296142578125,0.1324310302734375
1761841484002212600,11.142212646484374,-0.864501953125,-0.516143798828125,0.1274261474609375
1761841484012282600,11.15228271484375,-0.85797119140625,-0.5095367431640625,0.122802734375
1761841484022352400,11.162352294921876,-0.844573974609375,-0.505096435546875,0.1177825927734375
1761841484032421600,11.172421630859375,-0.8347015380859375,-0.5020599365234375,0.118896484375
1761841484042491400,11.182491455078125,-0.825958251953125,-0.505706787109375,0.1150054931640625
1761841484052561400,11.1925615234375,-0.7975616455078125,-0.49066162109375,0.1169586181640625
1761841484062630700,11.202630615234375,-0.841522216796875,-0.484588623046875,0.13690185546875
1761841484072700400,11.212700439453124,-0.8749237060546875,-0.516448974609375,0.1327056884765625
1761841484082769700,11.222769775390624,-0.8441619873046875,-0.5186767578125,0.1202392578125
1761841484092839400,11.23283935546875,-0.8278961181640625,-0.50201416015625,0.1106109619140625
1761841484102909400,11.242909423828126,-0.82598876953125,-0.4984893798828125,0.1109771728515625
1761841484112978400,11.252978515625,-0.834808349609375,-0.49652099609375,0.117889404296875
