time,seconds_elapsed,z,y,x
1761841472943275500,0.083275634765625,0.43789708614349365,1.503557801246643,0.22333383560180664
1761841472953345500,0.093345458984375,0.4081554710865021,1.7728960514068604,0.18706591427326202
1761841472963414500,0.10341455078125,0.38061439990997314,2.1044137477874756,0.18196728825569153
1761841472973484500,0.113484619140625,0.4003240168094635,2.4655191898345947,0.19623738527297974
1761841472983553500,0.123553466796875,0.4417010247707367,2.7866313457489014,0.20398320257663727
1761841472993623600,0.13362353515625,0.416169673204422,3.0679032802581787,0.2715541422367096
1761841473003693600,0.143693603515625,0.3577505648136139,3.2678937911987305,0.3994380533695221
1761841473013762600,0.153762451171875,0.316998153924942,3.45345401763916,0.5974244475364685
1761841473023831600,0.16383154296875,0.3632868230342865,3.4759581089019775,0.8236711621284485
1761841473033901600,0.173901611328125,0.5645017623901367,3.273055076599121,0.9872188568115234
1761841473043971600,0.1839716796875,0.903695821762085,2.9428725242614746,1.0434767007827759
1761841473054040300,0.194040283203125,1.1782252788543701,2.588676929473877,0.9511034488677979
1761841473064110600,0.204110595703125,1.2772167921066284,2.3835179805755615,0.8561228513717651
1761841473074179300,0.214179443359375,1.2966549396514893,2.2132833003997803,0.8110601902008057
1761841473084249600,0.22424951171875,1.3348326683044434,1.9168022871017456,0.8225772976875305
1761841473094318600,0.234318603515625,1.4122320413589478,1.528076410293579,0.8577634692192078
1761841473104388400,0.244388427734375,1.5003275871276855,1.1426889896392822,0.8898460268974304
1761841473114457600,0.25445751953125,1.5715500116348267,0.7696574330329895,0.8782918453216553
1761841473124527400,0.26452734375,1.6338943243026733,0.5296847820281982,0.845143735408783
1761841473134596600,0.2745966796875,1.7004811763763428,0.3143135607242584,0.7907760739326477
1761841473144666400,0.284666259765625,1.7618889808654785,-1.1835778951644897,1.210618019104004
1761841473154735600,0.294735595703125,1.9670543670654297,-2.4306912422180176,1.6841323375701904
1761841473164805400,0.304805419921875,2.207382917404175,-2.1649768352508545,1.4776246547698975
1761841473174874600,0.31487451171875,2.279538869857788,-2.198880672454834,1.351301670074463
1761841473184944600,0.324944580078125,2.4558730125427246,-2.3706257343292236,1.1539642810821533
1761841473195014400,0.335014404296875,3.0051350593566895,-2.5254926681518555,0.8246421217918396
1761841473205083600,0.345083740234375,3.7029762268066406,-2.736114978790283,0.5411750078201294
1761841473215153400,0.3551533203125,4.251570224761963,-3.317978858947754,0.46139249205589294
1761841473225222700,0.36522265625,4.648534297943115,-4.037633419036865,0.5201785564422607
1761841473235292400,0.37529248046875,4.911792278289795,-4.755009651184082,0.6337883472442627
1761841473245361700,0.385361572265625,4.959085941314697,-5.4791741371154785,0.8582369089126587
1761841473255431400,0.395431396484375,4.799714088439941,-6.067652225494385,1.098083734512329
1761841473265500700,0.405500732421875,4.491695880889893,-6.287718296051025,1.348244071006775
1761841473275570400,0.4155703125,4.118911266326904,-6.430145740509033,1.6077258586883545
1761841473285639400,0.425639404296875,3.649945020675659,-6.462174415588379,1.8924473524093628
1761841473295709700,0.435709716796875,3.0094308853149414,-6.441731929779053,2.170283317565918
1761841473305778400,0.4457783203125,2.3066699504852295,-6.239448070526123,2.3764538764953613
1761841473315848700,0.4558486328125,1.6146425008773804,-5.848414421081543,2.4970719814300537
1761841473325917400,0.46591748046875,0.9876129627227783,-5.472755432128906,2.527467727661133
1761841473335987500,0.475987548828125,0.4219927191734314,-5.111653804779053,2.4555611610412598
1761841473346057500,0.486057373046875,-0.16884556412696838,-4.8557915687561035,2.2890944480895996
1761841473356126500,0.49612646484375,-0.8727098107337952,-4.6249260902404785,1.9408912658691406
1761841473366196500,0.506196533203125,-1.8188214302062988,-4.213120460510254,1.3985151052474976
1761841473376265500,0.516265380859375,-2.9696598052978516,-3.6465394496917725,0.7579030394554138
1761841473386335500,0.52633544921875,-4.22127103805542,-2.9534246921539307,0.14002572000026703
1761841473396404500,0.536404541015625,-5.5407514572143555,-2.1163482666015625,-0.4215238690376282
1761841473406474500,0.546474609375,-6.875088691711426,-1.1236730813980103,-0.8248840570449829
1761841473416543500,0.55654345703125,-8.171212196350098,-0.04529113322496414,-0.9900978803634644
1761841473426613500,0.566613525390625,-9.432982444763184,1.1346681118011475,-0.8963468670845032
1761841473436682500,0.5766826171875,-10.578168869018555,2.4171018600463867,-0.7329263091087341
1761841473446752500,0.58675244140625,-11.59610652923584,3.635162115097046,-0.5414953231811523
1761841473456821500,0.596821533203125,-12.49354362487793,4.725389003753662,-0.2867504954338074
1761841473466891500,0.6068916015625,-13.266325950622559,5.763968467712402,0.016046928241848946
1761841473476961500,0.61696142578125,-13.727651596069336,6.663418292999268,0.36531028151512146
1761841473487030500,0.627030517578125,-13.596027374267578,7.204196929931641,0.5845246911048889
1761841473497100500,0.6371005859375,-12.651689529418945,7.2324910163879395,0.5453028678894043
1761841473507169500,0.64716943359375,-10.731620788574219,6.529716491699219,0.20417910814285278
1761841473517239600,0.657239501953125,-7.820972919464111,5.284150123596191,-0.35940420627593994
1761841473527308500,0.66730859375,-4.0483880043029785,3.3889546394348145,-0.9727453589439392
1761841473537378600,0.677378662109375,0.28400662541389465,0.952829897403717,-1.6127065420150757
1761841473547447600,0.687447509765625,4.513610363006592,-1.5172079801559448,-2.15427565574646
1761841473557521000,0.69752099609375,8.07369327545166,-3.408554792404175,-2.489684820175171
1761841473567590000,0.70758984375,10.82891845703125,-4.673899173736572,-2.517184257507324
1761841473577660000,0.717659912109375,12.831808090209961,-5.31163215637207,-2.2487103939056396
1761841473587729000,0.72772900390625,14.183839797973633,-5.2318949699401855,-1.9158706665039062
1761841473597799000,0.737798828125,15.01365852355957,-4.773519992828369,-1.6842231750488281
1761841473607869000,0.747868896484375,15.570116996765137,-4.60276460647583,-1.530989170074463
1761841473617938000,0.75793798828125,16.0156307220459,-5.2538909912109375,-1.1555095911026
1761841473628008000,0.768008056640625,16.44239616394043,-6.907972812652588,-0.22349748015403748
1761841473638076700,0.77807666015625,16.790605545043945,-8.681903839111328,1.3878693580627441
1761841473648147000,0.78814697265625,16.593175888061523,-9.236038208007812,3.442970037460327
1761841473658216000,0.7982158203125,15.056097984313965,-7.905943393707275,5.28534460067749
1761841473668286000,0.808285888671875,11.593013763427734,-5.196902275085449,6.298635482788086
1761841473678355000,0.81835498046875,6.926762580871582,-2.255078077316284,6.094756126403809
1761841473688424700,0.8284248046875,2.2744944095611572,0.0133894681930542,4.820898532867432
1761841473698494000,0.838493896484375,-1.6483796834945679,1.2816157341003418,2.785607099533081
1761841473708563700,0.848563720703125,-4.553379058837891,1.6626696586608887,0.1360490471124649
1761841473718634000,0.858634033203125,-6.429445743560791,1.323974609375,-2.1607918739318848
1761841473728702700,0.86870263671875,-7.490633487701416,1.0677825212478638,-3.38008451461792
1761841473738773000,0.87877294921875,-8.118786811828613,1.0405490398406982,-3.9987056255340576
1761841473748842000,0.888842041015625,-8.573121070861816,1.1041229963302612,-4.223234176635742
1761841473758911700,0.898911865234375,-9.014945983886719,1.1917825937271118,-4.193506717681885
1761841473768981000,0.90898095703125,-9.584155082702637,1.430537462234497,-4.028397083282471
1761841473779050800,0.91905078125,-10.359227180480957,1.9944024085998535,-3.6604719161987305
1761841473789120000,0.9291201171875,-11.318717956542969,2.9152071475982666,-3.0134379863739014
1761841473799189800,0.939189697265625,-12.413069725036621,4.176865577697754,-2.1550183296203613
1761841473809259800,0.949259765625,-13.448208808898926,5.715999126434326,-1.2046409845352173
1761841473819328800,0.959328857421875,-13.990567207336426,6.798120975494385,-0.26118019223213196
1761841473829398800,0.969398681640625,-13.507441520690918,6.893063068389893,0.6074651479721069
1761841473839468000,0.979468017578125,-11.634303092956543,6.151239395141602,1.2196567058563232
1761841473849537800,0.989537841796875,-8.238752365112305,4.550172328948975,1.6347107887268066
1761841473859607000,0.99960693359375,-3.699378728866577,2.5659162998199463,1.8873534202575684
1761841473869676800,1.0096767578125,1.0428810119628906,0.3199118673801422,1.390964388847351
1761841473879746000,1.01974609375,5.350513458251953,-1.8443682193756104,0.18942797183990479
1761841473889815800,1.02981591796875,8.869821548461914,-3.5335283279418945,-0.936942994594574
1761841473899885000,1.039885009765625,11.528304100036621,-4.575422763824463,-1.563873291015625
1761841473909954800,1.049954833984375,13.307869911193848,-4.868443965911865,-1.6835905313491821
1761841473920023800,1.06002392578125,14.304102897644043,-4.522302150726318,-1.5041269063949585
1761841473930094000,1.070093994140625,14.850369453430176,-3.9740498065948486,-1.202616572380066
1761841473940163800,1.080163818359375,15.161235809326172,-3.975051164627075,-0.73384690284729
1761841473950233000,1.090233154296875,15.432385444641113,-4.615431308746338,-0.18801210820674896
1761841473960302800,1.100302734375,15.643489837646484,-5.7330193519592285,0.4505458474159241
1761841473970371800,1.110371826171875,15.332189559936523,-6.28675651550293,1.22641122341156
1761841473980441900,1.12044189453125,13.691792488098145,-5.667537689208984,2.086604118347168
1761841473990510800,1.1305107421875,10.250231742858887,-3.84478759765625,2.74371337890625
1761841474000580900,1.140580810546875,5.602658271789551,-1.3904143571853638,2.6369516849517822
1761841474010649900,1.15064990234375,0.7660455703735352,0.8179028034210205,1.5288792848587036
1761841474020720000,1.16072021484375,-3.3688461780548096,2.1562578678131104,-0.0964839980006218
1761841474030790000,1.170789794921875,-6.305392742156982,2.4456491470336914,-1.4042636156082153
1761841474040859000,1.18085888671875,-8.027186393737793,2.259284734725952,-2.14497709274292
1761841474050929000,1.190928955078125,-8.902095794677734,1.8937745094299316,-2.6163816452026367
1761841474060998000,1.200997802734375,-9.28781795501709,1.4664561748504639,-2.9145090579986572
1761841474071068000,1.21106787109375,-9.46228313446045,1.0108808279037476,-3.131237506866455
1761841474081137000,1.221136962890625,-9.72499942779541,0.8530150651931763,-3.373077154159546
1761841474091207000,1.23120703125,-10.266432762145996,1.2097110748291016,-3.498649835586548
1761841474101277000,1.24127685546875,-11.112137794494629,1.9611173868179321,-3.225560426712036
1761841474111345700,1.251345703125,-12.137643814086914,3.172823429107666,-2.558696985244751
1761841474121416000,1.261416015625,-13.014758110046387,4.6365065574646,-1.538610577583313
1761841474131485000,1.27148486328125,-13.355823516845703,5.435871124267578,-0.3252163827419281
1761841474141555000,1.281554931640625,-12.67895793914795,5.373958587646484,0.770386815071106
1761841474151624000,1.2916240234375,-10.697603225708008,4.342848300933838,1.7178908586502075
1761841474161693700,1.301693603515625,-7.414194107055664,2.8566908836364746,2.4697117805480957
1761841474171763000,1.311762939453125,-3.4653494358062744,1.202040433883667,2.5725479125976562
1761841474181832700,1.321832763671875,0.4790952205657959,-0.414999395608902,1.9075638055801392
1761841474191903000,1.331903076171875,4.040826320648193,-1.723944902420044,0.9063637852668762
1761841474201971700,1.3419716796875,6.931555271148682,-2.652305841445923,0.07619249075651169
1761841474212041700,1.352041748046875,9.07643985748291,-3.2083606719970703,-0.38519084453582764
1761841474222111000,1.362111083984375,10.561426162719727,-3.378187894821167,-0.5513681173324585
1761841474232180700,1.3721806640625,11.49128246307373,-3.1429061889648438,-0.5551657676696777
1761841474242250000,1.38225,12.064885139465332,-2.809105157852173,-0.45534244179725647
1761841474252319700,1.39231982421875,12.516998291015625,-2.58359432220459,-0.2857576608657837
1761841474262389000,1.402388916015625,12.93655776977539,-2.826725959777832,-0.026352565735578537
1761841474272458800,1.412458740234375,13.328495979309082,-3.7085816860198975,0.3806958794593811
1761841474282528800,1.42252880859375,13.543658256530762,-5.109313488006592,1.091646432876587
1761841474292597800,1.43259765625,13.278823852539062,-6.111618518829346,2.033514976501465
1761841474302667800,1.442667724609375,11.892727851867676,-6.027911186218262,2.9741146564483643
1761841474312737000,1.452737060546875,8.927824974060059,-4.714135646820068,3.571784257888794
1761841474322806800,1.462806884765625,4.890581130981445,-2.5267977714538574,3.3189778327941895
1761841474332876000,1.4728759765625,0.5701088905334473,-0.47031959891319275,2.0382840633392334
1761841474342945800,1.48294580078125,-3.1982316970825195,0.9992954730987549,0.1595107465982437
1761841474353015000,1.49301513671875,-6.0811872482299805,1.626038670539856,-1.7414053678512573
1761841474363084800,1.503084716796875,-8.012129783630371,1.8418138027191162,-2.8982465267181396
1761841474373154800,1.51315478515625,-9.223480224609375,1.9077651500701904,-3.576892852783203
1761841474383223800,1.523223876953125,-10.00040340423584,2.019831657409668,-3.9656577110290527
1761841474393293800,1.5332939453125,-10.59245777130127,2.129896402359009,-4.079436302185059
1761841474403363000,1.543363037109375,-11.172499656677246,2.3668012619018555,-3.9570302963256836
1761841474413432800,1.553432861328125,-11.840527534484863,2.8148210048675537,-3.5891332626342773
1761841474423502000,1.563502197265625,-12.495759963989258,3.282360553741455,-3.0307810306549072
1761841474433571800,1.57357177734375,-12.813838958740234,3.661761999130249,-2.3588337898254395
1761841474443641900,1.583641845703125,-12.495847702026367,3.783374786376953,-1.501637578010559
1761841474453710800,1.5937109375,-11.327974319458008,3.460987091064453,-0.4944950044155121
1761841474463780900,1.60378076171875,-9.253866195678711,2.594841241836548,0.4985513985157013
1761841474473849900,1.613849853515625,-6.382207870483398,1.4395289421081543,1.4063081741333008
1761841474483920000,1.623919921875,-2.99226713180542,0.4120171368122101,2.0792102813720703
1761841474493988900,1.63398876953125,0.38121435046195984,-0.3530278205871582,2.0916595458984375
1761841474504059000,1.644058837890625,3.3200154304504395,-1.0061997175216675,1.5097968578338623
1761841474514128000,1.6541279296875,5.73238468170166,-1.4943342208862305,0.6774905920028687
1761841474524198000,1.664197998046875,7.5897746086120605,-1.7929871082305908,-0.08505317568778992
1761841474534268000,1.674267822265625,9.053901672363281,-1.8927009105682373,-0.5797435641288757
1761841474544337000,1.6843369140625,10.22844123840332,-1.8127226829528809,-0.7723027467727661
1761841474554407000,1.694406982421875,11.177149772644043,-1.6494841575622559,-0.7172274589538574
1761841474564472600,1.70447265625,11.997727394104004,-1.5443682670593262,-0.49256834387779236
1761841474574542800,1.71454296875,12.779929161071777,-1.9432168006896973,-0.0632377490401268
1761841474584611600,1.724611572265625,13.423028945922852,-3.244715929031372,0.6573265194892883
1761841474594681900,1.734681884765625,13.683802604675293,-5.020405292510986,1.640795350074768
1761841474604752000,1.744751953125,13.194098472595215,-6.2372846603393555,2.7372748851776123
1761841474614820600,1.754820556640625,11.53001594543457,-6.118855953216553,3.706479072570801
1761841474624891000,1.764890869140625,8.456618309020996,-4.655304431915283,4.2870917320251465
1761841474634959600,1.774959716796875,4.387485980987549,-2.4545140266418457,4.036716461181641
1761841474645030000,1.78502978515625,0.18448808789253235,-0.4520606994628906,2.917996883392334
1761841474655098600,1.7950986328125,-3.410452365875244,0.9011210203170776,1.2619011402130127
1761841474665168600,1.805168701171875,-6.249533653259277,1.78213369846344,-0.7467030882835388
1761841474675239000,1.815239013671875,-8.171339988708496,2.175333023071289,-2.2391860485076904
1761841474685307600,1.8253076171875,-9.359097480773926,2.3168134689331055,-2.9875006675720215
1761841474695378000,1.8353779296875,-10.042496681213379,2.3366734981536865,-3.388854503631592
1761841474705446700,1.84544677734375,-10.446930885314941,2.264247417449951,-3.5683038234710693
1761841474715517000,1.855516845703125,-10.715741157531738,2.199094772338867,-3.6171395778656006
1761841474725585700,1.865585693359375,-10.905111312866211,2.1157186031341553,-3.5736021995544434
1761841474735655700,1.87565576171875,-10.836373329162598,1.87301504611969,-3.3679513931274414
1761841474745726000,1.885725830078125,-10.35479736328125,1.4496997594833374,-2.9373366832733154
1761841474755794700,1.895794677734375,-9.434094429016113,0.9557843208312988,-2.3276102542877197
1761841474765865000,1.905864990234375,-8.187771797180176,0.6437988877296448,-1.6668342351913452
1761841474775933700,1.91593359375,-6.600340366363525,0.6505976319313049,-0.9069948196411133
1761841474786003700,1.926003662109375,-4.706434726715088,0.6443228721618652,-0.013651423156261444
1761841474796072700,1.93607275390625,-2.5516438484191895,0.7189827561378479,0.7931790947914124
1761841474806142700,1.946142822265625,-0.17259520292282104,0.7269217371940613,1.202596664428711
1761841474816211700,1.956211669921875,2.1331493854522705,0.4561847746372223,1.1805517673492432
1761841474826281700,1.96628173828125,4.277405738830566,0.16324466466903687,0.8732593059539795
1761841474836351700,1.976351806640625,6.127908229827881,-0.0952654480934143,0.4829174280166626
1761841474846420700,1.986420654296875,7.693755626678467,-0.17141973972320557,0.15627145767211914
1761841474856490800,1.99649072265625,9.024852752685547,-0.03160325437784195,-0.047170888632535934
1761841474866559700,2.006559814453125,10.160442352294922,0.15805551409721375,-0.09468411654233932
1761841474876629800,2.016629638671875,11.180026054382324,0.08627718687057495,0.01126042939722538
1761841474886698800,2.02669873046875,12.130051612854004,-0.654535710811615,0.3265780806541443
1761841474896768800,2.036768798828125,12.865144729614258,-2.3350183963775635,0.9317042231559753
1761841474906838500,2.046838623046875,13.045159339904785,-4.368663787841797,1.8338932991027832
1761841474916907800,2.05690771484375,12.254138946533203,-5.469914436340332,2.7950212955474854
1761841474926977800,2.066977783203125,10.174781799316406,-5.019373893737793,3.664788007736206
1761841474937046800,2.077046875,6.9396162033081055,-3.3265650272369385,4.1441240310668945
1761841474947116800,2.08711669921875,3.1697826385498047,-1.6378861665725708,3.7879586219787598
1761841474957185800,2.097185791015625,-0.5067410469055176,-0.30870357155799866,2.994988203048706
1761841474967255800,2.107255859375,-3.531665802001953,0.6306113004684448,1.6696248054504395
1761841474977325600,2.11732568359375,-5.9612016677856445,1.2705296277999878,-0.045169901102781296
1761841474987394800,2.127394775390625,-7.811924934387207,1.702854871749878,-1.4823592901229858
1761841474997464600,2.137464599609375,-9.202133178710938,2.071685791015625,-2.3474183082580566
1761841475007533800,2.147533935546875,-10.229630470275879,2.4946999549865723,-2.811765670776367
1761841475017603800,2.157603759765625,-11.031060218811035,2.9439640045166016,-2.913893938064575
1761841475027672800,2.1676728515625,-11.688024520874023,3.362060070037842,-2.6917788982391357
1761841475037742800,2.177742919921875,-12.2441987991333,3.7561895847320557,-2.24381947517395
1761841475047812600,2.1878125,-12.624018669128418,4.0504150390625,-1.715021014213562
1761841475057881900,2.1978818359375,-12.601780891418457,4.008390426635742,-1.200661301612854
1761841475067951600,2.20795166015625,-11.868407249450684,3.690875768661499,-0.7615530490875244
1761841475078020900,2.218020751953125,-10.299433708190918,2.9980292320251465,-0.3633415102958679
1761841475088090600,2.228090576171875,-7.883545875549316,2.008049964904785,0.03672622889280319
1761841475098159900,2.238159912109375,-4.878870010375977,0.8321544528007507,0.43955251574516296
1761841475108230000,2.24822998046875,-1.4471591711044312,0.04571310430765152,0.8486248850822449
1761841475118299600,2.258299560546875,1.8209195137023926,-0.6620875000953674,0.9176777005195618
1761841475128369000,2.268368896484375,4.613533020019531,-1.2614737749099731,0.5808972120285034
1761841475138438700,2.278438720703125,6.8496527671813965,-1.6816223859786987,0.15456004440784454
1761841475148508000,2.2885078125,8.536354064941406,-1.9069072008132935,-0.07295066863298416
1761841475158577700,2.29857763671875,9.78857135772705,-1.8979965448379517,-0.14465387165546417
1761841475168647000,2.30864697265625,10.711198806762695,-1.7598278522491455,-0.09516772627830505
1761841475178716700,2.318716552734375,11.428217887878418,-1.6632096767425537,0.025717953220009804
1761841475188786700,2.32878662109375,11.994309425354004,-1.7943246364593506,0.19351984560489655
1761841475198856000,2.33885595703125,12.452337265014648,-2.3196334838867188,0.3977222442626953
1761841475208925700,2.34892578125,12.734185218811035,-3.3871922492980957,0.7575108408927917
1761841475218995000,2.358994873046875,12.663580894470215,-4.408962726593018,1.279921293258667
1761841475229064700,2.369064697265625,11.79964828491211,-4.575841903686523,1.9137568473815918
1761841475239134000,2.379134033203125,9.821829795837402,-3.897493362426758,2.469904661178589
1761841475249203700,2.38920361328125,6.918551445007324,-2.729196310043335,2.741253614425659
1761841475259273700,2.399273681640625,3.5687954425811768,-1.3352068662643433,2.4706132411956787
1761841475269342700,2.4093427734375,0.2079920470714569,-0.12705710530281067,1.6669882535934448
1761841475279412700,2.419412841796875,-2.774440050125122,0.7503061294555664,0.4270157217979431
1761841475289482000,2.42948193359375,-5.134517669677734,1.2467795610427856,-0.9365772008895874
1761841475299551700,2.4395517578125,-6.845401287078857,1.6455860137939453,-1.8895783424377441
1761841475309620700,2.449620849609375,-8.0150146484375,1.9065443277359009,-2.4961166381835938
1761841475319690800,2.459690673828125,-8.798585891723633,2.025055170059204,-2.869843006134033
1761841475329760800,2.4697607421875,-9.333024978637695,2.0697784423828125,-3.04634952545166
1761841475339829800,2.479829833984375,-9.770086288452148,2.1562764644622803,-3.057817220687866
1761841475349899800,2.489899658203125,-10.190129280090332,2.3787169456481934,-2.925549268722534
1761841475359968800,2.49996875,-10.62575626373291,2.7057342529296875,-2.6120872497558594
1761841475370038800,2.510038818359375,-11.01157283782959,3.0454180240631104,-2.1666786670684814
1761841475380107800,2.520107666015625,-11.211752891540527,3.36021089553833,-1.7253100872039795
1761841475390177800,2.530177734375,-10.997920989990234,3.568842649459839,-1.263211727142334
1761841475400247800,2.540247802734375,-10.156167030334473,3.5473473072052,-0.6937258839607239
1761841475410316800,2.55031689453125,-8.604350090026855,3.1682310104370117,-0.004423912614583969
1761841475420386800,2.56038671875,-6.455739974975586,2.2769205570220947,0.7322903275489807
1761841475430455800,2.570455810546875,-3.7480835914611816,1.4596657752990723,1.2612944841384888
1761841475440525800,2.58052587890625,-0.9321280121803284,0.49237313866615295,1.3511978387832642
1761841475450594600,2.590594482421875,1.6794657707214355,-0.406205415725708,0.9660482406616211
1761841475460664800,2.600664794921875,3.9821014404296875,-1.0253146886825562,0.3447982370853424
1761841475470734800,2.61073486328125,5.844348430633545,-1.4794175624847412,-0.2652915120124817
1761841475480803800,2.620803955078125,7.29154109954834,-1.7383991479873657,-0.742037296295166
1761841475490873900,2.630873779296875,8.378900527954102,-1.8244236707687378,-1.0278347730636597
1761841475500942600,2.640942626953125,9.240986824035645,-1.8421581983566284,-1.1715232133865356
1761841475511012900,2.651012939453125,9.931529998779297,-1.9126334190368652,-1.2311824560165405
1761841475521081600,2.66108154296875,10.539959907531738,-2.0637080669403076,-1.280078411102295
1761841475531152000,2.67115185546875,11.043432235717773,-2.4620707035064697,-1.2242175340652466
1761841475541222000,2.681221923828125,11.353979110717773,-3.187373161315918,-0.9682877063751221
1761841475551290600,2.69129052734375,11.292142868041992,-3.8748698234558105,-0.4958975315093994
1761841475561360400,2.7013603515625,10.55217456817627,-4.098052978515625,0.15352573990821838
1761841475571429400,2.711429443359375,8.842544555664062,-3.5873632431030273,0.7646005153656006
1761841475581499400,2.72149951171875,6.2443108558654785,-2.3632540702819824,1.1301934719085693
1761841475591569200,2.731569091796875,3.1859335899353027,-0.9244940280914307,1.0672807693481445
1761841475601638400,2.741638427734375,0.15684404969215393,0.5336061120033264,0.6241949200630188
1761841475611708200,2.751708251953125,-2.5264322757720947,1.401588797569275,-0.03909986838698387
1761841475621777400,2.76177734375,-4.588400363922119,1.7452332973480225,-0.5150488615036011
1761841475631847200,2.77184716796875,-6.054812431335449,1.878693699836731,-0.7082351446151733
1761841475641916200,2.781916259765625,-7.002590179443359,1.9160614013671875,-0.7866111397743225
1761841475651986400,2.791986328125,-7.572056293487549,1.909141182899475,-0.835063636302948
1761841475662056200,2.80205615234375,-7.917818546295166,1.8842179775238037,-0.8728011846542358
1761841475672125400,2.81212548828125,-8.201623916625977,1.8726049661636353,-0.8817566633224487
1761841475682195200,2.8221953125,-8.469734191894531,1.9441287517547607,-0.8434827923774719
1761841475692264200,2.83226416015625,-8.692669868469238,2.0518128871917725,-0.7160528302192688
1761841475702334200,2.842334228515625,-8.785526275634766,2.0714423656463623,-0.5020811557769775
1761841475712403200,2.8524033203125,-8.580307960510254,1.9118787050247192,-0.23100413382053375
1761841475722473200,2.86247314453125,-7.920639514923096,1.5668320655822754,0.050719697028398514
1761841475732543200,2.872543212890625,-6.653676509857178,1.1766867637634277,0.38440126180648804
1761841475742612500,2.882612548828125,-4.6250128746032715,0.9874725937843323,0.8894793391227722
1761841475752682200,2.89268212890625,-2.2722866535186768,0.36363720893859863,1.558901309967041
1761841475762751200,2.902751220703125,0.35071223974227905,-0.2188379019498825,2.050550937652588
1761841475772821200,2.9128212890625,2.8046720027923584,-0.7710989713668823,2.085671901702881
1761841475782890200,2.92289013671875,4.84636116027832,-1.0452321767807007,1.80938720703125
1761841475792960300,2.932960205078125,6.449585914611816,-1.0704078674316406,1.4748506546020508
1761841475803030300,2.9430302734375,7.672380447387695,-0.9223379492759705,1.2135405540466309
1761841475813099300,2.953099365234375,8.551467895507812,-0.7043659090995789,1.0859804153442383
1761841475823169300,2.963169189453125,9.252245903015137,-0.43116262555122375,1.0212397575378418
1761841475833238300,2.97323828125,9.816965103149414,-0.5092426538467407,1.0411384105682373
1761841475843308300,2.983308349609375,10.299844741821289,-1.0834907293319702,1.164591670036316
1761841475853378300,2.99337841796875,10.583067893981934,-2.172333002090454,1.3984161615371704
1761841475863447300,3.003447265625,10.47413444519043,-3.225010395050049,1.7192251682281494
1761841475873517300,3.013517333984375,9.727039337158203,-3.5890860557556152,2.068230390548706
1761841475883586000,3.0235859375,8.096027374267578,-3.1460213661193848,2.3552558422088623
1761841475893656300,3.03365625,5.677247524261475,-2.17144775390625,2.377523422241211
1761841475903725000,3.04372509765625,2.798656463623047,-1.1264857053756714,2.009922742843628
1761841475913795300,3.05379541015625,-0.10813447833061218,-0.21487995982170105,1.295541763305664
1761841475923865300,3.063865234375,-2.70790958404541,0.577383279800415,0.2186468094587326
1761841475933934300,3.073934326171875,-4.85633659362793,1.0999839305877686,-0.860445499420166
1761841475944004400,3.08400439453125,-6.5402021408081055,1.4471216201782227,-1.4908264875411987
1761841475954073000,3.094072998046875,-7.812489986419678,1.7129700183868408,-1.8444849252700806
1761841475964143400,3.104143310546875,-8.754097938537598,1.9389439821243286,-2.0746328830718994
1761841475974212000,3.114212158203125,-9.487812042236328,2.106802225112915,-2.202866792678833
1761841475984282400,3.124282470703125,-10.096867561340332,2.320345163345337,-2.266754150390625
1761841475994352400,3.134352294921875,-10.650094032287598,2.6123299598693848,-2.2720024585723877
1761841476004421000,3.144421142578125,-11.11660099029541,2.878162384033203,-2.21431565284729
1761841476014491400,3.154491455078125,-11.305105209350586,3.0281364917755127,-2.0451555252075195
1761841476024560000,3.16456005859375,-10.967253684997559,2.837686538696289,-1.7222057580947876
1761841476034630400,3.17463037109375,-9.751622200012207,2.420727491378784,-1.2702528238296509
1761841476044700200,3.1847001953125,-7.482649326324463,1.8582228422164917,-0.6793114542961121
1761841476054769200,3.19476904296875,-4.52822732925415,0.657659113407135,0.14315815269947052
1761841476064839400,3.20483935546875,-1.0583090782165527,-0.32644498348236084,0.8328779935836792
1761841476074908200,3.214908203125,2.3588180541992188,-1.0656707286834717,1.160689353942871
1761841476084978400,3.224978515625,5.220441818237305,-1.607002854347229,1.170775055885315
1761841476095047200,3.235047119140625,7.44337797164917,-1.909790277481079,1.0539166927337646
1761841476105117400,3.245117431640625,9.065471649169922,-2.1196134090423584,0.9547834396362305
1761841476115187200,3.255187255859375,10.175823211669922,-2.225861072540283,0.9020087122917175
1761841476125256200,3.265256103515625,10.848435401916504,-2.1824772357940674,0.8305081725120544
1761841476135326200,3.275326171875,11.202162742614746,-1.9623847007751465,0.6830705404281616
1761841476145395200,3.285395263671875,11.234309196472168,-2.0103142261505127,0.5635878443717957
1761841476155465500,3.295465576171875,10.918411254882812,-2.3689513206481934,0.5196112990379333
1761841476165534200,3.3055341796875,10.129874229431152,-2.5890259742736816,0.5398052334785461
1761841476175604200,3.315604248046875,8.775590896606445,-2.2247047424316406,0.5737403035163879
1761841476185674200,3.32567431640625,6.736734867095947,-1.6683564186096191,0.6469767093658447
1761841476195743200,3.3357431640625,4.247464656829834,-1.0233492851257324,0.6348497271537781
1761841476205813200,3.345813232421875,1.5465378761291504,-0.2817841172218323,0.49186110496520996
1761841476215882200,3.35588232421875,-1.0921295881271362,0.6153151392936707,0.11493867635726929
1761841476225952300,3.3659521484375,-3.4226155281066895,1.474241852760315,-0.5116754174232483
1761841476236022300,3.376022216796875,-5.266473770141602,2.027940511703491,-1.0848608016967773
1761841476246091300,3.38609130859375,-6.615368843078613,2.3547675609588623,-1.4053093194961548
1761841476256161300,3.396161376953125,-7.544872760772705,2.4584686756134033,-1.6107268333435059
1761841476266230300,3.406230224609375,-8.15999698638916,2.449199676513672,-1.7436816692352295
1761841476276300300,3.41630029296875,-8.586782455444336,2.359466075897217,-1.7803232669830322
1761841476286370300,3.426370361328125,-8.88329029083252,2.2975218296051025,-1.7019882202148438
1761841476296439300,3.436439208984375,-9.088051795959473,2.2419300079345703,-1.5356500148773193
1761841476306509300,3.44650927734375,-9.192770004272461,2.0486814975738525,-1.3792612552642822
1761841476316578000,3.456578125,-9.06915283203125,1.6375720500946045,-1.3268541097640991
1761841476326648300,3.4666484375,-8.558692932128906,1.0879976749420166,-1.3719520568847656
1761841476336717300,3.47671728515625,-7.630561351776123,0.46908995509147644,-1.3036774396896362
1761841476346787300,3.486787353515625,-6.345235347747803,-0.0273301899433136,-1.0391696691513062
1761841476356857300,3.496857421875,-4.727294445037842,-0.2957306206226349,-0.7194238305091858
1761841476366926000,3.506926025390625,-2.813124179840088,-0.5289479494094849,-0.31315919756889343
1761841476376996400,3.516996337890625,-0.6532291769981384,-0.6155900359153748,0.08565901964902878
1761841476387065000,3.527065185546875,1.5377564430236816,-0.7209012508392334,0.2527811527252197
1761841476397135400,3.53713525390625,3.5598723888397217,-1.02204430103302,0.2297353893518448
1761841476407205400,3.547205322265625,5.36346960067749,-1.3523337841033936,0.14837288856506348
1761841476417274000,3.557274169921875,6.856060981750488,-1.6534885168075562,0.1403055489063263
1761841476427344400,3.567344482421875,8.134145736694336,-1.7072322368621826,0.17229491472244263
1761841476437413000,3.5774130859375,9.17740535736084,-1.6537268161773682,0.27288293838500977
1761841476447483400,3.5874833984375,10.032867431640625,-1.7077032327651978,0.41287705302238464
1761841476457552100,3.59755224609375,10.696293830871582,-2.150135040283203,0.5882679224014282
1761841476467622400,3.607622314453125,11.052457809448242,-3.026603937149048,0.8264586329460144
1761841476477692400,3.6176923828125,10.875704765319824,-3.9850587844848633,1.0954439640045166
1761841476487761200,3.62776123046875,9.778714179992676,-4.45514440536499,1.274153709411621
1761841476497831400,3.63783154296875,7.6563920974731445,-4.039031982421875,1.2804272174835205
1761841476507900200,3.647900146484375,4.9052252769470215,-2.6072864532470703,0.9395713210105896
1761841476517970400,3.657970458984375,1.8174824714660645,-0.9485710263252258,0.38910719752311707
1761841476528040200,3.668040283203125,-1.1979418992996216,0.5780218839645386,-0.19412057101726532
1761841476538109200,3.678109130859375,-3.8207149505615234,1.6506075859069824,-0.886604905128479
1761841476548179200,3.68817919921875,-5.952022075653076,2.26609206199646,-1.5898075103759766
1761841476558248200,3.698248291015625,-7.584786891937256,2.7316110134124756,-2.0818288326263428
1761841476568319000,3.708319091796875,-8.7916259765625,3.186405658721924,-2.378216028213501
1761841476578389200,3.71838916015625,-9.69432258605957,3.579150438308716,-2.4764909744262695
1761841476588458000,3.7284580078125,-10.390436172485352,3.8937456607818604,-2.353482961654663
1761841476598528300,3.7385283203125,-10.958556175231934,4.110276222229004,-2.0010242462158203
1761841476608597000,3.748596923828125,-11.396973609924316,4.31993293762207,-1.5123497247695923
1761841476618667000,3.7586669921875,-11.609357833862305,4.506823539733887,-1.0468899011611938
1761841476628736000,3.768736083984375,-11.444877624511719,4.419816970825195,-0.6811603903770447
1761841476638806000,3.778805908203125,-10.695938110351562,3.8718202114105225,-0.37378478050231934
1761841476648876300,3.788876220703125,-9.25046157836914,2.9951648712158203,0.010473684407770634
1761841476658945000,3.798945068359375,-7.143420219421387,1.9495313167572021,0.5291433930397034
1761841476669015300,3.809015380859375,-4.527505397796631,0.9749224781990051,1.1067076921463013
1761841476679084000,3.819083984375,-1.5408978462219238,0.2596265971660614,1.7077947854995728
1761841476689154000,3.829154052734375,1.4118082523345947,-0.5149234533309937,2.0424723625183105
1761841476699223000,3.83922314453125,4.079494476318359,-1.2217075824737549,1.9427152872085571
1761841476709293000,3.84929296875,6.286665916442871,-1.8130860328674316,1.6132434606552124
1761841476719363300,3.85936328125,8.0084228515625,-2.2200613021850586,1.321156620979309
1761841476729432000,3.86943212890625,9.315747261047363,-2.4424562454223633,1.1565316915512085
1761841476739502000,3.879502197265625,10.266898155212402,-2.5299110412597656,1.1085059642791748
1761841476749571000,3.889571044921875,10.945024490356445,-2.4500508308410645,1.0992200374603271
1761841476759641000,3.89964111328125,11.417671203613281,-2.464580535888672,1.1392426490783691
1761841476769711000,3.909711181640625,11.758171081542969,-2.718329668045044,1.2418690919876099
1761841476779780000,3.919780029296875,11.860994338989258,-3.3261520862579346,1.444071888923645
1761841476789850000,3.92985009765625,11.550493240356445,-3.755791664123535,1.67928946018219
1761841476799919000,3.939919189453125,10.612699508666992,-3.7868893146514893,1.9151099920272827
1761841476809989000,3.949989013671875,8.790091514587402,-3.41266131401062,2.1183629035949707
1761841476820059100,3.96005908203125,6.153036117553711,-2.5692272186279297,2.0276436805725098
1761841476830128000,3.970128173828125,3.043626546859741,-1.264757513999939,1.5510367155075073
1761841476840198100,3.9801982421875,-0.07292644679546356,0.21207395195960999,0.7114374041557312
1761841476850267100,3.99026708984375,-2.909170150756836,1.3530269861221313,-0.3332383930683136
1761841476860337000,4.0003369140625,-5.205473899841309,2.283130168914795,-1.362595558166504
1761841476870406100,4.01040625,-6.980936527252197,2.8295183181762695,-1.961904525756836
1761841476880475100,4.02047509765625,-8.218209266662598,3.164679527282715,-2.27278995513916
1761841476890545200,4.030545166015625,-9.015786170959473,3.288907051086426,-2.46239972114563
1761841476900615200,4.040615234375,-9.524148941040039,3.201328992843628,-2.5372819900512695
1761841476910684200,4.05068408203125,-9.842150688171387,3.0304057598114014,-2.5028860569000244
1761841476920754200,4.060754150390625,-10.070820808410645,2.938340425491333,-2.3942248821258545
1761841476930823200,4.0708232421875,-10.261080741882324,3.033520460128784,-2.223616361618042
1761841476940893200,4.08089306640625,-10.343886375427246,3.1299216747283936,-1.9809935092926025
1761841476950963000,4.090962890625,-10.086930274963379,2.917654275894165,-1.7078979015350342
1761841476961032200,4.1010322265625,-9.226035118103027,2.4880194664001465,-1.434562087059021
1761841476971102200,4.111102294921875,-7.576320171356201,1.9540468454360962,-0.9369760155677795
1761841476981171200,4.121171142578125,-5.190323352813721,1.2903097867965698,-0.14322735369205475
1761841476991241200,4.1312412109375,-2.429793357849121,0.26057159900665283,0.8062611818313599
1761841477001310200,4.141310302734375,0.5213690996170044,-0.5538239479064941,1.3699665069580078
1761841477011380200,4.151380126953125,3.271022319793701,-1.3995972871780396,1.4096184968948364
1761841477021450000,4.161449951171875,5.64143705368042,-2.032111644744873,1.2392451763153076
1761841477031519200,4.171519287109375,7.538191795349121,-2.4734699726104736,1.098219871520996
1761841477041589000,4.181589111328125,9.081785202026367,-2.664792537689209,1.112862229347229
1761841477051658200,4.191658203125,10.255904197692871,-2.6759185791015625,1.2825125455856323
1761841477061728300,4.201728271484375,11.114587783813477,-2.6547749042510986,1.5243693590164185
1761841477071797200,4.21179736328125,11.762406349182129,-2.7527410984039307,1.7879616022109985
1761841477081867300,4.2218671875,12.12633991241455,-3.294278383255005,2.075612783432007
1761841477091937000,4.23193701171875,12.087118148803711,-4.100586414337158,2.354858636856079
1761841477102006300,4.24200634765625,11.46088695526123,-4.557322978973389,2.604837417602539
1761841477112076000,4.252075927734375,9.88129997253418,-4.245311260223389,2.789163112640381
1761841477122145300,4.262145263671875,7.454625606536865,-3.1849710941314697,2.6892154216766357
1761841477132215000,4.272215087890625,4.445346355438232,-1.925681471824646,2.3499643802642822
1761841477142285000,4.28228515625,1.2975937128067017,-0.6117460131645203,1.6011840105056763
1761841477152354300,4.292354248046875,-1.746036171913147,0.07861563563346863,0.6171308159828186
1761841477162424000,4.302424072265625,-4.316597938537598,1.168678641319275,-0.28670787811279297
1761841477172493300,4.312493408203125,-6.460251808166504,2.033806562423706,-1.4924837350845337
1761841477182563000,4.32256298828125,-8.1051025390625,2.5339112281799316,-2.422893762588501
1761841477192633000,4.332633056640625,-9.279780387878418,2.977139711380005,-3.0090508460998535
1761841477202702000,4.3427021484375,-10.09463882446289,3.1742100715637207,-3.317408800125122
1761841477212772000,4.352772216796875,-10.668811798095703,3.2633626461029053,-3.4241371154785156
1761841477222841000,4.362841064453125,-11.056327819824219,3.5408737659454346,-3.340833902359009
1761841477232911000,4.3729111328125,-11.295243263244629,3.719481945037842,-3.1350505352020264
1761841477242981000,4.382981201171875,-11.176918983459473,3.383457899093628,-2.8700149059295654
1761841477253050000,4.393050048828125,-10.419523239135742,2.398418426513672,-2.6344656944274902
1761841477263120100,4.4031201171875,-8.835697174072266,1.290690541267395,-2.2797837257385254
1761841477273189000,4.413189208984375,-6.49963903427124,0.563545286655426,-1.5507302284240723
1761841477283259100,4.423259033203125,-3.777341604232788,0.2200717329978943,-0.3926268219947815
1761841477293329200,4.4333291015625,-1.0628942251205444,-0.27643924951553345,0.9919226765632629
1761841477303398100,4.443398193359375,1.4418376684188843,-0.8805763125419617,2.11153507232666
1761841477313468200,4.45346826171875,3.598378896713257,-1.3904075622558594,2.3966238498687744
1761841477323537200,4.463537109375,5.317850589752197,-1.8833606243133545,2.315258502960205
1761841477333607200,4.473607177734375,6.680388927459717,-2.241194486618042,2.23650860786438
1761841477343676200,4.48367626953125,7.666628360748291,-2.431849241256714,2.1918022632598877
1761841477353746200,4.49374609375,8.278204917907715,-2.378826141357422,2.1076810359954834
1761841477363816000,4.50381591796875,8.534619331359863,-2.1487696170806885,1.9452389478683472
1761841477373885200,4.51388525390625,8.550740242004395,-1.8649026155471802,1.730860948562622
1761841477383955200,4.523955078125,8.400774955749512,-1.6546270847320557,1.522158145904541
1761841477394024200,4.534024169921875,8.057863235473633,-1.642595648765564,1.3215293884277344
1761841477404094200,4.54409423828125,7.487704277038574,-1.6361433267593384,1.1816742420196533
1761841477414164000,4.5541640625,6.582332134246826,-1.5699504613876343,1.1055885553359985
1761841477424233200,4.564233154296875,5.2744622230529785,-1.419447660446167,1.019828200340271
1761841477434303000,4.574302978515625,3.5713722705841064,-1.1449470520019531,0.9048936367034912
1761841477444372200,4.584372314453125,1.659519910812378,-0.5271857976913452,0.6706051826477051
1761841477454442000,4.59444189453125,-0.31566837430000305,0.24305419623851776,0.1897491216659546
1761841477464512000,4.604511962890625,-2.1692583560943604,0.9909691214561462,-0.47598767280578613
1761841477474581200,4.614581298828125,-3.779419183731079,1.4469068050384521,-1.1698684692382812
1761841477484651000,4.624651123046875,-5.085471153259277,1.7561029195785522,-1.6974226236343384
1761841477494722000,4.63472216796875,-6.099767208099365,2.058980703353882,-2.053201198577881
1761841477504791000,4.644791015625,-6.840398788452148,2.2862205505371094,-2.2433154582977295
1761841477514861000,4.654861083984375,-7.355053901672363,2.3847506046295166,-2.272393226623535
1761841477524931000,4.66493115234375,-7.680046558380127,2.358822822570801,-2.181251049041748
1761841477535000000,4.675,-7.75468635559082,2.211991786956787,-2.054288387298584
1761841477545070000,4.685070068359375,-7.548929691314697,1.8421474695205688,-1.8923479318618774
1761841477555139000,4.69513916015625,-7.049482345581055,1.5428065061569214,-1.7091890573501587
1761841477565212700,4.705212646484375,-6.307586669921875,1.1766605377197266,-1.3997092247009277
1761841477575282000,4.715281982421875,-5.253061294555664,0.703679621219635,-0.8848224878311157
1761841477585351700,4.7253515625,-3.8524792194366455,0.5029685497283936,-0.19900743663311005
1761841477595421700,4.735421630859375,-2.2818219661712646,0.349585622549057,0.5578888058662415
1761841477605490700,4.74549072265625,-0.4787377417087555,0.20276737213134766,1.252516269683838
1761841477615560700,4.755560791015625,1.349973201751709,-0.13477152585983276,1.621751070022583
1761841477625629700,4.765629638671875,3.1016180515289307,-0.4627932906150818,1.7107264995574951
1761841477635699700,4.77569970703125,4.643044948577881,-0.7141304612159729,1.7063101530075073
1761841477645769700,4.785769775390625,5.953769207000732,-0.9022437930107117,1.7285128831863403
1761841477655838700,4.795838623046875,7.076557636260986,-1.0457426309585571,1.8090248107910156
1761841477665908700,4.80590869140625,7.994897842407227,-1.2487140893936157,1.9358768463134766
1761841477675977700,4.815977783203125,8.65739631652832,-1.5291603803634644,2.03281307220459
1761841477686047700,4.8260478515625,9.033453941345215,-1.8854200839996338,2.095757246017456
1761841477696117800,4.83611767578125,9.090253829956055,-2.1889235973358154,2.1322021484375
1761841477706186800,4.846186767578125,8.674698829650879,-2.449728012084961,2.1706411838531494
1761841477716256800,4.8562568359375,7.707686901092529,-2.4289357662200928,2.1927266120910645
1761841477726325800,4.86632568359375,6.18204402923584,-2.2049293518066406,2.1210622787475586
1761841477736395800,4.876395751953125,4.167844295501709,-1.6584970951080322,1.9877203702926636
1761841477746465800,4.8864658203125,1.953040599822998,-0.6840205788612366,1.64435875415802
1761841477756534800,4.89653466796875,-0.31408053636550903,0.17869707942008972,1.0551215410232544
1761841477766604500,4.9066044921875,-2.3580708503723145,0.9366256594657898,0.3098820447921753
1761841477776673800,4.916673828125,-4.030580043792725,1.5438196659088135,-0.5808169841766357
1761841477786743800,4.926743896484375,-5.353081226348877,1.9046270847320557,-1.3809255361557007
1761841477796813800,4.936813720703125,-6.33515739440918,2.2198567390441895,-1.9969964027404785
1761841477806882800,4.9468828125,-7.060465335845947,2.451915740966797,-2.433505058288574
1761841477816952800,4.956952880859375,-7.625677585601807,2.6376471519470215,-2.7168421745300293
1761841477827021800,4.967021728515625,-8.066801071166992,2.8099749088287354,-2.8637917041778564
1761841477837091600,4.977091552734375,-8.371804237365723,3.0164990425109863,-2.9507217407226562
1761841477847161900,4.987161865234375,-8.510614395141602,3.0979409217834473,-2.9902913570404053
1761841477857230600,4.997230712890625,-8.332473754882812,2.9474034309387207,-2.9238505363464355
1761841477867300900,5.00730078125,-7.694738388061523,2.59287691116333,-2.6454176902770996
1761841477877369600,5.01736962890625,-6.512760639190674,2.203387498855591,-2.05132794380188
1761841477887439600,5.027439697265625,-4.729520320892334,1.8064757585525513,-1.1464049816131592
1761841477897508900,5.0375087890625,-2.6298766136169434,1.0572643280029297,-0.11412488669157028
1761841477907578600,5.04757861328125,-0.3179381787776947,0.4089243710041046,0.6656644940376282
1761841477917649000,5.05764892578125,1.880832552909851,-0.30162668228149414,0.893789529800415
1761841477927717600,5.067717529296875,3.8385396003723145,-0.9071198105812073,0.7768084406852722
1761841477937787600,5.07778759765625,5.462569713592529,-1.4240881204605103,0.6180155873298645
1761841477947856600,5.087856689453125,6.789628028869629,-1.8395488262176514,0.561560332775116
1761841477957926700,5.0979267578125,7.798245429992676,-2.15138578414917,0.6138024926185608
1761841477967997000,5.107996826171875,8.43022346496582,-2.3053457736968994,0.6929263472557068
1761841477978065700,5.118065673828125,8.689366340637207,-2.3332669734954834,0.7273394465446472
1761841477988136000,5.128135986328125,8.620871543884277,-2.2832250595092773,0.7306740880012512
1761841477998204700,5.13820458984375,8.210615158081055,-2.127502679824829,0.762894332408905
1761841478008274700,5.148274658203125,7.419975280761719,-1.8498653173446655,0.815429151058197
1761841478018345000,5.158344970703125,6.20858097076416,-1.553274393081665,0.8369589447975159
1761841478028413700,5.16841357421875,4.664621829986572,-1.0636652708053589,0.7829599380493164
1761841478038484000,5.17848388671875,2.930063009262085,-0.4823823571205139,0.6792282462120056
1761841478048552700,5.188552734375,1.1833558082580566,0.2416696548461914,0.5482785701751709
1761841478058622700,5.198622802734375,-0.4973224699497223,0.8127171993255615,0.3650093972682953
1761841478068692700,5.208692626953125,-1.963041067123413,1.2131006717681885,0.1598045527935028
1761841478078761700,5.21876171875,-3.173299551010132,1.416806697845459,-0.033088743686676025
1761841478088831700,5.228831787109375,-4.138843059539795,1.5839500427246094,-0.17873592674732208
1761841478098900700,5.238900634765625,-4.892996788024902,1.7066460847854614,-0.30317825078964233
1761841478108970800,5.248970703125,-5.44790506362915,1.7879681587219238,-0.42712852358818054
1761841478119040800,5.259040771484375,-5.838001728057861,1.8565853834152222,-0.5946820974349976
1761841478129109800,5.26910986328125,-6.0677995681762695,1.9255754947662354,-0.7698805332183838
1761841478139179800,5.2791796875,-6.123322486877441,1.9263771772384644,-0.9356971979141235
1761841478149248800,5.289248779296875,-5.97148323059082,1.7310646772384644,-1.0715972185134888
1761841478159318800,5.29931884765625,-5.518247604370117,1.3514564037322998,-1.1687018871307373
1761841478169388800,5.309388916015625,-4.685783863067627,1.0104395151138306,-1.1731269359588623
1761841478179457800,5.319457763671875,-3.4742591381073,0.8127299547195435,-0.9650373458862305
1761841478189527800,5.32952783203125,-1.985236644744873,0.574688732624054,-0.5235727429389954
1761841478199596500,5.339596435546875,-0.3003581762313843,0.032152481377124786,0.09695735573768616
1761841478209666800,5.349666748046875,1.4589017629623413,-0.4046855866909027,0.6952454447746277
1761841478219736800,5.35973681640625,3.0937423706054688,-0.8548205494880676,0.9803325533866882
1761841478229805800,5.369805908203125,4.533474922180176,-1.2095750570297241,1.0982526540756226
1761841478239875800,5.379875732421875,5.748521327972412,-1.3511021137237549,1.2204680442810059
1761841478249944600,5.389944580078125,6.71951961517334,-1.367478847503662,1.3873435258865356
1761841478260014800,5.400014892578125,7.447568893432617,-1.4276373386383057,1.5819752216339111
1761841478270084900,5.4100849609375,7.888773441314697,-1.6895300149917603,1.7440890073776245
1761841478280153900,5.42015380859375,7.989109516143799,-2.136245012283325,1.8119410276412964
1761841478290223900,5.430223876953125,7.593469142913818,-2.4795007705688477,1.793254017829895
1761841478300292600,5.440292724609375,6.619892120361328,-2.342365264892578,1.7219529151916504
1761841478310363000,5.45036279296875,5.1348490715026855,-1.4570811986923218,1.6439080238342285
1761841478320432600,5.4604326171875,3.383779287338257,-0.257006973028183,1.4610072374343872
1761841478330502000,5.470501953125,1.5817841291427612,0.6438784003257751,1.2709264755249023
1761841478340572000,5.480572021484375,-0.1854507476091385,1.0028789043426514,1.0902099609375
1761841478350641000,5.490640869140625,-1.745090365409851,1.0477352142333984,0.8540805578231812
1761841478360711000,5.5007109375,-3.0230588912963867,1.1129571199417114,0.5402746796607971
1761841478370780700,5.51078076171875,-4.0729827880859375,1.3167568445205688,0.17032591998577118
1761841478380850000,5.520849853515625,-4.939524173736572,1.563753604888916,-0.16089968383312225
1761841478390919700,5.530919677734375,-5.627087116241455,1.7560338973999023,-0.49320685863494873
1761841478400989000,5.540989013671875,-6.1695122718811035,1.9313290119171143,-0.8461267948150635
1761841478411058700,5.55105859375,-6.602449417114258,2.149808406829834,-1.1447482109069824
1761841478421128700,5.561128662109375,-6.914486408233643,2.434345245361328,-1.3821653127670288
1761841478431197700,5.57119775390625,-7.072152614593506,2.4651477336883545,-1.6187740564346313
1761841478441267700,5.581267822265625,-6.921903133392334,2.2225115299224854,-1.8192720413208008
1761841478451337000,5.5913369140625,-6.301616191864014,1.8089088201522827,-2.013568639755249
1761841478461406700,5.60140673828125,-5.120441436767578,1.5365058183670044,-2.1159472465515137
1761841478471476700,5.611476806640625,-3.5749716758728027,1.1528704166412354,-2.0109291076660156
1761841478481545700,5.621545654296875,-1.8951783180236816,0.5137171745300293,-1.6161106824874878
1761841478491615700,5.63161572265625,-0.15094909071922302,-0.3238876461982727,-1.080308437347412
1761841478501684700,5.641684814453125,1.5697922706604004,-1.1385334730148315,-0.5568722486495972
1761841478511754800,5.651754638671875,3.0563061237335205,-1.5817409753799438,-0.1639796495437622
1761841478521824800,5.66182470703125,4.217398166656494,-1.945015549659729,0.04763460159301758
1761841478531893800,5.671893798828125,5.099595069885254,-2.217078447341919,0.16098886728286743
1761841478541963800,5.6819638671875,5.78012228012085,-2.401752471923828,0.24973630905151367
1761841478552032800,5.69203271484375,6.293490409851074,-2.540231704711914,0.3857574760913849
1761841478562098400,5.702098388671875,6.671858310699463,-2.716984748840332,0.5540008544921875
1761841478572168700,5.712168701171875,6.957754135131836,-2.8806605339050293,0.7068721055984497
1761841478582237400,5.722237548828125,7.0369696617126465,-3.1950159072875977,0.8555984497070312
1761841478592307500,5.732307373046875,6.689910411834717,-3.6544559001922607,1.0163697004318237
1761841478602376400,5.74237646484375,5.853886604309082,-3.6603128910064697,1.2581241130828857
1761841478612446500,5.752446533203125,4.494661331176758,-3.2400057315826416,1.3646656274795532
1761841478622516700,5.762516845703125,2.71330189704895,-2.271394968032837,1.2894651889801025
1761841478632585500,5.77258544921875,0.6095489859580994,-1.0625563859939575,1.0663042068481445
1761841478642655500,5.782655517578125,-1.5349953174591064,0.09701872617006302,0.6836263537406921
1761841478652725500,5.7927255859375,-3.4158873558044434,0.9961774945259094,0.20868287980556488
1761841478662794500,5.80279443359375,-4.976593494415283,1.6860376596450806,-0.23279838263988495
1761841478672864500,5.812864501953125,-6.218654632568359,2.2783377170562744,-0.5131805539131165
1761841478682933500,5.82293359375,-7.07165002822876,2.8334105014801025,-0.6665540933609009
1761841478693003800,5.833003662109375,-7.598086833953857,3.222792387008667,-0.7615679502487183
1761841478703073500,5.843073486328125,-7.842948913574219,3.383997678756714,-0.7912733554840088
1761841478713142500,5.853142578125,-7.87302827835083,3.3120131492614746,-0.8042542338371277
1761841478723212500,5.863212646484375,-7.645519256591797,2.9349257946014404,-0.8507905602455139
1761841478733281500,5.873281494140625,-7.023915767669678,2.3732492923736572,-0.972095787525177
1761841478743351600,5.8833515625,-5.984910011291504,1.742396354675293,-1.0842374563217163
1761841478753421600,5.893421630859375,-4.508281230926514,1.082788109779358,-1.0995218753814697
1761841478763490600,5.903490478515625,-2.659278631210327,0.49728313088417053,-0.9033823609352112
1761841478773560600,5.913560546875,-0.7065743803977966,-0.23861078917980194,-0.5043363571166992
1761841478783629600,5.923629638671875,1.178787112236023,-0.8443976640701294,-0.010000435635447502
1761841478793699600,5.933699462890625,2.856933355331421,-1.1356391906738281,0.1784050017595291
1761841478803768600,5.9437685546875,4.195770740509033,-1.331925392150879,0.11276127398014069
1761841478813838600,5.953838623046875,5.255186080932617,-1.5340869426727295,0.03564879298210144
1761841478823908600,5.96390869140625,6.131182670593262,-1.7164429426193237,0.023139391094446182
1761841478833977300,5.973977294921875,6.830355167388916,-1.9624816179275513,0.08274927735328674
1761841478844047600,5.984047607421875,7.311639308929443,-2.2910056114196777,0.18881578743457794
1761841478854117600,5.99411767578125,7.591980934143066,-2.5150034427642822,0.26158538460731506
1761841478864186600,6.0041865234375,7.625606060028076,-2.7142601013183594,0.36099985241889954
1761841478874256600,6.014256591796875,7.271906852722168,-2.8797926902770996,0.5783434510231018
1761841478884325600,6.02432568359375,6.456524848937988,-2.821727991104126,0.8323624134063721
1761841478894395600,6.034395751953125,5.219332695007324,-2.45766019821167,1.0365381240844727
1761841478904465400,6.04446533203125,3.613415002822876,-1.7891556024551392,1.1498245000839233
1761841478914534700,6.05453466796875,1.733520269393921,-1.0384058952331543,1.2212038040161133
1761841478924604700,6.064604736328125,-0.12728072702884674,-0.19281363487243652,1.1700503826141357
1761841478934673700,6.074673583984375,-1.846174955368042,0.4949309825897217,0.9851555824279785
1761841478944743700,6.08474365234375,-3.297915458679199,1.0636194944381714,0.6917895078659058
1761841478954813400,6.0948134765625,-4.447004318237305,1.4084199666976929,0.27796316146850586
1761841478964882700,6.104882568359375,-5.311784744262695,1.6775507926940918,-0.16666753590106964
1761841478974952400,6.114952392578125,-5.975383758544922,1.8640295267105103,-0.5328899621963501
1761841478985021700,6.125021728515625,-6.517724514007568,2.0405750274658203,-0.7999911904335022
1761841478995091500,6.135091552734375,-6.970805644989014,2.236147403717041,-0.9598648548126221
1761841479005161500,6.145161376953125,-7.3774638175964355,2.397578477859497,-1.0457059144973755
1761841479015230700,6.155230712890625,-7.76348876953125,2.5613770484924316,-1.1119862794876099
1761841479025300500,6.165300537109375,-8.046625137329102,2.6926918029785156,-1.2377279996871948
1761841479035369700,6.17536962890625,-8.104185104370117,2.7448296546936035,-1.4623932838439941
1761841479045439500,6.185439453125,-7.716168403625488,2.7982735633850098,-1.7021340131759644
1761841479055509500,6.195509521484375,-6.735404014587402,2.4563894271850586,-1.9679172039031982
1761841479065578500,6.20557861328125,-5.014980792999268,1.5756288766860962,-2.0789525508880615
1761841479075648500,6.2156484375,-2.6292572021484375,0.4207065999507904,-1.909610390663147
1761841479085717500,6.225717529296875,-0.07111144810914993,-0.892683744430542,-1.451588749885559
1761841479095787500,6.23578759765625,2.423323631286621,-1.8742624521255493,-0.8489562273025513
1761841479105857500,6.245857421875,4.519890785217285,-2.4251010417938232,-0.2520691454410553
1761841479115926500,6.255926513671875,6.057932376861572,-2.7567033767700195,-0.03822363168001175
1761841479125996500,6.26599658203125,7.151405334472656,-2.7875113487243652,-0.027323581278324127
1761841479136066600,6.276066650390625,7.866995811462402,-2.717233180999756,0.021350828930735588
1761841479146135600,6.286135498046875,8.316143989562988,-2.7032835483551025,0.1712370067834854
1761841479156205600,6.29620556640625,8.552519798278809,-2.794036626815796,0.34942933917045593
1761841479166274600,6.306274658203125,8.521395683288574,-2.8933749198913574,0.46911314129829407
1761841479176344600,6.316344482421875,8.160104751586914,-2.8691811561584473,0.5660812854766846
1761841479186414600,6.32641455078125,7.339104175567627,-2.6368887424468994,0.6743070483207703
1761841479196483600,6.336483642578125,6.064615249633789,-2.2185215950012207,0.7062402367591858
1761841479206553300,6.34655322265625,4.502323627471924,-1.577419638633728,0.6657276749610901
1761841479216622600,6.35662255859375,2.796427011489868,-0.8699682950973511,0.6498246788978577
1761841479226692400,6.3666923828125,1.036420226097107,-0.16059325635433197,0.5552443861961365
1761841479236762600,6.3767626953125,-0.7175118923187256,0.4278315603733063,0.39369145035743713
1761841479246831600,6.38683154296875,-2.3621158599853516,0.8580004572868347,0.14131565392017365
1761841479256901400,6.3969013671875,-3.7819442749023438,1.2167108058929443,-0.1563343107700348
1761841479266970600,6.406970703125,-4.976691722869873,1.6810673475265503,-0.4399881362915039
1761841479277040400,6.417040283203125,-6.005005836486816,2.2199015617370605,-0.6630126237869263
1761841479287110700,6.427110595703125,-6.8642449378967285,2.7006735801696777,-0.7655858397483826
1761841479297179400,6.437179443359375,-7.614578723907471,3.081786632537842,-0.7159984707832336
1761841479307249700,6.447249755859375,-8.257528305053711,3.405790090560913,-0.5414115190505981
1761841479317318400,6.457318359375,-8.75316047668457,3.685988426208496,-0.32718709111213684
1761841479327388400,6.467388427734375,-9.058945655822754,3.8088464736938477,-0.15696662664413452
1761841479337458700,6.477458740234375,-9.05416202545166,3.749605417251587,-0.07748705893754959
1761841479347527400,6.48752734375,-8.504148483276367,3.619563102722168,-0.022734597325325012
1761841479357597700,6.49759765625,-7.327867031097412,2.9821999073028564,0.10458699613809586
1761841479367667500,6.50766748046875,-5.426704406738281,1.8513559103012085,0.2339170277118683
1761841479377736400,6.517736328125,-2.9171183109283447,0.4990875720977783,0.4846673011779785
1761841479387806700,6.527806640625,-0.14713206887245178,-0.8095701336860657,0.8396788835525513
1761841479397875500,6.53787548828125,2.4347574710845947,-1.773433804512024,0.9243912100791931
1761841479407945700,6.54794580078125,4.523308753967285,-2.374741315841675,0.7511778473854065
1761841479418015500,6.558015380859375,6.060611248016357,-2.655074119567871,0.529662549495697
1761841479428084700,6.568084716796875,7.1028242111206055,-2.7891998291015625,0.37631988525390625
1761841479438154500,6.578154541015625,7.75479793548584,-2.707646131515503,0.26845523715019226
1761841479448223500,6.588223388671875,8.083880424499512,-2.5603585243225098,0.1432618945837021
1761841479458293500,6.59829345703125,8.21857738494873,-2.456561326980591,-0.007730141282081604
1761841479468363500,6.608363525390625,8.186574935913086,-2.5013766288757324,-0.1484161615371704
1761841479478432800,6.618432861328125,7.989656925201416,-2.713233709335327,-0.22972318530082703
1761841479488502500,6.62850244140625,7.510079860687256,-2.912266731262207,-0.2258450984954834
1761841479498571500,6.638571533203125,6.584295749664307,-2.992957353591919,-0.16481225192546844
1761841479508641500,6.6486416015625,5.199526309967041,-2.721693515777588,-0.10645706951618195
1761841479518711600,6.658711669921875,3.4087131023406982,-1.9352778196334839,-0.13636121153831482
1761841479528780500,6.668780517578125,1.3574663400650024,-0.7167198061943054,-0.255075067281723
1761841479538850600,6.6788505859375,-0.7098320126533508,0.6456074714660645,-0.3837360441684723
1761841479548919600,6.68891943359375,-2.645725727081299,1.6924952268600464,-0.514021635055542
1761841479558989600,6.698989501953125,-4.307618618011475,2.380455732345581,-0.5458534359931946
1761841479569059600,6.7090595703125,-5.622848987579346,2.8474838733673096,-0.5316007137298584
1761841479579128800,6.71912890625,-6.598918914794922,3.190416097640991,-0.49500972032546997
1761841479589198600,6.729198486328125,-7.2930216789245605,3.4387128353118896,-0.4377554953098297
1761841479599268600,6.7392685546875,-7.77257776260376,3.5567634105682373,-0.36900952458381653
1761841479609337600,6.749337646484375,-8.056361198425293,3.5598762035369873,-0.31232762336730957
1761841479619407600,6.75940771484375,-8.11743450164795,3.4465715885162354,-0.314699649810791
1761841479629476600,6.7694765625,-7.814090728759766,2.8947300910949707,-0.36197715997695923
1761841479639546600,6.779546630859375,-6.956145286560059,2.04514217376709,-0.4015820324420929
1761841479649616600,6.78961669921875,-5.375682830810547,1.0893577337265015,-0.27315881848335266
1761841479659685600,6.799685546875,-3.226527214050293,0.152792826294899,0.10386660695075989
1761841479669755600,6.809755615234375,-0.8601731657981873,-0.8197091817855835,0.5491114258766174
1761841479679824600,6.81982470703125,1.3711580038070679,-1.6166536808013916,0.7700212597846985
1761841479689894700,6.829894775390625,3.2798285484313965,-2.1290557384490967,0.7260698080062866
1761841479699964400,6.83996435546875,4.732065677642822,-2.4125587940216064,0.6215601563453674
1761841479710033700,6.85003369140625,5.796111583709717,-2.5581278800964355,0.5485363006591797
1761841479720103700,6.860103759765625,6.58264684677124,-2.576709508895874,0.5214563608169556
1761841479730172700,6.870172607421875,7.156345367431641,-2.438735246658325,0.5284215807914734
1761841479740242700,6.88024267578125,7.533945560455322,-2.2930996417999268,0.5240687727928162
1761841479750312400,6.8903125,7.757628440856934,-2.2317163944244385,0.4923875331878662
1761841479760381700,6.900381591796875,7.842635154724121,-2.43876576423645,0.46953684091567993
1761841479770451500,6.910451416015625,7.706856727600098,-2.8494319915771484,0.5238144397735596
1761841479780520700,6.920520751953125,7.203671455383301,-3.141937255859375,0.6426957845687866
1761841479790590500,6.930590576171875,6.2142205238342285,-3.0583534240722656,0.7768887877464294
1761841479800660700,6.94066064453125,4.708001136779785,-2.625150680541992,0.8634852766990662
1761841479810729700,6.950729736328125,2.803175210952759,-1.8603878021240234,0.876720666885376
1761841479820799500,6.960799560546875,0.6704036593437195,-0.7767696976661682,0.786409318447113
1761841479830869800,6.970869873046875,-1.4636685848236084,0.39441269636154175,0.5286299586296082
1761841479840938500,6.9809384765625,-3.377223253250122,1.3942633867263794,0.1900499016046524
1761841479851008800,6.9910087890625,-4.949004650115967,2.1379265785217285,-0.12894539535045624
1761841479861077500,7.001077392578125,-6.1718316078186035,2.66732120513916,-0.41515758633613586
1761841479871147500,7.0111474609375,-7.08756685256958,3.0155537128448486,-0.631196141242981
1761841479881217800,7.0212177734375,-7.7812724113464355,3.3069570064544678,-0.7369950413703918
1761841479891286500,7.03128662109375,-8.316492080688477,3.620631694793701,-0.7149973511695862
1761841479901356800,7.041356689453125,-8.72000503540039,3.8931031227111816,-0.59902024269104
1761841479911425500,7.051425537109375,-8.989418983459473,4.028578281402588,-0.4602152407169342
1761841479921495600,7.06149560546875,-9.047009468078613,3.920380115509033,-0.36852961778640747
1761841479931565600,7.071565673828125,-8.72228717803955,3.6608684062957764,-0.3001130223274231
1761841479941634600,7.081634521484375,-7.803033351898193,3.224472761154175,-0.13596376776695251
1761841479951704800,7.091704833984375,-6.209968566894531,2.3792176246643066,0.19095869362354279
1761841479961774600,7.101774658203125,-3.9556033611297607,1.3212966918945312,0.5735373497009277
1761841479971843800,7.11184375,-1.3647929430007935,0.1286604255437851,0.7720568180084229
1761841479981913600,7.12191357421875,1.1634914875030518,-0.9592966437339783,0.6649135947227478
1761841479991982600,7.131982666015625,3.3981518745422363,-1.650607943534851,0.322281152009964
1761841480002052600,7.142052490234375,5.151169776916504,-2.0017194747924805,-0.041589584201574326
1761841480012122600,7.15212255859375,6.454227447509766,-2.094268798828125,-0.34023353457450867
1761841480022191600,7.162191650390625,7.400849342346191,-2.081308126449585,-0.5587132573127747
1761841480032261600,7.17226171875,8.092975616455078,-2.0178558826446533,-0.6820673942565918
1761841480042330600,7.18233056640625,8.64380168914795,-2.0802762508392334,-0.7400822043418884
1761841480052400600,7.192400634765625,9.102075576782227,-2.3769116401672363,-0.7575429677963257
1761841480062470700,7.202470703125,9.421018600463867,-2.926058292388916,-0.7082828283309937
1761841480072539600,7.21253955078125,9.50468635559082,-3.535083770751953,-0.539402961730957
1761841480082609700,7.222609619140625,9.243617057800293,-3.940077781677246,-0.20295733213424683
1761841480092678700,7.2326787109375,8.466409683227539,-3.8745107650756836,0.24060013890266418
1761841480102748700,7.242748779296875,7.080540180206299,-3.3795270919799805,0.628535807132721
1761841480112818700,7.252818603515625,5.074969291687012,-2.514742851257324,0.9038182497024536
1761841480122887700,7.2628876953125,2.667851209640503,-1.3998143672943115,0.9694529175758362
1761841480132957700,7.272957763671875,0.16048958897590637,-0.12932896614074707,0.7721025943756104
1761841480143027500,7.28302734375,-2.1732122898101807,1.0281190872192383,0.42387908697128296
1761841480153096700,7.2930966796875,-4.115163803100586,1.8993940353393555,0.08035554736852646
1761841480163166500,7.30316650390625,-5.5991106033325195,2.577272891998291,-0.19846995174884796
1761841480173235700,7.313235595703125,-6.724020481109619,3.0122764110565186,-0.3910769522190094
1761841480183305700,7.3233056640625,-7.526725769042969,3.304063558578491,-0.4726404547691345
1761841480193375500,7.33337548828125,-8.089335441589355,3.6419172286987305,-0.47178906202316284
1761841480203444700,7.34344482421875,-8.503898620605469,4.002424716949463,-0.4091903269290924
1761841480213514500,7.353514404296875,-8.790461540222168,4.32004976272583,-0.3179118037223816
1761841480223583700,7.363583740234375,-8.91506290435791,4.479832172393799,-0.2592383623123169
1761841480233653500,7.373653564453125,-8.665424346923828,4.257806777954102,-0.2645028829574585
1761841480243723500,7.3837236328125,-7.779775619506836,3.413857936859131,-0.3668631315231323
1761841480253792500,7.39379248046875,-6.061650276184082,2.2120301723480225,-0.36184415221214294
1761841480263862500,7.403862548828125,-3.6152939796447754,0.9710158705711365,-0.07162414491176605
1761841480273932800,7.413932861328125,-0.7890451550483704,-0.23135079443454742,0.4178693890571594
1761841480284001500,7.42400146484375,1.9952850341796875,-1.4066174030303955,0.7628159523010254
1761841480294071600,7.434071533203125,4.389416694641113,-2.23453688621521,0.7716275453567505
1761841480304140500,7.444140625,6.187482833862305,-2.7046401500701904,0.6715201735496521
1761841480314210600,7.45421044921875,7.414378643035889,-2.7882115840911865,0.6137242317199707
1761841480324280800,7.46428076171875,8.170352935791016,-2.646251916885376,0.6129966378211975
1761841480334349600,7.474349609375,8.602828025817871,-2.465008497238159,0.6094914078712463
1761841480344419800,7.484419921875,8.807235717773438,-2.432507276535034,0.5677696466445923
1761841480354488600,7.494488525390625,8.834123611450195,-2.529085874557495,0.4793897271156311
1761841480364558600,7.50455859375,8.591449737548828,-2.82332706451416,0.3871380388736725
1761841480374628600,7.514628662109375,7.900860786437988,-3.021177291870117,0.3369174599647522
1761841480384697600,7.524697509765625,6.623893737792969,-2.764901638031006,0.25453245639801025
1761841480394767600,7.534767578125,4.802725791931152,-1.9856082201004028,0.0935307964682579
1761841480404837600,7.544837646484375,2.6168322563171387,-0.7661217451095581,-0.0612390860915184
1761841480414906600,7.55490673828125,0.26673588156700134,0.573475182056427,-0.2023453414440155
1761841480424976600,7.5649765625,-1.964060664176941,1.775396466255188,-0.3336268961429596
1761841480435045600,7.575045654296875,-3.890669345855713,2.772080898284912,-0.38978496193885803
1761841480445115600,7.58511572265625,-5.469115257263184,3.464611530303955,-0.31370165944099426
1761841480455185700,7.595185546875,-6.666913032531738,3.9562880992889404,-0.1500597447156906
1761841480465254700,7.605254638671875,-7.530314922332764,4.177924156188965,0.07338680326938629
1761841480475324700,7.61532470703125,-8.101654052734375,4.244451522827148,0.30819663405418396
1761841480485393400,7.625393310546875,-8.461568832397461,4.2295660972595215,0.5122859477996826
1761841480495463700,7.635463623046875,-8.675127983093262,4.15287446975708,0.6642909049987793
1761841480505533700,7.64553369140625,-8.693928718566895,3.9469964504241943,0.732028067111969
1761841480515602700,7.655602783203125,-8.38196849822998,3.4008240699768066,0.6994141936302185
1761841480525672700,7.665672607421875,-7.519200325012207,2.518368721008301,0.5842011570930481
1761841480535742500,7.675742431640625,-5.951834201812744,1.215360164642334,0.5074448585510254
1761841480545811700,7.685811767578125,-3.769157648086548,0.016439465805888176,0.5851354598999023
1761841480555881700,7.6958818359375,-1.2970272302627563,-1.019804835319519,0.7031752467155457
1761841480565951200,7.705951171875,1.158129096031189,-1.916918396949768,0.732641875743866
1761841480576021200,7.716021240234375,3.324512004852295,-2.5956246852874756,0.5024422407150269
1761841480586091000,7.726091064453125,5.040783405303955,-3.033069610595703,0.1521950513124466
1761841480596160300,7.73616015625,6.339757919311523,-3.2494959831237793,-0.17015743255615234
1761841480606230000,7.74622998046875,7.302957057952881,-3.2819201946258545,-0.3526669442653656
1761841480616299300,7.75629931640625,8.011152267456055,-3.2297768592834473,-0.3790082633495331
1761841480626369300,7.766369384765625,8.526971817016602,-3.225297689437866,-0.27706512808799744
1761841480636439000,7.77643896484375,8.933247566223145,-3.3613572120666504,-0.12808789312839508
1761841480646508300,7.78650830078125,9.23033618927002,-3.6717581748962402,0.02406352385878563
1761841480656578000,7.796578125,9.245735168457031,-4.217548370361328,0.22612661123275757
1761841480666647300,7.806647216796875,8.648242950439453,-4.581418037414551,0.4886700510978699
1761841480676717000,7.816717041015625,7.185884952545166,-4.306532859802246,0.680086076259613
1761841480686787000,7.826787109375,4.997674942016602,-3.1645419597625732,0.5896970629692078
1761841480696856000,7.83685595703125,2.2966105937957764,-1.5216425657272339,0.22429277002811432
1761841480706926000,7.846926025390625,-0.5303142070770264,0.07424426823854446,-0.1464765965938568
1761841480716996000,7.85699609375,-3.0678722858428955,1.6371856927871704,-0.49593818187713623
1761841480727065000,7.867065185546875,-5.155755043029785,2.5977365970611572,-0.6450057029724121
1761841480737135000,7.877135009765625,-6.700953006744385,3.1817572116851807,-0.5900471210479736
1761841480747204000,7.8872041015625,-7.759075164794922,3.547215700149536,-0.4493737816810608
1761841480757274000,7.897274169921875,-8.386272430419922,3.6912715435028076,-0.25326552987098694
1761841480767344000,7.90734423828125,-8.646283149719238,3.656618356704712,-0.10816864669322968
1761841480777413000,7.9174130859375,-8.669143676757812,3.5169668197631836,-0.036449454724788666
1761841480787483100,7.927483154296875,-8.487334251403809,3.2454731464385986,-0.05787236616015434
1761841480797552000,7.93755224609375,-8.018841743469238,2.660886526107788,-0.19182458519935608
1761841480807622100,7.9476220703125,-7.065698146820068,1.6518186330795288,-0.3920382261276245
1761841480817692200,7.957692138671875,-5.47155237197876,0.6968950629234314,-0.4615485966205597
1761841480827761200,7.96776123046875,-3.4010581970214844,0.015384464524686337,-0.20833371579647064
1761841480837831000,7.977830810546875,-1.1103674173355103,-0.5607033371925354,0.30791550874710083
1761841480847901200,7.987901123046875,1.080055832862854,-1.0552637577056885,0.7280588150024414
1761841480857970200,7.99797021484375,2.9427273273468018,-1.340850830078125,0.7632799744606018
1761841480868040200,8.008040283203124,4.38894510269165,-1.4295204877853394,0.5603140592575073
1761841480878108000,8.01810791015625,5.470896244049072,-1.3431373834609985,0.29837456345558167
1761841480888178200,8.02817822265625,6.297699451446533,-1.1953344345092773,0.07061973959207535
1761841480898247200,8.0382470703125,6.943210124969482,-1.0218219757080078,-0.10003748536109924
1761841480908317200,8.048317138671875,7.454419136047363,-1.075373888015747,-0.153608039021492
1761841480918386200,8.05838623046875,7.826059341430664,-1.6000217199325562,-0.058788593858480453
1761841480928456200,8.068456298828124,7.975806713104248,-2.352923631668091,0.12788903713226318
1761841480938526200,8.078526123046874,7.656618118286133,-2.9730725288391113,0.3208094835281372
1761841480948595000,8.088594970703125,6.703773021697998,-2.9638707637786865,0.440278023481369
1761841480958665200,8.098665283203125,5.132932186126709,-2.2717480659484863,0.40300068259239197
1761841480968735200,8.1087353515625,3.1734063625335693,-1.0956312417984009,0.21463432908058167
1761841480978804200,8.11880419921875,1.01128351688385,0.2948852777481079,-0.052188847213983536
1761841480988874200,8.128874267578125,-1.1294022798538208,1.5731847286224365,-0.35060226917266846
1761841480998943000,8.13894287109375,-2.9455394744873047,2.500702142715454,-0.6207855343818665
1761841481009013200,8.14901318359375,-4.313523769378662,3.0848538875579834,-0.7477182745933533
1761841481019083000,8.1590830078125,-5.275568008422852,3.4399452209472656,-0.7033188343048096
1761841481029152300,8.16915234375,-5.89856481552124,3.5476601123809814,-0.509397029876709
1761841481039222300,8.17922216796875,-6.243982791900635,3.477353811264038,-0.24638591706752777
1761841481049291000,8.189291015625,-6.415117263793945,3.2480225563049316,-0.04087607562541962
1761841481059361300,8.199361328125,-6.443591117858887,2.879448413848877,0.06447245180606842
1761841481069431000,8.20943115234375,-6.291656017303467,2.4827213287353516,0.02918156050145626
1761841481079500300,8.219500244140624,-5.892807960510254,2.0062623023986816,-0.12034321576356888
1761841481089570000,8.229570068359376,-5.072988510131836,1.53300940990448,-0.2300962507724762
1761841481099640000,8.23964013671875,-3.8092093467712402,1.2049293518066406,-0.17265480756759644
1761841481109709000,8.249708984375,-2.1940574645996094,0.9236695766448975,0.022846780717372894
1761841481119779000,8.259779052734375,-0.38360828161239624,0.587032675743103,0.2451821118593216
1761841481129848300,8.269848388671875,1.4308621883392334,0.10761147737503052,0.34812307357788086
1761841481139918000,8.27991796875,3.075974702835083,-0.3621309995651245,0.3071649968624115
1761841481149988000,8.289988037109374,4.4818220138549805,-0.8983445763587952,0.281182199716568
1761841481160057000,8.30005712890625,5.6937785148620605,-1.5318375825881958,0.3088250160217285
1761841481170127000,8.310127197265626,6.676865577697754,-2.2275943756103516,0.4405866265296936
1761841481180196000,8.320196044921875,7.367799282073975,-2.885698080062866,0.7050795555114746
1761841481190266000,8.33026611328125,7.712080478668213,-3.3015708923339844,1.0312886238098145
1761841481200336100,8.340336181640625,7.611733436584473,-3.491530418395996,1.3891693353652954
1761841481210405000,8.350405029296875,6.925082683563232,-3.4175899028778076,1.6945488452911377
1761841481220475100,8.36047509765625,5.641579627990723,-3.031834363937378,1.8144917488098145
1761841481230545200,8.370545166015624,3.959604263305664,-2.2266275882720947,1.7220382690429688
1761841481240614100,8.3806142578125,2.0640265941619873,-1.2458337545394897,1.4719038009643555
1761841481250684000,8.390683837890625,0.15073151886463165,-0.2168228179216385,1.1206353902816772
1761841481260753200,8.400753173828125,-1.6155096292495728,0.6457891464233398,0.7522435188293457
1761841481270823200,8.4108232421875,-3.0827202796936035,1.2403956651687622,0.4233802556991577
1761841481280893200,8.42089306640625,-4.181982040405273,1.6851980686187744,0.2024414837360382
1761841481290962200,8.430962158203124,-4.966696739196777,1.964324951171875,0.11267439275979996
1761841481301032200,8.4410322265625,-5.498627662658691,2.0759246349334717,0.1318475604057312
1761841481311102200,8.451102294921874,-5.859211444854736,2.0437328815460205,0.1684061586856842
1761841481321171000,8.4611708984375,-6.110110759735107,1.8906323909759521,0.15411296486854553
1761841481331241200,8.4712412109375,-6.177246570587158,1.5522375106811523,0.01732228882610798
1761841481341310000,8.48131005859375,-5.9379987716674805,1.1415616273880005,-0.21565502882003784
1761841481351380200,8.491380126953125,-5.335077285766602,0.8322445750236511,-0.4285227358341217
1761841481361450200,8.5014501953125,-4.252420902252197,0.6005218625068665,-0.4920750856399536
1761841481371519000,8.51151904296875,-2.703361988067627,0.23268470168113708,-0.21224012970924377
1761841481381589200,8.52158935546875,-0.721396267414093,-0.15014788508415222,0.32566168904304504
1761841481391658000,8.531657958984376,1.3518459796905518,-0.563345193862915,0.8278568983078003
1761841481401728300,8.541728271484375,3.264033555984497,-0.9603273868560791,1.024030089378357
1761841481411798300,8.55179833984375,4.921586990356445,-1.2695167064666748,0.987939715385437
1761841481421867000,8.561866943359375,6.283984184265137,-1.5280503034591675,0.9623355269432068
1761841481431937300,8.571937255859375,7.415337562561035,-1.7274011373519897,1.0163055658340454
1761841481442007000,8.582007080078125,8.342223167419434,-2.0221447944641113,1.198865294456482
1761841481452076300,8.592076171875,8.967226028442383,-2.50173282623291,1.4960849285125732
1761841481462146000,8.60214599609375,9.165397644042969,-3.0257434844970703,1.8136149644851685
1761841481472215300,8.61221533203125,8.707809448242188,-3.504002809524536,2.081066846847534
1761841481482285000,8.62228515625,7.379462242126465,-3.6597487926483154,2.24123215675354
1761841481492355000,8.63235498046875,5.388010501861572,-2.9347424507141113,2.0731077194213867
1761841481502424300,8.64242431640625,2.949509382247925,-1.504490852355957,1.5541739463806152
1761841481512494000,8.652494140625,0.39763203263282776,-0.025461282581090927,0.863672137260437
1761841481522563300,8.662563232421874,-1.9478943347930908,1.1248235702514648,0.1889783889055252
1761841481532633000,8.672633056640626,-3.8644988536834717,1.8274043798446655,-0.37287527322769165
1761841481542703000,8.682703125,-5.285364151000977,2.267207622528076,-0.7455325126647949
1761841481552772000,8.692772216796875,-6.273961544036865,2.599755048751831,-0.9540098309516907
1761841481562842000,8.702842041015625,-6.93565034866333,2.7819135189056396,-1.0436216592788696
1761841481572912000,8.712912109375,-7.31312894821167,2.797034740447998,-1.1015806198120117
1761841481582981000,8.722981201171875,-7.524965286254883,2.6321640014648438,-1.2063066959381104
1761841481593051100,8.733051025390624,-7.5984272956848145,2.4076976776123047,-1.3726634979248047
1761841481603120000,8.7431201171875,-7.523262023925781,2.2415688037872314,-1.575801968574524
1761841481613190100,8.753190185546876,-7.194575309753418,2.106849431991577,-1.8148205280303955
1761841481623260000,8.763260009765625,-6.453217029571533,1.8680894374847412,-1.9668114185333252
1761841481633329200,8.7733291015625,-5.14314603805542,1.3339879512786865,-1.852081537246704
1761841481643399200,8.783399169921875,-3.1318511962890625,0.8302832245826721,-1.4594966173171997
1761841481653469200,8.79346923828125,-0.7490827441215515,-0.12929023802280426,-0.9915053844451904
1761841481663538200,8.8035380859375,1.6791859865188599,-1.2621369361877441,-0.28881707787513733
1761841481673608200,8.813608154296874,3.909979820251465,-2.001565933227539,0.3232611119747162
1761841481683677200,8.82367724609375,5.645578384399414,-2.575198173522949,0.6589720249176025
1761841481693747000,8.833746826171875,6.977503776550293,-2.889204978942871,0.8935337066650391
1761841481703817200,8.843817138671875,7.891993045806885,-3.073899984359741,1.1475344896316528
1761841481713886000,8.853885986328125,8.367680549621582,-3.149681806564331,1.3934394121170044
1761841481723956200,8.863956298828125,8.405527114868164,-3.114535331726074,1.5569313764572144
1761841481734026200,8.874026123046875,7.922259330749512,-3.0619709491729736,1.6034332513809204
1761841481744095000,8.884094970703124,6.792729377746582,-2.818291425704956,1.4940239191055298
1761841481754165200,8.894165283203124,4.930397987365723,-2.239248275756836,1.1476458311080933
1761841481764234000,8.90423388671875,2.654796600341797,-1.1107097864151,0.65869140625
1761841481774304300,8.91430419921875,0.29720503091812134,0.424625039100647,0.09433933347463608
1761841481784374300,8.924374267578125,-1.9739917516708374,1.619781732559204,-0.4809500575065613
1761841481794443000,8.934443115234375,-3.9052670001983643,2.4923157691955566,-0.9032124280929565
1761841481804513300,8.94451318359375,-5.385908126831055,2.989605665206909,-1.0626622438430786
1761841481814582000,8.95458203125,-6.406495571136475,3.2589244842529297,-1.0712642669677734
1761841481824652300,8.96465234375,-7.0380706787109375,3.319371461868286,-1.0168925523757935
1761841481834722000,8.97472216796875,-7.366518497467041,3.1879565715789795,-0.928817629814148
1761841481844791300,8.984791259765625,-7.483328342437744,2.961798906326294,-0.8662194609642029
1761841481854861000,8.994861083984375,-7.506931781768799,2.770240545272827,-0.8289976716041565
1761841481864931000,9.00493115234375,-7.452381134033203,2.5173544883728027,-0.8496185541152954
1761841481875000300,9.015000244140625,-7.184136390686035,2.0463175773620605,-0.9285848736763
1761841481885070000,9.025070068359375,-6.55000114440918,1.434606671333313,-0.940321147441864
1761841481895139300,9.035139404296874,-5.48030948638916,1.017016053199768,-0.8303865194320679
1761841481905209000,9.045208984375,-3.971050500869751,0.47982022166252136,-0.6208804249763489
1761841481915279000,9.055279052734376,-2.0147836208343506,-0.03429489582777023,-0.20370344817638397
1761841481925348000,9.06534814453125,0.175883486866951,-0.6556881666183472,0.3274991810321808
1761841481935418000,9.075418212890625,2.272569417953491,-1.4318640232086182,0.9115042686462402
1761841481945488100,9.085488037109375,4.047860622406006,-2.1273765563964844,1.226470947265625
1761841481955557000,9.09555712890625,5.4316558837890625,-2.7501227855682373,1.3620983362197876
1761841481965627100,9.105627197265624,6.5002641677856445,-3.247753381729126,1.5056469440460205
1761841481975696100,9.115696044921876,7.281031608581543,-3.5624752044677734,1.7121907472610474
1761841481985766100,9.12576611328125,7.804559230804443,-3.7158467769622803,1.9154447317123413
1761841481995836000,9.1358359375,8.102394104003906,-3.8625967502593994,2.096189022064209
1761841482005905200,9.1459052734375,8.141791343688965,-4.107755184173584,2.273815393447876
1761841482015975200,9.15597509765625,7.866393089294434,-4.339408874511719,2.4131433963775635
1761841482026044200,9.166044189453125,7.167730808258057,-4.644374370574951,2.5317981243133545
1761841482036114200,9.1761142578125,6.018089294433594,-4.48716926574707,2.739245891571045
1761841482046184000,9.186183837890624,4.543811321258545,-3.839216709136963,2.778657913208008
1761841482056253200,9.196253173828126,2.719104051589966,-3.201597213745117,2.6247105598449707
1761841482066323000,9.206322998046875,0.8494829535484314,-2.3246827125549316,2.3155384063720703
1761841482076393200,9.216393310546875,-0.9689170122146606,-1.1655359268188477,1.7941049337387085
1761841482086462000,9.2264619140625,-2.6584224700927734,-0.1884615570306778,1.059828758239746
1761841482096532200,9.2365322265625,-4.030319690704346,0.4755532443523407,0.12992164492607117
1761841482106601200,9.246601318359374,-5.076311111450195,0.8627278804779053,-0.9093173146247864
1761841482116671000,9.2566708984375,-5.864058017730713,1.1076812744140625,-1.780890941619873
1761841482126741200,9.2667412109375,-6.4366455078125,1.3484889268875122,-2.345292329788208
1761841482136810000,9.27681005859375,-6.875186443328857,1.5866106748580933,-2.709012269973755
1761841482146880300,9.28688037109375,-7.172077655792236,2.031303882598877,-2.9690182209014893
1761841482156950300,9.2969501953125,-7.353237628936768,2.4129703044891357,-3.2354087829589844
1761841482167019000,9.30701904296875,-7.286697864532471,2.6867568492889404,-3.4609594345092773
1761841482177089300,9.31708935546875,-6.825831413269043,2.8192684650421143,-3.653780937194824
1761841482187158000,9.327157958984374,-5.872694492340088,2.7965879440307617,-3.716494560241699
1761841482197228300,9.337228271484374,-4.390098571777344,2.589616537094116,-3.56118106842041
1761841482207298000,9.347298095703126,-2.5390465259552,1.9006710052490234,-3.12424898147583
1761841482217367300,9.3573671875,-0.4612325429916382,0.7252634167671204,-2.3180577754974365
1761841482227437000,9.36743701171875,1.6414260864257812,-0.33028075098991394,-1.1744275093078613
1761841482237507000,9.377507080078125,3.510485887527466,-1.112576961517334,0.009182741865515709
1761841482247576300,9.387576416015625,4.931328773498535,-1.580173134803772,0.7855879068374634
1761841482257646000,9.39764599609375,5.947498321533203,-1.9116194248199463,1.1559890508651733
1761841482267715300,9.40771533203125,6.648736476898193,-2.0484426021575928,1.364774465560913
1761841482277785000,9.41778515625,7.053244590759277,-2.0046229362487793,1.5097081661224365
1761841482287855000,9.427855224609376,7.118661403656006,-1.8509544134140015,1.6129895448684692
1761841482297924000,9.437924072265625,6.816799163818359,-1.8378063440322876,1.6559067964553833
1761841482307994000,9.447994140625,6.040184497833252,-1.8060604333877563,1.6620914936065674
1761841482318063000,9.45806298828125,4.679420471191406,-1.6688119173049927,1.4995980262756348
1761841482328133000,9.468133056640625,2.778322458267212,-0.9744376540184021,1.1894923448562622
1761841482338203100,9.478203125,0.6434288620948792,0.35622626543045044,0.6323256492614746
1761841482348272000,9.488272216796876,-1.4977174997329712,1.7616714239120483,-0.14429046213626862
1761841482358342100,9.498342041015626,-3.418083906173706,2.6964364051818848,-0.8964348435401917
1761841482368412000,9.508411865234375,-4.912248134613037,3.3211350440979004,-1.3450672626495361
1761841482378481200,9.518481201171875,-6.045280456542969,3.6653177738189697,-1.5162261724472046
1761841482388551200,9.52855126953125,-6.816710948944092,3.8758020401000977,-1.4625530242919922
1761841482398621200,9.53862109375,-7.274850845336914,3.9150125980377197,-1.2555540800094604
1761841482408690200,9.548690185546874,-7.433150768280029,3.6464953422546387,-1.044365406036377
1761841482418760000,9.558760009765624,-7.203965187072754,2.949122667312622,-0.9510447978973389
1761841482428829200,9.5688291015625,-6.402194023132324,2.044203042984009,-0.9046075344085693
1761841482438899000,9.57889892578125,-4.822817325592041,1.2470393180847168,-0.7489579319953918
1761841482448969200,9.58896923828125,-2.5732736587524414,0.2589506208896637,-0.2521311044692993
1761841482459038000,9.599037841796875,0.04283561185002327,-0.8033741116523743,0.6512549519538879
1761841482469108200,9.609108154296875,2.5891847610473633,-1.6838010549545288,1.5052316188812256
1761841482479177200,9.61917724609375,4.716277599334717,-2.1145570278167725,1.74947190284729
1761841482489247000,9.6292470703125,6.234456539154053,-2.24945330619812,1.6615153551101685
1761841482499317200,9.639317138671874,7.303771495819092,-2.2422564029693604,1.548761010169983
1761841482509386000,9.649385986328125,7.968135833740234,-2.327428102493286,1.4683513641357422
1761841482519456300,9.659456298828125,8.228561401367188,-2.492260694503784,1.3813073635101318
1761841482529526300,9.6695263671875,8.123374938964844,-2.5670435428619385,1.226637601852417
1761841482539595000,9.679594970703125,7.627182483673096,-2.449512481689453,1.0300732851028442
1761841482549665300,9.689665283203125,6.647881984710693,-2.050856113433838,0.8121195435523987
1761841482559734000,9.699734130859374,5.0840163230896,-1.3928989171981812,0.5469720363616943
1761841482569807400,9.709807373046875,3.171677827835083,-0.38112276792526245,0.16716423630714417
1761841482579877000,9.719877197265625,1.1326193809509277,0.7733102440834045,-0.19530132412910461
1761841482589946400,9.7299462890625,-0.8468672037124634,1.709782600402832,-0.4263630509376526
1761841482600016100,9.74001611328125,-2.5646281242370605,2.3586843013763428,-0.5184075236320496
1761841482610086100,9.750086181640626,-3.8453309535980225,2.7225353717803955,-0.49511393904685974
1761841482620155100,9.760155029296875,-4.750317096710205,2.9227614402770996,-0.41610315442085266
1761841482630225200,9.77022509765625,-5.3375959396362305,2.9458353519439697,-0.3352850079536438
1761841482640294100,9.780294189453125,-5.716196060180664,2.8167054653167725,-0.2825189232826233
1761841482650364200,9.7903642578125,-5.962570667266846,2.609644651412964,-0.2740471363067627
1761841482660434200,9.80043408203125,-6.133443355560303,2.390592098236084,-0.3130224645137787
1761841482670503200,9.810503173828126,-6.2219438552856445,2.111102342605591,-0.3942837417125702
1761841482680573200,9.8205732421875,-6.144745826721191,1.6487505435943604,-0.5125559568405151
1761841482690643200,9.830643310546876,-5.828355312347412,1.1330336332321167,-0.6653113961219788
1761841482700712200,9.840712158203125,-5.20482063293457,0.8244683742523193,-0.7257310748100281
1761841482710782200,9.8507822265625,-4.312392711639404,0.7119056582450867,-0.5204708576202393
1761841482720851200,9.860851318359375,-3.175391674041748,0.7583109736442566,-0.11483922600746155
1761841482730921200,9.870921142578124,-1.9382848739624023,0.7628812193870544,0.27457669377326965
1761841482740991200,9.8809912109375,-0.7229984402656555,0.6327428817749023,0.3904644548892975
1761841482751060200,9.891060302734376,0.3564973473548889,0.37016531825065613,0.19517405331134796
1761841482761130000,9.9011298828125,1.2163492441177368,0.07838144153356552,-0.16328087449073792
1761841482771200300,9.9112001953125,1.7785310745239258,-0.16363972425460815,-0.5573773384094238
1761841482781269000,9.92126904296875,2.0067474842071533,-0.14735625684261322,-0.9641595482826233
1761841482791339300,9.93133935546875,1.932579517364502,0.17312508821487427,-1.3190550804138184
1761841482801408300,9.941408203125,1.5860116481781006,0.6172913908958435,-1.6520650386810303
1761841482811478000,9.95147802734375,1.0636491775512695,1.1195555925369263,-1.994857907295227
1761841482821548300,9.96154833984375,0.46675196290016174,1.5632596015930176,-2.3353612422943115
1761841482831617000,9.971616943359376,-0.11159580200910568,1.847142219543457,-2.5961952209472656
1761841482841687300,9.981687255859375,-0.5727216005325317,1.97732412815094,-2.794435977935791
1761841482851757300,9.99175732421875,-0.8907666802406311,1.9905166625976562,-3.0219531059265137
1761841482861826300,10.001826416015625,-1.070846438407898,2.0463035106658936,-3.189915657043457
1761841482871896300,10.011896240234375,-1.1629574298858643,2.088118553161621,-3.191849708557129
1761841482881965000,10.021965087890624,-1.1966718435287476,1.9968327283859253,-3.0723915100097656
1761841482892035300,10.032035400390624,-1.1310385465621948,1.860350489616394,-2.9244351387023926
1761841482902105000,10.04210498046875,-0.9527363777160645,1.646433711051941,-2.8606131076812744
1761841482912174300,10.05217431640625,-0.696638822555542,1.3812851905822754,-2.9003634452819824
1761841482922244000,10.062244140625,-0.4083757996559143,1.1224030256271362,-3.015424966812134
1761841482932314000,10.072314208984375,-0.13486704230308533,0.9031262993812561,-3.175551414489746
1761841482942383400,10.08238330078125,0.11736422777175903,0.8008587956428528,-3.3194186687469482
1761841482952453000,10.092453125,0.26866135001182556,0.7760392427444458,-3.405879497528076
1761841482962522400,10.1025224609375,0.2319546937942505,0.5755873322486877,-3.348470449447632
1761841482972592000,10.112592041015626,0.15352965891361237,0.550091564655304,-3.400371789932251
1761841482982662100,10.122662109375,0.0322377011179924,0.6931371092796326,-3.5827345848083496
1761841482992731100,10.132731201171875,-0.14480659365653992,0.9732787609100342,-3.794616222381592
1761841483002801200,10.14280126953125,-0.3498302400112152,0.9245754480361938,-4.00662899017334
1761841483012871200,10.15287109375,-0.7375010251998901,1.199668526649475,-3.8059237003326416
1761841483022940200,10.162940185546875,-1.5037305355072021,1.5133973360061646,-2.944136381149292
1761841483033010200,10.17301025390625,-3.234433650970459,0.6990298628807068,-1.8723570108413696
1761841483043079200,10.1830791015625,-3.280752182006836,0.924268364906311,-1.5706393718719482
1761841483053149200,10.193149169921876,-3.034876823425293,0.8741830587387085,-1.481674075126648
1761841483063219000,10.203218994140625,-2.633441925048828,0.6127750277519226,-1.4161373376846313
1761841483073288200,10.2132880859375,-2.202932357788086,-0.022010192275047302,-1.4121415615081787
1761841483083358200,10.223358154296875,-1.7397326231002808,-0.5634856820106506,-1.3929176330566406
1761841483093427200,10.23342724609375,-1.2654266357421875,-1.0038795471191406,-1.328250765800476
1761841483103497200,10.243497314453125,-0.8298637270927429,-1.5220754146575928,-1.2208372354507446
1761841483113567200,10.253567138671874,-0.5154210925102234,-2.1843180656433105,-1.0853233337402344
1761841483123636200,10.26363623046875,-0.3484196960926056,-2.84403133392334,-0.8740522861480713
1761841483133706000,10.2737060546875,-0.24879911541938782,-3.209232807159424,-0.6317973136901855
1761841483143776300,10.2837763671875,-0.154843270778656,-3.2604918479919434,-0.444974422454834
1761841483153845000,10.293844970703125,-0.11695820838212967,-2.9897301197052,-0.3265897035598755
1761841483163915300,10.303915283203125,-0.10569440573453903,-2.4653639793395996,-0.297151654958725
1761841483173984300,10.313984375,-0.10511862486600876,-1.8710005283355713,-0.3169216513633728
1761841483184054000,10.324053955078124,-0.10827229917049408,-1.3434338569641113,-0.34230658411979675
1761841483194124300,10.334124267578124,-0.1188834011554718,-0.923699676990509,-0.32792285084724426
1761841483204193000,10.344193115234376,-0.11690058559179306,-0.64717036485672,-0.24499590694904327
1761841483214263300,10.35426318359375,-0.11536367237567902,-0.4607864022254944,-0.09386338293552399
1761841483224333300,10.364333251953125,-0.10250107198953629,-0.3645998239517212,0.10393388569355011
1761841483234402300,10.37440234375,-0.08712024986743927,-0.3067341148853302,0.2908872663974762
1761841483244472300,10.384472412109375,-0.06012715399265289,-0.291232705116272,0.4273163080215454
1761841483254541000,10.394541015625,-0.03273094817996025,-0.2865297794342041,0.47100865840911865
1761841483264611300,10.404611328125,-0.022520678117871284,-0.21883411705493927,0.44110777974128723
1761841483274681000,10.41468115234375,-0.02598811499774456,-0.13203397393226624,0.36042436957359314
1761841483284750300,10.424750244140625,0.006350106094032526,-0.08724474161863327,0.25482505559921265
1761841483294820000,10.434820068359375,0.06379635632038116,-0.06725984811782837,0.15915285050868988
1761841483304890000,10.44489013671875,0.12078388035297394,-0.05815131962299347,0.07576852291822433
1761841483314959400,10.45495947265625,0.13514471054077148,-0.09460653364658356,0.02653653174638748
1761841483325029000,10.465029052734375,0.0987965539097786,-0.11917978525161743,0.011315503157675266
1761841483335098400,10.475098388671874,0.08151769638061523,-0.15011532604694366,0.00856898445636034
1761841483345168100,10.485168212890626,0.1070781871676445,-0.20624224841594696,-0.008240088820457458
1761841483355238100,10.495238037109376,0.15149305760860443,-0.24114617705345154,-0.03911704197525978
1761841483365307100,10.50530712890625,0.1950855255126953,-0.2250283807516098,-0.04831297695636749
1761841483375377200,10.515377197265625,0.2127329707145691,-0.20438596606254578,-0.02651393786072731
1761841483385447200,10.525447265625,0.1894938349723816,-0.17090414464473724,0.07011798769235611
1761841483395516200,10.53551611328125,0.12283758074045181,-0.1905345767736435,0.17337512969970703
1761841483405586200,10.545586181640624,0.08222240209579468,-0.2387065291404724,0.21514961123466492
1761841483415655200,10.5556552734375,0.05919032543897629,-0.18103045225143433,0.18438024818897247
1761841483425725200,10.56572509765625,0.03191568702459335,-0.05628050118684769,0.1142122820019722
1761841483435795000,10.575794921875,-0.006510264240205288,0.09687788784503937,0.04202224314212799
1761841483445864200,10.5858642578125,-0.04252538084983826,0.2368357628583908,0.00039256084710359573
1761841483455934200,10.595934326171875,-0.05371678248047829,0.32165294885635376,0.0015491717495024204
1761841483466004200,10.606004150390625,-0.030876368284225464,0.3642933666706085,0.05497011914849281
1761841483476073200,10.6160732421875,-0.009591586887836456,0.38849884271621704,0.12902623414993286
1761841483486143200,10.626143310546874,0.005359954200685024,0.4104847013950348,0.2223341464996338
1761841483496212200,10.636212158203126,0.007751739118248224,0.36340028047561646,0.3069893717765808
1761841483506282000,10.646281982421876,0.019510695710778236,0.23366191983222961,0.3760691285133362
1761841483516352300,10.656352294921875,0.041165392845869064,0.08142790198326111,0.42559805512428284
1761841483526421000,10.6664208984375,0.06701898574829102,-0.060854312032461166,0.44569361209869385
1761841483536491300,10.6764912109375,0.07685830444097519,-0.15617363154888153,0.4300920069217682
1761841483546561300,10.686561279296875,0.054136909544467926,-0.23543387651443481,0.3757248520851135
1761841483556630000,10.696630126953124,-0.06143735721707344,-0.3424365222454071,0.3148449957370758
1761841483566700300,10.7067001953125,-0.13228486478328705,-0.2571837306022644,0.24965351819992065
1761841483576769500,10.71676953125,-0.13871639966964722,-0.09933418035507202,0.1552034318447113
1761841483586839600,10.726839599609375,-0.11057326197624207,0.057039134204387665,0.06335733830928802
1761841483596909600,10.73690966796875,-0.04868059977889061,0.17110976576805115,-0.015611249953508377
1761841483606978600,10.746978515625,-0.009251883253455162,0.14103847742080688,-0.06973434239625931
1761841483617048600,10.757048583984375,-0.01802806556224823,0.054274823516607285,-0.06914019584655762
1761841483627118600,10.76711865234375,-0.05147610604763031,-0.027165833860635757,-0.03064608946442604
1761841483637187600,10.7771875,-0.07268579304218292,-0.08863372355699539,0.019080188125371933
1761841483647257600,10.787257568359376,-0.09035786986351013,-0.13525211811065674,0.05047919973731041
1761841483657326300,10.797326416015625,-0.11358276754617691,-0.15187902748584747,0.062127336859703064
1761841483667396600,10.807396728515625,-0.13209155201911926,-0.14893381297588348,0.05596574395895004
1761841483677466600,10.817466552734375,-0.14600870013237,-0.14313584566116333,0.037744130939245224
1761841483687535600,10.82753564453125,-0.2097267210483551,-0.2395378202199936,0.016740906983613968
1761841483697605600,10.837605712890625,-0.29374730587005615,-0.3038603365421295,0.03512763977050781
1761841483707675400,10.84767529296875,-0.31726524233818054,-0.32869967818260193,0.046903096139431
1761841483717744600,10.85774462890625,-0.298324853181839,-0.35790523886680603,0.035567089915275574
1761841483727814400,10.867814453125,-0.2794893980026245,-0.3461177945137024,0.013849706389009953
1761841483737883600,10.877883544921875,-0.26215434074401855,-0.3109997510910034,-0.009832986630499363
1761841483747953700,10.88795361328125,-0.23061247169971466,-0.2783871293067932,-0.020598869770765305
1761841483758023400,10.8980234375,-0.18433979153633118,-0.27231913805007935,0.0037221843376755714
1761841483768092700,10.9080927734375,-0.14369627833366394,-0.3089410662651062,0.03856038674712181
1761841483778162400,10.918162353515624,-0.13564927875995636,-0.3360211253166199,0.07712509483098984
1761841483788232400,10.928232421875,-0.15509682893753052,-0.36139199137687683,0.09612128883600235
1761841483798301400,10.938301513671876,-0.1952972412109375,-0.3545045256614685,0.08603643625974655
1761841483808371500,10.948371337890626,-0.23109398782253265,-0.344260573387146,0.0459698885679245
1761841483818440400,10.9584404296875,-0.2543513774871826,-0.35883817076683044,-0.02185257151722908
1761841483828510500,10.968510498046875,-0.2515072822570801,-0.3770656883716583,-0.0943213701248169
1761841483838580700,10.978580810546875,-0.23463721573352814,-0.37233245372772217,-0.1557367891073227
1761841483848649500,10.9886494140625,-0.23430998623371124,-0.3378049433231354,-0.19107191264629364
1761841483858719500,10.998719482421874,-0.2357126772403717,-0.31526660919189453,-0.1945933997631073
1761841483868789500,11.00878955078125,-0.2285672277212143,-0.3356911838054657,-0.21427056193351746
1761841483878858500,11.0188583984375,-0.2173936665058136,-0.33094754815101624,-0.22131940722465515
1761841483888928800,11.0289287109375,-0.19207096099853516,-0.3101913630962372,-0.20944693684577942
1761841483898997500,11.03899755859375,-0.14273110032081604,-0.31338822841644287,-0.1886814683675766
1761841483909067500,11.049067626953125,-0.0706607922911644,-0.3407263159751892,-0.1535561978816986
1761841483919137500,11.059137451171875,0.013523852452635765,-0.3014793395996094,-0.11605862528085709
1761841483929206500,11.06920654296875,0.02760889381170273,-0.25347307324409485,-0.06727013736963272
1761841483939276500,11.079276611328124,-0.006229231134057045,-0.18367189168930054,-0.03499608114361763
1761841483949346600,11.0893466796875,-0.02401130273938179,-0.10100937634706497,-0.024306170642375946
1761841483959415600,11.09941552734375,-0.02341288886964321,-0.0494372621178627,-0.01500481367111206
1761841483969485600,11.109485595703125,-0.01846170425415039,-0.06805817782878876,-0.010048534721136093
1761841483979554600,11.119554443359375,-0.002840667963027954,-0.10828949511051178,-0.004002360627055168
1761841483989624600,11.12962451171875,0.019264861941337585,-0.12367811799049377,0.022864490747451782
1761841483999694600,11.139694580078125,0.04498913139104843,-0.12002664804458618,0.03349556401371956
1761841484009763600,11.149763671875,0.06309392303228378,-0.11084040999412537,0.03048056736588478
1761841484019833600,11.15983349609375,0.059856049716472626,-0.08143964409828186,0.009498052299022675
1761841484029903600,11.169903564453126,0.05257512256503105,-0.05731811374425888,-0.02439763955771923
1761841484039972600,11.17997265625,0.052248355001211166,-0.01517412532120943,-0.029850194230675697
1761841484050042600,11.190042724609375,0.008315321989357471,0.044579192996025085,0.05202296003699303
1761841484060111600,11.200111572265625,-0.019481420516967773,-0.03363385424017906,0.09275547415018082
1761841484070181600,11.210181640625,0.004906603135168552,-0.09384109824895859,0.08770810067653656
1761841484080251400,11.22025146484375,0.005415533669292927,-0.0636051669716835,0.06128501147031784
1761841484090320600,11.230320556640624,-0.009256410412490368,0.0011716554872691631,0.013841244392096996
1761841484100390400,11.240390380859376,-0.03493141382932663,0.05428707227110863,-0.022108767181634903
1761841484110459600,11.250459716796875,-0.060281213372945786,0.04805319011211395,-0.012786788865923882
1761841484120529700,11.26052978515625,-0.06071557477116585,0.049218855798244476,0.04476811736822128
