time,seconds_elapsed,z,y,x
1761838431445548800,0.065548828125,-0.983978271484375,-0.0819549560546875,-0.1081695556640625
1761838431455618800,0.075618896484375,-0.9940948486328125,-0.0764312744140625,-0.1068878173828125
1761838431465688000,0.08568798828125,-1.0016326904296875,-0.0758514404296875,-0.10333251953125
1761838431475757800,0.0957578125,-1.0012359619140625,-0.0743408203125,-0.0986785888671875
1761838431485827000,0.1058271484375,-1.0003204345703125,-0.070892333984375,-0.0950927734375
1761838431495896800,0.115896728515625,-1.0084075927734375,-0.069000244140625,-0.0946807861328125
1761838431505965800,0.1259658203125,-1.0098724365234375,-0.067291259765625,-0.0955352783203125
1761838431516034800,0.136034912109375,-0.9980316162109375,-0.069488525390625,-0.095367431640625
1761838431526104800,0.146104736328125,-0.998504638671875,-0.0690155029296875,-0.0948486328125
1761838431536173800,0.156173828125,-1.027984619140625,-0.079345703125,-0.0951080322265625
1761838431546243800,0.166243896484375,-1.019378662109375,-0.0771484375,-0.0933685302734375
1761838431556312800,0.176312744140625,-1.0202789306640625,-0.0605926513671875,-0.0887603759765625
1761838431566382800,0.1863828125,-1.025146484375,-0.05975341796875,-0.0905303955078125
1761838431576451800,0.196451904296875,-1.019287109375,-0.06475830078125,-0.097686767578125
1761838431586521900,0.20652197265625,-1.0083770751953125,-0.0677032470703125,-0.1006317138671875
1761838431596591000,0.216591064453125,-0.99871826171875,-0.069000244140625,-0.1018829345703125
1761838431606660900,0.226660888671875,-0.9881439208984375,-0.0724945068359375,-0.0993804931640625
1761838431616729900,0.236729736328125,-0.9815521240234375,-0.073272705078125,-0.0954742431640625
1761838431626799900,0.2467998046875,-0.978668212890625,-0.0728912353515625,-0.091552734375
1761838431636868900,0.256868896484375,-0.9798736572265625,-0.0698394775390625,-0.087860107421875
1761838431646939000,0.26693896484375,-0.9786376953125,-0.06732177734375,-0.08746337890625
1761838431657007900,0.2770078125,-0.972930908203125,-0.0674591064453125,-0.0904693603515625
1761838431667078000,0.287077880859375,-0.970184326171875,-0.0688018798828125,-0.0944671630859375
1761838431677147000,0.29714697265625,-0.9755096435546875,-0.0677032470703125,-0.099761962890625
1761838431687216600,0.307216552734375,-0.9860382080078125,-0.0677947998046875,-0.1024017333984375
1761838431697286000,0.317285888671875,-1.0021820068359375,-0.06048583984375,-0.0970306396484375
1761838431707356000,0.32735595703125,-1.0113983154296875,-0.0444183349609375,-0.09112548828125
1761838431717425000,0.3374248046875,-1.0178680419921875,-0.0301513671875,-0.0855712890625
1761838431727495000,0.347494873046875,-1.0279083251953125,-0.049713134765625,-0.074859619140625
1761838431737564000,0.35756396484375,-1.02294921875,-0.0686492919921875,-0.0734100341796875
1761838431747634000,0.367634033203125,-1.028289794921875,-0.0867767333984375,-0.06243896484375
1761838431757703000,0.377702880859375,-1.0249481201171875,-0.0713348388671875,-0.085662841796875
1761838431767773000,0.38777294921875,-0.999237060546875,-0.0755767822265625,-0.0818328857421875
1761838431777842000,0.397842041015625,-0.9826507568359375,-0.08001708984375,-0.0826263427734375
1761838431787911000,0.407910888671875,-0.975250244140625,-0.0831298828125,-0.09027099609375
1761838431797977000,0.41797705078125,-0.9770050048828125,-0.0845947265625,-0.0958251953125
1761838431808046300,0.42804638671875,-0.9759979248046875,-0.0836334228515625,-0.1002044677734375
1761838431818116000,0.4381162109375,-0.96990966796875,-0.081268310546875,-0.1006927490234375
1761838431828185300,0.448185302734375,-0.970672607421875,-0.0769500732421875,-0.101104736328125
1761838431838255000,0.458255126953125,-0.9791412353515625,-0.0763702392578125,-0.1060333251953125
1761838431848324400,0.468324462890625,-0.978973388671875,-0.10400390625,-0.1032257080078125
1761838431858394000,0.47839404296875,-0.9666748046875,-0.1219940185546875,-0.087646484375
1761838431868463400,0.48846337890625,-0.9752197265625,-0.1295928955078125,-0.0639495849609375
1761838431878533400,0.498533447265625,-1.019744873046875,-0.1278076171875,-0.058746337890625
1761838431888602400,0.508602294921875,-1.065155029296875,-0.10528564453125,-0.0642547607421875
1761838431898672400,0.51867236328125,-1.0858612060546875,-0.0865020751953125,-0.0742034912109375
1761838431908741000,0.5287412109375,-1.0819854736328125,-0.0840911865234375,-0.087799072265625
1761838431918811400,0.538811279296875,-1.0706787109375,-0.0838623046875,-0.1014556884765625
1761838431928880000,0.548880126953125,-1.05908203125,-0.0758056640625,-0.1089019775390625
1761838431938950400,0.558950439453125,-1.0464324951171875,-0.065887451171875,-0.110382080078125
1761838431949019100,0.56901904296875,-1.03936767578125,-0.063385009765625,-0.11004638671875
1761838431959089200,0.579089111328125,-1.0237579345703125,-0.081878662109375,-0.11724853515625
1761838431969158100,0.589158203125,-0.99114990234375,-0.1025543212890625,-0.1233367919921875
1761838431979228200,0.599228271484375,-0.9563140869140625,-0.11212158203125,-0.1244049072265625
1761838431989297200,0.609297119140625,-0.93365478515625,-0.1080322265625,-0.1269073486328125
1761838431999367200,0.6193671875,-0.914459228515625,-0.1190643310546875,-0.1290740966796875
1761838432009436400,0.6294365234375,-0.8940582275390625,-0.1009368896484375,-0.1255340576171875
1761838432019506200,0.639506103515625,-0.9134674072265625,-0.085784912109375,-0.126373291015625
1761838432029575400,0.649575439453125,-0.9600677490234375,-0.10784912109375,-0.1303558349609375
1761838432039645200,0.659645263671875,-1.0325164794921875,-0.158477783203125,-0.116546630859375
1761838432049714400,0.66971435546875,-1.0905609130859375,-0.1958770751953125,-0.0869903564453125
1761838432059784200,0.6797841796875,-1.0829315185546875,-0.1979217529296875,-0.055938720703125
1761838432069853200,0.689853271484375,-1.027191162109375,-0.1748046875,-0.03533935546875
1761838432079922200,0.699922119140625,-0.980804443359375,-0.157623291015625,-0.0391998291015625
1761838432089992200,0.7099921875,-0.9526214599609375,-0.162689208984375,-0.0563507080078125
1761838432100061200,0.720061279296875,-0.9250946044921875,-0.1684417724609375,-0.07147216796875
1761838432110131200,0.730131103515625,-0.913909912109375,-0.1741943359375,-0.0849761962890625
1761838432120200200,0.7402001953125,-0.9014434814453125,-0.1715545654296875,-0.0920562744140625
1761838432130270200,0.750270263671875,-0.902923583984375,-0.1643218994140625,-0.0987396240234375
1761838432140339200,0.760339111328125,-0.9144134521484375,-0.162933349609375,-0.09869384765625
1761838432150409200,0.7704091796875,-0.926025390625,-0.17059326171875,-0.0997314453125
1761838432160478500,0.780478515625,-0.92315673828125,-0.1825103759765625,-0.0959930419921875
1761838432170548200,0.79054833984375,-0.92901611328125,-0.1910552978515625,-0.09246826171875
1761838432180617200,0.8006171875,-0.93988037109375,-0.1849212646484375,-0.0897369384765625
1761838432190687200,0.810687255859375,-0.937774658203125,-0.1790771484375,-0.08941650390625
1761838432200756200,0.820756103515625,-0.9283599853515625,-0.1712646484375,-0.0865631103515625
1761838432210826200,0.830826171875,-0.9327545166015625,-0.1653900146484375,-0.087371826171875
1761838432220895200,0.840895263671875,-0.943939208984375,-0.1478118896484375,-0.0989227294921875
1761838432230965200,0.85096533203125,-0.9514617919921875,-0.12353515625,-0.1098175048828125
1761838432241034200,0.8610341796875,-0.9430389404296875,-0.125946044921875,-0.1208343505859375
1761838432251104300,0.871104248046875,-0.94580078125,-0.1405792236328125,-0.126922607421875
1761838432261173200,0.88117333984375,-0.9666900634765625,-0.148956298828125,-0.1279449462890625
1761838432271243300,0.8912431640625,-0.9835205078125,-0.142822265625,-0.124267578125
1761838432281312300,0.901312255859375,-0.9902496337890625,-0.12750244140625,-0.119476318359375
1761838432291382300,0.91138232421875,-1.001434326171875,-0.1131744384765625,-0.11602783203125
1761838432301451300,0.921451171875,-1.01678466796875,-0.1082611083984375,-0.1156158447265625
1761838432311521300,0.931521240234375,-1.0099945068359375,-0.1046295166015625,-0.111602783203125
1761838432321590300,0.94159033203125,-0.9911041259765625,-0.09698486328125,-0.117279052734375
1761838432331660300,0.951660400390625,-0.9989166259765625,-0.10009765625,-0.12054443359375
1761838432341729300,0.961729248046875,-1.022979736328125,-0.103271484375,-0.1124114990234375
1761838432351799300,0.97179931640625,-1.047454833984375,-0.1006317138671875,-0.09881591796875
1761838432361868000,0.981867919921875,-1.0388946533203125,-0.10015869140625,-0.085693359375
1761838432371938300,0.991938232421875,-0.9787139892578125,-0.10321044921875,-0.075439453125
1761838432382007300,1.00200732421875,-0.9832000732421875,-0.105743408203125,-0.07208251953125
1761838432392077300,1.012077392578125,-1.002899169921875,-0.096527099609375,-0.0678558349609375
1761838432402146300,1.022146240234375,-1.011962890625,-0.08447265625,-0.0655517578125
1761838432412216000,1.032216064453125,-1.003387451171875,-0.0886077880859375,-0.0650482177734375
1761838432422285300,1.042285400390625,-1.01104736328125,-0.09912109375,-0.0706329345703125
1761838432432355000,1.05235498046875,-0.982513427734375,-0.1078948974609375,-0.0726776123046875
1761838432442424300,1.06242431640625,-0.9771881103515625,-0.10650634765625,-0.0704345703125
1761838432452494000,1.072494140625,-0.9862060546875,-0.103607177734375,-0.0641326904296875
1761838432462563300,1.082563232421875,-0.9648590087890625,-0.0991058349609375,-0.0574798583984375
1761838432472633300,1.09263330078125,-0.979248046875,-0.0907440185546875,-0.050689697265625
1761838432482702300,1.102702392578125,-0.9774322509765625,-0.0912017822265625,-0.0547332763671875
1761838432492772400,1.1127724609375,-0.9828643798828125,-0.0875701904296875,-0.06121826171875
1761838432502841300,1.12284130859375,-0.992706298828125,-0.081695556640625,-0.0557861328125
1761838432512911400,1.132911376953125,-1.0052032470703125,-0.081756591796875,-0.0368499755859375
1761838432522980000,1.14297998046875,-1.0085906982421875,-0.0908355712890625,-0.0137786865234375
1761838432533050400,1.15305029296875,-1.0055694580078125,-0.097625732421875,-0.0023040771484375
1761838432543119000,1.163119140625,-1.0626220703125,-0.0772552490234375,-0.005462646484375
1761838432553189400,1.173189453125,-1.093170166015625,-0.05902099609375,-0.0134735107421875
1761838432563258000,1.183258056640625,-1.074462890625,-0.061309814453125,-0.03106689453125
1761838432573328400,1.193328369140625,-1.066436767578125,-0.07476806640625,-0.0529327392578125
1761838432583397000,1.203397216796875,-1.073089599609375,-0.0782012939453125,-0.0681304931640625
1761838432593467100,1.213467041015625,-1.0507354736328125,-0.0730743408203125,-0.08258056640625
1761838432603536400,1.223536376953125,-1.023040771484375,-0.071014404296875,-0.0885162353515625
1761838432613606100,1.233606201171875,-0.99993896484375,-0.07159423828125,-0.079925537109375
1761838432623675400,1.24367529296875,-0.992767333984375,-0.072509765625,-0.0609283447265625
1761838432633745200,1.2537451171875,-0.9857635498046875,-0.08026123046875,-0.0453643798828125
1761838432643814400,1.263814453125,-0.980438232421875,-0.0943756103515625,-0.0382537841796875
1761838432653884200,1.27388427734375,-0.9761810302734375,-0.10040283203125,-0.040985107421875
1761838432663953400,1.283953369140625,-0.968109130859375,-0.0964508056640625,-0.048980712890625
1761838432674023200,1.294023193359375,-0.96551513671875,-0.0922088623046875,-0.0573272705078125
1761838432684092200,1.304092041015625,-0.9582061767578125,-0.0868072509765625,-0.0592041015625
1761838432694161200,1.3141611328125,-0.9544830322265625,-0.08343505859375,-0.056182861328125
1761838432704231200,1.324231201171875,-0.9451446533203125,-0.091796875,-0.0483856201171875
1761838432714301400,1.334301513671875,-0.9496917724609375,-0.09820556640625,-0.041351318359375
1761838432724370200,1.3443701171875,-0.9725799560546875,-0.103179931640625,-0.0337677001953125
1761838432734440400,1.3544404296875,-0.9754638671875,-0.101593017578125,-0.03143310546875
1761838432744509200,1.36450927734375,-0.9560089111328125,-0.1061859130859375,-0.031158447265625
1761838432754578400,1.374578369140625,-0.950714111328125,-0.105377197265625,-0.027740478515625
1761838432764648200,1.384648193359375,-0.958343505859375,-0.093902587890625,-0.0296630859375
1761838432774718200,1.39471826171875,-0.94854736328125,-0.0801544189453125,-0.0350494384765625
1761838432784787200,1.404787109375,-0.9558563232421875,-0.0764923095703125,-0.04364013671875
1761838432794856200,1.414856201171875,-0.969085693359375,-0.077606201171875,-0.0442657470703125
1761838432804927000,1.424927001953125,-0.9720458984375,-0.0842742919921875,-0.0414886474609375
1761838432814997000,1.4349970703125,-0.9758148193359375,-0.081634521484375,-0.0404052734375
1761838432825065700,1.445065673828125,-0.9845123291015625,-0.0704193115234375,-0.046905517578125
1761838432835136000,1.455135986328125,-0.9938201904296875,-0.0570831298828125,-0.0491943359375
1761838432845204700,1.465204833984375,-1.0125732421875,-0.01849365234375,-0.0639190673828125
1761838432855274000,1.47527392578125,-1.0343170166015625,-0.0037994384765625,-0.054718017578125
1761838432865343700,1.48534375,-1.0241851806640625,-0.0386962890625,-0.055999755859375
1761838432875414000,1.4954140625,-1.0355377197265625,-0.0535430908203125,-0.0498504638671875
1761838432885482800,1.505482666015625,-1.0420379638671875,-0.0527801513671875,-0.0366363525390625
1761838432895552000,1.515552001953125,-1.0435638427734375,-0.044036865234375,-0.03106689453125
1761838432905621800,1.525621826171875,-1.050201416015625,-0.018035888671875,-0.03765869140625
1761838432915691000,1.53569091796875,-1.0135498046875,-0.039642333984375,-0.04718017578125
1761838432925761000,1.545760986328125,-0.9609527587890625,-0.0981292724609375,-0.0550384521484375
1761838432935830800,1.555830810546875,-1.05804443359375,-0.02978515625,-0.0400543212890625
1761838432945900000,1.565900146484375,-1.0120697021484375,0.0103302001953125,-0.030029296875
1761838432955969800,1.5759697265625,-0.98577880859375,-0.0164031982421875,-0.0427398681640625
1761838432966039000,1.5860390625,-1.0228118896484375,-0.035858154296875,-0.0504913330078125
1761838432976108800,1.59610888671875,-1.01580810546875,-0.0209503173828125,-0.04345703125
1761838432986178000,1.606177978515625,-1.0213775634765625,-0.0271148681640625,-0.0330810546875
1761838432996247800,1.616247802734375,-1.03582763671875,-0.0197296142578125,-0.0376129150390625
1761838433006316800,1.62631689453125,-1.016845703125,-0.0092620849609375,-0.043121337890625
1761838433016387000,1.636386962890625,-1.0208740234375,-0.010650634765625,-0.0477447509765625
1761838433026455800,1.646455810546875,-1.0040740966796875,-0.0157928466796875,-0.0481414794921875
1761838433036526000,1.656526123046875,-1.0019683837890625,-0.02325439453125,-0.040313720703125
1761838433046594800,1.6665947265625,-0.9991455078125,-0.027740478515625,-0.0335693359375
1761838433056664800,1.676664794921875,-0.9967803955078125,-0.0348968505859375,-0.02630615234375
1761838433066733800,1.68673388671875,-0.991607666015625,-0.038665771484375,-0.022247314453125
1761838433076803800,1.696803955078125,-0.9839019775390625,-0.0396728515625,-0.0232086181640625
1761838433086872800,1.706872802734375,-0.9798431396484375,-0.0358734130859375,-0.0260467529296875
1761838433096942800,1.71694287109375,-0.9840087890625,-0.030975341796875,-0.0268096923828125
1761838433107011800,1.72701171875,-0.9908447265625,-0.0293121337890625,-0.0205841064453125
1761838433117081900,1.737081787109375,-1.0030059814453125,-0.0306396484375,-0.01318359375
1761838433127150800,1.74715087890625,-1.0187530517578125,-0.028472900390625,-0.007049560546875
1761838433137220900,1.757220947265625,-1.0254364013671875,-0.0316162109375,-0.0050048828125
1761838433147290000,1.7672900390625,-1.022613525390625,-0.04119873046875,-0.0015716552734375
1761838433157359900,1.77735986328125,-1.0232696533203125,-0.0412445068359375,-0.004150390625
1761838433167428900,1.787428955078125,-1.022216796875,-0.0308380126953125,-0.008453369140625
1761838433177499000,1.797498779296875,-1.0011138916015625,-0.037078857421875,-0.0091094970703125
1761838433187567900,1.80756787109375,-0.9880828857421875,-0.0616302490234375,-0.008544921875
1761838433197638000,1.817637939453125,-0.9960784912109375,-0.0668487548828125,-0.0138702392578125
1761838433207707000,1.827706787109375,-0.9876708984375,-0.059356689453125,-0.011932373046875
1761838433217777000,1.83777685546875,-0.9898529052734375,-0.0560150146484375,-0.01141357421875
1761838433227846000,1.847845947265625,-0.99114990234375,-0.0520172119140625,-0.0149383544921875
1761838433237916000,1.857916015625,-0.9886322021484375,-0.04888916015625,-0.0203399658203125
1761838433247985000,1.86798486328125,-0.9895477294921875,-0.04803466796875,-0.0263824462890625
1761838433258055000,1.878054931640625,-0.987945556640625,-0.04656982421875,-0.033782958984375
1761838433268124000,1.8881240234375,-0.9847259521484375,-0.04241943359375,-0.043701171875
1761838433278194000,1.89819384765625,-0.981414794921875,-0.0386505126953125,-0.0522003173828125
1761838433288263000,1.908262939453125,-0.9833221435546875,-0.037628173828125,-0.0546722412109375
1761838433298333000,1.9183330078125,-0.991119384765625,-0.0338134765625,-0.0538330078125
1761838433308402000,1.92840185546875,-1.000640869140625,-0.0351409912109375,-0.049835205078125
1761838433318472000,1.938471923828125,-1.008453369140625,-0.0358428955078125,-0.049896240234375
1761838433328541000,1.948541015625,-1.01373291015625,-0.030517578125,-0.04791259765625
1761838433338611000,1.95861083984375,-1.018463134765625,-0.0286712646484375,-0.0480194091796875
1761838433348679700,1.9686796875,-1.0217132568359375,-0.028778076171875,-0.04815673828125
1761838433358750000,1.97875,-1.0247802734375,-0.03045654296875,-0.0475006103515625
1761838433368818700,1.988818603515625,-1.0267486572265625,-0.0330810546875,-0.0439453125
1761838433378889000,1.998888916015625,-1.02471923828125,-0.0383453369140625,-0.0390625
1761838433388958000,2.0089580078125,-1.01422119140625,-0.0413360595703125,-0.03955078125
1761838433399027700,2.01902783203125,-1.00238037109375,-0.0389404296875,-0.045135498046875
1761838433409097000,2.029096923828125,-0.9933013916015625,-0.037628173828125,-0.04766845703125
1761838433419166700,2.039166748046875,-0.98406982421875,-0.0356903076171875,-0.0479888916015625
1761838433429236000,2.049236083984375,-0.9813232421875,-0.03179931640625,-0.048858642578125
1761838433439305700,2.0593056640625,-0.9811553955078125,-0.030487060546875,-0.046875
1761838433449375000,2.069375,-0.9844818115234375,-0.03192138671875,-0.04010009765625
1761838433459444700,2.07944482421875,-0.9899444580078125,-0.0311737060546875,-0.0379180908203125
1761838433469514000,2.089513916015625,-0.9929962158203125,-0.02874755859375,-0.041534423828125
1761838433479584000,2.099583984375,-0.991058349609375,-0.0255126953125,-0.0505828857421875
1761838433489653000,2.109653076171875,-0.9907989501953125,-0.0222320556640625,-0.06158447265625
1761838433499723000,2.119722900390625,-0.990966796875,-0.018585205078125,-0.0707244873046875
1761838433509791700,2.129791748046875,-0.9930419921875,-0.0172271728515625,-0.0720062255859375
1761838433519862000,2.139862060546875,-1.0026702880859375,-0.0147552490234375,-0.0687255859375
1761838433529930800,2.1499306640625,-1.007843017578125,-0.0157470703125,-0.065399169921875
1761838433540001000,2.1600009765625,-1.009918212890625,-0.021759033203125,-0.0635986328125
1761838433550069800,2.17006982421875,-1.0153350830078125,-0.0258636474609375,-0.063232421875
1761838433560139800,2.180139892578125,-1.01513671875,-0.024993896484375,-0.063201904296875
1761838433570208800,2.190208740234375,-1.0151214599609375,-0.0231170654296875,-0.066375732421875
1761838433580278800,2.20027880859375,-1.0117645263671875,-0.0234527587890625,-0.0636749267578125
1761838433590347800,2.21034765625,-1.0135498046875,-0.019989013671875,-0.06280517578125
1761838433600417800,2.220417724609375,-1.0137176513671875,-0.021942138671875,-0.0674591064453125
1761838433610487000,2.230487060546875,-1.0118255615234375,-0.0308990478515625,-0.0742645263671875
1761838433620556800,2.240556884765625,-1.0047760009765625,-0.0334320068359375,-0.080078125
1761838433630626000,2.2506259765625,-0.9957275390625,-0.0332183837890625,-0.08612060546875
1761838433640695800,2.26069580078125,-0.9804534912109375,-0.036712646484375,-0.084503173828125
1761838433650765000,2.27076513671875,-0.9684295654296875,-0.0373687744140625,-0.0757904052734375
1761838433660834800,2.280834716796875,-0.965118408203125,-0.043670654296875,-0.0625152587890625
1761838433670903800,2.29090380859375,-0.9671478271484375,-0.0443878173828125,-0.045989990234375
1761838433680973800,2.300973876953125,-0.972015380859375,-0.0465087890625,-0.03668212890625
1761838433691042800,2.311042724609375,-0.9771575927734375,-0.050994873046875,-0.028167724609375
1761838433701113000,2.321113037109375,-0.98284912109375,-0.050933837890625,-0.024749755859375
1761838433711181800,2.331181884765625,-0.9892120361328125,-0.052825927734375,-0.0256195068359375
1761838433721251800,2.341251953125,-0.99139404296875,-0.054412841796875,-0.0265045166015625
1761838433731321900,2.35132177734375,-0.99554443359375,-0.054718017578125,-0.025054931640625
1761838433741390800,2.361390869140625,-1.00201416015625,-0.0527801513671875,-0.0222320556640625
1761838433751460900,2.3714609375,-1.0034027099609375,-0.0490264892578125,-0.0204925537109375
1761838433761529900,2.38152978515625,-1.0080718994140625,-0.041961669921875,-0.024169921875
1761838433771600000,2.391599853515625,-1.01483154296875,-0.03558349609375,-0.031280517578125
1761838433781668900,2.4016689453125,-1.0205535888671875,-0.03216552734375,-0.0396728515625
1761838433791739000,2.41173876953125,-1.0205078125,-0.02984619140625,-0.0486297607421875
1761838433801807000,2.42180712890625,-1.0175018310546875,-0.0289154052734375,-0.056610107421875
1761838433811877400,2.43187744140625,-1.012939453125,-0.0273895263671875,-0.0620269775390625
1761838433821946000,2.441946044921875,-1.0054779052734375,-0.024658203125,-0.0670623779296875
1761838433832016100,2.45201611328125,-0.9951629638671875,-0.02130126953125,-0.0713348388671875
1761838433842085400,2.46208544921875,-0.9889984130859375,-0.0182037353515625,-0.072113037109375
1761838433852155100,2.472155029296875,-0.98626708984375,-0.0166778564453125,-0.0745849609375
1761838433862224400,2.482224365234375,-0.9860687255859375,-0.016632080078125,-0.0777435302734375
1761838433872294100,2.492294189453125,-0.9907684326171875,-0.0156707763671875,-0.07952880859375
1761838433882363400,2.50236328125,-0.98907470703125,-0.017333984375,-0.0820465087890625
1761838433892433200,2.51243310546875,-0.9914703369140625,-0.0203857421875,-0.0841217041015625
1761838433902502400,2.52250244140625,-0.9943695068359375,-0.019989013671875,-0.0834808349609375
1761838433912572200,2.532572265625,-0.997039794921875,-0.0207366943359375,-0.082977294921875
1761838433922641200,2.54264111328125,-0.9983673095703125,-0.0252838134765625,-0.0819091796875
1761838433932711400,2.55271142578125,-0.998046875,-0.027801513671875,-0.078643798828125
1761838433942780200,2.5627802734375,-0.999664306640625,-0.0283203125,-0.0709228515625
1761838433952850400,2.572850341796875,-1.003082275390625,-0.0289154052734375,-0.0655517578125
1761838433962919200,2.582919189453125,-1.006134033203125,-0.030029296875,-0.0633392333984375
1761838433972989400,2.592989501953125,-1.0052490234375,-0.0342864990234375,-0.05914306640625
1761838433983058200,2.60305810546875,-1.003204345703125,-0.03692626953125,-0.0558319091796875
1761838433993128200,2.613128173828125,-1.000152587890625,-0.0393524169921875,-0.0511322021484375
1761838434003197200,2.623197265625,-0.997314453125,-0.0394287109375,-0.050140380859375
1761838434013267200,2.63326708984375,-0.99664306640625,-0.0404205322265625,-0.0493621826171875
1761838434023336200,2.643336181640625,-0.9966888427734375,-0.041839599609375,-0.048187255859375
1761838434033406200,2.65340625,-0.9973297119140625,-0.0412139892578125,-0.048614501953125
1761838434043475200,2.66347509765625,-0.9974822998046875,-0.0388336181640625,-0.049407958984375
1761838434053545200,2.673545166015625,-0.99676513671875,-0.037322998046875,-0.0518646240234375
1761838434063614500,2.683614501953125,-0.99761962890625,-0.0382232666015625,-0.0517425537109375
1761838434073684200,2.693684326171875,-1.000518798828125,-0.0375823974609375,-0.052337646484375
1761838434083753500,2.70375341796875,-1.0020751953125,-0.0360260009765625,-0.0526123046875
1761838434093823200,2.7138232421875,-1.0052490234375,-0.0366058349609375,-0.0517120361328125
1761838434103892200,2.723892333984375,-1.006072998046875,-0.035614013671875,-0.05157470703125
1761838434113962200,2.733962158203125,-1.0051116943359375,-0.0356292724609375,-0.05511474609375
1761838434124032300,2.7440322265625,-1.002227783203125,-0.0345458984375,-0.058349609375
1761838434134101200,2.754101318359375,-1.0012969970703125,-0.033935546875,-0.0606536865234375
1761838434144171300,2.764171142578125,-1.0011749267578125,-0.0318756103515625,-0.0625457763671875
1761838434154240300,2.774240234375,-0.9982452392578125,-0.0305938720703125,-0.0647735595703125
1761838434164310300,2.784310302734375,-0.9931640625,-0.03094482421875,-0.067626953125
1761838434174379300,2.794379150390625,-0.9920806884765625,-0.0293731689453125,-0.0662384033203125
1761838434184449300,2.80444921875,-0.9931182861328125,-0.02642822265625,-0.0623626708984375
1761838434194518300,2.814518310546875,-0.9930572509765625,-0.025604248046875,-0.058197021484375
1761838434204588300,2.82458837890625,-0.99761962890625,-0.025390625,-0.0529632568359375
1761838434214657300,2.8346572265625,-0.9991912841796875,-0.023834228515625,-0.0536956787109375
1761838434224727000,2.84472705078125,-0.9999237060546875,-0.02392578125,-0.054229736328125
1761838434234796300,2.85479638671875,-0.9961395263671875,-0.0226898193359375,-0.056854248046875
1761838434244866300,2.8648662109375,-0.9918212890625,-0.0171051025390625,-0.057281494140625
1761838434254935300,2.874935302734375,-0.9869232177734375,-0.014312744140625,-0.0583343505859375
1761838434265005300,2.88500537109375,-0.98114013671875,-0.0163116455078125,-0.05755615234375
1761838434275074300,2.89507421875,-0.9765472412109375,-0.0132904052734375,-0.05548095703125
1761838434285144300,2.905144287109375,-0.9745025634765625,-0.012969970703125,-0.0540008544921875
1761838434295213300,2.91521337890625,-0.97796630859375,-0.0153961181640625,-0.052093505859375
1761838434305283300,2.925283447265625,-0.9842987060546875,-0.01837158203125,-0.051605224609375
1761838434315352300,2.935352294921875,-0.99151611328125,-0.02081298828125,-0.050079345703125
1761838434325422300,2.94542236328125,-0.9965057373046875,-0.0240478515625,-0.05078125
1761838434335491000,2.955490966796875,-0.9999542236328125,-0.0251312255859375,-0.0514678955078125
1761838434345561300,2.965561279296875,-1.0039520263671875,-0.0270538330078125,-0.049407958984375
1761838434355630000,2.975630126953125,-1.0119781494140625,-0.0274810791015625,-0.04754638671875
1761838434365700400,2.985700439453125,-1.0185546875,-0.0268096923828125,-0.053314208984375
1761838434375769000,2.99576904296875,-1.0229644775390625,-0.0291748046875,-0.0588226318359375
1761838434385839000,3.005839111328125,-1.026580810546875,-0.0330963134765625,-0.0583038330078125
1761838434395908400,3.015908447265625,-1.0295562744140625,-0.033447265625,-0.05743408203125
1761838434405978000,3.02597802734375,-1.02423095703125,-0.032806396484375,-0.0573883056640625
1761838434416047400,3.03604736328125,-1.017547607421875,-0.0321044921875,-0.0575103759765625
1761838434426117000,3.0461171875,-1.010498046875,-0.0285797119140625,-0.0595855712890625
1761838434436186400,3.056186279296875,-1.001708984375,-0.026397705078125,-0.06280517578125
1761838434446256000,3.066256103515625,-0.994140625,-0.027252197265625,-0.0636444091796875
1761838434456325400,3.076325439453125,-0.9937896728515625,-0.031219482421875,-0.061248779296875
1761838434466395100,3.08639501953125,-0.9933624267578125,-0.0280914306640625,-0.05767822265625
1761838434476464400,3.09646435546875,-0.9922332763671875,-0.022613525390625,-0.0613861083984375
1761838434486534400,3.106534423828125,-0.9926605224609375,-0.0358734130859375,-0.065399169921875
1761838434496604200,3.116604248046875,-0.9874420166015625,-0.02984619140625,-0.065155029296875
1761838434506673400,3.12667333984375,-0.98577880859375,-0.022552490234375,-0.0653228759765625
1761838434516743200,3.1367431640625,-0.9833526611328125,-0.03204345703125,-0.0623779296875
1761838434526812400,3.1468125,-0.9814453125,-0.0322113037109375,-0.056640625
1761838434536882200,3.156882080078125,-0.9805908203125,-0.034820556640625,-0.0467376708984375
1761838434546951200,3.166951171875,-0.9828948974609375,-0.0373992919921875,-0.0399627685546875
1761838434557021200,3.177021240234375,-0.9862060546875,-0.0365447998046875,-0.03558349609375
1761838434567090200,3.187090087890625,-0.9897003173828125,-0.03759765625,-0.035064697265625
1761838434577160400,3.197160400390625,-0.99652099609375,-0.0375213623046875,-0.0360107421875
1761838434587229200,3.207229248046875,-1.0013580322265625,-0.0381317138671875,-0.036956787109375
1761838434597299500,3.217299560546875,-1.0090789794921875,-0.0370025634765625,-0.0370941162109375
1761838434607368200,3.2273681640625,-1.0157623291015625,-0.0363616943359375,-0.038787841796875
1761838434617438200,3.237438232421875,-1.01898193359375,-0.0377197265625,-0.03997802734375
1761838434627507200,3.247507080078125,-1.0182647705078125,-0.0378570556640625,-0.04229736328125
1761838434637577200,3.2575771484375,-1.015838623046875,-0.0380859375,-0.0447845458984375
1761838434647646200,3.267646240234375,-1.014312744140625,-0.037017822265625,-0.0523223876953125
1761838434657716200,3.27771630859375,-1.0122222900390625,-0.035064697265625,-0.058441162109375
1761838434667785200,3.28778515625,-1.0078582763671875,-0.034759521484375,-0.0626373291015625
1761838434677855200,3.297855224609375,-1.003875732421875,-0.0335845947265625,-0.06488037109375
1761838434687924200,3.30792431640625,-0.9987030029296875,-0.0333709716796875,-0.066802978515625
1761838434697994200,3.317994140625,-0.9960784912109375,-0.0345306396484375,-0.06854248046875
1761838434708063500,3.3280634765625,-0.9949188232421875,-0.0341796875,-0.0695953369140625
1761838434718133200,3.33813330078125,-0.99462890625,-0.0340423583984375,-0.06695556640625
1761838434728202200,3.3482021484375,-0.99652099609375,-0.0344390869140625,-0.0655517578125
1761838434738272300,3.358272216796875,-0.997711181640625,-0.0362091064453125,-0.065643310546875
1761838434748341200,3.36834130859375,-1.00054931640625,-0.0370330810546875,-0.0632781982421875
1761838434758411300,3.378411376953125,-1.00225830078125,-0.0392608642578125,-0.0590362548828125
1761838434768480300,3.388480224609375,-1.0020751953125,-0.0407257080078125,-0.0569915771484375
1761838434778550300,3.39855029296875,-1.0004119873046875,-0.0426788330078125,-0.0589752197265625
1761838434788619300,3.408619384765625,-1.0026092529296875,-0.0444488525390625,-0.059295654296875
1761838434798689000,3.41868896484375,-1.0029296875,-0.0450439453125,-0.058197021484375
1761838434808759000,3.428759033203125,-1.006256103515625,-0.0436248779296875,-0.0592803955078125
1761838434818828000,3.438828125,-1.0114288330078125,-0.0421142578125,-0.063385009765625
1761838434828898000,3.44889794921875,-1.0133056640625,-0.04022216796875,-0.0677947998046875
1761838434838967000,3.458967041015625,-1.011077880859375,-0.0412139892578125,-0.0723114013671875
1761838434849037000,3.469037109375,-1.0107269287109375,-0.0494384765625,-0.073760986328125
1761838434859106000,3.47910595703125,-0.99951171875,-0.037109375,-0.0711212158203125
1761838434869176000,3.489176025390625,-0.997589111328125,-0.0353851318359375,-0.080718994140625
1761838434879245000,3.4992451171875,-0.9897918701171875,-0.0450286865234375,-0.083099365234375
1761838434889315000,3.509315185546875,-0.98638916015625,-0.0344696044921875,-0.083038330078125
1761838434899384000,3.519384033203125,-0.987152099609375,-0.0358123779296875,-0.0819854736328125
1761838434909454000,3.5294541015625,-0.9881591796875,-0.040863037109375,-0.0756988525390625
1761838434919523000,3.539523193359375,-0.9915313720703125,-0.034515380859375,-0.0726470947265625
1761838434929593000,3.549593017578125,-0.9902496337890625,-0.0403289794921875,-0.0750732421875
1761838434939662000,3.559662109375,-0.98883056640625,-0.0440521240234375,-0.0768280029296875
1761838434949732000,3.569732177734375,-0.98724365234375,-0.04290771484375,-0.0784454345703125
1761838434959800800,3.57980078125,-0.9837493896484375,-0.037078857421875,-0.0793304443359375
1761838434969871000,3.58987109375,-0.9810791015625,-0.04052734375,-0.0791473388671875
1761838434979939800,3.59993994140625,-0.9783477783203125,-0.042816162109375,-0.07928466796875
1761838434990010000,3.610010009765625,-0.9798583984375,-0.043670654296875,-0.07940673828125
1761838435000079000,3.6200791015625,-0.9802093505859375,-0.0447235107421875,-0.0793304443359375
1761838435010149000,3.630149169921875,-0.9793548583984375,-0.047698974609375,-0.0772705078125
1761838435020218000,3.640218017578125,-0.981201171875,-0.046112060546875,-0.0768585205078125
1761838435030288000,3.650287841796875,-0.9798431396484375,-0.0439910888671875,-0.0767059326171875
1761838435040357000,3.660357177734375,-0.9783477783203125,-0.0413360595703125,-0.0786895751953125
1761838435050427000,3.670427001953125,-0.9771270751953125,-0.0393524169921875,-0.0772705078125
1761838435060496100,3.68049609375,-0.98004150390625,-0.036224365234375,-0.06793212890625
1761838435070566000,3.69056591796875,-0.9916229248046875,-0.034698486328125,-0.0572357177734375
1761838435080635100,3.70063525390625,-1.000701904296875,-0.0344085693359375,-0.0509490966796875
1761838435090705200,3.710705078125,-1.0104827880859375,-0.03607177734375,-0.054534912109375
1761838435100774100,3.720774169921875,-1.0154876708984375,-0.037628173828125,-0.061614990234375
1761838435110844200,3.73084423828125,-1.01885986328125,-0.03619384765625,-0.0672454833984375
1761838435120914000,3.740913818359375,-1.02056884765625,-0.036773681640625,-0.067230224609375
1761838435130983200,3.750983154296875,-1.0218353271484375,-0.0390777587890625,-0.0614166259765625
1761838435141053000,3.761052978515625,-1.020751953125,-0.0413360595703125,-0.0586090087890625
1761838435151122200,3.7711220703125,-1.019500732421875,-0.044158935546875,-0.0564117431640625
1761838435161192000,3.78119189453125,-1.018798828125,-0.0453338623046875,-0.05609130859375
1761838435171261200,3.79126123046875,-1.0164031982421875,-0.043701171875,-0.0592193603515625
1761838435181331200,3.801331298828125,-1.0145263671875,-0.0420989990234375,-0.0672454833984375
1761838435191400000,3.81139990234375,-1.009124755859375,-0.0378570556640625,-0.07855224609375
1761838435201470200,3.82147021484375,-1.0062103271484375,-0.0353240966796875,-0.088348388671875
1761838435211539000,3.8315390625,-0.9997711181640625,-0.0319671630859375,-0.0944061279296875
1761838435221609200,3.841609130859375,-0.9934539794921875,-0.0288543701171875,-0.0983428955078125
1761838435231678000,3.851677978515625,-0.989410400390625,-0.02923583984375,-0.099212646484375
1761838435241748000,3.861748046875,-0.9826202392578125,-0.0296630859375,-0.097442626953125
1761838435251817000,3.87181689453125,-0.9824676513671875,-0.0321502685546875,-0.088043212890625
1761838435261887000,3.881886962890625,-0.9811553955078125,-0.0343017578125,-0.0743560791015625
1761838435271956000,3.8919560546875,-0.9831695556640625,-0.035186767578125,-0.0660247802734375
1761838435282026000,3.90202587890625,-0.984130859375,-0.0362091064453125,-0.064300537109375
1761838435292095000,3.912094970703125,-0.9864349365234375,-0.0372467041015625,-0.0646820068359375
1761838435302165000,3.9221650390625,-0.9874267578125,-0.0387420654296875,-0.0655670166015625
1761838435312234200,3.932234130859375,-0.9927825927734375,-0.039459228515625,-0.06585693359375
1761838435322304000,3.942303955078125,-0.993316650390625,-0.037689208984375,-0.0700836181640625
1761838435332373200,3.952373291015625,-0.9914703369140625,-0.0351104736328125,-0.07763671875
1761838435342443000,3.962443115234375,-0.989166259765625,-0.0326690673828125,-0.08551025390625
1761838435352512000,3.972511962890625,-0.9890594482421875,-0.0300750732421875,-0.0928497314453125
1761838435362582000,3.98258203125,-0.991607666015625,-0.02703857421875,-0.09661865234375
1761838435372651000,3.992651123046875,-0.9936370849609375,-0.0244140625,-0.09698486328125
1761838435382721000,4.002720947265625,-0.996612548828125,-0.0252685546875,-0.096893310546875
1761838435392788000,4.0127880859375,-0.9997100830078125,-0.0263671875,-0.0938262939453125
1761838435402858000,4.02285791015625,-1.0019683837890625,-0.0252685546875,-0.0911407470703125
1761838435412927200,4.03292724609375,-1.00311279296875,-0.0243377685546875,-0.0909423828125
1761838435422997000,4.0429970703125,-0.9988555908203125,-0.024139404296875,-0.091796875
1761838435433066200,4.053066162109375,-0.9952392578125,-0.0234527587890625,-0.090087890625
1761838435443136000,4.063135986328125,-0.9907073974609375,-0.0245361328125,-0.085784912109375
1761838435453205000,4.073205078125,-0.9868621826171875,-0.0274810791015625,-0.078948974609375
1761838435463275000,4.08327490234375,-0.9863128662109375,-0.02874755859375,-0.07318115234375
1761838435473344000,4.093343994140625,-0.9879150390625,-0.02984619140625,-0.0721435546875
1761838435483414000,4.1034140625,-0.9902496337890625,-0.0316314697265625,-0.074859619140625
1761838435493483000,4.11348291015625,-0.99609375,-0.0319671630859375,-0.0762176513671875
1761838435503553300,4.12355322265625,-1.0000457763671875,-0.031005859375,-0.0786590576171875
1761838435513622000,4.1336220703125,-1.0023193359375,-0.0316314697265625,-0.0800628662109375
1761838435523692000,4.143692138671875,-1.0041046142578125,-0.0306854248046875,-0.079803466796875
1761838435533762000,4.153761962890625,-1.0055999755859375,-0.0307159423828125,-0.078521728515625
1761838435543831000,4.1638310546875,-1.00567626953125,-0.03021240234375,-0.077972412109375
1761838435553901000,4.173901123046875,-1.006622314453125,-0.029815673828125,-0.076324462890625
1761838435563970000,4.183969970703125,-1.0063323974609375,-0.0302581787109375,-0.074981689453125
1761838435574040000,4.1940400390625,-1.0061187744140625,-0.0293731689453125,-0.0709991455078125
1761838435584109000,4.204109130859375,-1.0057525634765625,-0.02642822265625,-0.0671234130859375
1761838435594179000,4.214178955078125,-1.003173828125,-0.0247955322265625,-0.066131591796875
1761838435604248000,4.224248046875,-0.99920654296875,-0.02496337890625,-0.0655059814453125
1761838435614318000,4.234318115234375,-0.9947509765625,-0.025909423828125,-0.06512451171875
1761838435624387000,4.244386962890625,-0.99127197265625,-0.0243377685546875,-0.064056396484375
1761838435634457000,4.25445703125,-0.9890289306640625,-0.02471923828125,-0.063812255859375
1761838435644526000,4.264526123046875,-0.9885101318359375,-0.0239410400390625,-0.06463623046875
1761838435654596000,4.27459619140625,-0.990081787109375,-0.021331787109375,-0.0679779052734375
1761838435664665000,4.2846650390625,-0.9947662353515625,-0.02032470703125,-0.0701446533203125
1761838435674735000,4.294735107421875,-0.998077392578125,-0.0185546875,-0.0751953125
1761838435684803800,4.304803955078125,-0.999481201171875,-0.0176239013671875,-0.079071044921875
1761838435694874000,4.3148740234375,-1.003143310546875,-0.0192718505859375,-0.080322265625
1761838435704942800,4.32494287109375,-1.0037994384765625,-0.0183258056640625,-0.0831146240234375
1761838435715013000,4.33501318359375,-1.00537109375,-0.016998291015625,-0.0832366943359375
1761838435725082000,4.34508203125,-1.0061492919921875,-0.016937255859375,-0.0814971923828125
1761838435735152000,4.355152099609375,-1.00701904296875,-0.0174713134765625,-0.081085205078125
1761838435745221000,4.36522119140625,-1.0040740966796875,-0.0182647705078125,-0.0791015625
1761838435755291000,4.375290771484375,-1.004058837890625,-0.020751953125,-0.0755462646484375
1761838435765360000,4.385360107421875,-1.003021240234375,-0.0207366943359375,-0.073760986328125
1761838435775430000,4.395429931640625,-1.0004730224609375,-0.0215301513671875,-0.0734100341796875
1761838435785499100,4.4054990234375,-0.9978790283203125,-0.0218963623046875,-0.0745849609375
1761838435795569000,4.41556884765625,-0.994659423828125,-0.020751953125,-0.0762481689453125
1761838435805638100,4.42563818359375,-0.9889373779296875,-0.0211029052734375,-0.078704833984375
1761838435815708000,4.4357080078125,-0.9889068603515625,-0.0233154296875,-0.080291748046875
1761838435825777200,4.445777099609375,-0.98651123046875,-0.021270751953125,-0.0809326171875
1761838435835847000,4.455846923828125,-0.98748779296875,-0.02325439453125,-0.0788421630859375
1761838435845916200,4.465916259765625,-0.9913482666015625,-0.0259246826171875,-0.077301025390625
1761838435855986200,4.475986083984375,-0.994140625,-0.026580810546875,-0.0760040283203125
1761838435866055000,4.486054931640625,-0.99847412109375,-0.0287017822265625,-0.0750732421875
1761838435876125200,4.496125244140625,-1.0014801025390625,-0.029266357421875,-0.075836181640625
1761838435886194000,4.50619384765625,-1.003326416015625,-0.0281829833984375,-0.077972412109375
1761838435896264200,4.51626416015625,-1.0039215087890625,-0.0279541015625,-0.0762939453125
1761838435906333000,4.5263330078125,-1.005767822265625,-0.0271453857421875,-0.074462890625
1761838435916403000,4.53640283203125,-1.003875732421875,-0.0266876220703125,-0.0736236572265625
1761838435926472000,4.546471923828125,-1.003936767578125,-0.02606201171875,-0.06982421875
1761838435936542000,4.5565419921875,-1.005462646484375,-0.0275421142578125,-0.06939697265625
1761838435946612200,4.5666123046875,-1.004913330078125,-0.029144287109375,-0.071929931640625
1761838435956681000,4.576680908203125,-1.0039520263671875,-0.0289459228515625,-0.0743408203125
1761838435966751000,4.5867509765625,-1.00189208984375,-0.02886962890625,-0.0753326416015625
1761838435976820000,4.596820068359375,-1.0005645751953125,-0.029541015625,-0.0748748779296875
1761838435986890000,4.606889892578125,-0.995880126953125,-0.02874755859375,-0.0741729736328125
1761838435996959000,4.616958984375,-0.9928741455078125,-0.02825927734375,-0.0752105712890625
1761838436007029000,4.627029052734375,-0.9904632568359375,-0.0279998779296875,-0.073944091796875
1761838436017099000,4.63709912109375,-0.9912261962890625,-0.0270538330078125,-0.0733184814453125
1761838436027169000,4.6471689453125,-0.992462158203125,-0.0262603759765625,-0.0727996826171875
1761838436037239000,4.657239013671875,-0.9935760498046875,-0.0269012451171875,-0.07281494140625
1761838436047308000,4.66730810546875,-0.9950714111328125,-0.026947021484375,-0.072998046875
1761838436057378000,4.6773779296875,-0.9937896728515625,-0.02545166015625,-0.0750885009765625
1761838436067447000,4.687447021484375,-0.9921722412109375,-0.024383544921875,-0.0785980224609375
1761838436077517000,4.69751708984375,-0.99053955078125,-0.0241851806640625,-0.0804290771484375
1761838436087586000,4.7075859375,-0.99017333984375,-0.023681640625,-0.081207275390625
1761838436097656000,4.717656005859375,-0.9902191162109375,-0.0234222412109375,-0.0828399658203125
1761838436107724800,4.727724853515625,-0.9914398193359375,-0.0233917236328125,-0.0838165283203125
1761838436117795000,4.737795166015625,-0.993682861328125,-0.0215301513671875,-0.0851593017578125
1761838436127863800,4.74786376953125,-0.99658203125,-0.0217437744140625,-0.0838623046875
1761838436137934000,4.75793408203125,-1.0001373291015625,-0.0194549560546875,-0.0789642333984375
1761838436148003000,4.768003173828125,-1.0045013427734375,-0.0198974609375,-0.07452392578125
1761838436158072800,4.77807275390625,-1.009033203125,-0.02044677734375,-0.0725555419921875
1761838436168142000,4.78814208984375,-1.0097198486328125,-0.0213165283203125,-0.075897216796875
1761838436178211800,4.7982119140625,-1.0062713623046875,-0.0230712890625,-0.079437255859375
1761838436188281000,4.808281005859375,-1.0032958984375,-0.02569580078125,-0.0782623291015625
1761838436198350800,4.818350830078125,-0.9982147216796875,-0.024383544921875,-0.0762481689453125
1761838436208420000,4.828420166015625,-0.993194580078125,-0.0223236083984375,-0.0751953125
1761838436218489900,4.83848974609375,-0.9911956787109375,-0.02191162109375,-0.0712432861328125
1761838436228559000,4.84855908203125,-0.991180419921875,-0.02178955078125,-0.0665740966796875
1761838436238629000,4.858629150390625,-0.99188232421875,-0.0232696533203125,-0.067047119140625
1761838436248698000,4.868697998046875,-0.9937286376953125,-0.0241851806640625,-0.06903076171875
1761838436258768100,4.87876806640625,-0.9968719482421875,-0.0250396728515625,-0.0696868896484375
1761838436268836900,4.8888369140625,-0.9990997314453125,-0.0256195068359375,-0.0715179443359375
1761838436278907100,4.8989072265625,-0.99761962890625,-0.02374267578125,-0.0726318359375
1761838436288976000,4.908975830078125,-0.9978485107421875,-0.0224761962890625,-0.0749969482421875
1761838436299046100,4.919046142578125,-0.996490478515625,-0.021026611328125,-0.08013916015625
1761838436309115000,4.929114990234375,-0.99554443359375,-0.0212554931640625,-0.0845794677734375
1761838436319185000,4.939184814453125,-0.996246337890625,-0.0214691162109375,-0.0850677490234375
1761838436329254000,4.94925390625,-1.000518798828125,-0.022125244140625,-0.082183837890625
1761838436339324000,4.959323974609375,-1.0051727294921875,-0.0225372314453125,-0.078948974609375
1761838436349393000,4.969392822265625,-1.01019287109375,-0.02410888671875,-0.0777435302734375
1761838436359463000,4.979462890625,-1.01361083984375,-0.0259246826171875,-0.0793914794921875
1761838436369532200,4.9895322265625,-1.0160675048828125,-0.0247802734375,-0.0816192626953125
1761838436379602000,4.999601806640625,-1.01348876953125,-0.025482177734375,-0.08465576171875
1761838436389671200,5.009671142578125,-1.0105438232421875,-0.0255889892578125,-0.083587646484375
1761838436399741000,5.019740966796875,-1.0068511962890625,-0.024810791015625,-0.078460693359375
1761838436409810200,5.02981005859375,-0.9994964599609375,-0.023956298828125,-0.074371337890625
1761838436419880000,5.0398798828125,-0.9944915771484375,-0.023590087890625,-0.0704193115234375
1761838436429949000,5.049948974609375,-0.989959716796875,-0.0231781005859375,-0.0646514892578125
1761838436440019000,5.06001904296875,-0.9884796142578125,-0.0258636474609375,-0.0626983642578125
1761838436450088000,5.070087890625,-0.9891510009765625,-0.0261383056640625,-0.062744140625
1761838436460158200,5.080158203125,-0.9880828857421875,-0.0255889892578125,-0.0631561279296875
1761838436470227000,5.09022705078125,-0.9911956787109375,-0.026275634765625,-0.0628814697265625
1761838436480297200,5.100297119140625,-0.991607666015625,-0.0253448486328125,-0.062591552734375
1761838436490366000,5.110365966796875,-0.9925537109375,-0.02349853515625,-0.0634002685546875
1761838436500436000,5.12043603515625,-0.9930877685546875,-0.0243377685546875,-0.064239501953125
1761838436510505000,5.1305048828125,-0.995147705078125,-0.027069091796875,-0.06494140625
1761838436520575000,5.140574951171875,-0.99896240234375,-0.026885986328125,-0.0690155029296875
1761838436530644000,5.15064404296875,-1.0018768310546875,-0.026763916015625,-0.0741119384765625
1761838436540714000,5.1607138671875,-1.0032196044921875,-0.02764892578125,-0.0793609619140625
1761838436550783000,5.170782958984375,-1.00103759765625,-0.0272369384765625,-0.0814971923828125
1761838436560853000,5.18085302734375,-0.997833251953125,-0.0258026123046875,-0.0828399658203125
1761838436570922000,5.190921875,-0.992340087890625,-0.0268402099609375,-0.0847015380859375
1761838436580992000,5.200991943359375,-0.98779296875,-0.0265655517578125,-0.0861663818359375
1761838436591061000,5.21106103515625,-0.986297607421875,-0.0263824462890625,-0.08197021484375
1761838436601131000,5.221131103515625,-0.9869232177734375,-0.026702880859375,-0.07647705078125
1761838436611200000,5.231199951171875,-0.992645263671875,-0.0286865234375,-0.072235107421875
1761838436621270000,5.24127001953125,-0.9985504150390625,-0.0274200439453125,-0.0709991455078125
1761838436631339000,5.251339111328125,-1.0033111572265625,-0.0274505615234375,-0.071197509765625
1761838436641409000,5.261408935546875,-1.005584716796875,-0.0292816162109375,-0.07000732421875
1761838436651478000,5.27147802734375,-1.0068359375,-0.0284423828125,-0.0694427490234375
1761838436661547800,5.2815478515625,-1.0043792724609375,-0.0281219482421875,-0.0695953369140625
1761838436671617000,5.291616943359375,-1.001220703125,-0.02825927734375,-0.06854248046875
1761838436681687000,5.30168701171875,-0.9988555908203125,-0.02978515625,-0.066253662109375
1761838436691756000,5.311756103515625,-0.9981536865234375,-0.0314788818359375,-0.066558837890625
1761838436701826000,5.321825927734375,-0.998931884765625,-0.0324249267578125,-0.06707763671875
1761838436711895000,5.33189501953125,-0.998199462890625,-0.0332489013671875,-0.071197509765625
1761838436721965000,5.341965087890625,-0.99847412109375,-0.033599853515625,-0.0736541748046875
1761838436732034000,5.352033935546875,-0.998046875,-0.03167724609375,-0.075958251953125
1761838436742104000,5.36210400390625,-0.9972686767578125,-0.030487060546875,-0.078338623046875
1761838436752173800,5.372173828125,-0.9972381591796875,-0.0305633544921875,-0.0770721435546875
1761838436762243000,5.3822431640625,-0.99835205078125,-0.0294189453125,-0.073699951171875
1761838436772313000,5.39231298828125,-0.99798583984375,-0.0279693603515625,-0.0732574462890625
1761838436782382000,5.402382080078125,-0.9988555908203125,-0.02996826171875,-0.0727996826171875
1761838436792450800,5.412450927734375,-0.9990234375,-0.0297698974609375,-0.0728607177734375
1761838436802521300,5.422521240234375,-0.99884033203125,-0.0290374755859375,-0.07177734375
1761838436812590300,5.43259033203125,-0.9976654052734375,-0.0273284912109375,-0.07049560546875
1761838436822660400,5.442660400390625,-0.9966888427734375,-0.0278167724609375,-0.068939208984375
1761838436832730600,5.452730712890625,-0.99407958984375,-0.0275421142578125,-0.06842041015625
1761838436842799400,5.46279931640625,-0.9901123046875,-0.02703857421875,-0.071685791015625
1761838436852869600,5.47286962890625,-0.9868621826171875,-0.027374267578125,-0.0735626220703125
1761838436862938400,5.4829384765625,-0.98529052734375,-0.0279693603515625,-0.0735931396484375
1761838436873008400,5.49300830078125,-0.9874420166015625,-0.0265655517578125,-0.072265625
1761838436883077400,5.503077392578125,-0.9928436279296875,-0.02783203125,-0.0721435546875
1761838436893147400,5.5131474609375,-0.999359130859375,-0.0266265869140625,-0.0697021484375
1761838436903216400,5.52321630859375,-1.00653076171875,-0.026702880859375,-0.0680694580078125
1761838436913286400,5.533286376953125,-1.010009765625,-0.0272064208984375,-0.0691680908203125
1761838436923355400,5.54335546875,-1.0118560791015625,-0.027587890625,-0.0728607177734375
1761838436933425400,5.55342529296875,-1.0121307373046875,-0.0271453857421875,-0.075531005859375
1761838436943494400,5.563494384765625,-1.0094451904296875,-0.027435302734375,-0.07818603515625
1761838436953564400,5.573564453125,-1.00555419921875,-0.0259246826171875,-0.0780181884765625
1761838436963633700,5.583633544921875,-1.0024871826171875,-0.0269622802734375,-0.0765228271484375
1761838436973702400,5.593702392578125,-0.998565673828125,-0.0275115966796875,-0.074188232421875
1761838436983772400,5.6037724609375,-0.997589111328125,-0.0284423828125,-0.07025146484375
1761838436993842400,5.613842529296875,-0.99993896484375,-0.0286712646484375,-0.068450927734375
1761838437003911400,5.623911376953125,-1.0001220703125,-0.027252197265625,-0.06854248046875
1761838437013981400,5.6339814453125,-1.0019683837890625,-0.0257720947265625,-0.0685577392578125
1761838437024050400,5.644050537109375,-1.003692626953125,-0.023345947265625,-0.0693817138671875
1761838437034119400,5.654119384765625,-1.001220703125,-0.0219879150390625,-0.0728302001953125
1761838437044189400,5.664189453125,-0.9970245361328125,-0.0214080810546875,-0.0767974853515625
1761838437054259200,5.67425927734375,-0.993896484375,-0.02203369140625,-0.079437255859375
1761838437064328400,5.684328369140625,-0.98870849609375,-0.023101806640625,-0.081878662109375
1761838437074398500,5.6943984375,-0.98602294921875,-0.0231475830078125,-0.0844268798828125
1761838437084467500,5.704467529296875,-0.9876708984375,-0.022216796875,-0.084136962890625
1761838437094537500,5.714537353515625,-0.9887847900390625,-0.0220489501953125,-0.08160400390625
1761838437104606500,5.7246064453125,-0.99017333984375,-0.0247802734375,-0.079132080078125
1761838437114676500,5.734676513671875,-0.995086669921875,-0.02398681640625,-0.0745697021484375
1761838437124745500,5.744745361328125,-0.9992523193359375,-0.02313232421875,-0.0727996826171875
1761838437134815500,5.7548154296875,-1.0026702880859375,-0.02349853515625,-0.072357177734375
1761838437144884200,5.76488427734375,-1.0056610107421875,-0.023284912109375,-0.072906494140625
1761838437154954500,5.77495458984375,-1.0067291259765625,-0.0219268798828125,-0.0721435546875
1761838437165023200,5.785023193359375,-1.00518798828125,-0.021209716796875,-0.0737152099609375
1761838437175093500,5.795093505859375,-1.0006561279296875,-0.0213775634765625,-0.0772857666015625
1761838437185162200,5.805162353515625,-0.9976806640625,-0.0203857421875,-0.0799102783203125
1761838437195232500,5.815232421875,-0.996185302734375,-0.0204925537109375,-0.0830230712890625
1761838437205301500,5.825301513671875,-0.994110107421875,-0.0208282470703125,-0.085205078125
1761838437215370500,5.83537060546875,-0.9954986572265625,-0.0199432373046875,-0.08544921875
1761838437225440500,5.8454404296875,-0.9961700439453125,-0.0202789306640625,-0.0858306884765625
1761838437235509500,5.855509521484375,-0.99676513671875,-0.019287109375,-0.083221435546875
1761838437245579500,5.86557958984375,-0.9973907470703125,-0.0203094482421875,-0.0805816650390625
1761838437255648300,5.875648193359375,-0.9976806640625,-0.02020263671875,-0.081146240234375
1761838437265718500,5.885718505859375,-0.997772216796875,-0.019622802734375,-0.0835723876953125
1761838437275787300,5.895787353515625,-0.9959869384765625,-0.0203704833984375,-0.083984375
1761838437285857500,5.905857421875,-0.9952392578125,-0.019805908203125,-0.08673095703125
1761838437295926300,5.91592626953125,-0.9935150146484375,-0.0174407958984375,-0.085968017578125
1761838437305996500,5.92599658203125,-0.99456787109375,-0.0169219970703125,-0.0830535888671875
1761838437316065300,5.936065185546875,-0.994903564453125,-0.0197296142578125,-0.0845184326171875
1761838437326135300,5.94613525390625,-0.9953155517578125,-0.019866943359375,-0.0863800048828125
1761838437336204500,5.95620458984375,-0.9967498779296875,-0.0190887451171875,-0.0868988037109375
1761838437346274300,5.9662744140625,-0.9957733154296875,-0.0195159912109375,-0.088165283203125
1761838437356343600,5.976343505859375,-0.992919921875,-0.0175628662109375,-0.08782958984375
1761838437366413300,5.986413330078125,-0.98974609375,-0.017181396484375,-0.090240478515625
1761838437376482600,5.996482666015625,-0.9849853515625,-0.01959228515625,-0.0885009765625
1761838437386552300,6.00655224609375,-0.9825897216796875,-0.0202484130859375,-0.0826416015625
1761838437396621600,6.01662158203125,-0.9845733642578125,-0.0193939208984375,-0.0768585205078125
1761838437406691300,6.02669140625,-0.9900665283203125,-0.0168304443359375,-0.077606201171875
1761838437416760300,6.03676025390625,-0.9930419921875,-0.015350341796875,-0.0837249755859375
1761838437426830600,6.04683056640625,-0.999603271484375,-0.020355224609375,-0.0856170654296875
1761838437436899300,6.0568994140625,-1.0069122314453125,-0.02154541015625,-0.0818634033203125
1761838437446969600,6.066969482421875,-1.0116729736328125,-0.0202789306640625,-0.08154296875
1761838437457038300,6.077038330078125,-1.011138916015625,-0.01934814453125,-0.087799072265625
1761838437467108600,6.087108642578125,-1.0104827880859375,-0.0183563232421875,-0.086181640625
1761838437477177300,6.09717724609375,-1.00537109375,-0.0159454345703125,-0.0854034423828125
1761838437487247400,6.107247314453125,-1.0014495849609375,-0.0133819580078125,-0.08831787109375
1761838437497316400,6.11731640625,-0.9986114501953125,-0.0130767822265625,-0.090667724609375
1761838437507386400,6.127386474609375,-0.9976348876953125,-0.0139923095703125,-0.0879058837890625
1761838437517455400,6.137455322265625,-0.9964752197265625,-0.0157470703125,-0.085113525390625
1761838437527525400,6.147525390625,-0.993072509765625,-0.0173797607421875,-0.08392333984375
1761838437537594400,6.157594482421875,-0.9913177490234375,-0.01910400390625,-0.0840301513671875
1761838437547664400,6.167664306640625,-0.9900665283203125,-0.01983642578125,-0.0830841064453125
1761838437557733600,6.177733642578125,-0.98992919921875,-0.019927978515625,-0.082061767578125
1761838437567803400,6.187803466796875,-0.990447998046875,-0.0205230712890625,-0.081787109375
1761838437577872600,6.19787255859375,-0.9882965087890625,-0.0199737548828125,-0.0823516845703125
1761838437587942400,6.2079423828125,-0.994873046875,-0.021759033203125,-0.0805511474609375
1761838437598011400,6.218011474609375,-0.995452880859375,-0.0224609375,-0.079132080078125
1761838437608081400,6.228081298828125,-0.99700927734375,-0.025360107421875,-0.0807647705078125
1761838437618150400,6.238150390625,-1.002166748046875,-0.02520751953125,-0.0821075439453125
1761838437628220400,6.248220458984375,-1.002899169921875,-0.0257110595703125,-0.0807342529296875
1761838437638289400,6.258289306640625,-1.00347900390625,-0.0243072509765625,-0.0816497802734375
1761838437648359400,6.268359375,-1.0056304931640625,-0.02423095703125,-0.07867431640625
1761838437658428400,6.278428466796875,-1.00616455078125,-0.02447509765625,-0.0718536376953125
1761838437668498400,6.28849853515625,-1.00341796875,-0.0232086181640625,-0.0679779052734375
1761838437678567400,6.2985673828125,-1.00323486328125,-0.0230712890625,-0.0665435791015625
1761838437688637400,6.308637451171875,-0.998291015625,-0.0205841064453125,-0.0670623779296875
1761838437698706400,6.31870654296875,-0.9943389892578125,-0.0201568603515625,-0.0690765380859375
1761838437708776400,6.3287763671875,-0.9925537109375,-0.020111083984375,-0.0677642822265625
1761838437718845400,6.338845458984375,-0.9895172119140625,-0.020172119140625,-0.0688018798828125
1761838437728915500,6.34891552734375,-0.9894561767578125,-0.0183258056640625,-0.07171630859375
1761838437738984400,6.358984375,-0.9902801513671875,-0.019805908203125,-0.07501220703125
1761838437749054500,6.369054443359375,-0.992523193359375,-0.0189361572265625,-0.07757568359375
1761838437759123200,6.379123291015625,-0.995452880859375,-0.0172576904296875,-0.081146240234375
1761838437769192400,6.3891923828125,-0.995697021484375,-0.01641845703125,-0.0838775634765625
1761838437779262200,6.39926220703125,-0.99920654296875,-0.0175018310546875,-0.0841217041015625
1761838437789331500,6.40933154296875,-1.0001220703125,-0.01763916015625,-0.0843353271484375
1761838437799401500,6.4194013671875,-1,-0.0182647705078125,-0.08392333984375
1761838437809471000,6.429470947265625,-1.0023345947265625,-0.021026611328125,-0.08258056640625
1761838437819541000,6.439541015625,-1.002227783203125,-0.02069091796875,-0.079132080078125
1761838437829610000,6.44960986328125,-1.0017547607421875,-0.021636962890625,-0.0760345458984375
1761838437839680000,6.459679931640625,-1.0001983642578125,-0.0237274169921875,-0.0734710693359375
1761838437849749000,6.4697490234375,-0.99957275390625,-0.024139404296875,-0.070343017578125
1761838437859819000,6.479819091796875,-0.9980316162109375,-0.0229644775390625,-0.06768798828125
1761838437869888000,6.489887939453125,-0.99542236328125,-0.0219573974609375,-0.0651092529296875
1761838437879958000,6.4999580078125,-0.99346923828125,-0.0210723876953125,-0.0635223388671875
1761838437890027000,6.510027099609375,-0.991363525390625,-0.0190887451171875,-0.0631103515625
1761838437900096800,6.5200966796875,-0.9916229248046875,-0.0167388916015625,-0.06494140625
1761838437910166000,6.530166015625,-0.995697021484375,-0.0168914794921875,-0.066192626953125
1761838437920236000,6.540236083984375,-1.0023345947265625,-0.0165863037109375,-0.06793212890625
1761838437930305000,6.550304931640625,-1.00689697265625,-0.014923095703125,-0.0725250244140625
1761838437940375000,6.560375,-1.009490966796875,-0.0131988525390625,-0.076568603515625
1761838437950444000,6.570444091796875,-1.00927734375,-0.012664794921875,-0.0810089111328125
1761838437960514000,6.58051416015625,-1.0066986083984375,-0.012176513671875,-0.0846405029296875
1761838437970583000,6.5905830078125,-1.002593994140625,-0.0105438232421875,-0.0880584716796875
1761838437980653000,6.600653076171875,-0.9985504150390625,-0.011749267578125,-0.0893096923828125
1761838437990722000,6.61072216796875,-0.996490478515625,-0.013519287109375,-0.0882568359375
1761838438000792000,6.6207919921875,-0.9947967529296875,-0.013824462890625,-0.0859222412109375
1761838438010860800,6.63086083984375,-0.9913787841796875,-0.0119171142578125,-0.0810546875
1761838438020931000,6.64093115234375,-0.991485595703125,-0.011627197265625,-0.075592041015625
1761838438030999800,6.650999755859375,-0.99395751953125,-0.0106048583984375,-0.07000732421875
1761838438041070000,6.661070068359375,-0.9951324462890625,-0.0125579833984375,-0.0669403076171875
1761838438051139000,6.67113916015625,-0.9975738525390625,-0.0132598876953125,-0.0641937255859375
1761838438061208000,6.6812080078125,-0.9988250732421875,-0.0115814208984375,-0.0638275146484375
1761838438071278000,6.691278076171875,-0.9983367919921875,-0.0117034912109375,-0.065338134765625
1761838438081347000,6.70134716796875,-0.9965362548828125,-0.01019287109375,-0.06787109375
1761838438091417000,6.7114169921875,-0.992645263671875,-0.0084686279296875,-0.06964111328125
1761838438101486000,6.721486083984375,-0.990631103515625,-0.0078125,-0.07000732421875
1761838438111556000,6.73155615234375,-0.99334716796875,-0.0075225830078125,-0.069427490234375
1761838438121624800,6.741624755859375,-0.9958038330078125,-0.008026123046875,-0.0688018798828125
1761838438131695000,6.751695068359375,-1.0006256103515625,-0.0087890625,-0.0694122314453125
1761838438141763800,6.761763916015625,-1.005157470703125,-0.009521484375,-0.0705108642578125
1761838438151834000,6.771834228515625,-1.0081787109375,-0.00775146484375,-0.07232666015625
1761838438161902800,6.78190283203125,-1.008819580078125,-0.0040283203125,-0.0770111083984375
1761838438171972900,6.791972900390625,-1.0070343017578125,-0.0035552978515625,-0.0760650634765625
1761838438182042000,6.8020419921875,-1.008056640625,-0.0022430419921875,-0.075225830078125
1761838438192111900,6.81211181640625,-1.006195068359375,-0.0008544921875,-0.075439453125
1761838438202181000,6.82218115234375,-1.002410888671875,-0.0027008056640625,-0.0763397216796875
1761838438212251000,6.8322509765625,-1.0006103515625,-0.003753662109375,-0.077301025390625
1761838438222320000,6.842320068359375,-0.995574951171875,-0.004669189453125,-0.0799713134765625
1761838438232390000,6.852389892578125,-0.9922027587890625,-0.001373291015625,-0.080902099609375
1761838438242459100,6.862459228515625,-0.989501953125,-0.000457763671875,-0.080047607421875
1761838438252529000,6.87252880859375,-0.9878997802734375,-0.002655029296875,-0.076629638671875
1761838438262598100,6.88259814453125,-0.9877471923828125,-0.002593994140625,-0.070037841796875
1761838438272668000,6.89266796875,-0.9919891357421875,-0.0041656494140625,-0.0653839111328125
1761838438282737000,6.90273681640625,-0.996185302734375,-0.0072021484375,-0.0619659423828125
1761838438292807200,6.91280712890625,-1.00091552734375,-0.0083160400390625,-0.0619659423828125
1761838438302876000,6.9228759765625,-1.00262451171875,-0.0077972412109375,-0.0650634765625
1761838438312945000,6.93294482421875,-1.0011444091796875,-0.007904052734375,-0.069305419921875
1761838438323015000,6.943014892578125,-1.0008392333984375,-0.008514404296875,-0.0751953125
1761838438333084200,6.953084228515625,-0.998565673828125,-0.007965087890625,-0.077789306640625
1761838438343154000,6.96315380859375,-1.00091552734375,-0.0093536376953125,-0.0785980224609375
1761838438353223200,6.97322314453125,-1.0038604736328125,-0.011260986328125,-0.0767059326171875
1761838438363293000,6.98329296875,-1.0047454833984375,-0.0127105712890625,-0.07366943359375
1761838438373362200,6.993362060546875,-1.005859375,-0.0113372802734375,-0.072113037109375
1761838438383432000,7.003431884765625,-1.0021820068359375,-0.01318359375,-0.069793701171875
1761838438393501000,7.0135009765625,-0.99853515625,-0.014404296875,-0.067474365234375
1761838438403571000,7.023571044921875,-0.9952545166015625,-0.013671875,-0.06500244140625
1761838438413640000,7.033639892578125,-0.9928131103515625,-0.014678955078125,-0.060943603515625
1761838438423710200,7.043710205078125,-0.9950408935546875,-0.0123748779296875,-0.059417724609375
1761838438433779000,7.053779052734375,-0.9985504150390625,-0.01165771484375,-0.060333251953125
1761838438443849000,7.063848876953125,-1.0001983642578125,-0.011627197265625,-0.0618133544921875
1761838438453918000,7.07391796875,-1.0014801025390625,-0.0115814208984375,-0.0665283203125
1761838438463988000,7.083988037109375,-1.0013275146484375,-0.012115478515625,-0.0695343017578125
1761838438474057000,7.094056884765625,-1.0021820068359375,-0.0135498046875,-0.0714111328125
1761838438484126200,7.104126220703125,-1.00103759765625,-0.0114288330078125,-0.072784423828125
1761838438494196000,7.114196044921875,-1.0010223388671875,-0.011566162109375,-0.070220947265625
1761838438504265000,7.124264892578125,-1.0018463134765625,-0.0134429931640625,-0.068572998046875
1761838438514335000,7.1343349609375,-1.0045623779296875,-0.0143890380859375,-0.06842041015625
1761838438524404000,7.144404052734375,-1.004180908203125,-0.0154876708984375,-0.0662994384765625
1761838438534474000,7.154473876953125,-1.0013580322265625,-0.01702880859375,-0.062652587890625
1761838438544543000,7.16454296875,-1.000762939453125,-0.0168914794921875,-0.0589599609375
1761838438554613000,7.174613037109375,-0.9996337890625,-0.0173492431640625,-0.056732177734375
1761838438564682000,7.184681884765625,-0.9983367919921875,-0.0174560546875,-0.0570831298828125
1761838438574752000,7.194751953125,-0.9998779296875,-0.0165863037109375,-0.0608062744140625
1761838438584821000,7.204821044921875,-0.998382568359375,-0.0140228271484375,-0.0647125244140625
1761838438594891000,7.21489111328125,-0.9968719482421875,-0.0124664306640625,-0.068206787109375
1761838438604960000,7.2249599609375,-0.994873046875,-0.011383056640625,-0.07073974609375
1761838438615030000,7.235030029296875,-0.992919921875,-0.0105743408203125,-0.0702362060546875
1761838438625099000,7.24509912109375,-0.9929046630859375,-0.0117950439453125,-0.0670013427734375
1761838438635169000,7.2551689453125,-0.9940338134765625,-0.0136871337890625,-0.0640716552734375
1761838438645238000,7.265238037109375,-0.995513916015625,-0.0139617919921875,-0.063446044921875
1761838438655308000,7.27530810546875,-0.99755859375,-0.014129638671875,-0.063323974609375
1761838438665377000,7.285376953125,-0.9957275390625,-0.016021728515625,-0.0642242431640625
1761838438675446000,7.295446044921875,-0.9964141845703125,-0.015899658203125,-0.06488037109375
1761838438685516000,7.30551611328125,-0.9970855712890625,-0.0164337158203125,-0.0660858154296875
1761838438695585000,7.3155849609375,-0.99700927734375,-0.016021728515625,-0.0689697265625
1761838438705655000,7.325655029296875,-0.9958343505859375,-0.0159454345703125,-0.06781005859375
1761838438715724000,7.33572412109375,-0.994781494140625,-0.01751708984375,-0.0681304931640625
1761838438725794000,7.3457939453125,-0.996185302734375,-0.0177154541015625,-0.0685272216796875
1761838438735863000,7.355863037109375,-0.9990692138671875,-0.0176849365234375,-0.06494140625
1761838438745933000,7.36593310546875,-1.0059051513671875,-0.0183258056640625,-0.0621337890625
1761838438756002000,7.376001953125,-1.012420654296875,-0.020477294921875,-0.062347412109375
1761838438766072000,7.386072021484375,-1.0165557861328125,-0.0221405029296875,-0.0625
1761838438776141000,7.39614111328125,-1.0119781494140625,-0.0218353271484375,-0.0647430419921875
1761838438786211000,7.406211181640625,-1.00750732421875,-0.0224761962890625,-0.0660400390625
1761838438796279800,7.41627978515625,-0.9988861083984375,-0.022552490234375,-0.0652618408203125
1761838438806350300,7.426350341796875,-0.99432373046875,-0.0218658447265625,-0.0644989013671875
1761838438816419300,7.43641943359375,-0.992034912109375,-0.022064208984375,-0.06201171875
1761838438826488300,7.44648828125,-0.990997314453125,-0.022186279296875,-0.059783935546875
1761838438836558300,7.456558349609375,-0.9906005859375,-0.0222015380859375,-0.0575408935546875
1761838438846627300,7.46662744140625,-0.994140625,-0.0198974609375,-0.0578765869140625
1761838438856697300,7.476697265625,-0.996612548828125,-0.0176849365234375,-0.0593414306640625
1761838438866766300,7.486766357421875,-1.00067138671875,-0.016448974609375,-0.0637054443359375
1761838438876836400,7.49683642578125,-1.0023651123046875,-0.01434326171875,-0.0675506591796875
1761838438886905000,7.506905029296875,-1.0051116943359375,-0.0138092041015625,-0.0697174072265625
1761838438896975400,7.516975341796875,-1.0064544677734375,-0.01458740234375,-0.0667877197265625
1761838438907044400,7.52704443359375,-1.0065460205078125,-0.01556396484375,-0.0639190673828125
1761838438917114400,7.5371142578125,-1.0047454833984375,-0.0173797607421875,-0.0644378662109375
1761838438927183400,7.547183349609375,-1.004638671875,-0.019134521484375,-0.06622314453125
1761838438937253000,7.557253173828125,-1.0013427734375,-0.0202178955078125,-0.065277099609375
1761838438947322400,7.567322265625,-0.9994354248046875,-0.0210418701171875,-0.0648345947265625
1761838438957391400,7.577391357421875,-0.9951324462890625,-0.0242767333984375,-0.0635986328125
1761838438967461400,7.58746142578125,-0.9911346435546875,-0.026336669921875,-0.0631866455078125
1761838438977530400,7.5975302734375,-0.9905548095703125,-0.02642822265625,-0.065338134765625
1761838438987600400,7.607600341796875,-0.99346923828125,-0.02862548828125,-0.062652587890625
1761838438997669000,7.617669189453125,-0.9975128173828125,-0.0296783447265625,-0.059844970703125
1761838439007739400,7.627739501953125,-0.9985504150390625,-0.0293731689453125,-0.06231689453125
1761838439017808100,7.63780810546875,-1.00732421875,-0.030487060546875,-0.063751220703125
1761838439027878400,7.64787841796875,-1.0082855224609375,-0.030059814453125,-0.0626068115234375
1761838439037947100,7.657947021484375,-1.007598876953125,-0.028778076171875,-0.0641632080078125
1761838439048017200,7.66801708984375,-1.00531005859375,-0.026885986328125,-0.0646820068359375
1761838439058086400,7.67808642578125,-0.999267578125,-0.02679443359375,-0.06695556640625
1761838439068156200,7.68815625,-1.0001678466796875,-0.02728271484375,-0.066864013671875
1761838439078225400,7.698225341796875,-0.998046875,-0.029205322265625,-0.0660247802734375
1761838439088294100,7.708294189453125,-0.9980316162109375,-0.030670166015625,-0.066375732421875
1761838439098364400,7.718364501953125,-0.9983978271484375,-0.0314788818359375,-0.0684814453125
1761838439108433200,7.72843310546875,-0.99609375,-0.0314788818359375,-0.0686187744140625
1761838439118503400,7.73850341796875,-0.994049072265625,-0.031158447265625,-0.0684356689453125
1761838439128572200,7.748572265625,-0.993743896484375,-0.03021240234375,-0.06719970703125
1761838439138642400,7.758642333984375,-0.9936981201171875,-0.0293121337890625,-0.06451416015625
1761838439148711200,7.768711181640625,-0.993377685546875,-0.0285491943359375,-0.06243896484375
1761838439158781200,7.77878125,-0.9955291748046875,-0.0298614501953125,-0.0631561279296875
1761838439168850200,7.78885009765625,-0.997833251953125,-0.0285186767578125,-0.0651092529296875
1761838439178920200,7.798920166015625,-1.0019989013671875,-0.027862548828125,-0.0680999755859375
1761838439188989400,7.808989501953125,-1.0058135986328125,-0.0279998779296875,-0.0704803466796875
1761838439199059200,7.81905908203125,-1.004730224609375,-0.02899169921875,-0.0751953125
1761838439209128400,7.82912841796875,-1.005462646484375,-0.0292816162109375,-0.08154296875
1761838439219197200,7.839197265625,-1.00433349609375,-0.029510498046875,-0.087188720703125
1761838439229267500,7.849267333984375,-1.0059661865234375,-0.0291595458984375,-0.0874176025390625
1761838439239336200,7.859336181640625,-1.0038909912109375,-0.0277252197265625,-0.0850067138671875
1761838439249406500,7.869406494140625,-0.9984893798828125,-0.028289794921875,-0.0869293212890625
1761838439259475200,7.87947509765625,-0.9935455322265625,-0.030029296875,-0.0860137939453125
1761838439269545200,7.889545166015625,-0.987945556640625,-0.0332489013671875,-0.0858306884765625
1761838439279614200,7.8996142578125,-0.9816131591796875,-0.035736083984375,-0.086944580078125
1761838439289684200,7.909684326171875,-0.9805450439453125,-0.0379486083984375,-0.084716796875
1761838439299753200,7.919753173828125,-0.9851531982421875,-0.0391845703125,-0.0799713134765625
1761838439309823200,7.9298232421875,-0.98468017578125,-0.037994384765625,-0.075164794921875
1761838439319892500,7.939892578125,-0.99078369140625,-0.037200927734375,-0.0748443603515625
1761838439329961200,7.949961181640625,-0.9937286376953125,-0.035888671875,-0.075531005859375
1761838439340031500,7.960031494140625,-0.99658203125,-0.0361328125,-0.0755462646484375
1761838439350100200,7.970100341796875,-0.9976806640625,-0.0348358154296875,-0.075653076171875
1761838439360170200,7.980170166015625,-1.0010223388671875,-0.0327606201171875,-0.071380615234375
1761838439370239200,7.9902392578125,-0.999847412109375,-0.0340728759765625,-0.0696563720703125
1761838439380309200,8.000309326171875,-0.9964447021484375,-0.0357208251953125,-0.0655059814453125
1761838439390377200,8.010377197265624,-0.990631103515625,-0.0365142822265625,-0.059600830078125
1761838439400446200,8.0204462890625,-0.9913482666015625,-0.037322998046875,-0.0570220947265625
1761838439410516200,8.03051611328125,-0.9935150146484375,-0.041259765625,-0.0570526123046875
1761838439420585500,8.04058544921875,-0.9862823486328125,-0.041259765625,-0.06072998046875
1761838439430655200,8.0506552734375,-0.9918670654296875,-0.0415496826171875,-0.064727783203125
1761838439440724500,8.060724365234375,-0.9878997802734375,-0.04095458984375,-0.068359375
1761838439450794200,8.070794189453125,-0.9795379638671875,-0.03753662109375,-0.07330322265625
1761838439460863200,8.08086328125,-0.9928436279296875,-0.0395355224609375,-0.0791778564453125
1761838439470932200,8.09093212890625,-0.993499755859375,-0.03997802734375,-0.084747314453125
1761838439481002200,8.101002197265625,-1.0142822265625,-0.05938720703125,-0.091033935546875
1761838439491071200,8.1110712890625,-1.044525146484375,-0.0933837890625,-0.0912322998046875
1761838439501141200,8.121141357421875,-1.004913330078125,-0.038299560546875,-0.0802154541015625
1761838439511210200,8.131210205078125,-0.998382568359375,-0.0111083984375,-0.088653564453125
1761838439521280300,8.1412802734375,-0.9976806640625,-0.014404296875,-0.09521484375
1761838439531349200,8.151349365234376,-0.9899444580078125,-0.0181884765625,-0.1076202392578125
1761838439541419300,8.161419189453126,-0.974456787109375,-0.003082275390625,-0.115264892578125
1761838439551488500,8.171488525390625,-0.968841552734375,-0.0035400390625,-0.118499755859375
1761838439561557200,8.18155712890625,-0.9930419921875,-0.0189056396484375,-0.114654541015625
1761838439571627300,8.191627197265625,-0.9992523193359375,-0.0396728515625,-0.10821533203125
1761838439581696300,8.2016962890625,-0.998504638671875,-0.0422515869140625,-0.0952911376953125
1761838439591766300,8.211766357421874,-1.00531005859375,-0.038330078125,-0.07666015625
1761838439601835300,8.221835205078126,-1.009307861328125,-0.0434722900390625,-0.0581817626953125
1761838439611905300,8.2319052734375,-1.0103607177734375,-0.04888916015625,-0.04541015625
1761838439621974300,8.241974365234375,-1.0065155029296875,-0.0493927001953125,-0.0400848388671875
1761838439632044300,8.252044189453125,-1.0005340576171875,-0.0511322021484375,-0.0390167236328125
1761838439642113300,8.26211328125,-0.9912567138671875,-0.0510406494140625,-0.038055419921875
1761838439652183300,8.272183349609374,-0.99078369140625,-0.045623779296875,-0.03472900390625
1761838439662252300,8.282252197265626,-0.9983673095703125,-0.050628662109375,-0.02880859375
1761838439672321300,8.2923212890625,-1.00860595703125,-0.060455322265625,-0.025238037109375
1761838439682391300,8.302391357421875,-1.007904052734375,-0.0640716552734375,-0.026458740234375
1761838439692460300,8.312460205078125,-1.0055694580078125,-0.06414794921875,-0.0299224853515625
1761838439702530300,8.3225302734375,-1.0080108642578125,-0.0705108642578125,-0.0345916748046875
1761838439712599300,8.332599365234374,-0.998992919921875,-0.072052001953125,-0.03961181640625
1761838439722669300,8.34266943359375,-0.9907684326171875,-0.0657958984375,-0.0473785400390625
1761838439732738300,8.35273828125,-0.990142822265625,-0.0653839111328125,-0.050872802734375
1761838439742808300,8.362808349609375,-0.9945831298828125,-0.0641021728515625,-0.049163818359375
1761838439752877300,8.372877197265625,-1.003662109375,-0.0681610107421875,-0.046844482421875
1761838439762946300,8.3829462890625,-1.00860595703125,-0.0733184814453125,-0.0450439453125
1761838439773016300,8.393016357421875,-1.0182342529296875,-0.0699615478515625,-0.0457916259765625
1761838439783085300,8.403085205078124,-1.0169677734375,-0.06182861328125,-0.0484771728515625
1761838439793155000,8.413155029296876,-1.0115814208984375,-0.0563201904296875,-0.049041748046875
1761838439803224300,8.423224365234375,-1.014892578125,-0.0603790283203125,-0.0528106689453125
1761838439813294600,8.433294677734375,-1.0145111083984375,-0.070098876953125,-0.0528411865234375
1761838439823363800,8.44336376953125,-1.0065765380859375,-0.07012939453125,-0.05621337890625
1761838439833433600,8.45343359375,-1.0022125244140625,-0.063079833984375,-0.0556793212890625
1761838439843502800,8.4635029296875,-0.99481201171875,-0.0627899169921875,-0.0513458251953125
1761838439853571600,8.473571533203126,-0.983489990234375,-0.0683746337890625,-0.044586181640625
1761838439863641900,8.483641845703126,-0.98419189453125,-0.070159912109375,-0.0372314453125
1761838439873710600,8.493710693359375,-0.98046875,-0.0732269287109375,-0.0323638916015625
1761838439883780600,8.503780517578125,-0.980255126953125,-0.0736236572265625,-0.03265380859375
1761838439893849600,8.513849609375,-0.979400634765625,-0.0701141357421875,-0.03955078125
1761838439903919600,8.523919677734375,-0.9796142578125,-0.065643310546875,-0.046875
1761838439913988600,8.533988525390624,-0.98480224609375,-0.0633697509765625,-0.0543212890625
1761838439924058600,8.54405859375,-0.9882965087890625,-0.0657196044921875,-0.061309814453125
1761838439934127600,8.554127685546876,-0.99072265625,-0.0645904541015625,-0.0669403076171875
1761838439944196600,8.564196533203125,-0.9934539794921875,-0.0626373291015625,-0.072479248046875
1761838439954267000,8.574266845703125,-0.995330810546875,-0.0601043701171875,-0.077972412109375
1761838439964335600,8.584335693359375,-0.995147705078125,-0.055145263671875,-0.0831756591796875
1761838439974406000,8.594406005859375,-0.9952239990234375,-0.0511932373046875,-0.086395263671875
1761838439984476700,8.6044765625,-0.9954833984375,-0.0497283935546875,-0.0893402099609375
1761838439994545700,8.614545654296874,-0.9978790283203125,-0.0494232177734375,-0.091796875
1761838440004614700,8.62461474609375,-0.9995574951171875,-0.0489044189453125,-0.095794677734375
1761838440014684700,8.6346845703125,-0.99993896484375,-0.046234130859375,-0.098724365234375
1761838440024753700,8.644753662109375,-1.000579833984375,-0.0415496826171875,-0.102813720703125
1761838440034823700,8.65482373046875,-1.0010223388671875,-0.0395050048828125,-0.105316162109375
1761838440044892700,8.664892578125,-0.9979705810546875,-0.03997802734375,-0.109893798828125
1761838440054962700,8.674962646484374,-0.994110107421875,-0.0411529541015625,-0.1110687255859375
1761838440065031700,8.68503173828125,-0.993408203125,-0.044219970703125,-0.1087188720703125
1761838440075101700,8.695101806640626,-0.9955902099609375,-0.0453338623046875,-0.1011505126953125
1761838440085170700,8.705170654296875,-0.9969940185546875,-0.0474090576171875,-0.092132568359375
1761838440095239700,8.71523974609375,-0.99285888671875,-0.050689697265625,-0.0856170654296875
1761838440105309700,8.725309814453125,-0.9897003173828125,-0.0553436279296875,-0.0777435302734375
1761838440115378700,8.735378662109374,-0.983489990234375,-0.059814453125,-0.071746826171875
1761838440125448700,8.74544873046875,-0.9776458740234375,-0.0605621337890625,-0.0678558349609375
1761838440135517700,8.755517578125,-0.968505859375,-0.061187744140625,-0.063690185546875
1761838440145587700,8.765587646484375,-0.962188720703125,-0.0608367919921875,-0.0609588623046875
1761838440155656700,8.77565673828125,-0.96380615234375,-0.0618743896484375,-0.0588226318359375
1761838440165725700,8.7857255859375,-0.9720611572265625,-0.0632781982421875,-0.058197021484375
1761838440175795500,8.79579541015625,-0.9826202392578125,-0.0595550537109375,-0.0603485107421875
1761838440185864700,8.80586474609375,-0.9909210205078125,-0.053955078125,-0.06451416015625
1761838440195934700,8.815934814453126,-0.9993896484375,-0.04827880859375,-0.0724639892578125
1761838440206003700,8.826003662109375,-1.010040283203125,-0.04437255859375,-0.0798492431640625
1761838440216073700,8.83607373046875,-1.01824951171875,-0.0460052490234375,-0.090087890625
1761838440226142700,8.846142822265625,-1.0203857421875,-0.0522613525390625,-0.0984954833984375
1761838440236212700,8.856212646484375,-1.00848388671875,-0.0318145751953125,-0.0990447998046875
1761838440246281700,8.86628173828125,-1.00482177734375,-0.0193328857421875,-0.0982208251953125
1761838440256350700,8.876350830078126,-1.0008544921875,-0.0121307373046875,-0.098419189453125
1761838440266420500,8.88642041015625,-1.00970458984375,-0.0259246826171875,-0.100067138671875
1761838440276489700,8.89648974609375,-1.0080108642578125,-0.0397796630859375,-0.100494384765625
1761838440286559500,8.9065595703125,-1.0060577392578125,-0.039215087890625,-0.0992279052734375
1761838440296628700,8.916628662109375,-1.0046844482421875,-0.0389556884765625,-0.100433349609375
1761838440306698500,8.926698486328124,-1.0020904541015625,-0.0400848388671875,-0.10064697265625
1761838440316767700,8.936767822265624,-1.0053863525390625,-0.0424346923828125,-0.0957183837890625
1761838440326836500,8.94683642578125,-1.0055999755859375,-0.043060302734375,-0.0900421142578125
1761838440336906800,8.95690673828125,-1.0062255859375,-0.043670654296875,-0.0811920166015625
1761838440346975500,8.9669755859375,-1.005706787109375,-0.0452423095703125,-0.0745849609375
1761838440357045800,8.977045654296875,-1.004913330078125,-0.0498809814453125,-0.070648193359375
1761838440367114800,8.98711474609375,-0.9993896484375,-0.048431396484375,-0.069244384765625
1761838440377184500,8.9971845703125,-0.998291015625,-0.0579376220703125,-0.0700836181640625
1761838440387253800,9.007253662109376,-0.9813690185546875,-0.0429840087890625,-0.0683746337890625
1761838440397322800,9.01732275390625,-0.98016357421875,-0.038909912109375,-0.0668792724609375
1761838440407392800,9.027392822265625,-0.9833221435546875,-0.0524444580078125,-0.0641937255859375
1761838440417461800,9.037461669921875,-0.984527587890625,-0.048736572265625,-0.0647430419921875
1761838440427531800,9.04753173828125,-0.9898834228515625,-0.047515869140625,-0.0691070556640625
1761838440437600500,9.0576005859375,-1.0025482177734375,-0.048309326171875,-0.075347900390625
1761838440447670800,9.0676708984375,-1.0035552978515625,-0.042755126953125,-0.0810394287109375
1761838440457739500,9.077739501953126,-0.998809814453125,-0.029632568359375,-0.084136962890625
1761838440467809800,9.087809814453125,-0.989654541015625,-0.0204620361328125,-0.09326171875
1761838440477878500,9.09787841796875,-0.9869384765625,-0.013031005859375,-0.1038360595703125
1761838440487947800,9.10794775390625,-0.993194580078125,-0.0078887939453125,-0.110382080078125
1761838440498017800,9.118017822265625,-1.0002288818359375,-0.0081024169921875,-0.111724853515625
1761838440508086800,9.128086669921874,-1.006011962890625,-0.0115814208984375,-0.1121673583984375
1761838440518156800,9.13815673828125,-1.0107269287109375,-0.021881103515625,-0.113433837890625
1761838440528225500,9.1482255859375,-1.0074462890625,-0.01055908203125,-0.1191558837890625
1761838440538294500,9.15829443359375,-0.9954376220703125,-0.0022125244140625,-0.126312255859375
1761838440548364500,9.168364501953125,-0.988677978515625,-0.0051727294921875,-0.1284027099609375
1761838440558433800,9.178433837890625,-0.993743896484375,-0.0034942626953125,-0.1249542236328125
1761838440568503600,9.188503662109374,-0.9962158203125,0.002716064453125,-0.1272125244140625
1761838440578572800,9.19857275390625,-0.9840545654296875,-0.00146484375,-0.1285858154296875
1761838440588642600,9.208642578125,-0.9786376953125,-0.00372314453125,-0.131317138671875
1761838440598711800,9.2187119140625,-0.9854583740234375,-0.003326416015625,-0.12921142578125
1761838440608781600,9.228781494140625,-0.9972991943359375,-0.001953125,-0.1192779541015625
1761838440618850800,9.238850830078125,-1.0019989013671875,-0.0211639404296875,-0.1051025390625
1761838440628919600,9.24891943359375,-1.0100250244140625,-0.0198211669921875,-0.096405029296875
1761838440638989600,9.258989501953126,-1.00921630859375,-0.0138702392578125,-0.0922393798828125
1761838440649058600,9.26905859375,-1.0058746337890625,-0.0367431640625,-0.0866546630859375
1761838440659128600,9.279128662109375,-1.0101318359375,-0.0240020751953125,-0.08990478515625
1761838440669197600,9.289197509765625,-0.9947509765625,-0.0247039794921875,-0.086639404296875
1761838440679267600,9.299267578125,-0.9877471923828125,-0.037445068359375,-0.07891845703125
1761838440689336800,9.3093369140625,-1.0070953369140625,-0.0426025390625,-0.069061279296875
1761838440699405600,9.319405517578126,-1.011688232421875,-0.0483245849609375,-0.0633697509765625
1761838440709475800,9.329475830078126,-1.010498046875,-0.0486602783203125,-0.05926513671875
1761838440719544600,9.339544677734375,-1.017059326171875,-0.0534820556640625,-0.0565185546875
1761838440729614800,9.34961474609375,-1.021759033203125,-0.0443267822265625,-0.05364990234375
1761838440739683600,9.35968359375,-1.0341033935546875,-0.0499420166015625,-0.0509185791015625
1761838440749753600,9.369753662109375,-1.0347747802734375,-0.063079833984375,-0.0552978515625
1761838440759822600,9.379822509765624,-1.01239013671875,-0.0631103515625,-0.063507080078125
1761838440769891800,9.389891845703126,-0.97698974609375,-0.0601959228515625,-0.0755615234375
1761838440779961600,9.399961669921876,-0.957244873046875,-0.0725250244140625,-0.0877685546875
1761838440790030600,9.410030517578125,-0.9680328369140625,-0.0454864501953125,-0.1032867431640625
1761838440800100600,9.4201005859375,-0.9546356201171875,-0.01727294921875,-0.1120758056640625
1761838440810168300,9.430168212890624,-0.92449951171875,-0.0453033447265625,-0.1179962158203125
1761838440820238300,9.44023828125,-0.9349212646484375,-0.0334014892578125,-0.1213531494140625
1761838440830307300,9.450307373046876,-0.9544677734375,-0.0575408935546875,-0.1139678955078125
1761838440840376300,9.460376220703125,-0.99371337890625,-0.0063323974609375,-0.112030029296875
1761838440850446300,9.4704462890625,-0.9662628173828125,-0.0192413330078125,-0.1067047119140625
1761838440860515300,9.480515380859375,-0.9602813720703125,-0.037261962890625,-0.11285400390625
1761838440870585000,9.490585205078125,-0.98895263671875,-0.0304412841796875,-0.1119232177734375
1761838440880654300,9.500654296875,-1.0078277587890625,-0.033477783203125,-0.0975189208984375
1761838440890723300,9.510723388671876,-1.0178680419921875,-0.0326080322265625,-0.0880126953125
1761838440900793300,9.52079345703125,-1.017669677734375,-0.0314178466796875,-0.0867767333984375
1761838440910862000,9.530862060546875,-1.0209808349609375,-0.0301513671875,-0.0957183837890625
1761838440920932400,9.540932373046875,-1.0305023193359375,-0.032012939453125,-0.101226806640625
1761838440931001000,9.5510009765625,-1.033294677734375,-0.0338287353515625,-0.1000823974609375
1761838440941071400,9.5610712890625,-1.0252685546875,-0.02130126953125,-0.10699462890625
1761838440951140400,9.571140380859376,-1.0114593505859375,-0.0483551025390625,-0.1068572998046875
1761838440961209300,9.581209228515625,-1.0189361572265625,-0.0696868896484375,-0.1056060791015625
1761838440971279400,9.591279296875,-1.033447265625,-0.0089569091796875,-0.10601806640625
1761838440981348400,9.601348388671875,-0.9881439208984375,-0.01531982421875,-0.1077728271484375
1761838440991418400,9.61141845703125,-0.958709716796875,-0.0105133056640625,-0.11065673828125
1761838441001487400,9.6214873046875,-0.94989013671875,0.0123138427734375,-0.1145172119140625
1761838441011557400,9.631557373046874,-0.9595947265625,-0.0310516357421875,-0.1123199462890625
1761838441021626000,9.641626220703126,-0.9955291748046875,-0.0525970458984375,-0.108734130859375
1761838441031695400,9.6516953125,-0.9876861572265625,-0.0567474365234375,-0.101531982421875
1761838441041765000,9.66176513671875,-0.985931396484375,-0.0483551025390625,-0.0901336669921875
1761838441051834400,9.67183447265625,-0.9946746826171875,-0.045379638671875,-0.0904541015625
1761838441061904100,9.681904052734374,-0.994903564453125,-0.051849365234375,-0.0957489013671875
1761838441071973400,9.691973388671874,-0.9931182861328125,-0.0435791015625,-0.0964202880859375
1761838441082043400,9.70204345703125,-0.990997314453125,-0.03369140625,-0.0865936279296875
1761838441092112400,9.7121123046875,-1.0028533935546875,-0.0249786376953125,-0.07220458984375
1761838441102181000,9.72218115234375,-1.0009307861328125,-0.020599365234375,-0.072357177734375
1761838441112251400,9.73225146484375,-0.9850921630859375,-0.0263824462890625,-0.08526611328125
1761838441122320100,9.742320068359374,-0.97705078125,-0.0312042236328125,-0.099853515625
1761838441132390100,9.75239013671875,-0.967864990234375,-0.0277862548828125,-0.103240966796875
1761838441142459400,9.76245947265625,-0.965240478515625,-0.016632080078125,-0.0959930419921875
1761838441152528400,9.7725283203125,-1.0002899169921875,-0.0211334228515625,-0.0925140380859375
1761838441162598400,9.782598388671875,-1.0113983154296875,-0.024627685546875,-0.097747802734375
1761838441172667400,9.79266748046875,-0.9987335205078125,-0.0384674072265625,-0.1066741943359375
1761838441182737400,9.8027373046875,-0.9814453125,-0.039947509765625,-0.1114349365234375
1761838441192806100,9.81280615234375,-0.9722442626953125,-0.0365447998046875,-0.106048583984375
1761838441202876400,9.82287646484375,-0.976593017578125,-0.0450592041015625,-0.0959014892578125
1761838441212945200,9.832945068359376,-0.9842529296875,-0.04998779296875,-0.08355712890625
1761838441223014400,9.843014404296875,-0.995849609375,-0.0529327392578125,-0.0710906982421875
1761838441233084200,9.853084228515625,-1.0183868408203125,-0.040618896484375,-0.0610504150390625
1761838441243153400,9.8631533203125,-1.0103302001953125,-0.0190582275390625,-0.0601348876953125
