time,seconds_elapsed,z,y,x
1761838431458134800,0.078134765625,-0.00921907924413681,-0.03727225749157369,-0.05020831143222749
1761838431468203800,0.088203857421875,-0.08447159636616706,-0.04166230914406478,-0.019505568524077532
1761838431478273800,0.098273681640625,-0.09269055865705013,-0.05004406078122556,0.02338460191451013
1761838431488342800,0.1083427734375,-0.06863923646211624,-0.026561405319720507,0.05579780200235545
1761838431498412800,0.118412841796875,-0.1463438229113817,-0.019572934671863912,0.05701243848912418
1761838431508482000,0.12848193359375,-0.17029694542884827,-0.007974047619104386,0.04068045849986374
1761838431518550800,0.13855078125,-0.07794950112104415,-0.02734576063044369,0.02969458877891302
1761838431528621000,0.14862109375,-0.016541384956240652,-0.031695772533491255,0.0315651318911463
1761838431538689800,0.158689697265625,-0.33062253194153307,-0.12096110598221421,0.026030732509121298
1761838431548760000,0.168760009765625,-0.26834464720487594,-0.1374745069529861,0.03844247031472623
1761838431558828800,0.178828857421875,-0.25998656870424747,0.026186434527486563,0.08392389935553074
1761838431568898800,0.18889892578125,-0.3110819651693105,0.0573278611138463,0.08137538391649722
1761838431578967800,0.1989677734375,-0.271985049533844,0.012566197714954614,0.013209756315499543
1761838431589037800,0.209037841796875,-0.16341244661211968,-0.0149511931553483,-0.01857581339329481
1761838431599106800,0.21910693359375,-0.0703968937844038,-0.02247990815974772,-0.028175489452853798
1761838431609176800,0.2291767578125,0.03397708840370178,-0.04890877314098179,-0.010553104326874016
1761838431619245800,0.239245849609375,0.104063601064682,-0.053697834048420184,0.03462042780853808
1761838431629315800,0.24931591796875,0.13688684325814246,-0.05185344829075038,0.06803352565392852
1761838431639385000,0.259385009765625,0.12750994310379027,-0.022611279454454777,0.10901420920938253
1761838431649454800,0.269454833984375,0.13366671216785908,0.005643851105868816,0.11678842340745031
1761838431659523800,0.27952392578125,0.18719371969401835,0.006426891242340207,0.08901866521127522
1761838431669593900,0.28959375,0.22287761201560496,-0.009213964677602052,0.04433160141855478
1761838431679662800,0.299662841796875,0.18004735507071018,-0.0008075900558382272,-0.011639876650273799
1761838431689732900,0.30973291015625,0.08658698108494281,-0.006398103539273142,-0.0517813329026103
1761838431699801900,0.3198017578125,-0.06904431013166903,0.05471519439741969,-0.015360650739073752
1761838431709871900,0.329871826171875,-0.17305588874816893,0.2043006295785308,0.028687384497746823
1761838431719940900,0.33994091796875,-0.23081191214621066,0.37993155644647775,0.06434921111799777
1761838431730011000,0.350010986328125,-0.3318020971149206,0.24501659778319299,0.14489355103783308
1761838431740079900,0.360079833984375,-0.3029541882932186,0.07604111021645367,0.14317447216026485
1761838431750150000,0.37014990234375,-0.3251397166162729,-0.09697809978313743,0.24651501964740455
1761838431760219000,0.380218994140625,-0.3383107483565807,0.07068835101164878,0.013978548730909824
1761838431770289000,0.390288818359375,-0.08980828121900558,0.08320011512562632,-0.0006809680014848708
1761838431780358000,0.40035791015625,0.08428396483957767,0.06593428835235536,-0.004968728323280811
1761838431790427000,0.410427001953125,0.17021394332051276,0.07209785248339176,-0.10381415634825825
1761838431800493300,0.420493408203125,0.15425532668828965,0.08853804208748042,-0.1830152649655938
1761838431810562000,0.43056201171875,0.15616963587701319,0.12682787912376225,-0.2524487936105579
1761838431820632300,0.44063232421875,0.21497546058893202,0.17642068900614977,-0.28540150740258396
1761838431830701300,0.450701416015625,0.21720482707619665,0.22735329612493513,-0.30118191792368887
1761838431840771000,0.46077099609375,0.14154606724083424,0.27814780994728205,-0.3599371814921498
1761838431850840300,0.47084033203125,0.11834463987350463,0.02725077582336962,-0.3485975298974663
1761838431860910000,0.48091015625,0.24158289700746535,-0.17534779907763004,-0.2165954630061984
1761838431870979300,0.490979248046875,0.19753625001013278,-0.2652842367209494,0.020787498093396424
1761838431881049000,0.501049072265625,-0.19935002143383024,-0.2773657196588814,0.11041896144077182
1761838431891118300,0.511118408203125,-0.6731541128635407,-0.0889781140051782,0.08378500234149396
1761838431901188000,0.52118798828125,-0.9036024523943662,0.10521744727492331,0.031015242923423645
1761838431911257300,0.53125732421875,-0.8982184212684631,0.13804193157739936,-0.058402723803743714
1761838431921327400,0.541327392578125,-0.7895552174538374,0.12970190019011496,-0.1377146723844111
1761838431931396400,0.551396240234375,-0.6838280670911073,0.20187150273546575,-0.1693366490293294
1761838431941466400,0.56146630859375,-0.5620645586848259,0.30905944636575877,-0.1313762631431222
1761838431951535000,0.57153515625,-0.4973772747188806,0.37104192835241556,-0.07152465570531785
1761838431961605400,0.58160546875,-0.3718552905619144,0.23878479072153566,-0.0926403628397733
1761838431971674000,0.591674072265625,-0.07541735229492187,0.07028488477729261,-0.1303245621331036
1761838431981744400,0.601744384765625,0.2687245864331722,0.003485065636783838,-0.13006086969561875
1761838431991813000,0.611813232421875,0.5009276606768369,0.10066153753623366,-0.16145663636922836
1761838432001883400,0.62188330078125,0.6760264534294604,0.061314957988634705,-0.21258447379916906
1761838432011952000,0.6319521484375,0.8915566252917051,0.2644097919739783,-0.22917298583276569
1761838432022022100,0.642022216796875,0.7546843950808048,0.5168232950754463,-0.27658077982626855
1761838432032091100,0.652091064453125,0.3131839058846235,0.4127180468261242,-0.3780450120475143
1761838432042161200,0.6621611328125,-0.37152737378180023,-0.011739099241048098,-0.2995334200643003
1761838432052230400,0.67223046875,-1.0090490322500467,-0.37790026981458064,-0.021536635960265994
1761838432062300200,0.682300048828125,-1.0194447540581226,-0.4155139611549675,0.32020496362783013
1761838432072369400,0.692369384765625,-0.5132902986437082,-0.1908861444711685,0.5896377713955938
1761838432082438100,0.702438232421875,-0.03155541421473026,0.019820991148799656,0.6360335388023406
1761838432092508400,0.71250830078125,0.24405834721028805,-0.0019084639698266981,0.5187097664091735
1761838432102577200,0.7225771484375,0.5155886387139559,-0.05045198399499058,0.41100532462410627
1761838432112647200,0.732647216796875,0.6377303327828645,-0.09909852600321173,0.3024049569126218
1761838432122716200,0.742716064453125,0.7525584889680147,-0.08004092044234275,0.251166498715058
1761838432132786200,0.7527861328125,0.7575801165223122,-0.012079729372262954,0.19994740280508994
1761838432142855200,0.762855224609375,0.6542723022609949,0.012019377487152814,0.20930267564952373
1761838432152925200,0.77292529296875,0.5285954198032617,-0.07470920402556658,0.2117280031003058
1761838432162994200,0.782994140625,0.5495131201475858,-0.19614596469551324,0.24544673282876608
1761838432173064200,0.793064208984375,0.5109790990918874,-0.3132891198247671,0.2824151850681752
1761838432183133400,0.803133544921875,0.4069663514316082,-0.28225758335366846,0.31206301209591325
1761838432193203200,0.813203125,0.40814942373633384,-0.2510226332649588,0.3040885260853916
1761838432203272400,0.8232724609375,0.5109025267243384,-0.19206731707975266,0.31883520964458584
1761838432213342200,0.83334228515625,0.4916536363750696,-0.1635369497746229,0.30962299853265285
1761838432223411200,0.8434111328125,0.3908066592693329,-0.044023558382689953,0.19127981996387242
1761838432233481200,0.853481201171875,0.30906828725934027,0.1794298076942563,0.07187697627432645
1761838432243550200,0.86355029296875,0.3823994809299707,0.15248203340545297,-0.05856171375773847
1761838432253620200,0.8736201171875,0.39697336520552634,-0.020053192469477652,-0.145507299022004
1761838432263689200,0.883689208984375,0.20495675539970395,-0.15336773019880057,-0.18517806902267037
1761838432273759500,0.893759521484375,0.0353226577937603,-0.14468480365797876,-0.1789754880554974
1761838432283828200,0.903828125,-0.021554829204082488,-0.035529140151292084,-0.15818908594064413
1761838432293898200,0.913898193359375,-0.13262626320421694,0.08325337968282401,-0.14398790743499992
1761838432303967200,0.92396728515625,-0.2506482469946146,0.1078974801391363,-0.16416911019831895
1761838432314037200,0.934037353515625,-0.2507031920522451,0.1087717056903988,-0.144910502172634
1761838432324106200,0.944106201171875,-0.02436813305914402,0.15936368267796933,-0.2139105347711593
1761838432334176300,0.95417626953125,-0.07816460517644881,0.1255037909131497,-0.2875507943909615
1761838432344245200,0.964245361328125,-0.28773323828577996,0.06350165437795222,-0.2460739248163998
1761838432354315300,0.974315185546875,-0.544165913900733,0.07054558154009283,-0.1356442958511412
1761838432364384300,0.98438427734375,-0.5250730908960104,0.06726297967284918,-0.02779401585459709
1761838432374454300,0.994454345703125,0.07865969521701335,0.028969562439993022,0.05479593148343265
1761838432384523300,1.004523193359375,0.10009528195559977,-0.0033729835644364355,0.05883855793774127
1761838432394593300,1.01459326171875,-0.08753449106812476,0.06311002471186221,0.06868804403990507
1761838432404662300,1.024662353515625,-0.19663199464678763,0.18914755717553197,0.06549173221662641
1761838432414732300,1.034732177734375,-0.12334697820544242,0.16046952502802014,0.047001770475879306
1761838432424801300,1.04480126953125,-0.16823124507069587,0.054062356511875985,-0.019993132845312355
1761838432434871300,1.054871337890625,0.039488545301556585,-0.048601095431298015,-0.07524046135805547
1761838432444940300,1.064940185546875,0.1915145055025816,-0.05561755006462335,-0.07835530544295907
1761838432455010000,1.075010009765625,0.04006546840667724,-0.034212504594773055,-0.048538770784810184
1761838432465079300,1.085079345703125,0.2805418654769659,-0.012591259090974926,-0.005090126213245094
1761838432475149000,1.095149169921875,0.14790098922550676,0.06304675021730363,0.03138962919376791
1761838432485218300,1.10521826171875,0.17092881359159945,0.04014810518883168,-0.013365166072919965
1761838432495288300,1.115288330078125,0.11004676712751388,0.060980830663442606,-0.11667882555313408
1761838432505357300,1.125357421875,0.03977028485238552,0.09478943063244223,-0.09903927009664475
1761838432515427300,1.13542724609375,-0.08871230267584324,0.07754179710298777,0.058224335029534995
1761838432525496300,1.145496337890625,-0.13465280059576035,-0.028852584996819496,0.27956406995337457
1761838432535566300,1.15556640625,-0.0775379977107048,-0.14187369176000356,0.40627332766614854
1761838432545635300,1.16563525390625,-0.5802221466660499,0.007527399830147624,0.3901271160399541
1761838432555705300,1.175705322265625,-0.9411059613585472,0.19100377950146794,0.3292039703804999
1761838432565774000,1.185774169921875,-0.8165227193564176,0.19507548591978846,0.17096267932858317
1761838432575844400,1.19584423828125,-0.6811404354423284,0.06481953204348682,-0.035110987804457545
1761838432585913000,1.2059130859375,-0.7649661351203918,0.03259593624360859,-0.18378577441405503
1761838432595983400,1.2159833984375,-0.5831541084647178,0.09562982697933911,-0.3257433450652286
1761838432606052000,1.226052001953125,-0.3037070524871349,0.14650084010399878,-0.40095710107944904
1761838432616122400,1.236122314453125,-0.06950199077129364,0.16410671248659492,-0.33258974036127326
1761838432626191000,1.246191162109375,0.019150106149911878,0.18100195238180458,-0.1497631298355758
1761838432636261000,1.25626123046875,0.07013035180270671,0.13041764724403618,0.018645042704604566
1761838432646330400,1.266330322265625,0.13877484896183012,0.007400923906266689,0.10870941757652908
1761838432656400100,1.276400146484375,0.16709376547336577,-0.05938581655696034,0.10151910421364009
1761838432666469400,1.286469482421875,0.24826632029414175,-0.016296470284461975,0.0346577276116237
1761838432676539100,1.2965390625,0.2746031230777502,0.03166698483042419,-0.04352945472281426
1761838432686608400,1.3066083984375,0.3414835331737995,0.08379077449515461,-0.07075710539892316
1761838432696677000,1.316677001953125,0.3877040170788765,0.12399791639484464,-0.04405683959778398
1761838432706747400,1.326747314453125,0.4671715215474367,0.04970350371524691,0.020544373519904912
1761838432716817200,1.336817138671875,0.4561819254994392,-0.023307664220780133,0.0785100576132536
1761838432726886400,1.346886474609375,0.23280454726815222,-0.08567987617738544,0.15224438872467724
1761838432736956400,1.356956298828125,0.17520751382410527,-0.0870082021716982,0.17395382396858183
1761838432747025200,1.367025146484375,0.35548049434423445,-0.14032485488280652,0.16846801296863703
1761838432757094100,1.37709423828125,0.4381581930309534,-0.16862886608615515,0.18996818937603382
1761838432767164200,1.3871640625,0.36334465184807774,-0.08906323500536381,0.17359142039697617
1761838432777234400,1.397234375,0.44960956137180325,0.023310513764992356,0.10639021738134324
1761838432787303200,1.40730322265625,0.41114685198664663,0.037840047442168,0.005782127065397799
1761838432797373000,1.417373046875,0.27726737385094163,0.000026668811216950415,-0.030245098801143466
1761838432807443000,1.42744287109375,0.24312135862112044,-0.10008629493154585,-0.01708926462996751
1761838432817513000,1.437512939453125,0.20590777251422404,-0.1317309217996895,-0.019121902968734502
1761838432827582000,1.44758203125,0.14289572828412056,-0.07038103862814604,-0.0855829916741699
1761838432837652000,1.45765185546875,0.03959200567603111,0.010812668578512966,-0.12236903655137867
1761838432847721000,1.467720947265625,-0.09812719675302504,0.30256482364945114,-0.2681850361963734
1761838432857790000,1.4777900390625,-0.3602618834018707,0.49774475632440296,-0.20727993765026329
1761838432867860000,1.48785986328125,-0.25224282270967957,0.12713117291927337,-0.20764625021200625
1761838432877930000,1.497929931640625,-0.3501537463635206,-0.07492511179856956,-0.17228300467953084
1761838432887998700,1.507998779296875,-0.4182055383265018,-0.11369137070756405,-0.041703298741579055
1761838432898068000,1.51806787109375,-0.4488578662216663,-0.049917256063781675,0.024739267926476894
1761838432908137700,1.5281376953125,-0.47175709577202796,0.14243307920843362,-0.025148031390458344
1761838432918207000,1.53820703125,-0.2997346417248249,0.09066741879899054,-0.13972751004416495
1761838432928276700,1.54827685546875,0.4611538686931133,-0.622784619520232,-0.22791734148217363
1761838432938346800,1.5583466796875,-0.5143862771868706,-0.04648129026573151,-0.12109516242435202
1761838432948416000,1.568416015625,-0.23512860630154608,0.4153607068220153,0.016968871387001126
1761838432958485800,1.57848583984375,0.164390936255455,0.20175726523865012,-0.10220409080311656
1761838432968555000,1.588554931640625,-0.21578268531858918,-0.058882470144703984,-0.18717048494890332
1761838432978624800,1.598624755859375,-0.17076280937492846,0.06921263416958973,-0.13466032631509006
1761838432988694000,1.608694091796875,-0.1986158619403839,0.021575597997475413,-0.01731229626350105
1761838432998763800,1.618763671875,-0.36111470083892344,0.05181823084689677,-0.04103354625385255
1761838433008833000,1.6288330078125,-0.19432488674819468,0.1746317414964549,-0.09695793377794325
1761838433018902800,1.63890283203125,-0.21144904002845286,0.167717322465498,-0.1387794520717114
1761838433028972000,1.648971923828125,-0.06933715559840202,0.1319387923967093,-0.160597717984952
1761838433039042000,1.6590419921875,-0.02586217100918293,0.0558008342096582,-0.08979249912798404
1761838433049110800,1.66911083984375,-0.0035176527321338653,0.02426019743895158,-0.02404375994298607
1761838433059181000,1.67918115234375,0.017482465198636055,-0.04495011690938845,0.048547429015301166
1761838433069249800,1.689249755859375,0.06634498804509639,-0.08625404106983914,0.09334076619409024
1761838433079320000,1.699320068359375,0.1396563079714775,-0.09683646282274276,0.08898311897385865
1761838433089388800,1.709388916015625,0.18715806385874748,-0.0710976989975199,0.06262973038163036
1761838433099458800,1.719458740234375,0.15523849250674246,-0.02149476957991719,0.04945877170655876
1761838433109527800,1.72952783203125,0.0927829131156206,-0.004994812612608075,0.10314579210001974
1761838433119597800,1.739597900390625,-0.02047112562060356,-0.0204639652274549,0.18125285840295255
1761838433129666800,1.749666748046875,-0.17484277216494082,-0.001193502367194742,0.24373572765979915
1761838433139736800,1.75973681640625,-0.26047581352591515,-0.014569883953873068,0.26850162786487486
1761838433149805800,1.769805908203125,-0.23365385757386684,-0.09713120798561721,0.302378324634023
1761838433159875800,1.779875732421875,-0.23554303232133386,-0.10707191603519021,0.28393399213328957
1761838433169944800,1.78994482421875,-0.2370844165444374,0.011471936204843223,0.2401311272965744
1761838433180014800,1.800014892578125,-0.06288871011137961,0.0011366393471136688,0.22058566515352576
1761838433190084000,1.810083984375,0.11686521497070788,-0.2168797963729128,0.225842197442241
1761838433200153900,1.82015380859375,0.02264963870346546,-0.2837093895971775,0.15991474068947134
1761838433210222800,1.830222900390625,0.10116904866695403,-0.1956961385687813,0.1685790721276775
1761838433220292900,1.84029296875,0.0956155061930418,-0.15252996420040726,0.1766016533299349
1761838433230361900,1.85036181640625,0.06915829190015793,-0.10914433839507401,0.14647972425073386
1761838433240431900,1.860431884765625,0.09737199447154998,-0.07300766080468893,0.10173839125381783
1761838433250500900,1.8705009765625,0.08958791646659374,-0.061853302649036046,0.04577949867192656
1761838433260571000,1.88057080078125,0.10283668961822987,-0.051337899984046816,-0.02035414817743003
1761838433270639900,1.890639892578125,0.13201894496083258,-0.015263839301094411,-0.11188954544998704
1761838433280710000,1.9007099609375,0.165946349003911,0.018225063726864756,-0.19808438541218637
1761838433290779000,1.91077880859375,0.1589630659878254,0.020643997969478366,-0.22360483031161127
1761838433300849000,1.920848876953125,0.08572130416631699,0.04605283572059125,-0.21438914860095828
1761838433310918000,1.93091796875,-0.0076028762191534035,0.03076568860914558,-0.1662771518608555
1761838433320988000,1.94098779296875,-0.08781038540005684,0.004409925396740436,-0.157031842196919
1761838433331057000,1.951056884765625,-0.13981062175035475,0.04605974038541317,-0.13174787293449045
1761838433341127000,1.961126953125,-0.19069792842268943,0.05988861497994512,-0.1221755232732743
1761838433351196000,1.97119580078125,-0.21851824776232243,0.056645504872873426,-0.11412439182996749
1761838433361266000,1.981265869140625,-0.25381226398348805,0.03837419085148722,-0.10240001523401587
1761838433371335000,1.9913349609375,-0.27143150730431076,0.017140410295315087,-0.06055551792345941
1761838433381405000,2.001405029296875,-0.26192192068099973,-0.030053777480125426,-0.0005987696107476949
1761838433391473700,2.0114736328125,-0.17015081495642662,-0.060937941369786856,0.011998371231742203
1761838433401544000,2.0215439453125,-0.04754617955088615,-0.03473879349119961,-0.031009507302381098
1761838433411613000,2.031613037109375,0.037843700703978536,-0.013054821482114494,-0.055634428134188056
1761838433421683000,2.041682861328125,0.13481763576865197,0.00390288919005543,-0.04767868335675448
1761838433431752000,2.051751953125,0.16692074699401854,0.04185330167151987,-0.05329202972650528
1761838433441821700,2.06182177734375,0.16991875976622103,0.0593517681568861,-0.028904022923111915
1761838433451891000,2.071890869140625,0.14466449152231214,0.04714870466589927,0.04100432015936822
1761838433461960700,2.081960693359375,0.08499240536987782,0.04754862723629921,0.07885503512602299
1761838433472030000,2.092030029296875,0.055526656910777086,0.06451156207285821,0.056534737974777816
1761838433482099700,2.102099609375,0.0639309126406908,0.09135076142065227,-0.014255575574003159
1761838433492169000,2.1121689453125,0.07326338913142681,0.11748046079222112,-0.11135032400675117
1761838433502239000,2.122239013671875,0.06903846491277217,0.14623795138411222,-0.20113007325101642
1761838433512308000,2.132307861328125,0.057660161808133124,0.15566234394200146,-0.21425806956719606
1761838433522378000,2.1423779296875,-0.029465748459100723,0.17316939559262245,-0.17785653049554676
1761838433532447000,2.152447021484375,-0.0951841290384531,0.16844623952824622,-0.14103081119507552
1761838433542517000,2.16251708984375,-0.10794482641220092,0.11639478444736451,-0.11404317981991917
1761838433552585700,2.172585693359375,-0.16550503497719762,0.07030950776189565,-0.10748436929360032
1761838433562656000,2.182656005859375,-0.1667307773798704,0.08007540723383426,-0.09982713253870606
1761838433572724700,2.192724853515625,-0.17149813791215418,0.10982786367982625,-0.13300850398745387
1761838433582795000,2.202794921875,-0.1371820268124342,0.11730254694204777,-0.10930471658855676
1761838433592863700,2.21286376953125,-0.14999416211247443,0.15770181388035415,-0.08764076445419341
1761838433602933800,2.222933837890625,-0.15783903039395808,0.16065653550010173,-0.11924710513856261
1761838433613002800,2.233002685546875,-0.14151976375579833,0.09404032929819077,-0.17991415714509784
1761838433623072800,2.24307275390625,-0.08211071245372295,0.06279500394593925,-0.22898257782720027
1761838433633142000,2.25314208984375,0.007022445982694626,0.08738638783432542,-0.2857116693302989
1761838433643211800,2.263211669921875,0.1466413445532322,0.05518975310660899,-0.2805343397576362
1761838433653281000,2.273281005859375,0.2740764688551426,0.06051281129289418,-0.2006485002791509
1761838433663350800,2.283350830078125,0.3173410255640745,0.005719912016764283,-0.07287764121685177
1761838433673420000,2.293419921875,0.30271745692789553,-0.012044767656736075,0.08743577993400395
1761838433683489800,2.30348974609375,0.25407529883384705,-0.029634931013546882,0.18998272935803978
1761838433693559000,2.31355908203125,0.20699732131659984,-0.08545030520521103,0.27431783986296504
1761838433703628800,2.32362890625,0.1516033508747816,-0.10186240122597665,0.32333354397714137
1761838433713697800,2.33369775390625,0.09010521833896637,-0.1248522316692397,0.32046405295543373
1761838433723768000,2.34376806640625,0.062170332708954806,-0.15715966982766985,0.3132169679040089
1761838433733837800,2.353837890625,0.030208091259002683,-0.17236692010331897,0.3227995466982946
1761838433743907000,2.363906982421875,-0.039782559812068935,-0.17046521466784179,0.35333212067130954
1761838433753976800,2.373976806640625,-0.05205518140792846,-0.14742095062360167,0.3773624366108328
1761838433764046000,2.384046142578125,-0.096883334171772,-0.09174754218589513,0.3497669390030205
1761838433774115800,2.39411572265625,-0.15800269652307034,-0.034762795421294866,0.28469127677399664
1761838433784184800,2.404184814453125,-0.21908055782020092,-0.00780409787967801,0.20857041585221886
1761838433794254800,2.4142548828125,-0.22441958076059818,0.014747341146320104,0.12749715668745337
1761838433804323000,2.424322998046875,-0.2006365541130304,0.022654278345964847,0.04875672438442707
1761838433814393300,2.434393310546875,-0.15639526132643222,0.032989374274294825,-0.0014436594696715472
1761838433824462000,2.444462158203125,-0.08760638726055621,0.06118084674756974,-0.05009155318476259
1761838433834532400,2.454532470703125,0.012352116572856902,0.09359934406504035,-0.09381284068524837
1761838433844601000,2.46460107421875,0.07974164523482322,0.12601996027436108,-0.10187847557794302
1761838433854671400,2.47467138671875,0.10846505089402197,0.14370646014511584,-0.12243168999142943
1761838433864740400,2.484740234375,0.11645897225737571,0.14499982442390172,-0.15582626579944042
1761838433874810000,2.49481005859375,0.06927402723431587,0.15306812619771806,-0.1738367734601721
1761838433884879400,2.50487939453125,0.0829015705704689,0.142098769220151,-0.2036533446509391
1761838433894949000,2.51494921875,0.06499181987047195,0.11030373756326735,-0.2258901647698134
1761838433905018400,2.525018310546875,0.03677519468963146,0.1078353746883571,-0.2267535766661167
1761838433915088100,2.535088134765625,0.010228548547625541,0.1057833557956852,-0.22412465293463318
1761838433925157400,2.545157470703125,-0.004012742772698402,0.06196951290722936,-0.2212051122261211
1761838433935227100,2.55522705078125,-0.003147650375962257,0.03352181891687214,-0.19745880085974932
1761838433945296400,2.56529638671875,-0.017128244933485984,0.02939783432204276,-0.12725998693071305
1761838433955366100,2.5753662109375,-0.04733341358304023,0.023952245734632015,-0.0726152274210006
1761838433965435400,2.585435302734375,-0.08222410970032215,0.016581388173066078,-0.05463295947406441
1761838433975505400,2.59550537109375,-0.07360942609012126,-0.022094890897534785,-0.016335487120598555
1761838433985574100,2.60557421875,-0.05588379978537559,-0.049434733243845404,0.015608889879100024
1761838433995644400,2.61564453125,-0.0282990427672863,-0.07102828702311963,0.05849317856617271
1761838434005713200,2.625713134765625,0.005410334610939025,-0.07428268570918589,0.07122150804027914
1761838434015783400,2.635783447265625,0.009498480707406998,-0.07864858930110931,0.07709368800930679
1761838434025852200,2.64585205078125,0.010762217032909393,-0.09520802137069403,0.08726926426067948
1761838434035922200,2.655922119140625,0.004395604610443115,-0.09139109343104064,0.08388170418161899
1761838434045991200,2.6659912109375,0.002673603123426437,-0.07179649491664022,0.07595164183471352
1761838434056061200,2.676061279296875,0.00980243209004402,-0.051121225026063616,0.05195581268668174
1761838434066130200,2.686130126953125,0.006912555867433548,-0.0599951075617224,0.04577274013757705
1761838434076200200,2.6962001953125,-0.02547229490876198,-0.05694383023232221,0.04032919737678021
1761838434086269200,2.706269287109375,-0.03574409807622433,-0.04151347525790333,0.03665383333228528
1761838434096339200,2.716339111328125,-0.07091887183189392,-0.04463730636686086,0.04261000179033726
1761838434106408400,2.726408447265625,-0.08148001333475112,-0.03692311526034027,0.05209511155951768
1761838434116478200,2.736478271484375,-0.07187047346830368,-0.03639489013515412,0.022773484278842807
1761838434126548200,2.74654833984375,-0.04654723164141178,-0.025841676210425792,-0.010547478303685784
1761838434136617200,2.7566171875,-0.033065818777680396,-0.02271685872077942,-0.03061751231011003
1761838434146687200,2.766687255859375,-0.03425415177941322,-0.0005448839990422129,-0.048481122313439845
1761838434156756200,2.776756103515625,-0.009836334359645843,0.012931487363390623,-0.0669802902739495
1761838434166826200,2.786826171875,0.04021335244476795,0.011221176314167677,-0.09470094863139092
1761838434176895200,2.796895263671875,0.05690788213610649,0.025305267778784037,-0.08505220926571637
1761838434186965200,2.80696533203125,0.043977673414349557,0.04939436470083892,-0.04571655297093093
1761838434197034200,2.8170341796875,0.052720367318391796,0.06242646289449185,-0.005203633057698607
1761838434207104300,2.827104248046875,0.0053033671051263805,0.06109590841047465,0.051942441748455165
1761838434217173200,2.83717333984375,-0.0120820674598217,0.07361121618840843,0.05467102646213025
1761838434227243300,2.8472431640625,-0.023632804521918297,0.0704732469562441,0.0527953322507441
1761838434237312300,2.857312255859375,0.009433014255762099,0.08171362116122617,0.03228179226052016
1761838434247382300,2.86738232421875,0.054065936708450314,0.12582836495870722,0.027468729422986504
1761838434257451300,2.877451171875,0.10017068527936934,0.1654767769970931,0.019590031937137244
1761838434267521000,2.88752099609375,0.15719488727152348,0.13912021006708963,0.022095658082515
1761838434277590300,2.89759033203125,0.20181728833019733,0.16231716218870132,0.038544907775893804
1761838434287660300,2.907660400390625,0.2306049913972616,0.1652836655777879,0.04697250784877687
1761838434297729300,2.917729248046875,0.19982874486148355,0.1385428485705517,0.057921844951622184
1761838434307799300,2.92779931640625,0.14220833054184912,0.09920178544828667,0.05552048289831727
1761838434317868300,2.937868408203125,0.07177402735650538,0.06764668176081032,0.058481853454560036
1761838434327938300,2.947938232421875,0.021274843218922614,0.030705154060944914,0.04363492439128458
1761838434338007300,2.95800732421875,-0.010510288098454475,0.012633929188922047,0.021236849296092986
1761838434348077300,2.968077392578125,-0.052825581258535384,-0.00892548485873267,0.027097338827326893
1761838434358146300,2.978146240234375,-0.12098434072732925,-0.023433939215261487,0.038253012157231564
1761838434368216300,2.98821630859375,-0.19150223054289817,-0.014560093212220817,-0.02118489991314709
1761838434378285000,2.99828515625,-0.23687340414226055,-0.036714075619541105,-0.08579608643557876
1761838434388355300,3.008355224609375,-0.27133272310495377,-0.07543386503830551,-0.09557711041141301
1761838434398424000,3.018424072265625,-0.30418168426156045,-0.07932990436246617,-0.08472677670363336
1761838434408494300,3.028494384765625,-0.2607160520225763,-0.07150317452587186,-0.08613152893502264
1761838434418563300,3.038563232421875,-0.19599018961191175,-0.06304243936836719,-0.08385715426225215
1761838434428633000,3.048633056640625,-0.12763210817873477,-0.02674594984007999,-0.09505458437465131
1761838434438702300,3.058702392578125,-0.04495090236067772,0.001759611817356199,-0.12091500181816518
1761838434448772000,3.068772216796875,0.03471767763793468,-0.005238832235243171,-0.12796349555756897
1761838434458841300,3.07884130859375,0.048372693502902984,-0.035718981901276856,-0.09714921856634318
1761838434468911000,3.0889111328125,0.044504327636957164,-0.029922022592928258,-0.053183783579058945
1761838434478980400,3.09898046875,0.059364043116569516,0.04167147883120924,-0.07115154807660728
1761838434489050000,3.109050048828125,0.05272679705917835,-0.0825539627091959,-0.10728881018888205
1761838434499120000,3.1191201171875,0.09884440511167049,-0.059504401435330506,-0.09989906526375561
1761838434509189400,3.129189453125,0.11842588841617106,0.02988680514907464,-0.10002429907862097
1761838434519259100,3.139259033203125,0.14383271687328814,-0.060716188377887004,-0.0715107733104378
1761838434529328400,3.149328369140625,0.1618687243014574,-0.07576782796671613,-0.01959500037319958
1761838434539398100,3.159398193359375,0.1699509084701538,-0.10090815097475424,0.07362860571462661
1761838434549467400,3.16946728515625,0.15579378830194474,-0.13355908707492053,0.14482220283467323
1761838434559537200,3.179537109375,0.12057342183887958,-0.13632654249425977,0.1899146690905094
1761838434569606400,3.1896064453125,0.09165595491230487,-0.15110890015503392,0.1986549153091386
1761838434579676200,3.19967626953125,0.022066870379447937,-0.15868801190610973,0.18355781087707726
1761838434589745400,3.209745361328125,-0.02114157222807407,-0.17141484354287384,0.17330314150750636
1761838434599815400,3.2198154296875,-0.09458791671097277,-0.1673788660250604,0.16766016718447208
1761838434609884200,3.22988427734375,-0.16598317388296127,-0.1602019966656342,0.14687544557005167
1761838434619954400,3.239954345703125,-0.19870938544273375,-0.1752338355754502,0.13263097591195255
1761838434630023200,3.250023193359375,-0.19847499216496944,-0.1782322684727609,0.10925941614210605
1761838434640093400,3.260093505859375,-0.17366671412289142,-0.18095941014802083,0.08690941797234117
1761838434650162200,3.270162109375,-0.15642565646469592,-0.1708275634405203,0.02028579564895481
1761838434660232200,3.280232177734375,-0.13953297385275362,-0.1489356843017973,-0.04016556778028607
1761838434670301200,3.29030126953125,-0.1012707554757595,-0.1399030675404705,-0.08052136090304703
1761838434680371200,3.30037109375,-0.05824526821970939,-0.12553120864303782,-0.10452709039058536
1761838434690440200,3.310440185546875,-0.009117372435331344,-0.11815010368209332,-0.11734353653956205
1761838434700510200,3.32051025390625,0.019058336213231084,-0.1290027024121955,-0.13152845803014934
1761838434710579200,3.3305791015625,0.03045534401834011,-0.12301926235472782,-0.14140757208559662
1761838434720649200,3.340649169921875,0.03645020051896572,-0.11969811857538297,-0.11287665679119527
1761838434730718200,3.35071826171875,0.01730652410984039,-0.12109812156641855,-0.09379797190967946
1761838434740788200,3.360788330078125,0.006257306829094886,-0.13762377923056482,-0.08703015827517956
1761838434750857500,3.370857421875,-0.01844283466339111,-0.14410419075842945,-0.06558660742584616
1761838434760927200,3.38092724609375,-0.03854804958105087,-0.16228205434270201,-0.017145561394467948
1761838434770996200,3.390996337890625,-0.041788638937473296,-0.17513883250206708,0.014889745291694997
1761838434781066200,3.401066162109375,-0.023078093248605727,-0.19185195729602128,0.0007186696633696556
1761838434791135200,3.41113525390625,-0.04260989219248294,-0.207084360279236,0.0035948096215724945
1761838434801205200,3.421205322265625,-0.04694412200450897,-0.21258739640861748,0.02294708728007972
1761838434811275000,3.43127490234375,-0.07892974433004855,-0.19485219855792818,0.027291911551356313
1761838434821344300,3.44134423828125,-0.12927636825442312,-0.17700968614155427,0.0012746230456978083
1761838434831414000,3.4514140625,-0.1527881767451763,-0.15196692349016666,-0.030712606715038417
1761838434841483000,3.46148291015625,-0.13525485814213753,-0.15104001790359614,-0.061330301688238976
1761838434851553000,3.471552978515625,-0.1357224756538868,-0.21880636225501074,-0.0712698041614145
1761838434861622000,3.4816220703125,-0.03326630978584289,-0.11889436444444582,-0.02601582720093429
1761838434871692000,3.491692138671875,-0.005949848315119743,-0.05896861405819654,-0.09969970676675438
1761838434881761000,3.501760986328125,0.0588373888939619,-0.16114185306532308,-0.12400215417854488
1761838434891831000,3.5118310546875,0.10628419972360134,-0.06412963181687518,-0.10681823353506624
1761838434901900000,3.521900146484375,0.09227321002781391,-0.047930082568246865,-0.0911862185087055
1761838434911970000,3.531969970703125,0.08994739742875099,-0.10981759801413864,-0.02066014538668096
1761838434922039000,3.5420390625,0.05172960271537304,-0.03896130655705929,0.026822321278229356
1761838434932109000,3.552109130859375,0.05964402910172939,-0.07980729434955865,0.013950345549732446
1761838434942178000,3.562177978515625,0.07652443675398826,-0.12098185650929807,0.006231222539767623
1761838434952248000,3.572248046875,0.08350888881385325,-0.11496204823050647,-0.005922448851540685
1761838434962317000,3.582317138671875,0.12054361122250556,-0.04759739828146994,-0.0073502896975725885
1761838434972387000,3.592386962890625,0.14473054249584674,-0.07345489311553538,-0.005895780040323734
1761838434982456000,3.6024560546875,0.17522621852457523,-0.09312350671421736,-0.0035389147158712145
1761838434992526000,3.612526123046875,0.1641296549707651,-0.10263090138044208,-0.00602152531184256
1761838435002595000,3.622594970703125,0.15650690500736236,-0.11173607192132622,-0.008058949423581362
1761838435012665000,3.6326650390625,0.1678255868792534,-0.14341463759168982,0.008232698555290699
1761838435022733800,3.64273388671875,0.14949088876545427,-0.1352312215382233,0.011451587536558509
1761838435032804000,3.65280419921875,0.16151041238307953,-0.11429770257025956,0.008280629350244999
1761838435042873000,3.662873046875,0.17414076137542722,-0.09589607670009136,-0.016980872352048752
1761838435052943000,3.672943115234375,0.18856676161289215,-0.08152264690008014,-0.02036094324439764
1761838435063012000,3.68301220703125,0.17596037801802158,-0.05709244492277503,0.05895173598863184
1761838435073081900,3.693081787109375,0.06229015969634056,-0.04311603335002437,0.15097776632234453
1761838435083151000,3.703151123046875,-0.026480010646581648,-0.04657972740521654,0.2182460066922009
1761838435093220900,3.713220947265625,-0.12266717924773693,-0.06599538915613666,0.1877052494127303
1761838435103290000,3.7232900390625,-0.1779547667056322,-0.08414744244571774,0.1121430818196386
1761838435113360000,3.73335986328125,-0.21121873840391633,-0.07585419107591733,0.046599107959121464
1761838435123430000,3.743429931640625,-0.22863573715090751,-0.07482616320243105,0.037154111004620786
1761838435133499100,3.7534990234375,-0.2435579964727163,-0.0989535097756423,0.08829751132987439
1761838435143569000,3.76356884765625,-0.23739421314597128,-0.11575190170025453,0.1228736616052687
1761838435153638100,3.77363818359375,-0.21839316007792947,-0.1389943551977165,0.1465570272706449
1761838435163708000,3.7837080078125,-0.21692893274426459,-0.15260533099155874,0.15780527425482868
1761838435173777200,3.793777099609375,-0.1890384707778692,-0.13555513799665495,0.14056049026958645
1761838435183847000,3.803846923828125,-0.18143442551493644,-0.11813737206468358,0.08021371972598135
1761838435193916200,3.813916259765625,-0.1241413434535265,-0.07535296355551108,-0.016954130475595592
1761838435203986000,3.82398583984375,-0.09760755679309367,-0.04680067667951807,-0.10238010495714843
1761838435214055200,3.83405517578125,-0.04365910898447036,-0.017624394419975577,-0.14981792876273392
1761838435224125200,3.844125244140625,0.024475100564956664,0.02168400854170322,-0.183529644228518
1761838435234194000,3.85419384765625,0.05869359650909901,0.024795856951922178,-0.18538104424886404
1761838435244264200,3.86426416015625,0.12856091346144674,0.02607164904139936,-0.1659231873240322
1761838435254333000,3.8743330078125,0.1316828448742628,0.0068465779591351745,-0.08264401561282575
1761838435264403200,3.8844033203125,0.1485059693813324,-0.013171835457906126,0.05687551423646509
1761838435274472000,3.894471923828125,0.12901450244784354,-0.023218926491402087,0.1522393106907606
1761838435284542200,3.904542236328125,0.1191390051215887,-0.028787082012556493,0.17771547805704174
1761838435294611000,3.91461083984375,0.094242464274168,-0.039283049324713645,0.17551665283851325
1761838435304681000,3.924680908203125,0.08767945249676704,-0.05330613131709396,0.16737842763364313
1761838435314750000,3.93475,0.038359249010682106,-0.05962605505362153,0.16735870001986622
1761838435324820000,3.944820068359375,0.02438157706260681,-0.044145175468362864,0.1342488959699869
1761838435334889000,3.954888916015625,0.03999064960479736,-0.014974975889734923,0.05845839951373637
1761838435344959000,3.964958984375,0.06634557256698607,0.009299122210405766,-0.020833967583626507
1761838435355028200,3.9750283203125,0.07125321835279465,0.03957768488973379,-0.10177322510518133
1761838435365098000,3.985097900390625,0.04692892443537712,0.07166501402407884,-0.14762312213219703
1761838435375167200,3.995167236328125,0.026861118918657303,0.1027499246502295,-0.1622407724842429
1761838435385237000,4.005237060546875,-0.001135141509771347,0.1042059686774388,-0.17058825652562082
1761838435395306000,4.015305908203125,-0.030067221483588216,0.09285316534023731,-0.1471742093209177
1761838435405375000,4.025375,-0.055476388028264045,0.10661916729900986,-0.1283999507460743
1761838435415445000,4.035445068359375,-0.06790156983733177,0.12383373880907893,-0.12421813501678407
1761838435425514000,4.045513916015625,-0.030952187624573704,0.1327426561255008,-0.14267127187848092
1761838435435584000,4.055583984375,0.00736731389760971,0.1424187949547544,-0.13863646340444682
1761838435445653000,4.065653076171875,0.04694821365773678,0.14440236998740583,-0.10544358418099582
1761838435455723000,4.075722900390625,0.09073825554549693,0.11666121683120727,-0.04590345384515822
1761838435465792000,4.0857919921875,0.10189502485394478,0.10306282652430236,0.004980053434893488
1761838435475862000,4.095862060546875,0.08429039458036422,0.09290387261416763,0.018810645062476396
1761838435485931300,4.10593115234375,0.06682721860408783,0.07199574381578713,-0.009502426230162382
1761838435496001000,4.1160009765625,0.01132744970023632,0.06543539891950785,-0.02763239555209875
1761838435506070000,4.126070068359375,-0.029687282255291936,0.07108706800565123,-0.05074029941707849
1761838435516140000,4.13614013671875,-0.05290273814797401,0.06422375810742378,-0.07073087497912348
1761838435526209000,4.146208984375,-0.07105857256352902,0.07051018143314867,-0.07209514906965196
1761838435536279000,4.156279052734375,-0.08834463840723038,0.07011223162412643,-0.06107157768681645
1761838435546348000,4.16634814453125,-0.08651976106762886,0.0735853145621717,-0.05889737545289099
1761838435556418000,4.17641796875,-0.09908464360833168,0.07843691931180656,-0.04923727444298565
1761838435566487000,4.186487060546875,-0.09284253434836864,0.07326028385888785,-0.03466295177601278
1761838435576557000,4.19655712890625,-0.09370821126699447,0.0809802471190691,-0.002013750975206494
1761838435586626000,4.2066259765625,-0.08910860851705074,0.106061241155304,0.04299012368172407
1761838435596696000,4.216696044921875,-0.0667366177111864,0.1283397815240547,0.05472198946438729
1761838435606765000,4.22676513671875,-0.029262919363379478,0.12564864274393767,0.06376191274933517
1761838435616835000,4.2368349609375,0.014387421792745589,0.11482760819587856,0.06591214958578348
1761838435626905000,4.246905029296875,0.04712298570275306,0.12653236677590757,0.07869191698618233
1761838435636974000,4.25697412109375,0.07525543973147869,0.1253571855166927,0.0831270498894155
1761838435647043800,4.2670439453125,0.08115969533920288,0.1225549510449171,0.07951616591587662
1761838435657113000,4.277113037109375,0.06735036569535732,0.14746866222284732,0.04661752039864659
1761838435667183000,4.28718310546875,0.025737083324789998,0.15112769618704913,0.025860417443513868
1761838435677252000,4.297252197265625,-0.011916647765040396,0.16537139866016803,-0.021058716250211
1761838435687322000,4.307322021484375,-0.023357494711875915,0.17204678477086124,-0.06473163456432521
1761838435697391000,4.31739111328125,-0.05813830071389675,0.15455862048380076,-0.0798393334556371
1761838435707461000,4.327461181640625,-0.07007073056995869,0.15890673269070685,-0.10718436343371868
1761838435717530000,4.337530029296875,-0.08044131793677807,0.1716298014678061,-0.11249657143242657
1761838435727600000,4.34760009765625,-0.0895762260288,0.16896562375985086,-0.09443725619390607
1761838435737668900,4.3576689453125,-0.10057809703648089,0.1618025637300685,-0.08671557590067386
1761838435747739100,4.3677392578125,-0.07588146267533302,0.15350925756134093,-0.06548844428099691
1761838435757807900,4.377807861328125,-0.07235971828997134,0.12693042618278413,-0.028659181316569447
1761838435767878100,4.387878173828125,-0.06442132650613784,0.11964322831667959,-0.0026917233020067213
1761838435777947000,4.39794677734375,-0.04062894750833511,0.11438158146142959,0.006407163628563284
1761838435788017200,4.40801708984375,-0.013220716100931167,0.10437157103531063,0.0009118541479110718
1761838435798086000,4.4180859375,0.013820435559749603,0.11366890314742922,-0.01021437389180064
1761838435808156000,4.428156005859375,0.06969663656055927,0.11219883059486746,-0.03427110291421413
1761838435818225000,4.438224853515625,0.0782563751131296,0.08750110025517642,-0.049073242987692355
1761838435828295000,4.448294921875,0.09561024549603461,0.10469236395489424,-0.059580681541934605
1761838435838364000,4.458364013671875,0.09507248535752295,0.08849573731571435,-0.04389686326310038
1761838435848434000,4.468433837890625,0.055472880896925925,0.05837583579681813,-0.029915976444631814
1761838435858503200,4.478503173828125,0.02902092730104923,0.04394340581856668,-0.014316037056967615
1761838435868573000,4.488572998046875,-0.011388239976763725,0.02261696027657017,-0.00816175221092999
1761838435878642200,4.49864208984375,-0.04358955087959766,0.010102931140270083,-0.011169117333367467
1761838435888712000,4.5087119140625,-0.06458966881036758,0.016754991174302993,-0.031687808422744275
1761838435898781200,4.51878125,-0.06868775177896022,0.015641623104922474,-0.018734584151580927
1761838435908851000,4.528850830078125,-0.08777706765234469,0.020859522149991244,0.0005430939007550477
1761838435918920000,4.538919921875,-0.07324000825583935,0.025222685795556754,0.0037635172519832846
1761838435928990000,4.548989990234375,-0.06818447843194007,0.02900129101881757,0.043159269703552126
1761838435939059000,4.559058837890625,-0.08235328903794288,0.01724056446785107,0.05664915813468396
1761838435949129200,4.569129150390625,-0.08072481105327606,-0.002445329059194773,0.03590243044309318
1761838435959198000,4.579197998046875,-0.07628478277921676,-0.0008037906635552644,0.013657134756818413
1761838435969268000,4.58926806640625,-0.049131987437605856,0.00042441769083961843,0.004164133942127227
1761838435979337000,4.5993369140625,-0.04293021018803119,-0.005449643708020448,0.008052081291377544
1761838435989407000,4.609406982421875,0.0047393034815788266,-0.0004909983873367309,0.021873905090615153
1761838435999476000,4.61947607421875,0.031795652711391446,0.007814582741074263,0.01292092943675816
1761838436009546000,4.6295458984375,0.06053542498350143,0.005349818329047411,0.02680069396831095
1761838436019615000,4.639614990234375,0.05502046095430851,0.014376297610532492,0.03704407475888729
1761838436029685000,4.64968505859375,0.04193769201934337,0.021124895087908952,0.04062500198557973
1761838436039755000,4.659755126953125,0.031138650107383727,0.01463991698278114,0.04416077489629388
1761838436049824000,4.669823974609375,0.01603694256544113,0.009836699685826898,0.04086151415519416
1761838436059894000,4.67989404296875,0.024637597650289535,0.02322489957446232,0.025733941519632934
1761838436069963000,4.689962890625,0.04058627741038799,0.03214088595248758,-0.010195084669440984
1761838436080033000,4.700032958984375,0.06002864450514316,0.03459755838960409,-0.03146247523427009
1761838436090102000,4.71010205078125,0.06304302389025687,0.03439902187651023,-0.04022942679673433
1761838436100172000,4.720172119140625,0.06265256326794624,0.03438926766747608,-0.057704731602221726
1761838436110241000,4.730240966796875,0.05393851093649864,0.0283993065376766,-0.06960077497065068
1761838436120311000,4.74031103515625,0.032415245914459226,0.04373621107498184,-0.08583090202063322
1761838436130380000,4.750380126953125,0.006409282520413399,0.03476882330328226,-0.08020809370279312
1761838436140450000,4.760449951171875,-0.02753916431069374,0.05535541026340797,-0.03807853237316012
1761838436150518800,4.770518798828125,-0.07066635837554931,0.04940183562124148,0.0027663959734141826
1761838436160589000,4.780589111328125,-0.11477905634641647,0.042844961323682214,0.02955510724298656
1761838436170658000,4.790657958984375,-0.1273778411567211,0.03570226822849363,-0.004433233207091689
1761838436180728000,4.80072802734375,-0.09870938055515288,0.01912431412152946,-0.03982435312718153
1761838436190797000,4.810797119140625,-0.06316109731197357,-0.005004968680441379,-0.038282165186479686
1761838436200866800,4.82086669921875,-0.021470073530077932,0.001978862324915826,-0.017493863375484944
1761838436210936000,4.83093603515625,0.03266659032702446,0.02418269348964095,-0.011007058639451861
1761838436221005800,4.841005859375,0.05461830989420414,0.027697368813399223,0.02508015378601849
1761838436231075000,4.851074951171875,0.05815525184869766,0.030179961143061516,0.07250760232806205
1761838436241144800,4.861144775390625,0.05046937352120876,0.012824830384831875,0.07446312031000853
1761838436251214000,4.871214111328125,0.03588847498297691,-0.0003245923118665814,0.054557008161023254
1761838436261284000,4.8812841796875,0.004698971471190453,-0.010807353082578628,0.0467472111929208
1761838436271353000,4.89135302734375,-0.021054478466510772,-0.021378449723869562,0.02843129084482789
1761838436281423000,4.901423095703125,-0.007252163085341453,-0.005255472842790186,0.014103709480538964
1761838436291492000,4.9114921875,-0.007763619738817214,0.00389823128124699,-0.007133212880790233
1761838436301562000,4.92156201171875,0.002408230185508728,0.019441910437028854,-0.0603860065754503
1761838436311630800,4.931630859375,0.011734276935458183,0.018209756559878585,-0.11167078813277184
1761838436321701000,4.941701171875,0.013565584015846252,0.01322984925545752,-0.12520276213996112
1761838436331769900,4.951769775390625,-0.027170330998301503,0.006266293853148817,-0.10316767513826489
1761838436341840100,4.961840087890625,-0.0720522597759962,0.003806315214093774,-0.07124518117681146
1761838436351908900,4.971908935546875,-0.12018296121656893,-0.012604082039929927,-0.05958141219429671
1761838436361979000,4.981978759765625,-0.16050854186415672,-0.030464038781449196,-0.07025880048796534
1761838436372048000,4.9920478515625,-0.18445581916272638,-0.0213614803227596,-0.09052351681627333
1761838436382118000,5.002117919921875,-0.16565233449339867,-0.02073785026539117,-0.11674399974383413
1761838436392187100,5.012187255859375,-0.13522680109143256,-0.01881418872643262,-0.11165084132328629
1761838436402257000,5.0222568359375,-0.10393091459572315,-0.009318082639202476,-0.06134951784536242
1761838436412326100,5.032326171875,-0.032985739278793336,0.005117763138841837,-0.017956658581644296
1761838436422396000,5.04239599609375,0.018211363995075225,0.012814363789744675,0.021358356783911583
1761838436432465200,5.052465087890625,0.06385141766369343,0.02017583246845752,0.08004084737710654
1761838436442535000,5.062534912109375,0.0822562584042549,0.001140347407851368,0.1095257389280945
1761838436452604200,5.072604248046875,0.07555296137332916,-0.005705737360939383,0.11111541927233337
1761838436462674000,5.082673828125,0.08642389947772025,0.0026564510592259464,0.11123495399877428
1761838436472743000,5.092742919921875,0.059039048945903776,-0.003561911998968571,0.11432093731537461
1761838436482813200,5.102813232421875,0.05265022469162941,0.004426456406433135,0.11773987891338765
1761838436492882000,5.1128818359375,0.043020811080932614,0.021594320964254437,0.11476093616783618
1761838436502952200,5.1229521484375,0.035836452534794803,0.017019487329386174,0.10249985887929797
1761838436513021000,5.13302099609375,0.02178863795995712,-0.010567516444716601,0.09978840796351432
1761838436523091200,5.14309130859375,-0.01934007576406002,-0.014333042990695684,0.06255297535099089
1761838436533160000,5.153159912109375,-0.04668634785115718,-0.009002586949244142,0.012442717465758323
1761838436543230000,5.16322998046875,-0.06159457864761352,-0.01645960669061169,-0.04164141248650849
1761838436553299000,5.173298828125,-0.04538111047148704,-0.01516763065131381,-0.06684234310798347
1761838436563369000,5.183368896484375,-0.011656535524129867,0.0035563590410165485,-0.08083908508270979
1761838436573438000,5.19343798828125,0.03782908765673637,-0.0038993089934810992,-0.10029518844187259
1761838436583508000,5.203508056640625,0.0831757113367319,-0.0035892018646933137,-0.1199591623980552
1761838436593577000,5.213576904296875,0.10445990690588951,-0.0015258578604087233,-0.08761486282795668
1761838436603647000,5.22364697265625,0.10268822105824947,-0.004209964111540466,-0.033813422274589534
1761838436613716000,5.233716064453125,0.04954465989172458,-0.029504473034292458,0.008320522969216107
1761838436623786000,5.243785888671875,-0.008716390419006348,-0.02279100166922435,0.02365187454856932
1761838436633855200,5.253855224609375,-0.05727379283905029,-0.022206278850138185,0.02306326100565493
1761838436643925000,5.263925048828125,-0.08353519229888916,-0.04154586142385378,0.03229563812278211
1761838436653994000,5.273993896484375,-0.09814940858483313,-0.0355961044402793,0.03880589679963887
1761838436664064000,5.28406396484375,-0.07729717469215393,-0.03014344679126516,0.0345551074873656
1761838436674133000,5.294133056640625,-0.045676878547668456,-0.027717370421811938,0.04161014056541026
1761838436684203000,5.304203125,-0.018980010280013084,-0.03707125502675771,0.0629466508436948
1761838436694272000,5.31427197265625,-0.013006781089305877,-0.052410424586385486,0.06180047648325562
1761838436704342000,5.324342041015625,-0.019919921478629112,-0.061305112448055296,0.05706694515533745
1761838436714411000,5.334410888671875,-0.012330489262938499,-0.06814739782456308,0.02247998122498393
1761838436724481000,5.34448095703125,-0.01462006150484085,-0.07177198152989149,-0.004854673489555717
1761838436734550000,5.354550048828125,-0.011050386324524878,-0.05268977125072852,-0.02612316003292799
1761838436744620000,5.3646201171875,-0.0047702831417322155,-0.03999949049837887,-0.05257489443309605
1761838436754690000,5.37468994140625,-0.00042728550136089324,-0.03818939060280099,-0.04588087668716907
1761838436764759000,5.384759033203125,-0.013036007183790206,-0.029634200361184772,-0.01171359947361052
1761838436774828800,5.394828857421875,-0.010276479342579841,-0.011091741248220205,-0.003996376159787178
1761838436784898000,5.40489794921875,-0.016962240716814993,-0.0298507474550046,-0.0009038169719278812
1761838436794967000,5.414967041015625,-0.02305705046057701,-0.029627039968036114,0.0026432079851627347
1761838436805037600,5.42503759765625,-0.01744213318824768,-0.02219119087886065,0.010972425717487931
1761838436815106300,5.435106201171875,-0.007598784565925598,-0.0013502090325579047,0.023416166096553205
1761838436825176600,5.445176513671875,0.0018207856863737106,-0.005519822867400944,0.03642331251204014
1761838436835246300,5.455246337890625,0.021903204250335692,-0.0019622582499869167,0.04777867313250899
1761838436845315600,5.465315673828125,0.06180208391845226,0.004604899979569018,0.015974033397063613
1761838436855385300,5.47538525390625,0.09774667300283908,0.0006216572959907352,-0.00866064164377749
1761838436865454300,5.485454345703125,0.11352934854626655,-0.00819578234469518,-0.013257175653800368
1761838436875524600,5.495524658203125,0.09835399124622345,0.001999466721527278,-0.0007526449982076883
1761838436885593300,5.50559326171875,0.05129296486377716,-0.008121036608051508,-0.003944061450660228
1761838436895663600,5.51566357421875,-0.015281740283966063,-0.004546593921072781,0.0177075791914016
1761838436905732400,5.525732421875,-0.08583236332535743,-0.0075193261215463275,0.03571699087359011
1761838436915802400,5.53580224609375,-0.12460603835582733,-0.013793693683296441,0.03191599115543067
1761838436925871400,5.545871337890625,-0.14203823467195034,-0.019307634799182415,-0.0035603228300809856
1761838436935941400,5.55594140625,-0.15021218877732753,-0.012266538914944976,-0.028884514505043625
1761838436946010400,5.56601025390625,-0.12428864296972751,-0.012748404147755354,-0.05430252194330096
1761838436956080400,5.576080322265625,-0.08998948300480843,0.0009547069089487194,-0.05882087615057826
1761838436966149400,5.5861494140625,-0.05812602575421333,-0.0036303010600619015,-0.041300636224821205
1761838436976218400,5.59621826171875,-0.019440029007196425,-0.005116922888625413,-0.0185305129468441
1761838436986288400,5.606288330078125,-0.004037292692065239,-0.015428546609822659,0.025644363540038465
1761838436996358400,5.6163583984375,-0.02581248664855957,-0.02046780115235597,0.04807261457778513
1761838437006427600,5.626427734375,-0.03505377772450447,-0.010953885413799434,0.05681063230670988
1761838437016497400,5.636497314453125,-0.04641863682568073,0.004572349416837096,0.06226714414693415
1761838437026566400,5.64656640625,-0.06855681887567043,0.029407168405968694,0.060100686828047034
1761838437036635400,5.656635498046875,-0.04862579148113727,0.04996953424029052,0.034627295940741896
1761838437046705400,5.666705322265625,-0.00981295348405838,0.05701030133096501,-0.0036580841161310673
1761838437056775400,5.676775390625,0.0245475812792778,0.058338499461114406,-0.020743001364544034
1761838437066844400,5.686844482421875,0.0684229633629322,0.04698881966276094,-0.04636581065990031
1761838437076914400,5.69691455078125,0.10580722986161709,0.04689007199602201,-0.0668007689885795
1761838437086983400,5.7069833984375,0.09027531420886516,0.054435153613332656,-0.06876585851646959
1761838437097053400,5.717053466796875,0.07614508204758166,0.057818969099037346,-0.042889293655753134
1761838437107122400,5.727122314453125,0.06681611268818378,0.028643417491856962,-0.0198300512380898
1761838437117192400,5.7371923828125,0.022756606209278104,0.03182862339923158,0.02705802973024547
1761838437127261400,5.747261474609375,-0.02374327915906906,0.03772184615628794,0.05060892812237143
1761838437137331500,5.75733154296875,-0.05529752433001995,0.03125986533425748,0.05689385361075401
1761838437147400400,5.767400390625,-0.0886743087530136,0.03134164359988645,0.05676927738301456
1761838437157470500,5.777470458984375,-0.10145546439290046,0.0444981353581883,0.06260017549358309
1761838437167539500,5.78753955078125,-0.08945289191007613,0.05179954441273585,0.0548638090878725
1761838437177609500,5.797609375,-0.04725567217171192,0.04922951126163825,0.02602298759408295
1761838437187678500,5.807678466796875,-0.01586743121743202,0.06094647173611447,0.0011599106248468159
1761838437197748500,5.81774853515625,0.0014484452426433562,0.05730144803095608,-0.020817089514061807
1761838437207817200,5.827817138671875,0.01923603086769581,0.05499050420746207,-0.04330335434935987
1761838437217886500,5.837886474609375,0.011183072793483734,0.060027859053853896,-0.03972162340506911
1761838437227956500,5.84795654296875,0.00046352585852146145,0.05645918852053582,-0.04138736466020346
1761838437238025500,5.858025390625,-0.003935585883259773,0.06208435319224372,-0.016232465137541292
1761838437248095500,5.868095458984375,-0.009672083708643912,0.05599882273348048,0.013738675560429691
1761838437258164500,5.87816455078125,-0.012853051832318305,0.054669766086805606,0.015292846199870109
1761838437268234500,5.888234375,-0.014825813210010528,0.05663670051191002,-0.007441402047127485
1761838437278303500,5.898303466796875,0.0004559270739555359,0.051356586418207735,-0.008625058873742819
1761838437288373500,5.90837353515625,0.008859598281979561,0.05363287905342876,-0.031748087242618205
1761838437298442200,5.918442138671875,0.02608955002427101,0.07324806369813158,-0.02781966175250709
1761838437308512500,5.928512451171875,0.017271452796459197,0.08166397333322092,0.003809329155087471
1761838437318581200,5.938581298828125,0.01132043543756008,0.052813799489196386,-0.005174772289395332
1761838437328651500,5.948651611328125,0.010768646773695946,0.04711445533642545,-0.022778744975849984
1761838437338720300,5.95872021484375,-0.0051508068919181825,0.052256311736907805,-0.026374942836910484
1761838437348790500,5.96879052734375,0.003653261810541153,0.04676250009359791,-0.03936820685751736
1761838437358859300,5.978859375,0.026180735439062117,0.06209657335299998,-0.036653321875631806
1761838437368929300,5.98892919921875,0.06033376493155956,0.06963829396944493,-0.06170476102381944
1761838437378998500,5.99899853515625,0.10344050073027611,0.046766409083735194,-0.054304640835151075
1761838437389068300,6.009068359375,0.13268003921806812,0.03350992754967883,-0.003957067062705755
1761838437399137500,6.019137451171875,0.12043079849779605,0.03515464428309351,0.05212079399004578
1761838437409207300,6.029207275390625,0.06653145052790642,0.052359881709236646,0.05605813343897462
1761838437419276500,6.039276611328125,0.03672141867578029,0.06782371882814914,-0.004208630670979619
1761838437429346300,6.04934619140625,-0.023648586612939834,0.015943985318671913,-0.03191124191507697
1761838437439415600,6.05941552734375,-0.09518295999467373,-0.004958517456520348,-0.002404723054170608
1761838437449485300,6.0694853515625,-0.14744915380477905,-0.002991035042144358,0.015604834758490322
1761838437459554600,6.079554443359375,-0.14466098439097402,0.00783467568103224,-0.05159004811421036
1761838437469624600,6.08962451171875,-0.14131401205062866,0.013510364963579923,-0.04353891667090356
1761838437479693300,6.099693359375,-0.09531097028851508,0.036898711471445855,-0.032278467792272565
1761838437489763600,6.109763671875,-0.05180675960481167,0.06523810451542958,-0.05699497589766979
1761838437499832300,6.119832275390625,-0.023835049095749853,0.07087779090283439,-0.08752250836938619
1761838437509902600,6.129902587890625,-0.010989596047997475,0.06344621612997725,-0.06598945260569453
1761838437519971300,6.139971435546875,-0.0022165070056915284,0.050272828035801645,-0.03702990010306239
1761838437530041300,6.150041259765625,0.02942132479548454,0.03185737456968054,-0.02714753464460373
1761838437540110300,6.1601103515625,0.048476153877377505,0.014228559702914208,-0.02291333114095032
1761838437550180400,6.170180419921875,0.06010287878513336,0.002947944819089025,-0.020627850552275777
1761838437560249300,6.180249267578125,0.0652332274109125,0.004734371578134596,-0.01075403372645378
1761838437570319400,6.1903193359375,0.058328854849934574,-0.005390296469908207,-0.011200316189229488
1761838437580388400,6.200388427734375,0.08489011403918266,0.0006830320944078266,-0.02170044821985066
1761838437590458400,6.210458251953125,0.023018472015857695,-0.014765790118463337,-0.01113031969293952
1761838437600527600,6.220527587890625,0.009304419440031051,-0.02453042921507731,0.002246317622065544
1761838437610597400,6.230597412109375,0.0058615855097770685,-0.050551316183619195,-0.014043211464956401
1761838437620666600,6.24066650390625,-0.05199848278462887,-0.05709615298351273,-0.032395810561627145
1761838437630736400,6.250736328125,-0.05931202066838741,-0.06132882211720571,-0.022024127216264604
1761838437640805400,6.260805419921875,-0.0684229633629322,-0.0534596048457548,-0.028059900249168275
1761838437650875400,6.27087548828125,-0.08233633790314197,-0.04744940464552492,-0.009999927423521876
1761838437660944400,6.2809443359375,-0.09477379467189312,-0.056855403030198065,0.0552756047591567
1761838437671014400,6.291014404296875,-0.06757540662288665,-0.03874211084842682,0.09710216455422341
1761838437681083400,6.30108349609375,-0.06407412050366401,-0.041482806125003845,0.10866342301033437
1761838437691153400,6.3111533203125,-0.024642273825407027,-0.01681815607100725,0.10529321592487394
1761838437701222400,6.321222412109375,0.024375731843709943,-0.008665537014603614,0.08523235160559416
1761838437711292400,6.33129248046875,0.03763327282369137,-0.00826820826008916,0.09300546982511877
1761838437721361400,6.341361328125,0.07153261981606483,-0.011696283012628554,0.0892136763267219
1761838437731431400,6.351431396484375,0.07326514269709587,0.004379694655258208,0.059635553534328936
1761838437741500400,6.36150048828125,0.06591244184672831,-0.013144563858490436,0.026856077417358754
1761838437751570400,6.3715703125,0.045558805125951764,-0.011876735879760235,0.0011593261029571294
1761838437761639400,6.381639404296875,0.017895137652754783,0.0017688363034278154,-0.03448920264430344
1761838437771708400,6.39170849609375,0.012898060017824172,0.004541826414410024,-0.06678418317995966
1761838437781778400,6.4017783203125,-0.01720247921347618,-0.0043269780873320994,-0.07187617255672812
1761838437791847400,6.411847412109375,-0.03470598720014095,-0.012445037287008017,-0.07987550074756145
1761838437801917400,6.42191748046875,-0.0266214649438858,-0.017671685894113033,-0.07720167842842637
1761838437811987000,6.431987060546875,-0.05073182384967804,-0.0467796156251803,-0.07295161976851522
1761838437822057000,6.442056884765625,-0.04990063372254371,-0.04890842608110979,-0.03963452964350581
1761838437832126000,6.4521259765625,-0.04898234983384609,-0.058506403373926874,-0.011420973202586173
1761838437842196000,6.462196044921875,-0.03196867119073868,-0.08255314985844306,0.013646321101859211
1761838437852265200,6.47226513671875,-0.02636310626864433,-0.09060595266902818,0.04403320299386978
1761838437862335000,6.4823349609375,-0.010721885022521018,-0.08407744594942777,0.07028020860217511
1761838437872404200,6.492404296875,0.015101707541942596,-0.07677617389219812,0.09223981921486556
1761838437882474000,6.502473876953125,0.03196633310317993,-0.07226032216926105,0.10979418060593306
1761838437892543000,6.51254296875,0.05348550647199154,-0.057590247510233894,0.11445881141610442
1761838437902613000,6.522613037109375,0.05467910017073154,-0.03975178108131513,0.09778101366385816
1761838437912682000,6.532681884765625,0.02129413244128227,-0.043249669667053965,0.08417202889770269
1761838437922752000,6.542751953125,-0.044407297003269196,-0.04657016499242745,0.06975333518385887
1761838437932821000,6.552821044921875,-0.088901103246212,-0.034393149258149784,0.023703531670570373
1761838437942891000,6.56289111328125,-0.11966390577852726,-0.02202643790435977,-0.016648206331580876
1761838437952960000,6.5729599609375,-0.11950433130264282,-0.018382510177744553,-0.05912110120616853
1761838437963030000,6.583030029296875,-0.09915946241021156,-0.01304376123198308,-0.0956303384359926
1761838437973099000,6.59309912109375,-0.060413259908556935,-0.00021006255410611628,-0.130799851494655
1761838437983169000,6.6031689453125,-0.018081015613675117,-0.009068336528679355,-0.145707278573513
1761838437993238000,6.613238037109375,0.0043932665228843685,-0.027965664360765367,-0.13531038772165774
1761838438003308000,6.62330810546875,0.020619009658694266,-0.03542742420933209,-0.11595920604169369
1761838438013377000,6.633376953125,0.052580082064867015,-0.01795085902852006,-0.07606500254869461
1761838438023447000,6.643447021484375,0.05566168146729469,-0.014087014074064791,-0.019076748652756215
1761838438033516000,6.65351611328125,0.03390343864560127,-0.009003920389804989,0.03389985844902694
1761838438043586000,6.6635859375,0.022026538369059562,-0.023693960124626753,0.06522760138772428
1761838438053654800,6.67365478515625,0.0005927051961421966,-0.04073063605083153,0.09192797678671777
1761838438063724000,6.68372412109375,-0.014694880306720733,-0.02280074674510397,0.09940408482104539
1761838438073793800,6.693793701171875,-0.010656418570876122,-0.026776774236606432,0.08289937861338258
1761838438083863000,6.703863037109375,0.004188099339604377,-0.014553097215853631,0.056384588914364576
1761838438093933000,6.71393310546875,0.0413701212644577,-0.0009345865695271641,0.03491115438342094
1761838438104002000,6.724001953125,0.0651285979926586,0.007534158364497124,0.02800955830141902
1761838438114072000,6.734072021484375,0.04389700939357281,0.005104629662632942,0.02836575132794678
1761838438124141000,6.74414111328125,0.019840426501631734,-0.00012867701412178575,0.030254341553524133
1761838438134211000,6.754211181640625,-0.025903672063350675,-0.011419950289279222,0.02281272031068802
1761838438144280000,6.764280029296875,-0.07105681899785996,-0.023775962152541612,0.006694529202580452
1761838438154350000,6.77435009765625,-0.10115092848837375,-0.00955928468366619,-0.01358056238926947
1761838438164418800,6.784418701171875,-0.1108124908030033,0.02555660305819474,-0.06008190906234085
1761838438174489000,6.794489013671875,-0.09522212296128273,0.033571489577763715,-0.0624544834125787
1761838438184557800,6.804557861328125,-0.10185936901867389,0.043569672568771055,-0.052531932074204084
1761838438194628000,6.814628173828125,-0.09163608116805552,0.06086188502546865,-0.05514028794169425
1761838438204696800,6.82469677734375,-0.04946808752417564,0.04895988227371126,-0.06414192504286766
1761838438214767000,6.83476708984375,-0.03622749767899513,0.03556262686236296,-0.0701721451178193
1761838438224836000,6.844836181640625,0.012906243324279785,0.027011647004983385,-0.09217844441644847
1761838438234905900,6.85490576171875,0.04665419914722442,0.054588435345748434,-0.10655249527096748
1761838438244975000,6.86497509765625,0.07673311106860638,0.06967324198524001,-0.09973200160115957
1761838438255044900,6.875044921875,0.09327858767807483,0.04684842481138184,-0.07239252458103
1761838438265114000,6.885114013671875,0.09613748424053191,0.042261526279384266,-0.008632584593072532
1761838438275183900,6.895183837890625,0.06088438455164432,0.029327052374463525,0.034846564714610576
1761838438285253000,6.905253173828125,0.016965163326263428,0.0006418872332666069,0.06836882202289998
1761838438295323000,6.915322998046875,-0.02578618316352367,-0.014588428824138827,0.06888612389527261
1761838438305392000,6.92539208984375,-0.051339726614952085,-0.010520768393273464,0.03895663038194179
1761838438315460900,6.9354609375,-0.03423661612272262,-0.009846727889496832,-0.001969108115881681
1761838438325531000,6.94553076171875,-0.03550385957956314,-0.013939595826854929,-0.06467807774618267
1761838438335599900,6.955599853515625,-0.007585340562462807,-0.009007217458589001,-0.09774521169811487
1761838438345670000,6.965669921875,-0.02830605702996254,-0.018113662074529566,-0.11126914852932095
1761838438355739100,6.9757392578125,-0.05654255595505237,-0.03546062779261265,-0.09962817590050399
1761838438365809000,6.985808837890625,-0.06745324154794216,-0.04920232642719056,-0.07101115322522819
1761838438375878100,6.995878173828125,-0.08034194921553134,-0.03621096666930243,-0.058301236190646887
1761838438385948000,7.005947998046875,-0.05073182384967804,-0.047195110224047675,-0.03746208097524941
1761838438396017200,7.01601708984375,-0.010961538997292518,-0.055971304538892576,-0.016594649513438343
1761838438406087000,7.0260869140625,0.019383330383896828,-0.049839350255671884,0.005011982943117619
1761838438416156200,7.03615625,0.0481061515212059,-0.052773029087390746,0.040000075020268554
1761838438426226000,7.046225830078125,0.030723055043816564,-0.03231673570973798,0.05892324054650962
1761838438436295000,7.056294921875,-0.003731587743759155,-0.017453102106833828,0.0494556664340198
1761838438446365200,7.066365234375,-0.020989012014865874,-0.016131991304596884,0.033551556468009947
1761838438456434000,7.076433837890625,-0.032115386185050006,-0.01268482825909741,-0.012276932444795965
1761838438466504200,7.086504150390625,-0.033528175592422486,-0.013756174684502184,-0.048042730896174904
1761838438476573000,7.096572998046875,-0.040489831298589705,-0.02675411488022655,-0.06581877221390604
1761838438486642000,7.106641845703125,-0.03162088066637516,-0.005219689143355935,-0.08366722118072212
1761838438496712000,7.1167119140625,-0.029543489870429037,0.002005668133450672,-0.06566752717494964
1761838438506781200,7.12678125,-0.03737316058278083,-0.015473554795328527,-0.042428617341443896
1761838438516851000,7.136850830078125,-0.06406885980665683,-0.023839679605094713,-0.04112023815661669
1761838438526920200,7.146920166015625,-0.06309095468521118,-0.02920380958728492,-0.022862404671311377
1761838438536990000,7.156989990234375,-0.03984218104481697,-0.04286810473725199,0.011532543818280101
1761838438547059000,7.167058837890625,-0.028132454028725624,-0.03817566347154788,0.04823233518414199
1761838438557129000,7.17712890625,-0.02230243270099163,-0.03523978354958817,0.07381378955580294
1761838438567198000,7.187197998046875,-0.0043827451288700105,-0.03846881946553476,0.07739654341340065
1761838438577268000,7.19726806640625,-0.018944938966631887,-0.026218035242147743,0.048414706013724204
1761838438587337000,7.2073369140625,-0.009088146340847016,0.0015476860997267067,0.008985416618734598
1761838438597407000,7.217406982421875,0.006643091276288032,0.0203162912519183,-0.022925240774452686
1761838438607476000,7.22747607421875,0.023495441877841947,0.03335312041961588,-0.05004990600012243
1761838438617546000,7.2375458984375,0.045183542072772975,0.04728179299365729,-0.04965783794261515
1761838438627615000,7.247614990234375,0.048636897397041315,0.0407514231105335,-0.021563304771482942
1761838438637685000,7.25768505859375,0.038945524466037745,0.021923205858748403,0.009490443531423807
1761838438647754000,7.26775390625,0.02343348255753517,0.02428266499908641,0.015723638832569123
1761838438657824000,7.277823974609375,0.002854220387339592,0.02723367855809629,0.014829831798002123
1761838438667893000,7.28789306640625,0.0201426243185997,0.008700553529057652,0.0035732553768903015
1761838438677962000,7.2979619140625,0.013662614649534225,0.011650799903087317,-0.001537804026529193
1761838438688032000,7.308031982421875,0.010959785431623459,0.008967899228353053,-0.016411255770549176
1761838438698101000,7.31810107421875,0.004696048861742019,0.015217680338118225,-0.04917334236130118
1761838438708171000,7.3281708984375,0.018650339934229848,0.01996425381070003,-0.04574227193407714
1761838438718240000,7.338239990234375,0.030067806005477902,0.006045143649447709,-0.048288449285551906
1761838438728310000,7.34831005859375,0.019192191725969313,0.005335442743822932,-0.05726568259783089
1761838438738379000,7.35837890625,-0.0058054714083671565,0.005428582653682679,-0.029952399464882908
1761838438748449000,7.368448974609375,-0.07171440612375736,0.003172547355201095,0.0006451660357415676
1761838438758518000,7.37851806640625,-0.13264730599224567,-0.015807828250993042,-0.002376191079430282
1761838438768588000,7.388588134765625,-0.18511808246374128,-0.033527773733623326,0.0008900807075202464
1761838438778657000,7.398656982421875,-0.14441373163163662,-0.02680716024171561,-0.016905469028279184
1761838438788727000,7.40872705078125,-0.10119009145498276,-0.02796710739918053,-0.03382167864628136
1761838438798796000,7.418796142578125,-0.02264963870346546,-0.02516609677011147,-0.026391601710766554
1761838438808866300,7.4288662109375,0.03075812635719776,-0.013619670556951314,-0.01793152414038777
1761838438818935300,7.438935302734375,0.054849780562520024,-0.010722305147629231,0.006381809991598129
1761838438829004300,7.44900439453125,0.06475684207081794,-0.009668065120652318,0.027762743933498858
1761838438839074300,7.45907421875,0.07319032389521599,-0.00786735410792753,0.053453723094239826
1761838438849143300,7.469143310546875,0.041536710003018375,0.01403024238552898,0.05348645632006228
1761838438859213300,7.47921337890625,0.012291326296329497,0.03847949612317607,0.0402305958405137
1761838438869282300,7.4892822265625,-0.0223603003680706,0.051670931330695745,0.0033976065490394828
1761838438879352300,7.499352294921875,-0.04532967254519462,0.07422439791699871,-0.036534810062497855
1761838438889421300,7.50942138671875,-0.07010638640522956,0.08248473339788616,-0.06161094526052475
1761838438899491300,7.5194912109375,-0.08429390171170234,0.08253960539028048,-0.03824007961042225
1761838438909560300,7.529560302734375,-0.08728314665555953,0.07509002003669739,-0.0052932110372930765
1761838438919630300,7.53963037109375,-0.06828910785019397,0.06286414192570373,-0.0051672465700656174
1761838438929699000,7.549698974609375,-0.07117489241957664,0.04968852534182369,-0.022872560739144683
1761838438939769300,7.559769287109375,-0.03841945476531982,0.047367845575604584,-0.01534362653903663
1761838438949838300,7.56983837890625,-0.01957797617316246,0.04580180183527991,-0.009440905301272869
1761838438959907300,7.5799072265625,0.01618950277864933,0.02117172990432009,-0.000028130115941166878
1761838438969977300,7.589977294921875,0.06318623175323008,0.002427464608941227,0.008950710631534457
1761838438980046300,7.60004638671875,0.06648293521106242,0.005220072735846042,-0.013935732502490281
1761838438990116400,7.610116455078125,0.049203299108147615,-0.01259871174506843,0.01267674541734159
1761838439000185300,7.620185302734375,0.0002034136176109314,-0.02522221087152138,0.04452157103270292
1761838439010255400,7.63025537109375,-0.0013648586124181746,-0.017981299832556395,0.030156214941293
1761838439020324400,7.640324462890625,-0.0882429315984249,-0.026941618542652576,0.01180493101887405
1761838439030394400,7.650394287109375,-0.1061509287327528,-0.02058191078500822,0.025345161397755146
1761838439040463000,7.660463134765625,-0.10118658432364463,-0.0019357538355514407,0.01463328631259501
1761838439050533400,7.670533447265625,-0.08112696211338043,0.022882296681869772,0.008290712352842093
1761838439060602000,7.68060205078125,-0.024254735812544823,0.029731852049380537,-0.008950637566298245
1761838439070672400,7.69067236328125,-0.024847441008687018,0.033302659740857776,-0.011780673360452056
1761838439080741400,7.700741455078125,-0.010945172384381294,0.02287113596703857,-0.0005067074131220578
1761838439090810400,7.710810302734375,-0.0045662850022315975,0.012087437754683196,0.0014587474409490822
1761838439100880400,7.72088037109375,-0.013770751199126243,0.009017711453139782,-0.016728139699995516
1761838439110949400,7.730949462890625,0.007409399473667144,0.012169709210656583,-0.017021861949563025
1761838439121019400,7.741019287109375,0.02906418192088604,0.019789573097229004,-0.010925079444423317
1761838439131088400,7.75108837890625,0.03342062356472015,0.03023636750541627,0.0014326631516218184
1761838439141158400,7.761158447265625,0.03167348763644695,0.043146921678632495,0.027480712121725082
1761838439151227100,7.77122705078125,0.036790976780653,0.053098333785310384,0.05392440934590995
1761838439161297400,7.78129736328125,0.017473697370290756,0.041097478335537015,0.05260675087608397
1761838439171366100,7.7913662109375,-0.006224573603272438,0.052276349877938624,0.041762116256728765
1761838439181436400,7.8014365234375,-0.041492870861291886,0.06555971941892057,0.016167875468730927
1761838439191505200,7.811505126953125,-0.08535656250715255,0.06531864067204296,0.000620616116374731
1761838439201575200,7.8215751953125,-0.07838555445075035,0.05805062243044376,-0.038546588276326656
1761838439211644400,7.83164453125,-0.08130056511461735,0.05433120004851371,-0.09160459005124866
1761838439221713400,7.84171337890625,-0.07611176429986953,0.06013813276160508,-0.14486447107382117
1761838439231783400,7.851783447265625,-0.08706453546881675,0.06375157401841133,-0.14916801348663866
1761838439241852200,7.86185205078125,-0.07543254986405372,0.08399005992691963,-0.12211202958300708
1761838439251922400,7.87192236328125,-0.024791911429166792,0.08992675649952143,-0.13305274498797953
1761838439261991200,7.8819912109375,0.024452304211258886,0.08084602628014981,-0.1253566375274211
1761838439272061400,7.8920615234375,0.07418868728280067,0.05676018076110631,-0.11536920425929129
1761838439282130200,7.902130126953125,0.14048106835782528,0.03466572825498879,-0.12312025677748024
1761838439292200400,7.912200439453125,0.15881985812485216,0.014315744796022772,-0.10333864779099822
1761838439302269200,7.922269287109375,0.11272387738227843,0.002791201621107757,-0.054547509680315846
1761838439312339200,7.932339111328125,0.11732289561033248,0.011561258456110954,-0.003987900592386722
1761838439322408200,7.942408203125,0.06304360841214657,0.023072759486362338,0.006151216106116772
1761838439332477400,7.9524775390625,0.025614918249845502,0.03479845125656575,-0.0020119974095374345
1761838439342547200,7.962547119140625,0.002055178964138031,0.03628116409499198,-0.0027066286101937293
1761838439352616200,7.9726162109375,-0.011523849055171013,0.049669236119464034,-0.011414762657508253
1761838439362686500,7.9826865234375,-0.040400399449467654,0.07462623844984918,0.020097835328802466
1761838439372755200,7.992755126953125,-0.037034722408652306,0.07307619599625467,0.0321997034676373
1761838439382825500,8.002825439453124,-0.0029565117180347443,0.063995794570446,0.055806789026409384
1761838439392894200,8.012894287109376,0.04983692083656788,0.06470971499346197,0.10634265191256999
1761838439402964500,8.022964599609375,0.060086512172222134,0.06511142766214907,0.12252506736330687
1761838439413033200,8.033033203125,0.024229016849398613,0.034101445435732604,0.1210036299496889
1761838439423103200,8.043103271484375,0.09910860900580883,0.032243506076745684,0.0769479959283024
1761838439433172200,8.053172119140624,0.05635083277523517,0.03538220596127212,0.033093291306495666
1761838439443241500,8.063241455078124,0.06903904943466187,0.03644592620264739,-0.009131620156392455
1761838439453311200,8.073311279296876,0.1788824029445648,0.07202069559395313,-0.0640072658125311
1761838439463380200,8.083380126953125,0.04885024788677692,0.054537317079864436,-0.12417867978923022
1761838439473450200,8.0934501953125,0.0368213719189167,0.04262636840324849,-0.18306560691334306
1761838439483519200,8.103519287109375,-0.11270108102858066,-0.1038219012632966,-0.23124971904158592
1761838439493589500,8.113589599609375,-0.49041795710027214,-0.5233472169514746,-0.24029892161153255
1761838439503658200,8.123658203125,-0.11001871007680893,-0.0615201617045328,-0.10196217180602252
1761838439513728300,8.133728271484374,-0.021352000108361243,0.2531558093687519,-0.14842998153567313
1761838439523797200,8.14379736328125,-0.005379939472675323,0.23061357656251638,-0.19386209154203532
1761838439533866500,8.153866455078125,0.03907002762854099,0.15136621765065938,-0.30453071689493955
1761838439543936300,8.163936279296875,0.20481004040539263,0.2969245162075385,-0.3781343708314001
1761838439554005500,8.174005615234375,0.27970249204337594,0.30535251813922076,-0.42663149443157017
1761838439564075300,8.1840751953125,0.06715279729664325,0.17330471241008488,-0.4013138055626303
1761838439574144300,8.194144287109374,-0.02785246804356575,-0.03977832202836871,-0.3575040360610932
1761838439584214300,8.20421435546875,-0.012031798577308654,-0.08539302206002175,-0.25208865506127476
1761838439594283300,8.214283203125,-0.07304653151035309,-0.03891746741533279,-0.0914462576843798
1761838439604353300,8.224353271484375,-0.11483517044782637,-0.06748721688278018,0.07932488112747668
1761838439614422300,8.23442236328125,-0.13117489535212515,-0.11572112296950071,0.1980453685760498
1761838439624492300,8.2444921875,-0.096443189188838,-0.10790175445545463,0.24859379868283865
1761838439634561300,8.254561279296874,-0.04616378528177738,-0.10303462334312498,0.24817601166218517
1761838439644630300,8.26463037109375,0.05102057766318321,-0.0951841290384531,0.24210187938027083
1761838439654700300,8.2747001953125,0.06785130095481873,-0.025524061628617346,0.2501422337012365
1761838439664769500,8.28476953125,0.0014560440272092818,-0.04428885825537145,0.2864733744177967
1761838439674839300,8.29483935546875,-0.10076339047551154,-0.13034432627949863,0.31464429729338733
1761838439684908300,8.304908203125,-0.10933832659721374,-0.1604234208639711,0.2983568140329793
1761838439694978300,8.314978271484375,-0.07780863134562968,-0.1539039194347337,0.2537245857000351
1761838439705047300,8.32504736328125,-0.10879939741492271,-0.19310886202193794,0.2074790769515559
1761838439715117300,8.335117431640626,-0.03090191874206066,-0.22849241969007997,0.15749905784986912
1761838439725186300,8.345186279296875,0.05566811120808124,-0.15483411295693367,0.08645681536663323
1761838439735255300,8.35525537109375,0.07295534609556198,-0.15272420813087373,0.04538743061441928
1761838439745325300,8.3653251953125,0.03464928857684135,-0.14011037188190967,0.06874514452200382
1761838439755394300,8.375394287109375,-0.058679567983746524,-0.17537275085579604,0.10055066104028373
1761838439765464300,8.38546435546875,-0.10365794287323951,-0.23923841624055056,0.13322189100980758
1761838439775533300,8.395533203125,-0.2002063460022211,-0.21952081240098922,0.149069704211317
1761838439785603300,8.405603271484376,-0.2035702694773674,-0.14331830107774585,0.13395462573114783
1761838439795672000,8.415672119140625,-0.14942717587947846,-0.07586641123667359,0.14370375673137603
1761838439805742300,8.425742431640625,-0.16766893501281738,-0.10042232195287942,0.12083338794931768
1761838439815811600,8.4358115234375,-0.1843459290474653,-0.18134017136022448,0.13281067986041306
1761838439825880800,8.445880859375,-0.1071872860431671,-0.18598310179524122,0.10907850661724805
1761838439835950600,8.45595068359375,-0.06066869597434997,-0.10443429754059762,0.11404643122293054
1761838439846019800,8.466019775390626,-0.0048953708261251444,-0.07000504492260515,0.15456548861600458
1761838439856089600,8.476089599609375,0.11806933006346225,-0.11416987493950873,0.22525705449804662
1761838439866158800,8.486158935546875,0.11539397337436676,-0.12337733681108802,0.30017858610004183
1761838439876228600,8.496228515625,0.1452379074960947,-0.14582904178965836,0.3593525134719908
1761838439886297600,8.506297607421875,0.15693886668384074,-0.15281188641432672,0.37019707502610977
1761838439896367900,8.516367919921874,0.1573112071275711,-0.11584562613200396,0.3166916948098689
1761838439906436600,8.5264365234375,0.16130407615602016,-0.07173121112808585,0.24318397552855311
1761838439916505600,8.536505615234375,0.1147077446758747,-0.041979083475656806,0.1763596795339137
1761838439926575600,8.54657568359375,0.07417933493256569,-0.06460501250997186,0.1037321771532297
1761838439936644600,8.55664453125,0.053771922197937964,-0.05505699357241392,0.050783919363096355
1761838439946714600,8.566714599609375,0.02623275788724422,-0.033308176166191694,-0.007770049479603767
1761838439956783900,8.576783935546874,0.003833294552564621,-0.00830609258506447,-0.06259528012275696
1761838439966853600,8.586853515625,0.006429740786552429,0.036239882236532864,-0.1150276973452419
1761838439976922600,8.596922607421876,0.005370587122440338,0.07693287142440676,-0.1473246506422758
1761838439986992600,8.60699267578125,0.005412088176608086,0.0924553981943056,-0.1754705486744642
1761838439997061600,8.6170615234375,-0.018481413108110425,0.08889003386292606,-0.18796112386994063
1761838440007130600,8.627130615234375,-0.03597381517887115,0.08751911083590239,-0.2179361370254308
1761838440017200600,8.63720068359375,-0.04518120398521423,0.09993910501319915,-0.2332924038503319
1761838440027269600,8.64726953125,-0.04814648353159427,0.14293021507561207,-0.26137999582402405
1761838440037339600,8.657339599609376,-0.05802198085784912,0.1613772144574672,-0.27320618882663544
1761838440047408600,8.66740869140625,-0.0290004690349102,0.15414949169363826,-0.3073475278813392
1761838440057478700,8.677478759765625,0.006238602128624916,0.1399350883802399,-0.31420097397267815
1761838440067547600,8.687547607421875,0.02266834340393543,0.10517645767740905,-0.2873636743210256
1761838440077617700,8.69761767578125,0.00035480478703975673,0.08938143410906195,-0.21062522949017584
1761838440087686700,8.707686767578124,-0.018611761489510534,0.06420680697262286,-0.11066738324388861
1761838440097755600,8.717755615234376,0.018006196811795234,0.03038940264265984,-0.038837826307863
1761838440107825700,8.72782568359375,0.04892272860109806,-0.016860241647064685,0.03977700685411691
1761838440117894700,8.737894775390625,0.10689853222966193,-0.06716470693014562,0.10783157529607415
1761838440127964700,8.747964599609375,0.16370821468830107,-0.08145495195873081,0.14558584415093062
1761838440138033700,8.75803369140625,0.2500695703238249,-0.09485416643172502,0.18890929144024848
1761838440148103700,8.768103759765625,0.320094708186388,-0.0949364378876984,0.2118780060302466
1761838440158172700,8.778172607421874,0.31742227410674095,-0.11291446805093437,0.22992000480778513
1761838440168241700,8.78824169921875,0.24049919342398643,-0.1404798262488097,0.23545381966792045
1761838440178311700,8.798311767578125,0.1413034906566143,-0.1243541094213724,0.21557846798337996
1761838440188380700,8.808380615234375,0.05227320807278156,-0.08209259227514266,0.1746758911654353
1761838440198450700,8.81845068359375,-0.020807225707173346,-0.039081243142299354,0.09690883393920957
1761838440208519700,8.828519775390625,-0.13291326345205307,-0.011515884944424033,0.020719255162775514
1761838440218589700,8.838589599609374,-0.20360124913752078,-0.02107979557085782,-0.07460121360644698
1761838440228658700,8.84865869140625,-0.2555354345142841,-0.11591763192228972,-0.16654394957087934
1761838440238728700,8.858728759765626,-0.13058160563409327,0.0636102293189615,-0.179624818809703
1761838440248797700,8.868797607421875,-0.09194003255069255,0.19228702424503863,-0.17601685744561255
1761838440258866700,8.87886669921875,-0.044751580396294594,0.2748926075436175,-0.18277780294790863
1761838440268936700,8.888936767578125,-0.12438742716908455,0.16518179437220096,-0.20157215446271
1761838440279005700,8.899005615234374,-0.12392799296379088,0.009796404208056627,-0.21472426230683922
1761838440289075700,8.90907568359375,-0.09830372236371039,0.009697035486809908,-0.20348207973726093
1761838440299144700,8.919144775390626,-0.08654548003077507,0.010207250031270087,-0.21462503971606492
1761838440309214500,8.92921435546875,-0.05974982756376266,0.004000869671814143,-0.2194350703462958
1761838440319283700,8.93928369140625,-0.08820493767559529,-0.022627171143330634,-0.17542342159710825
1761838440329352700,8.949352783203125,-0.09295710063874721,-0.0304336801758036,-0.11732530676312744
1761838440339422700,8.959422607421875,-0.10018412928283214,-0.041830761046148836,-0.031452392231673
1761838440349491700,8.96949169921875,-0.09556056113541125,-0.05328585571404546,0.04509330650605261
1761838440359561700,8.979561767578126,-0.09103753075301646,-0.10297456371895969,0.092269775961712
1761838440369630500,8.98963037109375,-0.03807867850363254,-0.09452307131383568,0.11979352350756525
1761838440379700700,8.99970068359375,-0.03280921366810798,-0.18449235178083181,0.11256481436304748
1761838440389769500,9.00976953125,0.12341712083220481,-0.07443166572581976,0.13638167021498082
1761838440399838700,9.019838623046875,0.16138766278624533,0.004700213580206036,0.15009901072643697
1761838440409908700,9.02990869140625,0.12444880196750163,-0.1360357063215226,0.18168861947171389
1761838440419977700,9.039977783203126,0.10973054078519344,-0.12289262203406542,0.18262801921367644
1761838440430047700,9.0500478515625,0.07539163333177566,-0.10297357733827084,0.1506825827680528
1761838440440116700,9.06011669921875,-0.05648702637553215,-0.1239659138213843,0.09512962237223982
1761838440450186800,9.070186767578125,-0.0793856714040041,-0.09269402925577014,0.04240333676971495
1761838440460255700,9.080255859375,-0.03800736683309078,0.02884593606032431,0.022021496867761014
1761838440470325800,9.09032568359375,0.049119712477922434,0.11497023153696209,-0.05540164229162037
1761838440480394500,9.10039453125,0.08815525331497191,0.17982538288310168,-0.15366086792647837
1761838440490463700,9.110463623046876,0.033628713357448575,0.22429854819681494,-0.2215215942967683
1761838440500533500,9.120533447265625,-0.04015665382146835,0.2233562075790949,-0.23050350378416476
1761838440510602800,9.130602783203125,-0.09456687392294406,0.1841799796297215,-0.2280187012311071
1761838440520672500,9.140672607421875,-0.14509119250178337,0.0712951395320706,-0.22181721624247727
1761838440530741800,9.15074169921875,-0.1281359660476446,0.14705586190456524,-0.2594710934627801
1761838440540810500,9.160810546875,-0.016427987709641455,0.2240856726311147,-0.3090210871167481
1761838440550880800,9.170880859375,0.06297463482916354,0.20006202389439567,-0.32698980146236717
1761838440560949500,9.180949462890625,0.021971008789539337,0.1805710684175603,-0.27246896059326825
1761838440571019800,9.191019775390625,-0.01932254010736942,0.24374248619414865,-0.2751924672730267
1761838440581088800,9.2010888671875,0.08757891473174095,0.19480207580588757,-0.27649105571620164
1761838440591158500,9.211158447265625,0.15925240432322024,0.16249496644102035,-0.29721213750988246
1761838440601227800,9.221227783203124,0.10410393307507038,0.16184569048574193,-0.2871571188982576
1761838440611297500,9.231297607421874,-0.012642039430141448,0.18826858238391578,-0.20460224287360906
1761838440621366800,9.24136669921875,-0.06615209582149982,0.02772339830379933,-0.07665858452767134
1761838440631435500,9.251435546875,-0.1375122816801071,0.006503408810961992,0.004686258120089769
1761838440641505800,9.261505859375,-0.14683482129871844,0.11134491717927157,0.03062785104103386
1761838440651574500,9.271574462890625,-0.09975918186902999,-0.09002163170874118,0.07025412431284785
1761838440661644800,9.281644775390625,-0.14844401006102562,0.01226109555484727,0.031473946476355194
1761838440671713500,9.291713623046874,-0.017759528574347493,0.061741786832269274,0.03634023733846843
1761838440681783600,9.301783447265626,0.0843348182439804,-0.05518993576969951,0.09469006191119551
1761838440691852500,9.3118525390625,-0.09155717071294785,-0.09962433997560292,0.17947284311838446
1761838440701921800,9.321921875,-0.1645697999536991,-0.14527531689703463,0.24432627743147312
1761838440711991800,9.33199169921875,-0.1406751296252012,-0.14650628346409647,0.28184673753045497
1761838440722060800,9.342060791015625,-0.20618132875859735,-0.18011892246957867,0.3142455437667668
1761838440732130800,9.352130859375,-0.24886311714351175,-0.09680924602225423,0.35184221090711654
1761838440742199600,9.362199462890626,-0.3694417996793985,-0.10738828850798308,0.39837585241459306
1761838440752269800,9.372269775390626,-0.40122985360622404,-0.2521323480725288,0.3945785059582442
1761838440762338600,9.382338623046875,-0.21636779173016546,-0.23143358770851044,0.3362610492851585
1761838440772407800,9.39240771484375,0.13195640111863613,-0.2255472330836579,0.2547527597039938
1761838440782477600,9.4024775390625,0.34578093810677524,-0.28475824106298386,0.14731069518215953
1761838440792546800,9.412546875,0.27644027537703514,-0.15597349225040524,0.026158596672490236
1761838440802616600,9.422616455078124,0.3360240987241268,0.23775442476049063,-0.05916800908781588
1761838440812684300,9.432684326171875,0.6635474956065416,-0.07394684135094284,-0.10220182578079402
1761838440822754300,9.44275439453125,0.5979769990652799,0.02345426961723715,-0.14880261424034832
1761838440832823300,9.4528232421875,0.426418655398488,-0.21294877706691623,-0.08026216197758912
1761838440842892300,9.462892333984374,0.017985738545656202,0.20556885941606015,-0.05912884612120688
1761838440852962300,9.47296240234375,0.22254209645092485,0.18125705965403466,-0.007159516365826129
1761838440863031300,9.48303125,0.3569382919371128,-0.06857334988536312,-0.06290295783244074
1761838440873101300,9.493101318359376,0.08092997823655605,-0.006403236372116952,-0.08901376984044909
1761838440883170300,9.50317041015625,-0.11578209590911864,-0.044914771601371466,0.04412329243011772
1761838440893239300,9.5132392578125,-0.22417291252315044,-0.05003931154087186,0.13956088477298617
1761838440903309300,9.523309326171875,-0.22970716577470301,-0.05336772531121969,0.16521891151219606
1761838440913378300,9.53337841796875,-0.2519283499330282,-0.050325124478619546,0.08811433678269386
1761838440923448300,9.5434482421875,-0.3440887472361326,-0.07127769520692527,0.02733604295402765
1761838440933517300,9.553517333984376,-0.3888753989458084,-0.1019573129678145,0.05025178524777293
1761838440943587300,9.56358740234375,-0.31819384300112724,0.01399776488803327,-0.00531483834721148
1761838440953656300,9.57365625,-0.19465806422531604,-0.15902409372637047,-0.01802804331742227
1761838440963725300,9.583725341796875,-0.19809914458990097,-0.5110616628088057,0.011206892060488461
1761838440973795000,9.593795166015624,-0.41384266694188115,0.11953163943467661,0.008913666556775569
1761838440983864300,9.6038642578125,-0.003598316752910614,0.11952964840698986,-0.002268602519109845
1761838440993934300,9.613934326171876,0.33222236835360525,0.11498628762261941,-0.03487418337389826
1761838441004003300,9.62400341796875,0.41935587740540503,0.41221232579369094,-0.0994412750262767
1761838441014073300,9.6340732421875,0.3826017255038023,0.043218215082865205,-0.10403276753500103
1761838441024142300,9.644142333984375,0.011536708536744118,-0.19808880585897712,-0.09036664575412869
1761838441034211300,9.65421142578125,0.04807926351428032,-0.23350301439370957,-0.05422061581350863
1761838441044281300,9.66428125,0.10058218868970871,-0.15852083864565938,0.04407148917764425
1761838441054350300,9.674350341796876,0.00722352151274681,-0.0972998790834099,0.03414579603411257
1761838441064420000,9.684420166015625,0.00263210206925869,-0.1662237046405673,-0.031189138185605404
1761838441074489300,9.6944892578125,0.014573299753665923,-0.093136548858881,-0.06629603433683515
1761838441084559000,9.70455908203125,0.050934652945399284,0.009101151952892541,0.004777370469644666
1761838441094628400,9.71462841796875,-0.05989303542673587,0.10107271215301006,0.13465448109619318
1761838441104697300,9.724697265625,-0.06415595356822014,0.15576251638084648,0.1483420109912753
1761838441114767400,9.734767333984376,0.08404372634291649,0.11111530967447907,0.01792253711633384
1761838441124836000,9.744836181640625,0.18178163151741028,0.0595212429722771,-0.1461188550490886
1761838441134906400,9.75490625,0.25318974817097184,0.07768595481403172,-0.2154121715057641
1761838441144975000,9.76497509765625,0.3289496302932501,0.20158939785845575,-0.1723196834281087
1761838441155044400,9.77504443359375,-0.002983399724960327,0.167239055695571,-0.14835932745225727
1761838441165114400,9.7851142578125,-0.1484802504181862,0.13775113193728028,-0.20856508208997546
1761838441175183400,9.795183349609376,-0.04309387631714344,0.00812017809152603,-0.3065611267440021
1761838441185253400,9.80525341796875,0.13069032670557498,-0.04148048630375415,-0.37218846803903577
1761838441195322400,9.815322265625,0.23565935217738151,-0.005456986764259636,-0.3409570981469005
1761838441205392400,9.825392333984375,0.20648352657556532,-0.10501363179851322,-0.2498996936496347
1761838441215461400,9.83546142578125,0.1366021810978651,-0.18151255051875487,-0.13304616911672054
1761838441225530400,9.8455302734375,0.033149989929795266,-0.251402883020509,-0.004077040180563926
1761838441235600100,9.85560009765625,-0.1870259619116783,-0.1861396440638229,0.11306954901479184
1761838441245669400,9.86566943359375,-0.16982056008875368,-0.010527823755145072,0.1559745516963303
