time,seconds_elapsed,z,y,x
1761307247950641400,0.073641357421875,-0.7042694091796875,-0.718292236328125,-0.0317230224609375
1761307247960569300,0.0835693359375,-0.7167510986328125,-0.71844482421875,-0.0284423828125
1761307247970497300,0.093497314453125,-0.7112884521484375,-0.72442626953125,-0.0161285400390625
1761307247980425500,0.103425537109375,-0.6723480224609375,-0.733123779296875,0.0102386474609375
1761307247990353400,0.113353515625,-0.664154052734375,-0.7339935302734375,0.017303466796875
1761307248000281300,0.12328125,-0.67529296875,-0.7292633056640625,0.0066680908203125
1761307248010209300,0.133209228515625,-0.69451904296875,-0.7243804931640625,-0.0152435302734375
1761307248020137200,0.14313720703125,-0.7105865478515625,-0.719390869140625,-0.0264892578125
1761307248030065400,0.1530654296875,-0.709075927734375,-0.719512939453125,-0.02886962890625
1761307248039993300,0.162993408203125,-0.6973876953125,-0.7210235595703125,-0.024078369140625
1761307248049921500,0.172921630859375,-0.68310546875,-0.7266998291015625,-0.011077880859375
1761307248059849500,0.182849365234375,-0.6789398193359375,-0.729583740234375,0.00250244140625
1761307248069777400,0.19277734375,-0.6844024658203125,-0.72955322265625,0.0032196044921875
1761307248079705600,0.20270556640625,-0.69378662109375,-0.7256317138671875,-0.00909423828125
1761307248089633500,0.212633544921875,-0.69775390625,-0.722137451171875,-0.020233154296875
1761307248099561500,0.2225615234375,-0.698822021484375,-0.7203521728515625,-0.023651123046875
1761307248109489400,0.232489501953125,-0.695648193359375,-0.7230987548828125,-0.0186309814453125
1761307248119417300,0.242417236328125,-0.6885833740234375,-0.7269287109375,-0.0077667236328125
1761307248129345500,0.252345458984375,-0.686187744140625,-0.7278900146484375,-0.0030059814453125
1761307248139273500,0.2622734375,-0.6866912841796875,-0.7267608642578125,-0.00555419921875
1761307248149201400,0.272201416015625,-0.6906280517578125,-0.724273681640625,-0.0128631591796875
1761307248159129300,0.28212939453125,-0.6949005126953125,-0.722808837890625,-0.017486572265625
1761307248169057300,0.292057373046875,-0.697265625,-0.7233734130859375,-0.01739501953125
1761307248178985500,0.3019853515625,-0.694427490234375,-0.72503662109375,-0.0125274658203125
1761307248188913400,0.311913330078125,-0.690032958984375,-0.7267608642578125,-0.0091094970703125
1761307248198841300,0.32184130859375,-0.6862030029296875,-0.7264251708984375,-0.008697509765625
1761307248208770600,0.3317705078125,-0.6879425048828125,-0.7249908447265625,-0.0113067626953125
1761307248218698500,0.341698486328125,-0.6925048828125,-0.7244415283203125,-0.0137481689453125
1761307248228626400,0.35162646484375,-0.695465087890625,-0.7246246337890625,-0.0145111083984375
1761307248238554400,0.361554443359375,-0.6951141357421875,-0.724334716796875,-0.01385498046875
1761307248248482600,0.371482666015625,-0.691741943359375,-0.7256927490234375,-0.0122528076171875
1761307248258410500,0.381410400390625,-0.688934326171875,-0.7255096435546875,-0.010833740234375
1761307248268338400,0.39133837890625,-0.6883544921875,-0.725860595703125,-0.0108795166015625
1761307248278266400,0.401266357421875,-0.690643310546875,-0.7244720458984375,-0.0116424560546875
1761307248288194300,0.4111943359375,-0.693389892578125,-0.72509765625,-0.0130462646484375
1761307248298122500,0.42112255859375,-0.6925811767578125,-0.725006103515625,-0.0133819580078125
1761307248308050400,0.431050537109375,-0.691436767578125,-0.72442626953125,-0.013214111328125
1761307248317978400,0.440978271484375,-0.6895751953125,-0.7251434326171875,-0.0122222900390625
1761307248327906300,0.45090625,-0.68865966796875,-0.7254486083984375,-0.010772705078125
1761307248337834200,0.460834228515625,-0.6884613037109375,-0.7250518798828125,-0.010955810546875
1761307248347762400,0.470762451171875,-0.69036865234375,-0.7248382568359375,-0.0121612548828125
1761307248357690400,0.4806904296875,-0.6913299560546875,-0.7250823974609375,-0.0128173828125
1761307248367618300,0.490618408203125,-0.6912078857421875,-0.7253570556640625,-0.013153076171875
1761307248377546200,0.500546142578125,-0.691131591796875,-0.72491455078125,-0.0121002197265625
1761307248387474200,0.51047412109375,-0.689788818359375,-0.7242279052734375,-0.01104736328125
1761307248397402400,0.52040234375,-0.689544677734375,-0.7252960205078125,-0.011962890625
1761307248407330300,0.530330322265625,-0.6894378662109375,-0.7248687744140625,-0.01202392578125
1761307248417258200,0.54025830078125,-0.6907958984375,-0.72509765625,-0.0123138427734375
1761307248427186200,0.550186279296875,-0.690521240234375,-0.724884033203125,-0.013031005859375
1761307248437114000,0.560114013671875,-0.6902008056640625,-0.7250823974609375,-0.0125732421875
1761307248447042300,0.570042236328125,-0.6886749267578125,-0.7252197265625,-0.0123443603515625
1761307248456970200,0.57997021484375,-0.6882171630859375,-0.72540283203125,-0.011932373046875
1761307248466898200,0.589898193359375,-0.6899871826171875,-0.7246856689453125,-0.0117340087890625
1761307248476826400,0.599826416015625,-0.689453125,-0.72576904296875,-0.0124664306640625
1761307248486754300,0.60975439453125,-0.690216064453125,-0.724456787109375,-0.0122222900390625
1761307248496682500,0.6196826171875,-0.6910400390625,-0.7249908447265625,-0.011871337890625
1761307248506610400,0.6296103515625,-0.690460205078125,-0.725341796875,-0.01287841796875
1761307248516538400,0.639538330078125,-0.6889190673828125,-0.7240447998046875,-0.0129547119140625
1761307248526466300,0.64946630859375,-0.690185546875,-0.72381591796875,-0.01153564453125
1761307248536394200,0.659394287109375,-0.6897430419921875,-0.725799560546875,-0.0120391845703125
1761307248546322400,0.669322509765625,-0.6902923583984375,-0.724090576171875,-0.0119171142578125
1761307248556250400,0.67925048828125,-0.6902923583984375,-0.724639892578125,-0.0118408203125
1761307248566178300,0.68917822265625,-0.68975830078125,-0.7254791259765625,-0.0126953125
1761307248576106200,0.699106201171875,-0.6898345947265625,-0.7252197265625,-0.012451171875
1761307248586034200,0.7090341796875,-0.6897125244140625,-0.7250823974609375,-0.0123138427734375
1761307248595962400,0.71896240234375,-0.689178466796875,-0.725616455078125,-0.012542724609375
1761307248605891300,0.728891357421875,-0.68804931640625,-0.7256622314453125,-0.011199951171875
1761307248615819300,0.7388193359375,-0.6901397705078125,-0.725341796875,-0.0121612548828125
1761307248625747200,0.748747314453125,-0.6901397705078125,-0.7249755859375,-0.0125732421875
1761307248635675400,0.75867529296875,-0.6905517578125,-0.7245635986328125,-0.012298583984375
1761307248645603300,0.768603271484375,-0.69024658203125,-0.7246551513671875,-0.0117645263671875
1761307248655531500,0.778531494140625,-0.689971923828125,-0.7246246337890625,-0.012542724609375
1761307248665459500,0.78845947265625,-0.6907501220703125,-0.7246246337890625,-0.0125274658203125
1761307248675387400,0.798387451171875,-0.68853759765625,-0.7258148193359375,-0.0128936767578125
1761307248685315300,0.8083154296875,-0.688018798828125,-0.725189208984375,-0.0127716064453125
1761307248695243300,0.8182431640625,-0.6898193359375,-0.72467041015625,-0.011810302734375
1761307248705171500,0.82817138671875,-0.6892547607421875,-0.7241363525390625,-0.0114288330078125
1761307248715099400,0.838099365234375,-0.6893157958984375,-0.7250213623046875,-0.0126800537109375
1761307248725027300,0.84802734375,-0.688934326171875,-0.7244110107421875,-0.01214599609375
1761307248734955300,0.857955322265625,-0.6885833740234375,-0.7253570556640625,-0.0118560791015625
1761307248744883200,0.86788330078125,-0.68963623046875,-0.7241973876953125,-0.011688232421875
1761307248754811400,0.877811279296875,-0.6897430419921875,-0.725494384765625,-0.0120849609375
1761307248764739300,0.8877392578125,-0.68994140625,-0.7252044677734375,-0.0119171142578125
1761307248774667300,0.897667236328125,-0.6893157958984375,-0.724365234375,-0.0118560791015625
1761307248784595200,0.90759521484375,-0.689605712890625,-0.724761962890625,-0.012176513671875
1761307248794523100,0.917523193359375,-0.6903076171875,-0.7246551513671875,-0.01190185546875
1761307248804451300,0.927451416015625,-0.690765380859375,-0.725921630859375,-0.01214599609375
1761307248814380300,0.93738037109375,-0.688568115234375,-0.7259521484375,-0.0113372802734375
1761307248824308500,0.94730859375,-0.6896820068359375,-0.7248992919921875,-0.011962890625
1761307248834236400,0.957236328125,-0.6903076171875,-0.724761962890625,-0.012237548828125
1761307248844164400,0.967164306640625,-0.68927001953125,-0.725738525390625,-0.012115478515625
1761307248854092300,0.97709228515625,-0.6896209716796875,-0.72503662109375,-0.0127716064453125
1761307248864020200,0.987020263671875,-0.689788818359375,-0.7257537841796875,-0.0126190185546875
1761307248873948400,0.996948486328125,-0.689239501953125,-0.7253875732421875,-0.012939453125
1761307248883876400,1.00687646484375,-0.6892547607421875,-0.7254638671875,-0.0125732421875
1761307248893804300,1.01680419921875,-0.6902313232421875,-0.7246551513671875,-0.01251220703125
1761307248903732200,1.026732177734375,-0.6900482177734375,-0.7255096435546875,-0.01171875
1761307248913660200,1.03666015625,-0.690338134765625,-0.72467041015625,-0.01141357421875
1761307248923588400,1.04658837890625,-0.6901702880859375,-0.7247314453125,-0.012420654296875
1761307248933516300,1.056516357421875,-0.6895904541015625,-0.7245635986328125,-0.01263427734375
1761307248943444200,1.0664443359375,-0.690399169921875,-0.724090576171875,-0.012359619140625
1761307248953372200,1.0763720703125,-0.689453125,-0.7256317138671875,-0.0115814208984375
1761307248963300400,1.08630029296875,-0.6900482177734375,-0.72503662109375,-0.0117034912109375
1761307248973228300,1.096228271484375,-0.6893157958984375,-0.72589111328125,-0.012420654296875
1761307248983157500,1.106157470703125,-0.6903076171875,-0.7248382568359375,-0.0119476318359375
1761307248993085400,1.11608544921875,-0.690216064453125,-0.7247772216796875,-0.0128631591796875
1761307249003013400,1.126013427734375,-0.6895904541015625,-0.72479248046875,-0.0122833251953125
1761307249012941300,1.13594140625,-0.690582275390625,-0.724212646484375,-0.0124664306640625
1761307249022869200,1.145869140625,-0.691009521484375,-0.72540283203125,-0.0125579833984375
1761307249032797400,1.15579736328125,-0.6894989013671875,-0.72515869140625,-0.012664794921875
1761307249042725400,1.165725341796875,-0.689544677734375,-0.72503662109375,-0.0120391845703125
1761307249052653300,1.1756533203125,-0.69012451171875,-0.725799560546875,-0.0116729736328125
1761307249062581200,1.185581298828125,-0.69061279296875,-0.725250244140625,-0.012786865234375
1761307249072509200,1.19550927734375,-0.690216064453125,-0.7248687744140625,-0.012420654296875
1761307249082437400,1.205437255859375,-0.69000244140625,-0.7248992919921875,-0.0113677978515625
1761307249092365300,1.215365234375,-0.6897735595703125,-0.7247772216796875,-0.012115478515625
1761307249102293200,1.225293212890625,-0.689666748046875,-0.72503662109375,-0.0117340087890625
1761307249112221200,1.23522119140625,-0.69171142578125,-0.72467041015625,-0.012237548828125
1761307249122149000,1.245149169921875,-0.6900787353515625,-0.7247161865234375,-0.0122833251953125
1761307249132078300,1.255078369140625,-0.68927001953125,-0.72509765625,-0.0125579833984375
1761307249142006300,1.26500634765625,-0.6898193359375,-0.725555419921875,-0.0121612548828125
1761307249151934500,1.2749345703125,-0.6891937255859375,-0.72552490234375,-0.0124053955078125
1761307249161862400,1.2848623046875,-0.689788818359375,-0.7244415283203125,-0.01251220703125
1761307249171790300,1.294790283203125,-0.6900787353515625,-0.7251434326171875,-0.01153564453125
1761307249181718300,1.30471826171875,-0.691436767578125,-0.725799560546875,-0.01177978515625
1761307249191646500,1.314646484375,-0.690826416015625,-0.7251129150390625,-0.0124359130859375
1761307249201574400,1.324574462890625,-0.6910400390625,-0.725494384765625,-0.0119476318359375
1761307249211502300,1.33450244140625,-0.69110107421875,-0.7257080078125,-0.01226806640625
1761307249221430300,1.34443017578125,-0.689605712890625,-0.72503662109375,-0.0115966796875
1761307249231358200,1.354358154296875,-0.6906280517578125,-0.7247314453125,-0.0117340087890625
1761307249241286400,1.364286376953125,-0.6904754638671875,-0.7254180908203125,-0.01226806640625
1761307249251214300,1.37421435546875,-0.689666748046875,-0.7247772216796875,-0.011871337890625
1761307249261143300,1.384143310546875,-0.6898040771484375,-0.7252655029296875,-0.012481689453125
1761307249271071200,1.3940712890625,-0.6908721923828125,-0.72442626953125,-0.011962890625
1761307249280999400,1.40399951171875,-0.6898040771484375,-0.7247314453125,-0.01220703125
1761307249290927400,1.41392724609375,-0.6904449462890625,-0.72509765625,-0.01239013671875
1761307249300855300,1.423855224609375,-0.6912078857421875,-0.7247161865234375,-0.0110931396484375
1761307249310783500,1.433783447265625,-0.6902008056640625,-0.7255401611328125,-0.0118560791015625
1761307249320711400,1.44371142578125,-0.69036865234375,-0.7250518798828125,-0.0120391845703125
1761307249330639400,1.453639404296875,-0.690948486328125,-0.72528076171875,-0.0122528076171875
1761307249340567300,1.4635673828125,-0.6906585693359375,-0.7250213623046875,-0.01239013671875
1761307249350496300,1.473496337890625,-0.6905670166015625,-0.72552490234375,-0.011932373046875
1761307249360424200,1.483424072265625,-0.690185546875,-0.7244415283203125,-0.0124053955078125
1761307249370352400,1.493352294921875,-0.690826416015625,-0.7254486083984375,-0.0125732421875
1761307249380281000,1.503281005859375,-0.6905975341796875,-0.725677490234375,-0.0130462646484375
1761307249390209300,1.513209228515625,-0.6898956298828125,-0.72509765625,-0.0128326416015625
1761307249400137500,1.523137451171875,-0.6902313232421875,-0.724517822265625,-0.01202392578125
1761307249410065400,1.5330654296875,-0.691986083984375,-0.7245635986328125,-0.011810302734375
1761307249419993300,1.542993408203125,-0.690582275390625,-0.7255096435546875,-0.01177978515625
1761307249429921300,1.55292138671875,-0.6905517578125,-0.7248992919921875,-0.0124053955078125
1761307249439849500,1.562849365234375,-0.69000244140625,-0.724853515625,-0.01226806640625
1761307249449777400,1.57277734375,-0.690765380859375,-0.725341796875,-0.01214599609375
1761307249459705300,1.582705322265625,-0.69110107421875,-0.7249755859375,-0.012542724609375
1761307249469633300,1.59263330078125,-0.6895904541015625,-0.7240142822265625,-0.0124053955078125
1761307249479561200,1.602561279296875,-0.6908721923828125,-0.7252044677734375,-0.0118408203125
1761307249489489400,1.612489501953125,-0.6914825439453125,-0.7256317138671875,-0.011993408203125
1761307249499418400,1.62241845703125,-0.6912689208984375,-0.725006103515625,-0.012298583984375
1761307249509346300,1.63234619140625,-0.6910858154296875,-0.7249603271484375,-0.01177978515625
1761307249519274200,1.642274169921875,-0.690887451171875,-0.72491455078125,-0.0116119384765625
1761307249529202200,1.6522021484375,-0.690765380859375,-0.7249603271484375,-0.0121612548828125
1761307249539130000,1.662130126953125,-0.690704345703125,-0.7252655029296875,-0.0125885009765625
1761307249549058300,1.672058349609375,-0.6918487548828125,-0.7246246337890625,-0.012359619140625
1761307249558986500,1.681986572265625,-0.6910552978515625,-0.72467041015625,-0.0120849609375
1761307249568914400,1.69191455078125,-0.6916961669921875,-0.7249908447265625,-0.0128326416015625
1761307249578842400,1.70184228515625,-0.6911468505859375,-0.7247314453125,-0.0123443603515625
1761307249588770300,1.711770263671875,-0.690185546875,-0.72515869140625,-0.0117645263671875
1761307249598698500,1.721698486328125,-0.691162109375,-0.7260589599609375,-0.0120697021484375
1761307249608626400,1.73162646484375,-0.69158935546875,-0.7256011962890625,-0.0121002197265625
1761307249618555400,1.741555419921875,-0.6912078857421875,-0.724517822265625,-0.01190185546875
1761307249628483300,1.7514833984375,-0.6916351318359375,-0.724212646484375,-0.01226806640625
1761307249638411300,1.761411376953125,-0.690521240234375,-0.7245025634765625,-0.0116729736328125
1761307249648339200,1.771339111328125,-0.6913299560546875,-0.7249298095703125,-0.012176513671875
1761307249658267100,1.78126708984375,-0.6912078857421875,-0.72491455078125,-0.0123748779296875
1761307249668195300,1.7911953125,-0.691558837890625,-0.7252960205078125,-0.01177978515625
1761307249678123300,1.801123291015625,-0.6913604736328125,-0.725372314453125,-0.0121307373046875
1761307249688051200,1.81105126953125,-0.6910400390625,-0.72589111328125,-0.011932373046875
1761307249697979100,1.820979248046875,-0.6916046142578125,-0.72515869140625,-0.012359619140625
1761307249707907000,1.830906982421875,-0.6910858154296875,-0.7239837646484375,-0.0121307373046875
1761307249717836300,1.840836181640625,-0.691131591796875,-0.7241363525390625,-0.0124053955078125
1761307249727764500,1.850764404296875,-0.69219970703125,-0.725006103515625,-0.01202392578125
1761307249737692400,1.8606923828125,-0.6914825439453125,-0.7252655029296875,-0.0118408203125
1761307249747620400,1.870620361328125,-0.69189453125,-0.7256011962890625,-0.012359619140625
1761307249757548300,1.88054833984375,-0.6913299560546875,-0.724761962890625,-0.0131683349609375
1761307249767476200,1.890476318359375,-0.6905670166015625,-0.725067138671875,-0.01275634765625
1761307249777404400,1.900404296875,-0.69085693359375,-0.72418212890625,-0.01171875
1761307249787332400,1.910332275390625,-0.6910400390625,-0.7245941162109375,-0.012054443359375
1761307249797260300,1.92026025390625,-0.6906280517578125,-0.72412109375,-0.0117950439453125
1761307249807188200,1.930188232421875,-0.6907501220703125,-0.7244720458984375,-0.01165771484375
1761307249817116200,1.9401162109375,-0.6913604736328125,-0.7264251708984375,-0.0119476318359375
1761307249827045000,1.950045166015625,-0.6912078857421875,-0.725677490234375,-0.0126800537109375
1761307249836973300,1.959973388671875,-0.6916351318359375,-0.724090576171875,-0.0126800537109375
1761307249846901500,1.969901611328125,-0.692291259765625,-0.724884033203125,-0.0126495361328125
1761307249856829400,1.979829345703125,-0.6917266845703125,-0.724578857421875,-0.0117645263671875
1761307249866757400,1.98975732421875,-0.69171142578125,-0.724365234375,-0.0122528076171875
1761307249876685300,1.999685302734375,-0.6918792724609375,-0.72467041015625,-0.0114593505859375
1761307249886613200,2.00961328125,-0.6924285888671875,-0.7250823974609375,-0.0125579833984375
1761307249896541400,2.01954150390625,-0.691925048828125,-0.7253265380859375,-0.0112457275390625
1761307249906469400,2.029469482421875,-0.690582275390625,-0.725738525390625,-0.0120391845703125
1761307249916397300,2.039397216796875,-0.691070556640625,-0.724517822265625,-0.0124359130859375
1761307249926325200,2.0493251953125,-0.69073486328125,-0.7235565185546875,-0.0119781494140625
1761307249936253200,2.059253173828125,-0.69146728515625,-0.72467041015625,-0.01214599609375
1761307249946182100,2.06918212890625,-0.6924285888671875,-0.7252044677734375,-0.0123138427734375
1761307249956110300,2.0791103515625,-0.691802978515625,-0.7251129150390625,-0.0122528076171875
1761307249966038300,2.089038330078125,-0.692474365234375,-0.724212646484375,-0.0120697021484375
1761307249975966200,2.09896630859375,-0.691558837890625,-0.72515869140625,-0.0120697021484375
1761307249985894100,2.10889404296875,-0.691802978515625,-0.72601318359375,-0.0126495361328125
1761307249995822300,2.118822265625,-0.6919708251953125,-0.7249603271484375,-0.0113677978515625
1761307250005750500,2.12875048828125,-0.6918792724609375,-0.725555419921875,-0.011749267578125
1761307250015678500,2.138678466796875,-0.6905364990234375,-0.72503662109375,-0.01129150390625
1761307250025606400,2.1486064453125,-0.6912689208984375,-0.72406005859375,-0.0119781494140625
1761307250035534300,2.158534423828125,-0.6910247802734375,-0.7241668701171875,-0.0124664306640625
1761307250045463300,2.16846337890625,-0.69122314453125,-0.725311279296875,-0.012115478515625
1761307250055391200,2.17839111328125,-0.6919708251953125,-0.726287841796875,-0.012298583984375
1761307250065319400,2.1883193359375,-0.691619873046875,-0.724853515625,-0.011138916015625
1761307250075247400,2.198247314453125,-0.691375732421875,-0.7241668701171875,-0.012298583984375
1761307250085175300,2.20817529296875,-0.6917266845703125,-0.723785400390625,-0.0126800537109375
1761307250095103200,2.218103271484375,-0.69140625,-0.7238006591796875,-0.01300048828125
1761307250105031200,2.22803125,-0.691619873046875,-0.724700927734375,-0.0119781494140625
1761307250114959400,2.23795947265625,-0.6916046142578125,-0.72479248046875,-0.0111083984375
1761307250124887300,2.24788720703125,-0.6908416748046875,-0.7258148193359375,-0.01165771484375
1761307250134815200,2.257815185546875,-0.6916046142578125,-0.7259979248046875,-0.012237548828125
1761307250144743200,2.2677431640625,-0.69146728515625,-0.72515869140625,-0.01226806640625
1761307250154672400,2.27767236328125,-0.69219970703125,-0.7246246337890625,-0.0117645263671875
1761307250164600300,2.287600341796875,-0.692138671875,-0.724945068359375,-0.011474609375
1761307250174528300,2.2975283203125,-0.69268798828125,-0.7263336181640625,-0.0120849609375
1761307250184456400,2.30745654296875,-0.6927490234375,-0.724761962890625,-0.0126495361328125
1761307250194384400,2.31738427734375,-0.6910400390625,-0.7254638671875,-0.013092041015625
1761307250204312300,2.327312255859375,-0.6910400390625,-0.72454833984375,-0.0122528076171875
1761307250214240300,2.337240234375,-0.692840576171875,-0.7244415283203125,-0.0113525390625
1761307250224168200,2.347168212890625,-0.6913299560546875,-0.7247467041015625,-0.0119781494140625
1761307250234096400,2.357096435546875,-0.69183349609375,-0.72576904296875,-0.01202392578125
1761307250244024300,2.3670244140625,-0.6905364990234375,-0.72503662109375,-0.0119171142578125
1761307250253952300,2.3769521484375,-0.6915740966796875,-0.7243194580078125,-0.0125579833984375
1761307250263881200,2.386881103515625,-0.6912689208984375,-0.7248077392578125,-0.01141357421875
1761307250273809200,2.39680908203125,-0.6920166015625,-0.7244720458984375,-0.0117950439453125
1761307250283737300,2.4067373046875,-0.691375732421875,-0.724822998046875,-0.01129150390625
1761307250293665500,2.41666552734375,-0.6912689208984375,-0.724761962890625,-0.0117950439453125
1761307250303593500,2.426593505859375,-0.6907806396484375,-0.724639892578125,-0.012237548828125
1761307250313521400,2.436521484375,-0.6912078857421875,-0.7241668701171875,-0.011138916015625
1761307250323449300,2.446449462890625,-0.6920623779296875,-0.724853515625,-0.0117340087890625
1761307250333377300,2.456377197265625,-0.6906280517578125,-0.725372314453125,-0.0122528076171875
1761307250343305500,2.466305419921875,-0.6911163330078125,-0.724639892578125,-0.011962890625
1761307250353233200,2.476233154296875,-0.691619873046875,-0.724945068359375,-0.01214599609375
1761307250363161000,2.4861611328125,-0.6923828125,-0.7254638671875,-0.011566162109375
1761307250373090000,2.496090087890625,-0.693115234375,-0.7245635986328125,-0.012298583984375
1761307250383018200,2.506018310546875,-0.6914215087890625,-0.72509765625,-0.011932373046875
1761307250392946200,2.5159462890625,-0.6903076171875,-0.7251739501953125,-0.01220703125
1761307250402874000,2.5258740234375,-0.691650390625,-0.725311279296875,-0.0122528076171875
1761307250412802300,2.53580224609375,-0.69171142578125,-0.7252044677734375,-0.0121002197265625
1761307250422730200,2.545730224609375,-0.6919403076171875,-0.7247161865234375,-0.01202392578125
1761307250432658200,2.555658203125,-0.6922760009765625,-0.726043701171875,-0.0125579833984375
1761307250442586000,2.565586181640625,-0.6911468505859375,-0.725372314453125,-0.01202392578125
1761307250452514000,2.57551416015625,-0.6914520263671875,-0.724517822265625,-0.0123138427734375
1761307250462442200,2.585442138671875,-0.69146728515625,-0.7245941162109375,-0.012298583984375
1761307250472370200,2.5953701171875,-0.692169189453125,-0.7253570556640625,-0.0115203857421875
1761307250482299100,2.605299072265625,-0.6925506591796875,-0.724761962890625,-0.0118560791015625
1761307250492227000,2.61522705078125,-0.69207763671875,-0.7257232666015625,-0.0120391845703125
1761307250502155000,2.625155029296875,-0.691192626953125,-0.72491455078125,-0.01263427734375
1761307250512083000,2.6350830078125,-0.69146728515625,-0.7254486083984375,-0.012054443359375
1761307250522011100,2.64501123046875,-0.6922454833984375,-0.7244873046875,-0.0120849609375
1761307250531939000,2.65493896484375,-0.6915283203125,-0.7248382568359375,-0.0117034912109375
1761307250541867300,2.6648671875,-0.69097900390625,-0.724884033203125,-0.011962890625
1761307250551795200,2.674795166015625,-0.6916351318359375,-0.7252197265625,-0.0119476318359375
1761307250561723100,2.68472314453125,-0.6916046142578125,-0.7246856689453125,-0.011810302734375
1761307250571651300,2.6946513671875,-0.691314697265625,-0.7249755859375,-0.0120697021484375
1761307250581579300,2.704579345703125,-0.6920166015625,-0.7260589599609375,-0.012603759765625
1761307250591507200,2.714507080078125,-0.6926727294921875,-0.72454833984375,-0.011810302734375
1761307250601436200,2.724436279296875,-0.69158935546875,-0.7252044677734375,-0.01239013671875
1761307250611364000,2.734364013671875,-0.6914215087890625,-0.725128173828125,-0.0122528076171875
1761307250621292000,2.7442919921875,-0.69122314453125,-0.7245941162109375,-0.0120849609375
1761307250631220200,2.75422021484375,-0.6918792724609375,-0.725006103515625,-0.01275634765625
1761307250641148200,2.764148193359375,-0.6923828125,-0.7246551513671875,-0.0127105712890625
1761307250651076000,2.774076171875,-0.6917266845703125,-0.7248687744140625,-0.01226806640625
1761307250661004000,2.784004150390625,-0.6923675537109375,-0.7251434326171875,-0.0124359130859375
1761307250670932000,2.793931884765625,-0.69171142578125,-0.725494384765625,-0.0133056640625
1761307250680860200,2.803860107421875,-0.691436767578125,-0.7253875732421875,-0.012451171875
1761307250690788000,2.8137880859375,-0.6921844482421875,-0.7249908447265625,-0.0122833251953125
1761307250700716300,2.82371630859375,-0.691650390625,-0.7251739501953125,-0.011932373046875
1761307250710645200,2.833645263671875,-0.69146728515625,-0.7246856689453125,-0.0120086669921875
1761307250720573200,2.8435732421875,-0.691741943359375,-0.72515869140625,-0.0122222900390625
1761307250730501000,2.853501220703125,-0.692108154296875,-0.725006103515625,-0.0122833251953125
1761307250740429000,2.863428955078125,-0.691497802734375,-0.725189208984375,-0.0117950439453125
1761307250750357200,2.873357177734375,-0.6914215087890625,-0.7251434326171875,-0.0112762451171875
1761307250760285200,2.88328515625,-0.6917266845703125,-0.725128173828125,-0.0118560791015625
1761307250770213000,2.893213134765625,-0.6913604736328125,-0.724853515625,-0.0120849609375
1761307250780141000,2.90314111328125,-0.69195556640625,-0.7255401611328125,-0.0121917724609375
1761307250790069000,2.913069091796875,-0.691497802734375,-0.724822998046875,-0.0117950439453125
1761307250799997200,2.9229970703125,-0.6917572021484375,-0.7255096435546875,-0.012115478515625
1761307250809925000,2.932925048828125,-0.6915283203125,-0.724700927734375,-0.01226806640625
1761307250819853000,2.94285302734375,-0.691986083984375,-0.72528076171875,-0.01251220703125
1761307250829782300,2.9527822265625,-0.691986083984375,-0.7257843017578125,-0.01141357421875
1761307250839710200,2.962710205078125,-0.6921844482421875,-0.726318359375,-0.0113983154296875
1761307250849638100,2.97263818359375,-0.6928863525390625,-0.725372314453125,-0.0113677978515625
1761307250859566300,2.98256640625,-0.6920318603515625,-0.7247467041015625,-0.0120697021484375
1761307250869494300,2.992494384765625,-0.692596435546875,-0.7249603271484375,-0.0118408203125
1761307250879422200,3.002422119140625,-0.6912384033203125,-0.724945068359375,-0.0115203857421875
1761307250889350100,3.01235009765625,-0.6916351318359375,-0.7254486083984375,-0.012847900390625
1761307250899278000,3.022278076171875,-0.6911163330078125,-0.7255706787109375,-0.012664794921875
1761307250909206300,3.032206298828125,-0.6919708251953125,-0.725494384765625,-0.0123138427734375
1761307250919134200,3.04213427734375,-0.6919097900390625,-0.72515869140625,-0.011627197265625
1761307250929062100,3.052062255859375,-0.69219970703125,-0.7252960205078125,-0.0126953125
1761307250938990000,3.061989990234375,-0.6909637451171875,-0.7244415283203125,-0.0125885009765625
1761307250948919000,3.0719189453125,-0.691436767578125,-0.7242889404296875,-0.01177978515625
1761307250958847000,3.081846923828125,-0.6912841796875,-0.724609375,-0.0120391845703125
1761307250968775000,3.09177490234375,-0.6922149658203125,-0.7241058349609375,-0.01153564453125
1761307250978703400,3.101703369140625,-0.6919097900390625,-0.7247161865234375,-0.012176513671875
1761307250988631300,3.11163134765625,-0.691864013671875,-0.725189208984375,-0.012359619140625
1761307250998559200,3.121559326171875,-0.691925048828125,-0.724517822265625,-0.0125885009765625
1761307251008487200,3.131487060546875,-0.691436767578125,-0.7247772216796875,-0.0122833251953125
1761307251018415000,3.1414150390625,-0.692169189453125,-0.724761962890625,-0.0120086669921875
1761307251028343300,3.15134326171875,-0.692901611328125,-0.72467041015625,-0.01123046875
1761307251038271200,3.161271240234375,-0.692413330078125,-0.7245635986328125,-0.011627197265625
1761307251048199200,3.17119921875,-0.6923370361328125,-0.7247467041015625,-0.012969970703125
1761307251058127000,3.181127197265625,-0.69073486328125,-0.7253265380859375,-0.0122528076171875
1761307251068056000,3.19105615234375,-0.691436767578125,-0.7249298095703125,-0.0121307373046875
1761307251077984000,3.20098388671875,-0.692291259765625,-0.724884033203125,-0.012542724609375
1761307251087912200,3.210912109375,-0.6914825439453125,-0.725372314453125,-0.011627197265625
1761307251097840000,3.220840087890625,-0.6923828125,-0.7247314453125,-0.0118560791015625
1761307251107768000,3.23076806640625,-0.692901611328125,-0.724365234375,-0.012237548828125
1761307251117696000,3.240696044921875,-0.6935577392578125,-0.724822998046875,-0.0117034912109375
1761307251127624000,3.2506240234375,-0.6918792724609375,-0.7250213623046875,-0.01141357421875
1761307251137552400,3.260552490234375,-0.69122314453125,-0.7249908447265625,-0.0122528076171875
1761307251147480300,3.270480224609375,-0.691802978515625,-0.7248077392578125,-0.0131072998046875
1761307251157408300,3.280408203125,-0.6914215087890625,-0.725921630859375,-0.0123138427734375
1761307251167336200,3.290336181640625,-0.6916656494140625,-0.7248687744140625,-0.01190185546875
1761307251177264000,3.30026416015625,-0.6915740966796875,-0.725341796875,-0.011627197265625
1761307251187193000,3.310193115234375,-0.69207763671875,-0.7251739501953125,-0.012847900390625
1761307251197121000,3.32012109375,-0.6919403076171875,-0.7257080078125,-0.0124969482421875
1761307251207049200,3.33004931640625,-0.691680908203125,-0.725311279296875,-0.0125732421875
1761307251216977200,3.33997705078125,-0.6910858154296875,-0.7246551513671875,-0.0118255615234375
1761307251226905000,3.349905029296875,-0.6927490234375,-0.7247161865234375,-0.012420654296875
1761307251236833000,3.3598330078125,-0.692962646484375,-0.725494384765625,-0.0119476318359375
1761307251246761000,3.369760986328125,-0.6923675537109375,-0.72503662109375,-0.01165771484375
1761307251256689200,3.379689208984375,-0.691925048828125,-0.725433349609375,-0.012115478515625
1761307251266617000,3.3896171875,-0.69195556640625,-0.724639892578125,-0.01239013671875
1761307251276545000,3.399544921875,-0.691680908203125,-0.7248992919921875,-0.0121002197265625
1761307251286473000,3.409472900390625,-0.6912384033203125,-0.7244110107421875,-0.011749267578125
1761307251296401200,3.419401123046875,-0.6931915283203125,-0.72601318359375,-0.0119476318359375
1761307251306329300,3.429329345703125,-0.69158935546875,-0.72607421875,-0.01251220703125
1761307251316258300,3.43925830078125,-0.6917572021484375,-0.725250244140625,-0.012115478515625
1761307251326186200,3.449186279296875,-0.6913299560546875,-0.7241363525390625,-0.0120849609375
1761307251336114200,3.4591142578125,-0.69073486328125,-0.724853515625,-0.0124664306640625
1761307251346041300,3.469041259765625,-0.690887451171875,-0.724761962890625,-0.0117340087890625
1761307251355969500,3.478969482421875,-0.6920318603515625,-0.7242431640625,-0.0117034912109375
1761307251365897500,3.4888974609375,-0.6918792724609375,-0.7248077392578125,-0.0122528076171875
1761307251375825400,3.498825439453125,-0.692352294921875,-0.72442626953125,-0.0126190185546875
1761307251385753300,3.50875341796875,-0.69171142578125,-0.724395751953125,-0.012176513671875
1761307251395681300,3.518681396484375,-0.6912689208984375,-0.7250518798828125,-0.0124359130859375
1761307251405609500,3.528609375,-0.6920013427734375,-0.72515869140625,-0.012451171875
1761307251415537400,3.538537353515625,-0.69189453125,-0.724945068359375,-0.01129150390625
1761307251425465300,3.54846533203125,-0.6915435791015625,-0.725128173828125,-0.0121002197265625
1761307251435393300,3.558393310546875,-0.692474365234375,-0.7258148193359375,-0.0124053955078125
1761307251445322500,3.568322509765625,-0.691375732421875,-0.7246856689453125,-0.0119781494140625
1761307251455250400,3.57825048828125,-0.691131591796875,-0.7244720458984375,-0.012237548828125
1761307251465178400,3.588178466796875,-0.6919403076171875,-0.7260589599609375,-0.0125732421875
1761307251475106600,3.5981064453125,-0.69134521484375,-0.724578857421875,-0.01220703125
1761307251485034500,3.608034423828125,-0.69207763671875,-0.7250518798828125,-0.011749267578125
1761307251494962400,3.61796240234375,-0.692413330078125,-0.7248077392578125,-0.011810302734375
1761307251504890400,3.627890380859375,-0.6920166015625,-0.72491455078125,-0.0121307373046875
1761307251514818300,3.637818359375,-0.69091796875,-0.7254638671875,-0.0118255615234375
1761307251524746500,3.64774658203125,-0.691986083984375,-0.7247467041015625,-0.011474609375
1761307251534674400,3.65767431640625,-0.692230224609375,-0.724700927734375,-0.0120086669921875
1761307251544602400,3.667602294921875,-0.6918182373046875,-0.725433349609375,-0.0115509033203125
1761307251554530300,3.6775302734375,-0.6907501220703125,-0.724884033203125,-0.0117950439453125
1761307251564459300,3.687459228515625,-0.6918487548828125,-0.7243499755859375,-0.0120849609375
1761307251574387500,3.697387451171875,-0.6917877197265625,-0.7247772216796875,-0.01202392578125
1761307251584315600,3.707315673828125,-0.6922760009765625,-0.72491455078125,-0.0120697021484375
1761307251594243600,3.71724365234375,-0.6912841796875,-0.7252044677734375,-0.011932373046875
1761307251604171500,3.727171630859375,-0.6910552978515625,-0.724273681640625,-0.0124053955078125
1761307251614099500,3.737099365234375,-0.6917266845703125,-0.725799560546875,-0.0126495361328125
1761307251624027400,3.74702734375,-0.6916351318359375,-0.7246856689453125,-0.0124664306640625
1761307251633955600,3.75695556640625,-0.691864013671875,-0.725250244140625,-0.0118408203125
1761307251643883500,3.766883544921875,-0.692138671875,-0.724151611328125,-0.0120697021484375
1761307251653811500,3.7768115234375,-0.6903228759765625,-0.7246246337890625,-0.0117645263671875
1761307251663739400,3.786739501953125,-0.6917266845703125,-0.7252044677734375,-0.0116119384765625
1761307251673667300,3.796667236328125,-0.69256591796875,-0.725738525390625,-0.012115478515625
1761307251683595500,3.806595458984375,-0.6921844482421875,-0.7249755859375,-0.01171875
1761307251693523500,3.8165234375,-0.6925201416015625,-0.7252349853515625,-0.012054443359375
1761307251703452400,3.826452392578125,-0.6924896240234375,-0.72509765625,-0.0119781494140625
1761307251713380400,3.83638037109375,-0.6916961669921875,-0.7248382568359375,-0.0118408203125
1761307251723308300,3.846308349609375,-0.691558837890625,-0.72491455078125,-0.0126190185546875
1761307251733236500,3.856236572265625,-0.6923675537109375,-0.724212646484375,-0.01226806640625
1761307251743164400,3.866164306640625,-0.6918792724609375,-0.72515869140625,-0.0121002197265625
1761307251753092600,3.876092529296875,-0.6919097900390625,-0.7254486083984375,-0.0122528076171875
1761307251763020500,3.8860205078125,-0.69097900390625,-0.723297119140625,-0.011566162109375
1761307251772948500,3.895948486328125,-0.6918487548828125,-0.7251129150390625,-0.01239013671875
1761307251782876400,3.90587646484375,-0.692047119140625,-0.7246856689453125,-0.01177978515625
1761307251792804400,3.915804443359375,-0.6914215087890625,-0.7249755859375,-0.01177978515625
1761307251802732500,3.925732666015625,-0.691741943359375,-0.7252655029296875,-0.0117340087890625
1761307251812660500,3.935660400390625,-0.6917266845703125,-0.7249755859375,-0.01190185546875
1761307251822588400,3.94558837890625,-0.6921539306640625,-0.7247467041015625,-0.012420654296875
1761307251832516400,3.955516357421875,-0.691802978515625,-0.724761962890625,-0.0118255615234375
1761307251842445300,3.9654453125,-0.691375732421875,-0.7245941162109375,-0.011505126953125
1761307251852373200,3.975373291015625,-0.692169189453125,-0.724639892578125,-0.0118408203125
1761307251862301400,3.985301513671875,-0.6911163330078125,-0.7246246337890625,-0.0120697021484375
1761307251872229400,3.9952294921875,-0.692352294921875,-0.7243499755859375,-0.01116943359375
1761307251882157300,4.0051572265625,-0.6915435791015625,-0.724029541015625,-0.01153564453125
1761307251892085500,4.01508544921875,-0.6919097900390625,-0.7254486083984375,-0.011932373046875
1761307251902013400,4.025013427734375,-0.690948486328125,-0.7248992919921875,-0.0117340087890625
1761307251911941600,4.034941650390625,-0.6915435791015625,-0.725799560546875,-0.01287841796875
1761307251921869600,4.04486962890625,-0.69140625,-0.7246551513671875,-0.0119171142578125
1761307251931797500,4.054797607421875,-0.6910552978515625,-0.7248992919921875,-0.0116119384765625
1761307251941725400,4.064725341796875,-0.6917724609375,-0.7250213623046875,-0.012451171875
1761307251951653400,4.0746533203125,-0.6917572021484375,-0.7250213623046875,-0.0121917724609375
1761307251961581600,4.08458154296875,-0.692962646484375,-0.724578857421875,-0.0119476318359375
1761307251971509500,4.094509521484375,-0.691619873046875,-0.7250213623046875,-0.0120697021484375
1761307251981438500,4.1044384765625,-0.691680908203125,-0.725128173828125,-0.0122222900390625
1761307251991366400,4.114366455078125,-0.692901611328125,-0.7248687744140625,-0.011383056640625
1761307252001294300,4.12429443359375,-0.6932220458984375,-0.7250518798828125,-0.0128021240234375
1761307252011222300,4.13422216796875,-0.6917724609375,-0.72467041015625,-0.011871337890625
1761307252021150500,4.144150390625,-0.6912384033203125,-0.725311279296875,-0.01177978515625
1761307252031078400,4.154078369140625,-0.6917724609375,-0.72515869140625,-0.01190185546875
1761307252041006300,4.16400634765625,-0.69171142578125,-0.72491455078125,-0.012542724609375
1761307252050934500,4.1739345703125,-0.6924285888671875,-0.7255401611328125,-0.012725830078125
1761307252060862500,4.183862548828125,-0.692108154296875,-0.72540283203125,-0.0123138427734375
1761307252070790700,4.193790771484375,-0.6924591064453125,-0.7248992919921875,-0.0117950439453125
1761307252080718600,4.203718505859375,-0.691497802734375,-0.725433349609375,-0.012237548828125
1761307252090646500,4.213646484375,-0.6920013427734375,-0.725433349609375,-0.0125732421875
1761307252100574500,4.223574462890625,-0.6921844482421875,-0.7243804931640625,-0.012176513671875
1761307252110502400,4.23350244140625,-0.692230224609375,-0.72515869140625,-0.012451171875
1761307252120430600,4.2434306640625,-0.6915130615234375,-0.7244873046875,-0.0127105712890625
1761307252130359300,4.253359375,-0.692474365234375,-0.7256011962890625,-0.0122833251953125
1761307252140287500,4.26328759765625,-0.692779541015625,-0.724853515625,-0.0123748779296875
1761307252150215400,4.27321533203125,-0.691864013671875,-0.725128173828125,-0.0118408203125
1761307252160143400,4.283143310546875,-0.6920166015625,-0.725189208984375,-0.0123443603515625
1761307252170071300,4.2930712890625,-0.6916046142578125,-0.72418212890625,-0.01153564453125
1761307252179999200,4.302999267578125,-0.69183349609375,-0.724945068359375,-0.0118865966796875
1761307252189927400,4.312927490234375,-0.6925048828125,-0.7255096435546875,-0.0113983154296875
1761307252199855400,4.32285546875,-0.69281005859375,-0.7241058349609375,-0.01251220703125
1761307252209783600,4.332783447265625,-0.6914215087890625,-0.7242889404296875,-0.0121917724609375
1761307252219711500,4.34271142578125,-0.6926422119140625,-0.7255859375,-0.0109710693359375
1761307252229639400,4.352639404296875,-0.692230224609375,-0.7244873046875,-0.012359619140625
1761307252239567600,4.362567626953125,-0.6920166015625,-0.7252349853515625,-0.0124053955078125
1761307252249495600,4.37249560546875,-0.6913909912109375,-0.7248382568359375,-0.012542724609375
1761307252259423500,4.382423583984375,-0.69287109375,-0.725067138671875,-0.0121917724609375
1761307252269351400,4.392351318359375,-0.69219970703125,-0.724700927734375,-0.012054443359375
1761307252279280400,4.4022802734375,-0.691925048828125,-0.7250823974609375,-0.0121307373046875
1761307252289208300,4.412208251953125,-0.6909637451171875,-0.7257843017578125,-0.0123291015625
1761307252299136500,4.422136474609375,-0.691375732421875,-0.7251434326171875,-0.012847900390625
1761307252309064400,4.432064453125,-0.6921539306640625,-0.7250213623046875,-0.011993408203125
1761307252318992400,4.441992431640625,-0.691436767578125,-0.7245025634765625,-0.01141357421875
1761307252328920300,4.45192041015625,-0.6925811767578125,-0.724395751953125,-0.011627197265625
1761307252338848300,4.46184814453125,-0.6927947998046875,-0.72509765625,-0.0116424560546875
1761307252348776000,4.47177587890625,-0.6908416748046875,-0.7249298095703125,-0.012237548828125
1761307252358703900,4.481703857421875,-0.6917572021484375,-0.7249603271484375,-0.012298583984375
1761307252368631800,4.4916318359375,-0.69256591796875,-0.724822998046875,-0.011383056640625
1761307252378559700,4.501559814453125,-0.6909637451171875,-0.7251129150390625,-0.0118408203125
1761307252388488000,4.511488037109375,-0.6926116943359375,-0.7254180908203125,-0.0124664306640625
1761307252398416100,4.521416015625,-0.69232177734375,-0.7255859375,-0.011474609375
1761307252408344000,4.531343994140625,-0.691925048828125,-0.7241973876953125,-0.01226806640625
1761307252418272000,4.54127197265625,-0.6914215087890625,-0.7242431640625,-0.0124664306640625
1761307252428200000,4.551199951171875,-0.6920166015625,-0.7251434326171875,-0.01171875
1761307252438129000,4.56112890625,-0.69317626953125,-0.724212646484375,-0.012115478515625
1761307252448056800,4.571056884765625,-0.6914215087890625,-0.725250244140625,-0.01220703125
1761307252457985000,4.580985107421875,-0.69189453125,-0.7254486083984375,-0.0120849609375
1761307252467913000,4.590912841796875,-0.692047119140625,-0.7242279052734375,-0.01226806640625
1761307252477841000,4.6008408203125,-0.6927642822265625,-0.7248687744140625,-0.0127105712890625
1761307252487768800,4.610768798828125,-0.692596435546875,-0.725494384765625,-0.011688232421875
1761307252497696800,4.62069677734375,-0.691314697265625,-0.7252349853515625,-0.012054443359375
1761307252507625000,4.630625,-0.69134521484375,-0.724761962890625,-0.0117950439453125
1761307252517553000,4.640552978515625,-0.691741943359375,-0.72479248046875,-0.012420654296875
1761307252527480800,4.650480712890625,-0.6917572021484375,-0.7258148193359375,-0.01220703125
1761307252537408800,4.66040869140625,-0.6920166015625,-0.7253875732421875,-0.0120391845703125
1761307252547337000,4.6703369140625,-0.691986083984375,-0.72491455078125,-0.012054443359375
1761307252557265200,4.68026513671875,-0.6918182373046875,-0.724884033203125,-0.0126190185546875
1761307252567193000,4.690193115234375,-0.691192626953125,-0.725341796875,-0.0123291015625
1761307252577121000,4.70012109375,-0.6909942626953125,-0.7250823974609375,-0.011932373046875
1761307252587049000,4.710049072265625,-0.69183349609375,-0.7245330810546875,-0.0124053955078125
1761307252596978000,4.71997802734375,-0.691070556640625,-0.7248382568359375,-0.0124053955078125
1761307252606905900,4.72990576171875,-0.69256591796875,-0.7249298095703125,-0.0122833251953125
1761307252616834000,4.739833984375,-0.6914825439453125,-0.7249298095703125,-0.0122528076171875
1761307252626762000,4.749761962890625,-0.691802978515625,-0.72491455078125,-0.01239013671875
1761307252636690000,4.75968994140625,-0.6912841796875,-0.7252655029296875,-0.0121917724609375
1761307252646617900,4.769617919921875,-0.692962646484375,-0.724853515625,-0.012481689453125
1761307252656545800,4.7795458984375,-0.6915740966796875,-0.7251739501953125,-0.0127410888671875
1761307252666474000,4.789473876953125,-0.691741943359375,-0.724212646484375,-0.0125274658203125
1761307252676402000,4.79940185546875,-0.6921234130859375,-0.724884033203125,-0.0119476318359375
1761307252686329900,4.809329833984375,-0.6923370361328125,-0.724609375,-0.011505126953125
1761307252696257800,4.8192578125,-0.6912384033203125,-0.7249908447265625,-0.0124969482421875
1761307252706185700,4.829185791015625,-0.691436767578125,-0.72418212890625,-0.0118255615234375
1761307252716114000,4.839114013671875,-0.6919708251953125,-0.724761962890625,-0.0121002197265625
1761307252726042000,4.8490419921875,-0.6925201416015625,-0.725341796875,-0.0125579833984375
1761307252735970000,4.858969970703125,-0.6911773681640625,-0.7248992919921875,-0.0119476318359375
1761307252745898000,4.86889794921875,-0.6927642822265625,-0.725006103515625,-0.0118560791015625
1761307252755826000,4.878825927734375,-0.6922607421875,-0.7247772216796875,-0.0131072998046875
1761307252765755000,4.8887548828125,-0.6915740966796875,-0.724761962890625,-0.011688232421875
1761307252775682800,4.898682861328125,-0.6903228759765625,-0.7263641357421875,-0.0119781494140625
1761307252785611000,4.908611083984375,-0.6917266845703125,-0.725677490234375,-0.012359619140625
1761307252795539000,4.9185390625,-0.691864013671875,-0.7245941162109375,-0.0120391845703125
1761307252805467000,4.928466796875,-0.6924285888671875,-0.7249908447265625,-0.0119781494140625
1761307252815394800,4.938394775390625,-0.691802978515625,-0.72515869140625,-0.0120849609375
1761307252825322800,4.94832275390625,-0.6907958984375,-0.72393798828125,-0.012420654296875
1761307252835251000,4.9582509765625,-0.6918182373046875,-0.7242584228515625,-0.0119171142578125
1761307252845179000,4.968178955078125,-0.6916961669921875,-0.7251129150390625,-0.01177978515625
1761307252855106800,4.97810693359375,-0.6924285888671875,-0.7253875732421875,-0.012298583984375
1761307252865034800,4.98803466796875,-0.6916351318359375,-0.7253875732421875,-0.011962890625
1761307252874963000,4.997962890625,-0.6918182373046875,-0.7250518798828125,-0.0120391845703125
1761307252884891100,5.00789111328125,-0.6923980712890625,-0.72442626953125,-0.0116729736328125
1761307252894819000,5.017819091796875,-0.691864013671875,-0.7252197265625,-0.0115966796875
1761307252904747000,5.0277470703125,-0.6921234130859375,-0.7259063720703125,-0.0118408203125
1761307252914675000,5.037675048828125,-0.69268798828125,-0.7250823974609375,-0.0123138427734375
1761307252924603000,5.047602783203125,-0.692596435546875,-0.724517822265625,-0.0121307373046875
1761307252934531800,5.05753173828125,-0.6912384033203125,-0.7254791259765625,-0.0114288330078125
1761307252944460000,5.0674599609375,-0.690673828125,-0.7252197265625,-0.0118865966796875
1761307252954388000,5.077387939453125,-0.691497802734375,-0.724578857421875,-0.0120086669921875
1761307252964316000,5.08731591796875,-0.6915435791015625,-0.7248382568359375,-0.0119476318359375
1761307252974243800,5.097243896484375,-0.691986083984375,-0.7243499755859375,-0.0118865966796875
1761307252984171800,5.107171875,-0.692657470703125,-0.7243804931640625,-0.0117950439453125
1761307252994100000,5.117099853515625,-0.6922149658203125,-0.724822998046875,-0.01165771484375
1761307253004028000,5.12702783203125,-0.6913299560546875,-0.7245941162109375,-0.012359619140625
1761307253013955800,5.136955810546875,-0.6915435791015625,-0.724609375,-0.0127410888671875
1761307253023883800,5.1468837890625,-0.691375732421875,-0.7245941162109375,-0.0122222900390625
1761307253033812000,5.15681201171875,-0.6920318603515625,-0.7252197265625,-0.012420654296875
1761307253043740200,5.166740234375,-0.692657470703125,-0.725128173828125,-0.0114898681640625
1761307253053668000,5.176668212890625,-0.69183349609375,-0.7248687744140625,-0.011810302734375
1761307253063596000,5.186595947265625,-0.6911163330078125,-0.725372314453125,-0.01251220703125
1761307253073524000,5.19652392578125,-0.6922149658203125,-0.7251129150390625,-0.01177978515625
1761307253083452000,5.206451904296875,-0.6914825439453125,-0.7253875732421875,-0.012115478515625
1761307253093380000,5.216380126953125,-0.6923065185546875,-0.724822998046875,-0.0116424560546875
1761307253103308800,5.226308837890625,-0.69049072265625,-0.72418212890625,-0.0118408203125
1761307253113237000,5.236237060546875,-0.6910247802734375,-0.7248077392578125,-0.0114593505859375
1761307253123165000,5.2461650390625,-0.6921539306640625,-0.7241058349609375,-0.0121002197265625
1761307253133092900,5.2560927734375,-0.6923370361328125,-0.724578857421875,-0.01202392578125
1761307253143020800,5.266020751953125,-0.6918792724609375,-0.7246246337890625,-0.01220703125
1761307253152948700,5.27594873046875,-0.691070556640625,-0.725677490234375,-0.0121612548828125
1761307253162877000,5.285876953125,-0.690399169921875,-0.7257537841796875,-0.0126953125
1761307253172804900,5.295804931640625,-0.6916656494140625,-0.7253265380859375,-0.01275634765625
1761307253182732800,5.30573291015625,-0.6927490234375,-0.7253875732421875,-0.011871337890625
1761307253192661000,5.315660888671875,-0.691162109375,-0.7251739501953125,-0.0123443603515625
1761307253202589000,5.3255888671875,-0.6913299560546875,-0.7252197265625,-0.0116119384765625
1761307253212517000,5.33551708984375,-0.69158935546875,-0.7249298095703125,-0.01220703125
1761307253222445000,5.345445068359375,-0.69232177734375,-0.725494384765625,-0.0124053955078125
1761307253232373000,5.355373046875,-0.692596435546875,-0.7248687744140625,-0.0128936767578125
1761307253242301000,5.365301025390625,-0.691436767578125,-0.7247467041015625,-0.011077880859375
1761307253252228900,5.375228759765625,-0.690887451171875,-0.7243804931640625,-0.0120697021484375
1761307253262157000,5.385156982421875,-0.69189453125,-0.7247314453125,-0.012481689453125
1761307253272086000,5.3950859375,-0.6923828125,-0.7257080078125,-0.0122833251953125
1761307253282014000,5.405013916015625,-0.6915130615234375,-0.725067138671875,-0.0116119384765625
1761307253291942000,5.41494189453125,-0.69189453125,-0.7248077392578125,-0.011627197265625
1761307253301869800,5.424869873046875,-0.691497802734375,-0.725006103515625,-0.01239013671875
1761307253311797800,5.4347978515625,-0.691619873046875,-0.725067138671875,-0.0127105712890625
1761307253321726000,5.444725830078125,-0.69207763671875,-0.7244873046875,-0.0120391845703125
1761307253331654000,5.45465380859375,-0.69134521484375,-0.7252349853515625,-0.01226806640625
1761307253341581800,5.464581787109375,-0.691558837890625,-0.7251129150390625,-0.011627197265625
1761307253351510800,5.4745107421875,-0.69256591796875,-0.724884033203125,-0.0119781494140625
1761307253361438700,5.484438720703125,-0.69073486328125,-0.725250244140625,-0.011962890625
1761307253371366700,5.49436669921875,-0.6915740966796875,-0.7249298095703125,-0.0125885009765625
1761307253381294800,5.504294921875,-0.6912994384765625,-0.72479248046875,-0.0123138427734375
1761307253391222800,5.514222900390625,-0.6921539306640625,-0.7251129150390625,-0.012359619140625
1761307253401150700,5.524150634765625,-0.692779541015625,-0.7251434326171875,-0.0121307373046875
1761307253411078700,5.53407861328125,-0.69158935546875,-0.72503662109375,-0.0117340087890625
1761307253421006600,5.544006591796875,-0.691680908203125,-0.7249908447265625,-0.012908935546875
1761307253430934800,5.553934814453125,-0.6929473876953125,-0.7247161865234375,-0.0122528076171875
1761307253440862700,5.56386279296875,-0.691375732421875,-0.72552490234375,-0.0121917724609375
1761307253450790700,5.573790771484375,-0.6922149658203125,-0.72509765625,-0.011749267578125
1761307253460719600,5.5837197265625,-0.6918182373046875,-0.7250213623046875,-0.0115203857421875
1761307253470647600,5.5936474609375,-0.6915740966796875,-0.7254791259765625,-0.01239013671875
1761307253480575500,5.603575439453125,-0.6912689208984375,-0.7250518798828125,-0.01300048828125
1761307253490503400,5.61350341796875,-0.691253662109375,-0.7242584228515625,-0.01275634765625
1761307253500431600,5.623431640625,-0.6907806396484375,-0.7242431640625,-0.01312255859375
1761307253510359600,5.633359619140625,-0.6917572021484375,-0.7243804931640625,-0.0128021240234375
1761307253520287700,5.643287841796875,-0.6925506591796875,-0.724151611328125,-0.012542724609375
1761307253530215700,5.653215576171875,-0.69171142578125,-0.725494384765625,-0.0114593505859375
1761307253540143600,5.6631435546875,-0.691986083984375,-0.7242279052734375,-0.012359619140625
1761307253550071800,5.67307177734375,-0.6917266845703125,-0.724822998046875,-0.0118408203125
1761307253559999700,5.682999755859375,-0.691558837890625,-0.72491455078125,-0.0116424560546875
1761307253569927700,5.692927734375,-0.6917572021484375,-0.7248687744140625,-0.011810302734375
1761307253579855600,5.702855712890625,-0.69189453125,-0.724517822265625,-0.01165771484375
1761307253589783600,5.712783447265625,-0.6913604736328125,-0.7254486083984375,-0.0114288330078125
1761307253599711700,5.722711669921875,-0.691864013671875,-0.725341796875,-0.0116729736328125
1761307253609639700,5.7326396484375,-0.692779541015625,-0.725128173828125,-0.0118408203125
1761307253619567600,5.742567626953125,-0.691558837890625,-0.7251739501953125,-0.01251220703125
1761307253629495600,5.75249560546875,-0.691558837890625,-0.7238006591796875,-0.0128173828125
1761307253639423500,5.762423583984375,-0.6913909912109375,-0.724273681640625,-0.0125885009765625
1761307253649352400,5.7723525390625,-0.691619873046875,-0.725189208984375,-0.0123443603515625
1761307253659280600,5.78228076171875,-0.6915283203125,-0.72515869140625,-0.0121307373046875
1761307253669208600,5.79220849609375,-0.690704345703125,-0.725067138671875,-0.0125885009765625
1761307253679136800,5.80213671875,-0.69219970703125,-0.725128173828125,-0.0124359130859375
1761307253689064700,5.812064697265625,-0.691192626953125,-0.7250518798828125,-0.0123291015625
1761307253698992600,5.82199267578125,-0.692779541015625,-0.72503662109375,-0.01214599609375
1761307253708920800,5.8319208984375,-0.692474365234375,-0.725860595703125,-0.01226806640625
1761307253718848800,5.841848876953125,-0.6916961669921875,-0.7243499755859375,-0.012451171875
1761307253728776700,5.851776611328125,-0.6916961669921875,-0.72454833984375,-0.012420654296875
1761307253738704600,5.86170458984375,-0.6916656494140625,-0.724395751953125,-0.0113983154296875
1761307253748632600,5.871632568359375,-0.69219970703125,-0.7250823974609375,-0.0114898681640625
1761307253758560800,5.881560791015625,-0.691864013671875,-0.7250823974609375,-0.0126495361328125
1761307253768488700,5.89148876953125,-0.6912078857421875,-0.7250213623046875,-0.0124359130859375
1761307253778416600,5.901416748046875,-0.6921234130859375,-0.7247161865234375,-0.012176513671875
1761307253788344600,5.911344482421875,-0.69207763671875,-0.7257843017578125,-0.0115966796875
1761307253798272500,5.9212724609375,-0.6920318603515625,-0.725189208984375,-0.0118865966796875
1761307253808200700,5.93120068359375,-0.693145751953125,-0.724639892578125,-0.0113677978515625
1761307253818128600,5.941128662109375,-0.6920166015625,-0.7253265380859375,-0.011444091796875
1761307253828056600,5.951056640625,-0.691680908203125,-0.72540283203125,-0.012115478515625
1761307253837984500,5.960984619140625,-0.69171142578125,-0.7246551513671875,-0.0125885009765625
1761307253847913700,5.970913818359375,-0.6919708251953125,-0.72491455078125,-0.0129241943359375
1761307253857841700,5.980841552734375,-0.6929779052734375,-0.72467041015625,-0.0121917724609375
1761307253867769600,5.99076953125,-0.6920166015625,-0.7244110107421875,-0.012420654296875
1761307253877697800,6.00069775390625,-0.692108154296875,-0.72503662109375,-0.0121307373046875
1761307253887625700,6.010625732421875,-0.6922607421875,-0.7245330810546875,-0.01226806640625
1761307253897553700,6.0205537109375,-0.6922607421875,-0.724884033203125,-0.012298583984375
1761307253907481600,6.030481689453125,-0.6926727294921875,-0.725250244140625,-0.011749267578125
1761307253917409500,6.040409423828125,-0.6916961669921875,-0.7247161865234375,-0.011932373046875
1761307253927337700,6.050337646484375,-0.691314697265625,-0.72515869140625,-0.0119781494140625
1761307253937265700,6.060265625,-0.6921234130859375,-0.7250823974609375,-0.0118408203125
1761307253947193600,6.070193603515625,-0.6922760009765625,-0.725799560546875,-0.0125732421875
1761307253957121500,6.08012158203125,-0.6914520263671875,-0.72515869140625,-0.0117034912109375
1761307253967049500,6.090049560546875,-0.6915130615234375,-0.724365234375,-0.012237548828125
1761307253976977700,6.099977783203125,-0.6924285888671875,-0.724609375,-0.0118560791015625
1761307253986905600,6.109905517578125,-0.691558837890625,-0.7242279052734375,-0.0123748779296875
1761307253996833500,6.11983349609375,-0.6914825439453125,-0.72406005859375,-0.011993408203125
1761307254006761500,6.129761474609375,-0.6917724609375,-0.72515869140625,-0.013275146484375
1761307254016689700,6.139689697265625,-0.6922454833984375,-0.725341796875,-0.012237548828125
1761307254026617600,6.14961767578125,-0.692657470703125,-0.7247467041015625,-0.01153564453125
1761307254036545800,6.1595458984375,-0.693084716796875,-0.7240753173828125,-0.01190185546875
1761307254046473700,6.1694736328125,-0.692169189453125,-0.7243194580078125,-0.0129241943359375
1761307254056402700,6.179402587890625,-0.692352294921875,-0.7252349853515625,-0.0127105712890625
1761307254066330600,6.18933056640625,-0.6915435791015625,-0.72509765625,-0.012054443359375
1761307254076258600,6.199258544921875,-0.692291259765625,-0.725372314453125,-0.011138916015625
1761307254086186800,6.209186767578125,-0.691741943359375,-0.7242279052734375,-0.012786865234375
1761307254096114700,6.21911474609375,-0.6921539306640625,-0.7245025634765625,-0.0126190185546875
1761307254106042600,6.229042724609375,-0.692535400390625,-0.724273681640625,-0.0121307373046875
1761307254115970600,6.238970458984375,-0.69281005859375,-0.7251129150390625,-0.0122528076171875
1761307254125898500,6.2488984375,-0.6922454833984375,-0.7250823974609375,-0.0119476318359375
1761307254135826700,6.25882666015625,-0.6907958984375,-0.724517822265625,-0.0124053955078125
1761307254145754600,6.268754638671875,-0.6918792724609375,-0.72406005859375,-0.012176513671875
1761307254155682600,6.2786826171875,-0.691314697265625,-0.7253570556640625,-0.0117950439453125
1761307254165610500,6.288610595703125,-0.69244384765625,-0.7245941162109375,-0.0121917724609375
1761307254175538400,6.298538330078125,-0.692291259765625,-0.724212646484375,-0.0117950439453125
1761307254185466600,6.308466552734375,-0.69158935546875,-0.72515869140625,-0.012237548828125
1761307254195394800,6.318394775390625,-0.6927032470703125,-0.7247314453125,-0.0124053955078125
1761307254205322800,6.32832275390625,-0.691864013671875,-0.72540283203125,-0.01177978515625
1761307254215250700,6.338250732421875,-0.6917266845703125,-0.7249298095703125,-0.0122528076171875
1761307254225178600,6.3481787109375,-0.6921844482421875,-0.72509765625,-0.0122528076171875
1761307254235106800,6.35810693359375,-0.6915283203125,-0.7243804931640625,-0.011627197265625
1761307254245034800,6.36803466796875,-0.6916961669921875,-0.7249298095703125,-0.0121612548828125
1761307254254962700,6.377962646484375,-0.6916961669921875,-0.7247314453125,-0.0121917724609375
1761307254264891600,6.3878916015625,-0.692047119140625,-0.725189208984375,-0.011932373046875
1761307254274819600,6.397819580078125,-0.6913604736328125,-0.7243499755859375,-0.01190185546875
1761307254284747500,6.40774755859375,-0.6926116943359375,-0.724395751953125,-0.0121917724609375
1761307254294675700,6.41767578125,-0.69140625,-0.724334716796875,-0.011993408203125
1761307254304603600,6.427603759765625,-0.6925506591796875,-0.725372314453125,-0.01263427734375
1761307254314531600,6.437531494140625,-0.6922607421875,-0.725067138671875,-0.0120086669921875
1761307254324459500,6.44745947265625,-0.6915130615234375,-0.72503662109375,-0.0115814208984375
1761307254334387500,6.457387451171875,-0.691741943359375,-0.7244873046875,-0.01300048828125
1761307254344315600,6.467315673828125,-0.6920013427734375,-0.7247161865234375,-0.0118865966796875
1761307254354244400,6.477244384765625,-0.6912078857421875,-0.724822998046875,-0.0119476318359375
1761307254364172300,6.48717236328125,-0.6916046142578125,-0.724517822265625,-0.0129241943359375
1761307254374100200,6.497100341796875,-0.691314697265625,-0.7246246337890625,-0.012451171875
1761307254384028200,6.507028076171875,-0.6920928955078125,-0.7251129150390625,-0.0124359130859375
1761307254393956000,6.5169560546875,-0.6920166015625,-0.725128173828125,-0.0122833251953125
1761307254403884300,6.52688427734375,-0.69110107421875,-0.7249755859375,-0.01177978515625
1761307254413812200,6.536812255859375,-0.6920318603515625,-0.7252349853515625,-0.0118865966796875
1761307254423740400,6.546740478515625,-0.69122314453125,-0.724090576171875,-0.0125579833984375
1761307254433668400,6.55666845703125,-0.6919097900390625,-0.7252349853515625,-0.0119476318359375
1761307254443596300,6.56659619140625,-0.69207763671875,-0.7253265380859375,-0.012603759765625
1761307254453524200,6.576524169921875,-0.691802978515625,-0.7250518798828125,-0.012359619140625
1761307254463452400,6.586452392578125,-0.6913604736328125,-0.7249603271484375,-0.012176513671875
1761307254473380400,6.59638037109375,-0.691497802734375,-0.725341796875,-0.0118408203125
1761307254483308300,6.606308349609375,-0.6922607421875,-0.72418212890625,-0.0113067626953125
1761307254493237200,6.6162373046875,-0.692779541015625,-0.724212646484375,-0.012054443359375
1761307254503165200,6.626165283203125,-0.691650390625,-0.7247467041015625,-0.012054443359375
1761307254513093000,6.636093017578125,-0.6921234130859375,-0.724822998046875,-0.01171875
1761307254523021300,6.646021240234375,-0.691009521484375,-0.7249755859375,-0.012298583984375
1761307254532949200,6.65594921875,-0.6915740966796875,-0.7251129150390625,-0.0122833251953125
1761307254542877200,6.665877197265625,-0.6916351318359375,-0.7243499755859375,-0.0125885009765625
1761307254552805000,6.67580517578125,-0.691680908203125,-0.7243194580078125,-0.01226806640625
1761307254562733000,6.685733154296875,-0.692108154296875,-0.7252960205078125,-0.0123748779296875
1761307254572661200,6.6956611328125,-0.69183349609375,-0.7254486083984375,-0.012786865234375
1761307254582589400,6.70558935546875,-0.6918792724609375,-0.7256011962890625,-0.0120086669921875
1761307254592517400,6.715517333984375,-0.6923065185546875,-0.725494384765625,-0.0126800537109375
1761307254602445300,6.7254453125,-0.691864013671875,-0.7248992919921875,-0.0123138427734375
1761307254612373200,6.735373291015625,-0.6923980712890625,-0.7246856689453125,-0.012664794921875
1761307254622301400,6.745301513671875,-0.6923980712890625,-0.725189208984375,-0.0124664306640625
1761307254632229400,6.7552294921875,-0.6921234130859375,-0.7251129150390625,-0.01263427734375
1761307254642157300,6.7651572265625,-0.691253662109375,-0.725494384765625,-0.012237548828125
1761307254652085200,6.775085205078125,-0.69232177734375,-0.7248687744140625,-0.0118408203125
1761307254662013200,6.78501318359375,-0.69134521484375,-0.7253875732421875,-0.0121612548828125
1761307254671941400,6.79494140625,-0.69207763671875,-0.724578857421875,-0.0115814208984375
1761307254681869300,6.804869384765625,-0.69207763671875,-0.7238311767578125,-0.011474609375
1761307254691797200,6.81479736328125,-0.6923065185546875,-0.72503662109375,-0.0116424560546875
1761307254701725200,6.82472509765625,-0.6926422119140625,-0.7242279052734375,-0.012420654296875
1761307254711653000,6.834653076171875,-0.6914825439453125,-0.72393798828125,-0.01251220703125
1761307254721582000,6.84458203125,-0.69287109375,-0.724578857421875,-0.01165771484375
1761307254731510300,6.85451025390625,-0.69268798828125,-0.72509765625,-0.0118865966796875
1761307254741438500,6.8644384765625,-0.6912994384765625,-0.7247772216796875,-0.011932373046875
1761307254751366400,6.874366455078125,-0.6922454833984375,-0.72467041015625,-0.01171875
1761307254761294300,6.88429443359375,-0.6922454833984375,-0.72332763671875,-0.012359619140625
1761307254771222300,6.89422216796875,-0.69268798828125,-0.72491455078125,-0.0123291015625
1761307254781150500,6.904150390625,-0.6915283203125,-0.725372314453125,-0.0121307373046875
1761307254791078400,6.914078369140625,-0.691497802734375,-0.7249755859375,-0.01171875
1761307254801006300,6.92400634765625,-0.6915740966796875,-0.72509765625,-0.011962890625
1761307254810934300,6.933934326171875,-0.6908416748046875,-0.7255096435546875,-0.0121002197265625
1761307254820862200,6.9438623046875,-0.691802978515625,-0.72564697265625,-0.0120697021484375
1761307254830790400,6.953790283203125,-0.6914215087890625,-0.7252044677734375,-0.012298583984375
1761307254840718300,6.96371826171875,-0.691375732421875,-0.724365234375,-0.0121612548828125
1761307254850646300,6.973646240234375,-0.691741943359375,-0.7243499755859375,-0.011749267578125
1761307254860574200,6.98357421875,-0.69122314453125,-0.7244110107421875,-0.011993408203125
1761307254870502100,6.993502197265625,-0.6924285888671875,-0.7249755859375,-0.0124359130859375
1761307254880430300,7.003430419921875,-0.691864013671875,-0.72503662109375,-0.0117645263671875
1761307254890358300,7.013358154296875,-0.6923675537109375,-0.7249603271484375,-0.012054443359375
1761307254900286200,7.0232861328125,-0.6922454833984375,-0.7251739501953125,-0.0119171142578125
1761307254910214100,7.033214111328125,-0.692779541015625,-0.72503662109375,-0.012115478515625
1761307254920142000,7.04314208984375,-0.6932525634765625,-0.724884033203125,-0.0117340087890625
1761307254930070300,7.0530703125,-0.693328857421875,-0.7248687744140625,-0.0123138427734375
1761307254939998500,7.06299853515625,-0.6906280517578125,-0.7251434326171875,-0.0117340087890625
1761307254949926400,7.072926513671875,-0.690582275390625,-0.72491455078125,-0.012115478515625
1761307254959854300,7.082854248046875,-0.6921539306640625,-0.724822998046875,-0.012237548828125
1761307254969783300,7.092783203125,-0.6929473876953125,-0.7246246337890625,-0.0120391845703125
1761307254979711200,7.102711181640625,-0.6918487548828125,-0.7255706787109375,-0.0120086669921875
1761307254989639200,7.11263916015625,-0.6915435791015625,-0.725494384765625,-0.0122528076171875
1761307254999567400,7.1225673828125,-0.6917266845703125,-0.725341796875,-0.01116943359375
1761307255009495300,7.132495361328125,-0.6925048828125,-0.7256622314453125,-0.011474609375
1761307255019423200,7.14242333984375,-0.693145751953125,-0.7244110107421875,-0.0120697021484375
1761307255029351200,7.15235107421875,-0.692138671875,-0.723968505859375,-0.0124664306640625
1761307255039279000,7.162279052734375,-0.691864013671875,-0.724822998046875,-0.0117950439453125
1761307255049207300,7.172207275390625,-0.692047119140625,-0.724761962890625,-0.01171875
1761307255059135200,7.18213525390625,-0.6926422119140625,-0.72515869140625,-0.0116424560546875
1761307255069063200,7.192063232421875,-0.6923065185546875,-0.7245941162109375,-0.0116729736328125
1761307255078991000,7.2019912109375,-0.692138671875,-0.72418212890625,-0.01287841796875
1761307255088919000,7.2119189453125,-0.69189453125,-0.7249755859375,-0.012176513671875
1761307255098847200,7.22184716796875,-0.6919403076171875,-0.7248077392578125,-0.0113525390625
1761307255108775400,7.231775390625,-0.692291259765625,-0.725128173828125,-0.01165771484375
1761307255118703400,7.241703369140625,-0.69183349609375,-0.7250213623046875,-0.0118865966796875
1761307255128631300,7.25163134765625,-0.69287109375,-0.725341796875,-0.012176513671875
1761307255138559200,7.261559326171875,-0.6917877197265625,-0.724151611328125,-0.0123291015625
1761307255148487400,7.2714873046875,-0.69219970703125,-0.7249908447265625,-0.011505126953125
1761307255158415400,7.281415283203125,-0.6918792724609375,-0.72625732421875,-0.0123138427734375
1761307255168343300,7.29134326171875,-0.692901611328125,-0.724884033203125,-0.01202392578125
1761307255178271200,7.301271240234375,-0.69183349609375,-0.723876953125,-0.011444091796875
1761307255188199200,7.31119921875,-0.6915740966796875,-0.724365234375,-0.01202392578125
1761307255198127400,7.32112744140625,-0.691741943359375,-0.7250823974609375,-0.011871337890625
1761307255208055300,7.33105517578125,-0.69207763671875,-0.7255401611328125,-0.0118560791015625
1761307255217983200,7.340983154296875,-0.69195556640625,-0.725006103515625,-0.0125885009765625
1761307255227911200,7.3509111328125,-0.6920318603515625,-0.7242279052734375,-0.0127716064453125
1761307255237839000,7.360839111328125,-0.691009521484375,-0.72503662109375,-0.012725830078125
1761307255247767300,7.370767333984375,-0.6918182373046875,-0.7254638671875,-0.0117645263671875
1761307255257696300,7.3806962890625,-0.6923980712890625,-0.725372314453125,-0.012115478515625
1761307255267624400,7.39062451171875,-0.693023681640625,-0.7249298095703125,-0.0117034912109375
1761307255277552400,7.400552490234375,-0.693023681640625,-0.7245941162109375,-0.012176513671875
1761307255287480300,7.410480224609375,-0.6918487548828125,-0.7244720458984375,-0.0115814208984375
1761307255297408300,7.420408203125,-0.693389892578125,-0.72491455078125,-0.01153564453125
1761307255307336400,7.43033642578125,-0.6924591064453125,-0.7244415283203125,-0.011474609375
1761307255317264400,7.440264404296875,-0.691864013671875,-0.7247772216796875,-0.0118865966796875
1761307255327192300,7.4501923828125,-0.6917724609375,-0.72509765625,-0.0115966796875
1761307255337120300,7.460120361328125,-0.6908721923828125,-0.7244720458984375,-0.0113372802734375
1761307255347048200,7.470048095703125,-0.691650390625,-0.7250213623046875,-0.0121002197265625
1761307255356975600,7.4799755859375,-0.6918487548828125,-0.7256622314453125,-0.012451171875
1761307255366903600,7.489903564453125,-0.6920166015625,-0.7250213623046875,-0.0120391845703125
1761307255376831500,7.49983154296875,-0.69281005859375,-0.72479248046875,-0.0126190185546875
1761307255386759400,7.509759521484375,-0.6912841796875,-0.7244873046875,-0.011932373046875
1761307255396687600,7.5196875,-0.6917266845703125,-0.7250213623046875,-0.0122833251953125
1761307255406615600,7.529615478515625,-0.6918182373046875,-0.7247161865234375,-0.01190185546875
1761307255416543500,7.53954345703125,-0.691162109375,-0.7242431640625,-0.0125732421875
1761307255426471400,7.549471435546875,-0.6925506591796875,-0.7251129150390625,-0.0123443603515625
1761307255436399400,7.5593994140625,-0.692047119140625,-0.72509765625,-0.0125579833984375
1761307255446327600,7.56932763671875,-0.692535400390625,-0.7252044677734375,-0.01153564453125
1761307255456255500,7.57925537109375,-0.692169189453125,-0.7250823974609375,-0.0118255615234375
1761307255466183400,7.589183349609375,-0.6923980712890625,-0.7251129150390625,-0.011688232421875
1761307255476111400,7.599111328125,-0.6930694580078125,-0.724853515625,-0.0122833251953125
1761307255486039600,7.60903955078125,-0.69195556640625,-0.725555419921875,-0.012664794921875
1761307255495967700,7.6189677734375,-0.69171142578125,-0.7259521484375,-0.01275634765625
1761307255505895700,7.628895751953125,-0.6922760009765625,-0.7242889404296875,-0.012054443359375
1761307255515823600,7.63882373046875,-0.6923828125,-0.724639892578125,-0.011871337890625
1761307255525751600,7.64875146484375,-0.6911468505859375,-0.724151611328125,-0.0120697021484375
1761307255535679500,7.658679443359375,-0.6911163330078125,-0.7252960205078125,-0.0117340087890625
1761307255545607700,7.668607666015625,-0.691253662109375,-0.7252349853515625,-0.0118408203125
1761307255555536400,7.678536376953125,-0.6922149658203125,-0.72503662109375,-0.01263427734375
1761307255565464600,7.688464599609375,-0.6914520263671875,-0.7252655029296875,-0.0119171142578125
1761307255575392500,7.698392578125,-0.692138671875,-0.725128173828125,-0.012054443359375
1761307255585320400,7.708320556640625,-0.6932220458984375,-0.724853515625,-0.0122222900390625
1761307255595248400,7.718248291015625,-0.6922149658203125,-0.72467041015625,-0.0125579833984375
1761307255605176600,7.728176513671875,-0.692108154296875,-0.7252655029296875,-0.011566162109375
1761307255615104500,7.7381044921875,-0.6921234130859375,-0.7250213623046875,-0.0122222900390625
1761307255625032400,7.748032470703125,-0.69183349609375,-0.724334716796875,-0.0121307373046875
1761307255634960400,7.75796044921875,-0.6927337646484375,-0.725006103515625,-0.0117034912109375
1761307255644888300,7.767888427734375,-0.6920318603515625,-0.7256011962890625,-0.011810302734375
1761307255654816500,7.77781640625,-0.6921539306640625,-0.7247467041015625,-0.0119171142578125
1761307255664744700,7.78774462890625,-0.692474365234375,-0.72528076171875,-0.0120391845703125
1761307255674672600,7.797672607421875,-0.69207763671875,-0.724639892578125,-0.0122222900390625
1761307255684600600,7.8076005859375,-0.69219970703125,-0.724090576171875,-0.01226806640625
1761307255694528500,7.817528564453125,-0.6917572021484375,-0.72503662109375,-0.01263427734375
1761307255704456400,7.82745654296875,-0.691680908203125,-0.7242584228515625,-0.0118560791015625
1761307255714384600,7.837384521484375,-0.6927337646484375,-0.7256317138671875,-0.0115814208984375
1761307255724312600,7.8473125,-0.6918487548828125,-0.72528076171875,-0.0123291015625
1761307255734240500,7.857240478515625,-0.6913909912109375,-0.724151611328125,-0.0117950439453125
1761307255744168400,7.86716845703125,-0.69183349609375,-0.7250823974609375,-0.011810302734375
1761307255754096400,7.877096435546875,-0.6920166015625,-0.724700927734375,-0.0124969482421875
1761307255764024600,7.887024658203125,-0.6917724609375,-0.7240447998046875,-0.012542724609375
1761307255773952500,7.896952392578125,-0.692047119140625,-0.724609375,-0.0123443603515625
1761307255783880400,7.90688037109375,-0.6912841796875,-0.72454833984375,-0.01300048828125
1761307255793808400,7.916808349609375,-0.692962646484375,-0.7249298095703125,-0.0118408203125
1761307255803736600,7.926736572265625,-0.6919708251953125,-0.7231903076171875,-0.0116424560546875
1761307255813664500,7.93666455078125,-0.6912841796875,-0.7246856689453125,-0.0123443603515625
1761307255823592400,7.946592529296875,-0.69207763671875,-0.725555419921875,-0.01226806640625
1761307255833520400,7.956520263671875,-0.6917572021484375,-0.724456787109375,-0.0121917724609375
1761307255843448600,7.966448486328125,-0.691497802734375,-0.7248077392578125,-0.01239013671875
1761307255853376500,7.97637646484375,-0.692291259765625,-0.72540283203125,-0.013031005859375
1761307255863304700,7.9863046875,-0.6912994384765625,-0.7254180908203125,-0.0118255615234375
1761307255873232600,7.996232666015625,-0.690704345703125,-0.7257080078125,-0.0120697021484375
1761307255883161600,8.00616162109375,-0.6897430419921875,-0.7249755859375,-0.011993408203125
1761307255893089500,8.016089599609375,-0.69085693359375,-0.7248077392578125,-0.01165771484375
1761307255903017500,8.026017578125,-0.6917724609375,-0.7249908447265625,-0.0119171142578125
1761307255912945400,8.0359453125,-0.691253662109375,-0.7246856689453125,-0.0121612548828125
1761307255922873600,8.04587353515625,-0.692413330078125,-0.725006103515625,-0.0121917724609375
1761307255932801500,8.055801513671875,-0.6912841796875,-0.725006103515625,-0.0116424560546875
1761307255942729500,8.0657294921875,-0.691314697265625,-0.7251739501953125,-0.01214599609375
1761307255952657400,8.075657470703124,-0.6924285888671875,-0.7253875732421875,-0.0124969482421875
1761307255962585300,8.08558544921875,-0.691314697265625,-0.72406005859375,-0.0113372802734375
1761307255972513500,8.095513427734375,-0.69195556640625,-0.7245635986328125,-0.0118865966796875
1761307255982441500,8.10544140625,-0.6919097900390625,-0.7246551513671875,-0.011810302734375
1761307255992369400,8.115369384765625,-0.6919097900390625,-0.725067138671875,-0.0122222900390625
1761307256002297300,8.12529736328125,-0.69281005859375,-0.7245635986328125,-0.0121002197265625
1761307256012225500,8.1352255859375,-0.6923065185546875,-0.72564697265625,-0.0116424560546875
1761307256022153700,8.14515380859375,-0.6927490234375,-0.725067138671875,-0.0118560791015625
1761307256032081700,8.15508154296875,-0.6907196044921875,-0.72406005859375,-0.0113525390625
1761307256042009600,8.165009521484375,-0.69195556640625,-0.7245941162109375,-0.011688232421875
1761307256051937500,8.1749375,-0.6924896240234375,-0.724212646484375,-0.0129852294921875
1761307256061865500,8.184865478515626,-0.693695068359375,-0.7239990234375,-0.0124969482421875
1761307256071793700,8.194793701171875,-0.6923675537109375,-0.7249603271484375,-0.0117645263671875
1761307256081721600,8.2047216796875,-0.6911468505859375,-0.724334716796875,-0.012847900390625
1761307256091649500,8.2146494140625,-0.69189453125,-0.723876953125,-0.011932373046875
1761307256101577500,8.224577392578125,-0.6923065185546875,-0.7246856689453125,-0.012115478515625
1761307256111505400,8.23450537109375,-0.6921539306640625,-0.7252044677734375,-0.012054443359375
1761307256121433600,8.24443359375,-0.691375732421875,-0.7243499755859375,-0.01214599609375
1761307256131361500,8.254361572265625,-0.6929473876953125,-0.7249603271484375,-0.0120849609375
1761307256141289500,8.26428955078125,-0.6920928955078125,-0.7252197265625,-0.012725830078125
1761307256151217400,8.274217529296875,-0.691802978515625,-0.7249908447265625,-0.011962890625
1761307256161145300,8.284145263671874,-0.6915435791015625,-0.7245635986328125,-0.011810302734375
1761307256171073500,8.294073486328125,-0.6921539306640625,-0.7251434326171875,-0.01226806640625
1761307256181001500,8.30400146484375,-0.6924591064453125,-0.72467041015625,-0.0117645263671875
1761307256190929400,8.313929443359376,-0.692626953125,-0.7252655029296875,-0.0120391845703125
1761307256200857300,8.323857421875,-0.6911468505859375,-0.7247467041015625,-0.01202392578125
1761307256210785500,8.33378564453125,-0.6916961669921875,-0.7247314453125,-0.0111846923828125
1761307256220713700,8.343713623046876,-0.6923370361328125,-0.72552490234375,-0.01251220703125
1761307256230641700,8.3536416015625,-0.692657470703125,-0.725128173828125,-0.0132598876953125
1761307256240569600,8.363569580078124,-0.6920623779296875,-0.724456787109375,-0.0126495361328125
1761307256250497500,8.37349755859375,-0.691070556640625,-0.7253265380859375,-0.0127105712890625
1761307256260425500,8.383425537109375,-0.6917724609375,-0.7242889404296875,-0.0118560791015625
1761307256270353700,8.393353759765626,-0.6917572021484375,-0.72454833984375,-0.0120391845703125
1761307256280281600,8.403281494140625,-0.6918182373046875,-0.7246246337890625,-0.0124969482421875
1761307256290210600,8.41321044921875,-0.6917572021484375,-0.72540283203125,-0.011627197265625
1761307256300138500,8.423138427734376,-0.6914520263671875,-0.7242889404296875,-0.0120697021484375
1761307256310066400,8.43306640625,-0.6911163330078125,-0.725006103515625,-0.0123291015625
1761307256319994400,8.442994384765624,-0.69110107421875,-0.7249298095703125,-0.0115966796875
1761307256329922600,8.452922607421876,-0.6919403076171875,-0.72515869140625,-0.01202392578125
1761307256339850500,8.4628505859375,-0.692138671875,-0.7246246337890625,-0.0124664306640625
1761307256349778400,8.4727783203125,-0.692474365234375,-0.72454833984375,-0.0120697021484375
1761307256359706600,8.48270654296875,-0.692535400390625,-0.7246551513671875,-0.01214599609375
1761307256369634600,8.492634521484375,-0.6928253173828125,-0.7239990234375,-0.0124969482421875
1761307256379562500,8.5025625,-0.6909332275390625,-0.7244415283203125,-0.011993408203125
1761307256389490700,8.51249072265625,-0.691436767578125,-0.7251129150390625,-0.0125274658203125
1761307256399418600,8.522418701171874,-0.692352294921875,-0.7242584228515625,-0.0121307373046875
1761307256409346600,8.5323466796875,-0.692291259765625,-0.7250823974609375,-0.012664794921875
1761307256419274500,8.5422744140625,-0.692169189453125,-0.7256622314453125,-0.0128631591796875
1761307256429202400,8.552202392578126,-0.692230224609375,-0.7243499755859375,-0.0120697021484375
1761307256439130600,8.562130615234375,-0.6905670166015625,-0.724822998046875,-0.011932373046875
1761307256449058600,8.57205859375,-0.6928558349609375,-0.72393798828125,-0.0121612548828125
1761307256458986800,8.58198681640625,-0.6922454833984375,-0.7255401611328125,-0.012603759765625
1761307256468914700,8.591914794921875,-0.6920928955078125,-0.7254180908203125,-0.0118865966796875
1761307256478842600,8.601842529296874,-0.692718505859375,-0.724578857421875,-0.0117950439453125
1761307256488770800,8.611770751953125,-0.691802978515625,-0.7248687744140625,-0.0118560791015625
1761307256498698800,8.62169873046875,-0.69122314453125,-0.7251739501953125,-0.01190185546875
1761307256508626700,8.631626708984374,-0.6922454833984375,-0.72412109375,-0.0116119384765625
1761307256518554600,8.6415546875,-0.6922760009765625,-0.7238006591796875,-0.01251220703125
1761307256528482600,8.651482666015625,-0.691436767578125,-0.725006103515625,-0.0122222900390625
1761307256538410800,8.66141064453125,-0.691619873046875,-0.7253265380859375,-0.0125885009765625
1761307256548338700,8.671338623046875,-0.691802978515625,-0.7250518798828125,-0.0121307373046875
1761307256558266600,8.6812666015625,-0.6933746337890625,-0.72454833984375,-0.01202392578125
1761307256568194600,8.691194580078125,-0.6927947998046875,-0.7253265380859375,-0.011932373046875
1761307256578122500,8.70112255859375,-0.6916656494140625,-0.7247467041015625,-0.0119171142578125
1761307256588050700,8.71105078125,-0.69219970703125,-0.7258148193359375,-0.0126953125
1761307256597978600,8.720978515625,-0.692291259765625,-0.7256622314453125,-0.012054443359375
1761307256607906600,8.730906494140624,-0.6915130615234375,-0.723907470703125,-0.0119781494140625
1761307256617834500,8.74083447265625,-0.6906585693359375,-0.7247314453125,-0.0125274658203125
1761307256627762400,8.750762451171875,-0.69091796875,-0.7240447998046875,-0.012359619140625
1761307256637690600,8.760690673828124,-0.691802978515625,-0.7252349853515625,-0.0118408203125
1761307256647618600,8.77061865234375,-0.692169189453125,-0.7249908447265625,-0.0113067626953125
1761307256657546800,8.780546630859375,-0.6913909912109375,-0.725189208984375,-0.0115203857421875
1761307256667474700,8.790474609375,-0.6922454833984375,-0.72509765625,-0.0128936767578125
1761307256677402600,8.800402587890625,-0.691741943359375,-0.72454833984375,-0.011993408203125
1761307256687330800,8.810330810546875,-0.6920166015625,-0.7247772216796875,-0.01220703125
1761307256697258800,8.8202587890625,-0.6925506591796875,-0.72491455078125,-0.012359619140625
1761307256707186700,8.830186767578125,-0.6914825439453125,-0.7243499755859375,-0.0120697021484375
1761307256717114600,8.840114501953124,-0.6912994384765625,-0.7252044677734375,-0.012542724609375
1761307256727042600,8.85004248046875,-0.69110107421875,-0.724365234375,-0.0123291015625
1761307256736970800,8.859970703125,-0.6924591064453125,-0.72442626953125,-0.0113677978515625
1761307256746898700,8.869898681640626,-0.6924896240234375,-0.72369384765625,-0.01171875
1761307256756826600,8.87982666015625,-0.691986083984375,-0.724609375,-0.0121917724609375
1761307256766754600,8.889754638671874,-0.69158935546875,-0.7245330810546875,-0.0114288330078125
1761307256776682500,8.8996826171875,-0.6916961669921875,-0.7237396240234375,-0.0121917724609375
1761307256786610700,8.909610595703125,-0.6921234130859375,-0.72491455078125,-0.0119781494140625
1761307256796538600,8.91953857421875,-0.691131591796875,-0.7243804931640625,-0.0122222900390625
1761307256806466600,8.929466552734375,-0.6918182373046875,-0.7247467041015625,-0.0120849609375
1761307256816395800,8.939395751953125,-0.6921234130859375,-0.724517822265625,-0.0120391845703125
1761307256826323700,8.94932373046875,-0.692596435546875,-0.72509765625,-0.0132293701171875
1761307256836251600,8.959251708984375,-0.691680908203125,-0.7253875732421875,-0.0123443603515625
1761307256846179800,8.969179931640625,-0.69110107421875,-0.7250518798828125,-0.0114898681640625
1761307256856107800,8.979107666015626,-0.692413330078125,-0.7248382568359375,-0.011383056640625
1761307256866035700,8.98903564453125,-0.6915130615234375,-0.7250518798828125,-0.0117950439453125
1761307256875963600,8.998963623046874,-0.69244384765625,-0.72515869140625,-0.0123748779296875
1761307256885891600,9.0088916015625,-0.691741943359375,-0.7252960205078125,-0.0116424560546875
1761307256895819800,9.01881982421875,-0.690216064453125,-0.7250518798828125,-0.012298583984375
1761307256905747700,9.028747802734374,-0.6925201416015625,-0.72515869140625,-0.0116424560546875
1761307256915675600,9.038675537109375,-0.6913909912109375,-0.724853515625,-0.0125885009765625
1761307256925603600,9.048603515625,-0.691802978515625,-0.725250244140625,-0.0122528076171875
1761307256935531500,9.058531494140626,-0.69158935546875,-0.7256011962890625,-0.0118255615234375
1761307256945459700,9.068459716796875,-0.6922760009765625,-0.724884033203125,-0.011749267578125
1761307256955387600,9.0783876953125,-0.6920623779296875,-0.7249603271484375,-0.0125274658203125
1761307256965315600,9.088315673828125,-0.6934661865234375,-0.7250213623046875,-0.011444091796875
1761307256975243500,9.098243408203125,-0.6912841796875,-0.725372314453125,-0.01214599609375
1761307256985171500,9.10817138671875,-0.692291259765625,-0.725341796875,-0.01220703125
1761307256995099600,9.118099609375,-0.69287109375,-0.7247314453125,-0.0117340087890625
1761307257005027600,9.128027587890625,-0.6919708251953125,-0.725677490234375,-0.013153076171875
1761307257014955800,9.137955810546876,-0.6923065185546875,-0.7248077392578125,-0.01220703125
1761307257024883700,9.1478837890625,-0.6916656494140625,-0.7241363525390625,-0.01165771484375
1761307257034811600,9.157811767578124,-0.6919708251953125,-0.7244415283203125,-0.012847900390625
1761307257044739800,9.16773974609375,-0.692626953125,-0.72509765625,-0.01165771484375
1761307257054667800,9.177667724609375,-0.692840576171875,-0.7241363525390625,-0.0119781494140625
1761307257064595700,9.187595703125,-0.6926422119140625,-0.7248687744140625,-0.0121002197265625
1761307257074523600,9.197523681640625,-0.692291259765625,-0.72454833984375,-0.012176513671875
1761307257084451600,9.20745166015625,-0.691619873046875,-0.7256927490234375,-0.0122833251953125
1761307257094379800,9.2173798828125,-0.691986083984375,-0.7252655029296875,-0.01220703125
1761307257104307700,9.2273076171875,-0.6925048828125,-0.7241363525390625,-0.0123138427734375
1761307257114235600,9.237235595703124,-0.691497802734375,-0.724456787109375,-0.0124053955078125
1761307257124163600,9.24716357421875,-0.6925201416015625,-0.7243194580078125,-0.0124053955078125
1761307257134091500,9.257091552734375,-0.6915130615234375,-0.7238922119140625,-0.011871337890625
1761307257144019700,9.267019775390626,-0.69183349609375,-0.724456787109375,-0.0113983154296875
1761307257153947600,9.27694775390625,-0.6917724609375,-0.724334716796875,-0.011993408203125
1761307257163875600,9.28687548828125,-0.6918182373046875,-0.725189208984375,-0.0120849609375
1761307257173803500,9.296803466796876,-0.6921539306640625,-0.7249755859375,-0.01220703125
1761307257183731500,9.3067314453125,-0.69219970703125,-0.7253265380859375,-0.0123748779296875
1761307257193659600,9.31665966796875,-0.6913604736328125,-0.7252197265625,-0.0110626220703125
1761307257203587600,9.326587646484375,-0.6919708251953125,-0.72515869140625,-0.0118408203125
1761307257213515800,9.336515869140625,-0.6913909912109375,-0.724334716796875,-0.012969970703125
1761307257223443700,9.346443603515626,-0.69183349609375,-0.7253875732421875,-0.0122528076171875
1761307257233371600,9.35637158203125,-0.693023681640625,-0.725433349609375,-0.01214599609375
1761307257243299800,9.3662998046875,-0.691650390625,-0.724761962890625,-0.0123291015625
1761307257253227800,9.376227783203126,-0.6917572021484375,-0.724761962890625,-0.0126190185546875
1761307257263155700,9.38615576171875,-0.692626953125,-0.7245330810546875,-0.011566162109375
1761307257273083600,9.396083740234374,-0.691925048828125,-0.7247161865234375,-0.0125274658203125
1761307257283011600,9.406011474609375,-0.691650390625,-0.7245330810546875,-0.0117645263671875
1761307257292939800,9.415939697265625,-0.692779541015625,-0.72467041015625,-0.0118255615234375
1761307257302867700,9.42586767578125,-0.6929779052734375,-0.7247467041015625,-0.0130615234375
1761307257312795600,9.435795654296875,-0.6912994384765625,-0.7252349853515625,-0.0120391845703125
1761307257322723600,9.4457236328125,-0.6920928955078125,-0.72454833984375,-0.012420654296875
1761307257332651500,9.455651611328125,-0.6920318603515625,-0.7250518798828125,-0.011871337890625
1761307257342579700,9.465579833984375,-0.6922760009765625,-0.724945068359375,-0.0126953125
1761307257352508200,9.475508056640624,-0.691864013671875,-0.724700927734375,-0.0124969482421875
1761307257362436400,9.485436279296875,-0.6918487548828125,-0.7249908447265625,-0.0128021240234375
1761307257372364300,9.4953642578125,-0.6930084228515625,-0.7255096435546875,-0.0130767822265625
1761307257382292200,9.505292236328126,-0.6921234130859375,-0.72503662109375,-0.0126495361328125
1761307257392220200,9.51522021484375,-0.692901611328125,-0.725921630859375,-0.011566162109375
1761307257402148400,9.5251484375,-0.6925201416015625,-0.7243499755859375,-0.0123138427734375
1761307257412076300,9.535076171875,-0.6923828125,-0.7242279052734375,-0.0125732421875
1761307257422004200,9.545004150390625,-0.691802978515625,-0.72442626953125,-0.0121917724609375
1761307257431932200,9.55493212890625,-0.6911773681640625,-0.72509765625,-0.011383056640625
1761307257441860000,9.564860107421875,-0.6922760009765625,-0.725189208984375,-0.0113525390625
1761307257451788300,9.574788330078125,-0.6917877197265625,-0.7248687744140625,-0.01220703125
1761307257461716200,9.58471630859375,-0.691619873046875,-0.7245635986328125,-0.012115478515625
1761307257471644200,9.59464404296875,-0.6914825439453125,-0.7239837646484375,-0.0119781494140625
1761307257481572000,9.604572021484374,-0.6919403076171875,-0.7248687744140625,-0.011962890625
1761307257491500000,9.6145,-0.69207763671875,-0.72467041015625,-0.011688232421875
1761307257501428200,9.62442822265625,-0.6915435791015625,-0.724822998046875,-0.01202392578125
1761307257511356200,9.634356201171874,-0.6912384033203125,-0.724334716796875,-0.0129852294921875
1761307257521284000,9.6442841796875,-0.692474365234375,-0.7247161865234375,-0.012176513671875
1761307257531212000,9.6542119140625,-0.69305419921875,-0.724945068359375,-0.0120086669921875
1761307257541140000,9.664139892578126,-0.691558837890625,-0.72412109375,-0.0125732421875
1761307257551068200,9.674068115234375,-0.6909027099609375,-0.724884033203125,-0.0126495361328125
1761307257560996400,9.683996337890624,-0.691131591796875,-0.72503662109375,-0.0128326416015625
1761307257570924300,9.69392431640625,-0.691680908203125,-0.7252655029296875,-0.0127716064453125
1761307257580852200,9.703852294921875,-0.6901397705078125,-0.7253570556640625,-0.012237548828125
1761307257590780200,9.7137802734375,-0.692413330078125,-0.723785400390625,-0.0124359130859375
1761307257600708400,9.723708251953125,-0.692291259765625,-0.7244110107421875,-0.01239013671875
1761307257610636300,9.73363623046875,-0.691680908203125,-0.724884033203125,-0.01263427734375
1761307257620564200,9.743564208984376,-0.69146728515625,-0.724700927734375,-0.0122833251953125
1761307257630492200,9.7534921875,-0.6916046142578125,-0.72564697265625,-0.011932373046875
1761307257640421000,9.763421142578125,-0.6918182373046875,-0.72515869140625,-0.0124359130859375
1761307257650348300,9.773348388671875,-0.69122314453125,-0.724609375,-0.0122528076171875
1761307257660277200,9.78327734375,-0.69134521484375,-0.724151611328125,-0.011993408203125
1761307257670204200,9.7932041015625,-0.691986083984375,-0.724456787109375,-0.0124359130859375
1761307257680133000,9.803133056640625,-0.6916046142578125,-0.7247314453125,-0.012603759765625
1761307257690061000,9.81306103515625,-0.6924896240234375,-0.7249298095703125,-0.011932373046875
1761307257699989000,9.822989013671876,-0.691619873046875,-0.7242279052734375,-0.0128936767578125
1761307257709917200,9.832917236328125,-0.6917266845703125,-0.7254638671875,-0.0123138427734375
1761307257719845400,9.842845458984375,-0.69158935546875,-0.7252044677734375,-0.0120391845703125
1761307257729773300,9.852773193359376,-0.6915283203125,-0.7253570556640625,-0.0123291015625
1761307257739701200,9.862701171875,-0.692840576171875,-0.7255859375,-0.012237548828125
1761307257749629200,9.872629150390624,-0.6915740966796875,-0.7250518798828125,-0.0121612548828125
1761307257759557000,9.88255712890625,-0.6921539306640625,-0.7244110107421875,-0.0121307373046875
1761307257769485300,9.8924853515625,-0.6917572021484375,-0.7250823974609375,-0.0128173828125
1761307257779413200,9.902413330078126,-0.6922760009765625,-0.7235870361328125,-0.01220703125
1761307257789341200,9.912341064453125,-0.6913909912109375,-0.7243499755859375,-0.0122222900390625
1761307257799269000,9.92226904296875,-0.692169189453125,-0.7248382568359375,-0.01202392578125
1761307257809197300,9.932197265625,-0.6915740966796875,-0.7255096435546875,-0.01251220703125
1761307257819125200,9.942125244140625,-0.6923828125,-0.7254180908203125,-0.012481689453125
1761307257829053200,9.95205322265625,-0.692596435546875,-0.7252044677734375,-0.0122528076171875
1761307257838981000,9.961981201171875,-0.692657470703125,-0.725067138671875,-0.0123748779296875
1761307257848909000,9.971908935546875,-0.6919097900390625,-0.7253570556640625,-0.011566162109375
1761307257858837200,9.981837158203126,-0.691314697265625,-0.7245025634765625,-0.011962890625
1761307257868765200,9.99176513671875,-0.6913299560546875,-0.72393798828125,-0.012786865234375
1761307257878693000,10.001693115234374,-0.6910247802734375,-0.7240447998046875,-0.0127410888671875
1761307257888621000,10.01162109375,-0.6918182373046875,-0.72393798828125,-0.01214599609375
1761307257898549000,10.021549072265625,-0.6920928955078125,-0.724578857421875,-0.0116424560546875
1761307257908477200,10.031477294921874,-0.6917724609375,-0.7242431640625,-0.0124053955078125
1761307257918405400,10.0414052734375,-0.6923065185546875,-0.72418212890625,-0.0130462646484375
1761307257928333300,10.051333251953125,-0.69158935546875,-0.7245941162109375,-0.0125579833984375
1761307257938261200,10.06126123046875,-0.6921844482421875,-0.7241058349609375,-0.0126495361328125
1761307257948189200,10.071189208984375,-0.692352294921875,-0.7236785888671875,-0.0116119384765625
1761307257958117000,10.0811171875,-0.6916961669921875,-0.7244873046875,-0.012664794921875
1761307257968045300,10.09104541015625,-0.6916961669921875,-0.7242889404296875,-0.0125885009765625
1761307257977973200,10.10097314453125,-0.692047119140625,-0.7240753173828125,-0.0113677978515625
1761307257987901200,10.110901123046874,-0.6930389404296875,-0.7242889404296875,-0.0118408203125
1761307257997829000,10.1208291015625,-0.6931304931640625,-0.7247161865234375,-0.0117645263671875
1761307258007757300,10.13075732421875,-0.6919403076171875,-0.7249603271484375,-0.0119171142578125
1761307258017685200,10.140685302734376,-0.69146728515625,-0.7249298095703125,-0.0119476318359375
1761307258027613200,10.15061328125,-0.6925048828125,-0.7243804931640625,-0.011810302734375
1761307258037541000,10.160541015625,-0.6928863525390625,-0.7241973876953125,-0.0114593505859375
1761307258047469000,10.170468994140625,-0.6924591064453125,-0.7247467041015625,-0.0127716064453125
1761307258057397200,10.180397216796875,-0.691680908203125,-0.724853515625,-0.012603759765625
1761307258067325200,10.1903251953125,-0.6923675537109375,-0.7251739501953125,-0.011474609375
1761307258077253000,10.200253173828125,-0.6924285888671875,-0.723602294921875,-0.0123138427734375
1761307258087181000,10.21018115234375,-0.6922760009765625,-0.7245330810546875,-0.0109710693359375
1761307258097109000,10.22010888671875,-0.6921234130859375,-0.724609375,-0.010955810546875
1761307258107037200,10.230037109375,-0.6923370361328125,-0.7244110107421875,-0.0122528076171875
1761307258116965400,10.23996533203125,-0.6905517578125,-0.7246551513671875,-0.0122222900390625
1761307258126893300,10.249893310546875,-0.691558837890625,-0.724456787109375,-0.01202392578125
1761307258136821200,10.2598212890625,-0.6923828125,-0.725189208984375,-0.011810302734375
1761307258146749200,10.269749267578124,-0.692230224609375,-0.724945068359375,-0.011505126953125
1761307258156677000,10.279677001953125,-0.692352294921875,-0.7252197265625,-0.01251220703125
1761307258166605300,10.289605224609375,-0.6924285888671875,-0.7244110107421875,-0.01287841796875
1761307258176533200,10.299533203125,-0.69232177734375,-0.724456787109375,-0.011749267578125
1761307258186461200,10.309461181640625,-0.69183349609375,-0.7248992919921875,-0.012298583984375
1761307258196389000,10.31938916015625,-0.6914520263671875,-0.724639892578125,-0.01263427734375
1761307258206317300,10.3293173828125,-0.69146728515625,-0.724945068359375,-0.0115509033203125
1761307258216245200,10.339245361328125,-0.6919097900390625,-0.7254180908203125,-0.01123046875
1761307258226173200,10.349173095703126,-0.69281005859375,-0.7247161865234375,-0.011322021484375
1761307258236101000,10.35910107421875,-0.69189453125,-0.723968505859375,-0.0116424560546875
1761307258246029000,10.369029052734374,-0.691619873046875,-0.72412109375,-0.0120697021484375
1761307258255957200,10.378957275390626,-0.6918792724609375,-0.7246551513671875,-0.0121307373046875
1761307258265885200,10.38888525390625,-0.692291259765625,-0.7251739501953125,-0.0118865966796875
1761307258275813000,10.398813232421874,-0.692047119140625,-0.725433349609375,-0.0124359130859375
1761307258285741000,10.408740966796875,-0.6923370361328125,-0.725311279296875,-0.0124969482421875
1761307258295669000,10.4186689453125,-0.691864013671875,-0.7245635986328125,-0.011627197265625
1761307258305597200,10.42859716796875,-0.6916656494140625,-0.7253875732421875,-0.011566162109375
1761307258315525400,10.438525390625,-0.69268798828125,-0.725341796875,-0.0124664306640625
1761307258325453300,10.448453369140625,-0.6916961669921875,-0.7250823974609375,-0.0121612548828125
1761307258335381200,10.45838134765625,-0.69049072265625,-0.7243804931640625,-0.012603759765625
1761307258345309200,10.46830908203125,-0.6920166015625,-0.724700927734375,-0.011993408203125
1761307258355237000,10.478237060546874,-0.6920318603515625,-0.7238311767578125,-0.01202392578125
1761307258365165300,10.488165283203125,-0.692230224609375,-0.724578857421875,-0.0119171142578125
1761307258375093200,10.49809326171875,-0.69140625,-0.7248382568359375,-0.011932373046875
1761307258385021200,10.508021240234376,-0.6906585693359375,-0.7249755859375,-0.0115966796875
1761307258394949000,10.51794921875,-0.69207763671875,-0.72412109375,-0.01141357421875
1761307258404877300,10.527877197265624,-0.6906890869140625,-0.724090576171875,-0.0118255615234375
1761307258414805200,10.53780517578125,-0.6915435791015625,-0.7242279052734375,-0.01190185546875
1761307258424733200,10.547733154296875,-0.69293212890625,-0.7251739501953125,-0.0114593505859375
1761307258434661000,10.5576611328125,-0.691986083984375,-0.7254486083984375,-0.0116424560546875
1761307258444589000,10.567589111328125,-0.692657470703125,-0.7242584228515625,-0.0120086669921875
1761307258454517200,10.577517333984375,-0.69232177734375,-0.72442626953125,-0.0119171142578125
1761307258464445200,10.587445068359376,-0.6921539306640625,-0.7246246337890625,-0.011962890625
1761307258474373000,10.597373046875,-0.69158935546875,-0.7251739501953125,-0.012237548828125
1761307258484301000,10.607301025390624,-0.6920928955078125,-0.7243499755859375,-0.012542724609375
1761307258494229000,10.61722900390625,-0.691558837890625,-0.7243804931640625,-0.01275634765625
1761307258504157200,10.6271572265625,-0.6920166015625,-0.7241973876953125,-0.0116119384765625
1761307258514085000,10.637085205078124,-0.6923828125,-0.7239837646484375,-0.0114898681640625
1761307258524013000,10.647012939453125,-0.690826416015625,-0.7249603271484375,-0.0119476318359375
1761307258533941000,10.65694091796875,-0.69146728515625,-0.7259368896484375,-0.0123138427734375
1761307258543869200,10.666869140625,-0.6910400390625,-0.7242584228515625,-0.0118408203125
1761307258553797000,10.676797119140625,-0.691741943359375,-0.7250823974609375,-0.011810302734375
1761307258563725300,10.686725341796874,-0.6917877197265625,-0.7249755859375,-0.0124053955078125
1761307258573653200,10.6966533203125,-0.6919097900390625,-0.7248992919921875,-0.0124969482421875
1761307258583581200,10.706581298828125,-0.69244384765625,-0.7254180908203125,-0.0122222900390625
1761307258593509000,10.716509033203126,-0.691680908203125,-0.72454833984375,-0.01165771484375
1761307258603437300,10.726437255859375,-0.690399169921875,-0.72509765625,-0.011962890625
1761307258613365200,10.736365234375,-0.6917572021484375,-0.72509765625,-0.0120849609375
1761307258623293200,10.746293212890626,-0.6932220458984375,-0.7243804931640625,-0.0118560791015625
1761307258633221000,10.75622119140625,-0.6918487548828125,-0.7248077392578125,-0.0115509033203125
1761307258643149000,10.766149169921874,-0.692230224609375,-0.72454833984375,-0.0121612548828125
1761307258653077200,10.7760771484375,-0.6918792724609375,-0.72442626953125,-0.0118255615234375
1761307258663005200,10.786005126953125,-0.6919708251953125,-0.724822998046875,-0.011383056640625
1761307258672933000,10.79593310546875,-0.690673828125,-0.7250213623046875,-0.0123748779296875
1761307258682861000,10.805861083984375,-0.69110107421875,-0.7250518798828125,-0.0122222900390625
1761307258692789000,10.8157890625,-0.692138671875,-0.7249298095703125,-0.0125732421875
1761307258702717200,10.82571728515625,-0.6902923583984375,-0.7248992919921875,-0.0118408203125
1761307258712645000,10.83564501953125,-0.691009521484375,-0.724365234375,-0.01226806640625
1761307258722573000,10.845572998046874,-0.6913604736328125,-0.725677490234375,-0.0119171142578125
1761307258732501000,10.8555009765625,-0.6919708251953125,-0.725433349609375,-0.012451171875
1761307258742429200,10.86542919921875,-0.6915130615234375,-0.724822998046875,-0.0117034912109375
1761307258752357000,10.875357177734376,-0.6920928955078125,-0.7244720458984375,-0.0119171142578125
1761307258762285300,10.885285400390625,-0.69171142578125,-0.7241973876953125,-0.011627197265625
1761307258772213200,10.895213134765624,-0.691864013671875,-0.725128173828125,-0.0119171142578125
1761307258782141200,10.90514111328125,-0.6913299560546875,-0.7258148193359375,-0.01214599609375
1761307258792069000,10.915069091796875,-0.6908721923828125,-0.72528076171875,-0.012237548828125
1761307258801997300,10.924997314453124,-0.690826416015625,-0.7251739501953125,-0.0115203857421875
1761307258811925200,10.93492529296875,-0.691314697265625,-0.7249603271484375,-0.011932373046875
1761307258821853200,10.944853271484375,-0.69110107421875,-0.724853515625,-0.0124359130859375
1761307258831781000,10.954781005859376,-0.6921234130859375,-0.72406005859375,-0.012115478515625
1761307258841708300,10.964708251953125,-0.691558837890625,-0.7251739501953125,-0.01123046875
1761307258851636200,10.97463623046875,-0.6921844482421875,-0.724578857421875,-0.0122528076171875
1761307258861564200,10.984564208984375,-0.69195556640625,-0.7241668701171875,-0.0126190185546875
1761307258871492000,10.9944921875,-0.69183349609375,-0.724761962890625,-0.0120391845703125
1761307258881420000,11.004419921875,-0.692230224609375,-0.7252349853515625,-0.012115478515625
1761307258891348200,11.01434814453125,-0.6926727294921875,-0.7248687744140625,-0.012298583984375
1761307258901276200,11.024276123046874,-0.6928253173828125,-0.724334716796875,-0.0118255615234375
1761307258911204000,11.0342041015625,-0.6915740966796875,-0.7239837646484375,-0.0121917724609375
1761307258921132000,11.044132080078125,-0.691314697265625,-0.7249603271484375,-0.0128936767578125
1761307258931060000,11.05406005859375,-0.6929779052734375,-0.7249908447265625,-0.012115478515625
1761307258940988200,11.06398828125,-0.6923370361328125,-0.7251739501953125,-0.012481689453125
1761307258950916000,11.073916015625,-0.6918182373046875,-0.725067138671875,-0.0119781494140625
1761307258960844000,11.083843994140626,-0.6917724609375,-0.7241058349609375,-0.0128326416015625
1761307258970772000,11.09377197265625,-0.6909942626953125,-0.7238922119140625,-0.0127410888671875
1761307258980700200,11.1037001953125,-0.6904449462890625,-0.7242279052734375,-0.012664794921875
1761307258990628400,11.11362841796875,-0.6911163330078125,-0.7239990234375,-0.012298583984375
1761307259000556300,11.123556396484375,-0.69256591796875,-0.724395751953125,-0.011627197265625
1761307259010484200,11.133484130859374,-0.6927337646484375,-0.7253570556640625,-0.0113067626953125
1761307259020412200,11.143412109375,-0.69305419921875,-0.72412109375,-0.0118255615234375
1761307259030340000,11.153340087890625,-0.6918487548828125,-0.7249908447265625,-0.012115478515625
1761307259040268300,11.163268310546876,-0.6925506591796875,-0.72393798828125,-0.0123443603515625
1761307259050196200,11.1731962890625,-0.691650390625,-0.72442626953125,-0.012115478515625
1761307259060124200,11.183124267578124,-0.691375732421875,-0.725189208984375,-0.011474609375
1761307259070052000,11.193052001953125,-0.6919403076171875,-0.7246551513671875,-0.012176513671875
1761307259079980000,11.20297998046875,-0.6915283203125,-0.7246551513671875,-0.012054443359375
1761307259089908200,11.212908203125,-0.6918182373046875,-0.7245635986328125,-0.0117340087890625
1761307259099836200,11.222836181640625,-0.6924896240234375,-0.72515869140625,-0.011199951171875
1761307259109764000,11.23276416015625,-0.6919403076171875,-0.7248382568359375,-0.0127716064453125
1761307259119692000,11.242692138671876,-0.6911468505859375,-0.723907470703125,-0.0119476318359375
1761307259129620000,11.252619873046875,-0.6922607421875,-0.7249603271484375,-0.012542724609375
1761307259139548200,11.262548095703124,-0.691436767578125,-0.7252197265625,-0.0121612548828125
1761307259149476000,11.27247607421875,-0.6917266845703125,-0.7248382568359375,-0.0119171142578125
1761307259159404000,11.282404052734375,-0.691741943359375,-0.724212646484375,-0.012359619140625
1761307259169332000,11.29233203125,-0.6920166015625,-0.7256011962890625,-0.0122833251953125
1761307259179260200,11.30226025390625,-0.692535400390625,-0.725372314453125,-0.012237548828125
1761307259189188400,11.312188232421875,-0.6923980712890625,-0.7252197265625,-0.01141357421875
1761307259199116300,11.3221162109375,-0.691619873046875,-0.724761962890625,-0.0121002197265625
1761307259209044200,11.332044189453125,-0.690948486328125,-0.724609375,-0.01165771484375
1761307259218972200,11.34197216796875,-0.69158935546875,-0.72467041015625,-0.011444091796875
1761307259228900000,11.351900146484375,-0.6922149658203125,-0.72393798828125,-0.0117340087890625
1761307259238828300,11.361828369140625,-0.6919097900390625,-0.7237548828125,-0.01153564453125
1761307259248756200,11.371756103515626,-0.6915435791015625,-0.7246551513671875,-0.0128631591796875
1761307259258684200,11.38168408203125,-0.691497802734375,-0.7249298095703125,-0.0124053955078125
1761307259268612000,11.391612060546874,-0.6918182373046875,-0.725433349609375,-0.0118255615234375
1761307259278540000,11.4015400390625,-0.6917877197265625,-0.7251434326171875,-0.01190185546875
1761307259288468200,11.41146826171875,-0.690460205078125,-0.7242431640625,-0.0123291015625
1761307259298396200,11.421396240234374,-0.6913909912109375,-0.7242279052734375,-0.01226806640625
1761307259308324000,11.431323974609375,-0.6920013427734375,-0.7252197265625,-0.0114593505859375
1761307259318252000,11.441251953125,-0.6916046142578125,-0.72515869140625,-0.012176513671875
1761307259328180000,11.451179931640626,-0.6906585693359375,-0.7254638671875,-0.012451171875
1761307259338108200,11.461108154296875,-0.691802978515625,-0.7259674072265625,-0.0118865966796875
1761307259348036000,11.4710361328125,-0.69091796875,-0.7248687744140625,-0.01177978515625
1761307259357963500,11.480963623046875,-0.6920318603515625,-0.723876953125,-0.0118408203125
1761307259367891500,11.490891357421875,-0.6920318603515625,-0.7247314453125,-0.0118560791015625
1761307259377819600,11.500819580078126,-0.6917877197265625,-0.725677490234375,-0.01177978515625
1761307259387747600,11.51074755859375,-0.691497802734375,-0.7255706787109375,-0.011688232421875
1761307259397675500,11.520675537109375,-0.692626953125,-0.725433349609375,-0.012115478515625
1761307259407603500,11.530603515625,-0.6927490234375,-0.72515869140625,-0.01141357421875
1761307259417531400,11.540531494140625,-0.69134521484375,-0.7246856689453125,-0.0119781494140625
1761307259427459600,11.55045947265625,-0.692840576171875,-0.72503662109375,-0.0119171142578125
1761307259437387500,11.560387451171875,-0.692657470703125,-0.7248077392578125,-0.01171875
1761307259447315500,11.5703154296875,-0.693023681640625,-0.7244873046875,-0.0122222900390625
1761307259457243400,11.580243408203126,-0.691650390625,-0.724212646484375,-0.0118408203125
1761307259467171300,11.59017138671875,-0.6922607421875,-0.7254638671875,-0.0122528076171875
1761307259477099500,11.600099609375,-0.6906890869140625,-0.725341796875,-0.012298583984375
1761307259487027500,11.61002734375,-0.6915283203125,-0.72344970703125,-0.0123291015625
1761307259496955600,11.61995556640625,-0.691619873046875,-0.7244720458984375,-0.01190185546875
1761307259506883600,11.629883544921874,-0.6918792724609375,-0.725311279296875,-0.0124664306640625
1761307259516811500,11.6398115234375,-0.6915130615234375,-0.72509765625,-0.0119171142578125
1761307259526739700,11.64973974609375,-0.6919097900390625,-0.725250244140625,-0.0111541748046875
1761307259536667600,11.659667724609376,-0.69158935546875,-0.7252349853515625,-0.0119171142578125
1761307259546595600,11.669595703125,-0.6911163330078125,-0.724609375,-0.0115814208984375
1761307259556523500,11.6795234375,-0.6913909912109375,-0.724578857421875,-0.0127105712890625
1761307259566451500,11.689451416015626,-0.691619873046875,-0.7245025634765625,-0.0118865966796875
1761307259576379600,11.699379638671875,-0.692657470703125,-0.72442626953125,-0.0117340087890625
1761307259586307600,11.7093076171875,-0.6921539306640625,-0.724761962890625,-0.0123443603515625
1761307259596235500,11.719235595703125,-0.692230224609375,-0.7251129150390625,-0.012298583984375
1761307259606163500,11.72916357421875,-0.6913909912109375,-0.725616455078125,-0.011688232421875
1761307259616091400,11.73909130859375,-0.6925201416015625,-0.7245330810546875,-0.0119171142578125
1761307259626019600,11.74901953125,-0.69171142578125,-0.72479248046875,-0.012786865234375
1761307259635947500,11.758947509765624,-0.6916046142578125,-0.723846435546875,-0.011993408203125
1761307259645875500,11.76887548828125,-0.6915435791015625,-0.724578857421875,-0.0123748779296875
1761307259655803400,11.778803466796875,-0.6924591064453125,-0.7247314453125,-0.0114898681640625
1761307259665731300,11.7887314453125,-0.692291259765625,-0.724578857421875,-0.0116424560546875
1761307259675659500,11.798659423828125,-0.6923370361328125,-0.723663330078125,-0.011932373046875
1761307259685587500,11.80858740234375,-0.6917572021484375,-0.723846435546875,-0.0123443603515625
1761307259695514400,11.818514404296875,-0.6914825439453125,-0.7248077392578125,-0.0123443603515625
1761307259705443600,11.828443603515625,-0.6914520263671875,-0.7257232666015625,-0.01177978515625
1761307259715371500,11.83837158203125,-0.691925048828125,-0.7242889404296875,-0.0123291015625
1761307259725298400,11.84829833984375,-0.6918182373046875,-0.7240142822265625,-0.01275634765625
1761307259735226600,11.8582265625,-0.6917572021484375,-0.7240753173828125,-0.012786865234375
1761307259745154600,11.868154541015626,-0.69281005859375,-0.7254180908203125,-0.0120849609375
1761307259755082500,11.87808251953125,-0.692718505859375,-0.7240142822265625,-0.01214599609375
1761307259765010700,11.8880107421875,-0.6911773681640625,-0.7247467041015625,-0.0118865966796875
1761307259774938600,11.897938720703126,-0.6919708251953125,-0.725921630859375,-0.011993408203125
1761307259784866600,11.907866455078125,-0.692352294921875,-0.7248382568359375,-0.0121612548828125
1761307259794794500,11.91779443359375,-0.691619873046875,-0.7248687744140625,-0.012420654296875
1761307259804722400,11.927722412109375,-0.691131591796875,-0.72479248046875,-0.011138916015625
1761307259814650600,11.937650634765625,-0.6930694580078125,-0.7242889404296875,-0.011871337890625
1761307259824578600,11.94757861328125,-0.6926422119140625,-0.7244415283203125,-0.0118255615234375
1761307259834506500,11.957506591796875,-0.6917572021484375,-0.724700927734375,-0.0115966796875
1761307259844434400,11.967434326171874,-0.692169189453125,-0.724853515625,-0.01239013671875
1761307259854362400,11.9773623046875,-0.6914520263671875,-0.724945068359375,-0.0124664306640625
1761307259864290600,11.98729052734375,-0.6909332275390625,-0.72528076171875,-0.0113372802734375
1761307259874218500,11.997218505859376,-0.6918792724609375,-0.7255096435546875,-0.011749267578125
1761307259884146400,12.007146484375,-0.69219970703125,-0.724853515625,-0.0117340087890625
1761307259894074400,12.017074462890625,-0.691986083984375,-0.725433349609375,-0.0118560791015625
1761307259904002300,12.027002197265626,-0.6917724609375,-0.72509765625,-0.0119171142578125
1761307259913930500,12.036930419921875,-0.6919097900390625,-0.724334716796875,-0.0120391845703125
1761307259923858400,12.0468583984375,-0.6918487548828125,-0.724395751953125,-0.0125274658203125
1761307259933786600,12.05678662109375,-0.691802978515625,-0.724884033203125,-0.012298583984375
1761307259943714600,12.066714599609375,-0.690765380859375,-0.7243194580078125,-0.0113983154296875
1761307259953642500,12.076642578125,-0.6917724609375,-0.7252044677734375,-0.0122833251953125
1761307259963570700,12.08657080078125,-0.6921234130859375,-0.7247314453125,-0.0121917724609375
1761307259973498600,12.09649853515625,-0.69244384765625,-0.72442626953125,-0.0127105712890625
1761307259983426600,12.106426513671876,-0.6913909912109375,-0.7242584228515625,-0.0112457275390625
1761307259993354500,12.1163544921875,-0.69122314453125,-0.725372314453125,-0.0123291015625
1761307260003282400,12.126282470703124,-0.69134521484375,-0.7251129150390625,-0.0111541748046875
1761307260013210600,12.136210693359375,-0.6923980712890625,-0.724700927734375,-0.011322021484375
1761307260023138600,12.146138671875,-0.6925201416015625,-0.7254638671875,-0.0118408203125
1761307260033066500,12.15606640625,-0.6918792724609375,-0.7247314453125,-0.012603759765625
1761307260042994400,12.165994384765625,-0.6923675537109375,-0.72540283203125,-0.0115509033203125
1761307260052922400,12.17592236328125,-0.6921844482421875,-0.7252655029296875,-0.0118255615234375
1761307260062850600,12.1858505859375,-0.6922454833984375,-0.7243804931640625,-0.0123138427734375
1761307260072778500,12.195778564453125,-0.692962646484375,-0.7259979248046875,-0.0116424560546875
1761307260082706400,12.20570654296875,-0.6910858154296875,-0.725738525390625,-0.01092529296875
1761307260092634400,12.21563427734375,-0.6912384033203125,-0.7249603271484375,-0.011566162109375
1761307260102562300,12.225562255859375,-0.690673828125,-0.72540283203125,-0.0123443603515625
1761307260112490500,12.235490478515626,-0.6925811767578125,-0.7252655029296875,-0.0122222900390625
1761307260122418400,12.24541845703125,-0.6920623779296875,-0.7254180908203125,-0.01214599609375
1761307260132346600,12.2553466796875,-0.69183349609375,-0.725677490234375,-0.0121002197265625
1761307260142274600,12.265274658203126,-0.6922760009765625,-0.72406005859375,-0.0117645263671875
1761307260152202500,12.275202392578125,-0.692169189453125,-0.724212646484375,-0.0126190185546875
1761307260162130700,12.285130615234374,-0.6920623779296875,-0.7246246337890625,-0.0114288330078125
1761307260172058600,12.29505859375,-0.69244384765625,-0.724395751953125,-0.0127105712890625
1761307260181986600,12.304986572265625,-0.692596435546875,-0.7243804931640625,-0.0115966796875
1761307260191914500,12.31491455078125,-0.6924591064453125,-0.7249908447265625,-0.0111846923828125
1761307260201842400,12.324842529296875,-0.692108154296875,-0.7240447998046875,-0.0120086669921875
1761307260211770600,12.3347705078125,-0.6915740966796875,-0.725372314453125,-0.0123443603515625
1761307260221698600,12.344698486328125,-0.6903076171875,-0.7240447998046875,-0.01275634765625
1761307260231626500,12.35462646484375,-0.692626953125,-0.7249298095703125,-0.0121002197265625
1761307260241554400,12.364554443359374,-0.693206787109375,-0.724365234375,-0.011383056640625
1761307260251481600,12.374481689453125,-0.69061279296875,-0.724853515625,-0.0117034912109375
1761307260261409500,12.384409423828124,-0.691650390625,-0.7248992919921875,-0.0114288330078125
1761307260271337500,12.39433740234375,-0.691864013671875,-0.7243194580078125,-0.0119171142578125
1761307260281265400,12.404265380859375,-0.6916961669921875,-0.724761962890625,-0.0120391845703125
1761307260291193600,12.414193603515624,-0.690765380859375,-0.7248382568359375,-0.0112762451171875
1761307260301121500,12.42412158203125,-0.6915435791015625,-0.725128173828125,-0.0120391845703125
1761307260311049500,12.434049560546875,-0.6912994384765625,-0.7236480712890625,-0.01220703125
1761307260320977400,12.443977294921876,-0.691253662109375,-0.724578857421875,-0.0121002197265625
1761307260330905300,12.4539052734375,-0.6925201416015625,-0.7240142822265625,-0.0117645263671875
1761307260340833500,12.46383349609375,-0.691253662109375,-0.72442626953125,-0.0122833251953125
1761307260350761500,12.473761474609375,-0.6922760009765625,-0.7253265380859375,-0.012451171875
1761307260360690000,12.48368994140625,-0.6919403076171875,-0.7252349853515625,-0.012847900390625
1761307260370617900,12.493617919921874,-0.69158935546875,-0.725006103515625,-0.0128326416015625
1761307260380545800,12.5035458984375,-0.692169189453125,-0.724395751953125,-0.012420654296875
1761307260390473700,12.5134736328125,-0.6918182373046875,-0.725311279296875,-0.0121917724609375
1761307260400402000,12.52340185546875,-0.692535400390625,-0.72442626953125,-0.0126800537109375
1761307260410329900,12.533329833984375,-0.69207763671875,-0.7252349853515625,-0.0122528076171875
1761307260420257800,12.5432578125,-0.69091796875,-0.725067138671875,-0.0125579833984375
1761307260430185700,12.553185791015625,-0.6916046142578125,-0.7245025634765625,-0.0116729736328125
1761307260440113700,12.56311376953125,-0.692474365234375,-0.7242889404296875,-0.0120849609375
1761307260450042000,12.5730419921875,-0.6915283203125,-0.7251434326171875,-0.01300048828125
1761307260459970000,12.582969970703125,-0.692535400390625,-0.7252197265625,-0.0123138427734375
1761307260469898000,12.59289794921875,-0.691986083984375,-0.724884033203125,-0.0120697021484375
1761307260479826000,12.602825927734376,-0.690460205078125,-0.7247314453125,-0.0115966796875
1761307260489753900,12.61275390625,-0.691925048828125,-0.72515869140625,-0.011749267578125
1761307260499682000,12.62268212890625,-0.691802978515625,-0.724761962890625,-0.0113677978515625
1761307260509610000,12.63260986328125,-0.69085693359375,-0.7263336181640625,-0.01263427734375
1761307260519538000,12.642537841796875,-0.6910247802734375,-0.7252044677734375,-0.012420654296875
1761307260529465900,12.6524658203125,-0.691375732421875,-0.7246246337890625,-0.0117950439453125
1761307260539393800,12.662393798828125,-0.6916046142578125,-0.7245330810546875,-0.012298583984375
1761307260549322000,12.672322021484375,-0.6915283203125,-0.725372314453125,-0.01141357421875
1761307260559250000,12.68225,-0.6915130615234375,-0.72528076171875,-0.0120849609375
1761307260569177900,12.692177734375,-0.6912384033203125,-0.7253265380859375,-0.0124359130859375
1761307260579105800,12.702105712890624,-0.691802978515625,-0.7254791259765625,-0.01190185546875
