time,seconds_elapsed,z,y,x
1761307247945677300,0.06867724609375,-0.01962297037243843,0.030663371086120605,0.01654462143778801
1761307247955605500,0.07860546875,-0.0312226340174675,0.047924648970365524,0.0394589938223362
1761307247965533400,0.088533447265625,-0.034928422421216965,-0.007770305033773184,0.04229685664176941
1761307247975461400,0.09846142578125,-0.018867164850234985,0.007668838836252689,0.029645776376128197
1761307247985389600,0.1083896484375,0.004698348697274923,-0.0022956449538469315,0.0018679412314668298
1761307247995317500,0.1183173828125,0.023254722356796265,-0.0000673779723001644,-0.017347298562526703
1761307248005245400,0.128245361328125,0.020479975268244743,-0.008053398691117764,-0.013531520962715149
1761307248015173400,0.13817333984375,0.007246993947774172,-0.0038037928752601147,0.007953530177474022
1761307248025101300,0.148101318359375,-0.0028152274899184704,0.00808828603476286,0.022238193079829216
1761307248035029500,0.158029541015625,-0.018146779388189316,0.007311708759516478,0.02725132741034031
1761307248044957400,0.16795751953125,-0.018134528771042824,0.006252835970371962,0.015747804194688797
1761307248054885400,0.177885498046875,-0.004185690078884363,-0.0012279836228117347,0.00495188171043992
1761307248064813300,0.187813232421875,0.007245928514748812,-0.0037795582320541143,-0.0041276332922279835
1761307248074741200,0.1977412109375,0.010396980680525303,-0.004458930809050798,-0.00115421402733773
1761307248084669400,0.20766943359375,0.007497331127524376,-0.0038099181838333607,0.004847219679504633
1761307248094597400,0.217597412109375,-0.0028450549580156803,0.0034434671979397535,0.010614827275276184
1761307248104525300,0.227525390625,-0.009785252623260021,0.0023960459511727095,0.016281768679618835
1761307248114453200,0.237453369140625,-0.008711732923984528,0.0007699198904447258,0.016892964020371437
1761307248124381200,0.247381103515625,-0.0002402171230642125,-0.00047830372932367027,0.00908430851995945
1761307248134309400,0.257309326171875,0.006493585649877787,-0.003634682158008218,0.00583871454000473
1761307248144237300,0.2672373046875,0.006648847833275795,-0.0038778288289904594,0.0018895127577707171
1761307248154165500,0.27716552734375,-0.0006191849242895842,0.0015614113071933389,0.004893292207270861
1761307248164093400,0.287093505859375,-0.004984105937182903,-0.000523577444255352,0.011699533089995384
1761307248174021400,0.297021484375,-0.006385727785527706,0.004840561654418707,0.012385030277073383
1761307248183949600,0.306949462890625,-0.004723382648080587,0.004563060123473406,0.013909157365560532
1761307248193877500,0.31687744140625,0.001442900625988841,0.000294545607175678,0.009153550490736961
1761307248203805400,0.326805419921875,0.0023371900897473097,0.002376604825258255,0.004958007019013166
1761307248213733400,0.3367333984375,0.0036171053070575,-0.0011179950088262558,0.004893292207270861
1761307248223662300,0.346662353515625,-0.0003736414946615696,-0.0008468852029182017,0.010834272019565105
1761307248233590300,0.35659033203125,-0.0021382521372288465,0.0013590110465884209,0.011477691121399403
1761307248243518500,0.3665185546875,-0.00019254654762335122,0.0010540791554376483,0.010339722968637943
1761307248253446400,0.3764462890625,-0.0016799219883978367,0.0032170985359698534,0.009465141221880913
1761307248263374300,0.386374267578125,0.0016378440195694566,0.00016112125013023615,0.010900851339101791
1761307248273302300,0.39630224609375,0.0003475425182841718,0.0009464874165132642,0.005946306046098471
1761307248283230200,0.406230224609375,0.0013528858544304967,-0.00037523938226513565,0.009741044603288174
1761307248293158400,0.416158447265625,-0.002659166231751442,0.0016506272368133068,0.011937619186937809
1761307248303086300,0.42608642578125,-0.001764077926054597,0.003379817819222808,0.01008166279643774
1761307248313014500,0.4360146484375,-0.003698331769555807,0.0007592672482132912,0.011349859647452831
1761307248322942500,0.4459423828125,0.00213638786226511,0.001002680161036551,0.0082483422011137
1761307248332870400,0.455870361328125,0.0008578042034059763,0.0001906823308672756,0.01028859056532383
1761307248342798600,0.465798583984375,0.000987766426987946,-0.0028482507914304733,0.01128008496016264
1761307248352726300,0.475726318359375,-0.0011912320042029023,0.0013230583863332868,0.010611898265779018
1761307248362654200,0.485654296875,-0.001241033081896603,0.0025782061275094748,0.009562079794704914
1761307248372582100,0.49558203125,-0.0034549187403172255,0.0023278691805899143,0.00845740083605051
1761307248382510300,0.50551025390625,-0.0009020126308314502,0.0007390272221527994,0.010493920184671879
1761307248392438500,0.5154384765625,0.002323341788724065,0.0002569950302131474,0.011038269847631454
1761307248402366500,0.525366455078125,-0.00044794369023293257,0.00018455706594977528,0.007139934692531824
1761307248412294400,0.53529443359375,-0.0013006879016757011,-0.0016207997687160969,0.009807090274989605
1761307248422222300,0.545222412109375,-0.0012069445801898837,0.0005669869715347886,0.007926899008452892
1761307248432150300,0.555150390625,-0.0009174589649774134,-0.0017411747248843312,0.0111019192263484
1761307248442078500,0.565078369140625,0.0010849718237295747,-0.00006631271389778703,0.009329053573310375
1761307248452006400,0.57500634765625,0.0010181264951825142,0.00028575718170031905,0.008146343752741814
1761307248461934300,0.584934326171875,-0.000910268456209451,0.0012420982820913196,0.008702944032847881
1761307248471862300,0.5948623046875,-0.0024226775858551264,0.0013768542557954788,0.008463792502880096
1761307248481790200,0.604790283203125,-0.00159443449229002,-0.0012311793398112059,0.008192149922251701
1761307248491718400,0.614718505859375,-0.002767290687188506,0.0038061898667365313,0.007921839132905006
1761307248501646300,0.624646240234375,-0.00022983079543337226,0.0035172367934137583,0.009415339678525925
1761307248511574300,0.63457421875,-0.0022389194928109646,0.0033784860279411077,0.007161506451666355
1761307248521502200,0.644502197265625,-0.00043569316039793193,0.0006045375484973192,0.008993761613965034
1761307248531430100,0.65443017578125,0.00045327001134864986,0.0015507587231695652,0.009096026420593262
1761307248541358300,0.6643583984375,0.00022290658671408892,-0.001612011343240738,0.008672583848237991
1761307248551286300,0.674286376953125,-0.0036221654154360294,0.0010934938909485936,0.009556220844388008
1761307248561214200,0.684214111328125,0.00007669904152862728,-0.0013281183782964945,0.0101389205083251
1761307248571142100,0.69414208984375,0.001645567244850099,0.0019896477460861206,0.009780459105968475
1761307248581070300,0.7040703125,-0.0007536745979450643,0.0031441280152648687,0.008511463180184364
1761307248590998500,0.71399853515625,-0.001392300589941442,-0.00021891183860134333,0.0064895907416939735
1761307248600927200,0.72392724609375,0.000020772657080669887,0.0005749764968641102,0.01098527293652296
1761307248610855400,0.73385546875,-0.0007861651247367263,0.00007856325100874528,0.009501625783741474
1761307248620783400,0.743783447265625,-0.001350222621113062,0.0007677893154323101,0.009267001412808895
1761307248630711300,0.753711181640625,0.0006466155173256993,0.0025358619168400764,0.009693373925983906
1761307248640639200,0.76363916015625,-0.000358461489668116,0.00028575718170031905,0.0086001455783844
1761307248650567200,0.773567138671875,-0.002514290390536189,0.0007171892793849111,0.008755674585700035
1761307248660495400,0.783495361328125,-0.00007084008393576369,0.0009243832319043577,0.00854501873254776
1761307248670423300,0.79342333984375,-0.0024612934794276953,0.001547030289657414,0.008244880475103855
1761307248680351200,0.803351318359375,-0.0021851237397640944,0.001995772821828723,0.0093905720859766
1761307248690279200,0.813279052734375,-0.0031252196058630943,0.004454403184354305,0.007065100129693747
1761307248700207400,0.823207275390625,-0.0005222458858042955,0.0007888282998465002,0.010755974799394608
1761307248710135300,0.83313525390625,-0.002668487373739481,-0.0014397049089893699,0.009700563736259937
1761307248720063200,0.843063232421875,-0.00002902845517382957,0.0012330436147749424,0.008051801472902298
1761307248729991200,0.8529912109375,-0.0006202502408996224,0.0015459649730473757,0.012912869453430176
1761307248739919400,0.86291943359375,-0.0002894856152124703,0.0006492786924354732,0.009095760062336922
1761307248749847300,0.872847412109375,-0.003817907767370343,0.0005075985100120306,0.009671535342931747
1761307248759775500,0.882775390625,-0.0026913906913250685,0.004387557972222567,0.009575129486620426
1761307248769703400,0.892703369140625,0.0008857673965394497,0.001898301183246076,0.010292318649590015
1761307248779631400,0.90263134765625,-0.0002639192680362612,0.0006383596919476986,0.00942039955407381
1761307248789559300,0.912559326171875,-0.0006838997360318899,0.002799248555675149,0.010144513100385666
1761307248799487200,0.9224873046875,-0.00027031084755435586,0.0013132047606632113,0.01164573710411787
1761307248809415400,0.93241552734375,0.0018527611391618848,0.000147272803587839,0.009800166822969913
1761307248819344400,0.942344482421875,-0.003175287041813135,0.003180879633873701,0.00827870238572359
1761307248829272300,0.952272216796875,0.0002985403698403388,-0.0024857944808900356,0.007438208907842636
1761307248839200300,0.9622001953125,-0.001561677665449679,-0.0003709783486556262,0.00993146002292633
1761307248849128200,0.972128173828125,0.001086037140339613,-0.00007829693640815094,0.009765278548002243
1761307248859056000,0.98205615234375,0.000675377668812871,-0.00018855179951060563,0.008136223070323467
1761307248868984300,0.991984375,-0.0008426241693086922,0.0001459412305848673,0.009498963132500648
1761307248878912300,1.001912353515625,-0.0022093583829700947,-0.0003171824791934341,0.006439523305743933
1761307248888840200,1.011840087890625,-0.0007499461644329131,0.0008934905636124313,0.008257131092250347
1761307248898768400,1.021768310546875,-0.00027324032271280885,-0.0029963224660605192,0.008949819020926952
1761307248908696300,1.0316962890625,0.0001877528557088226,0.0027768779546022415,0.00839827861636877
1761307248918624500,1.04162451171875,0.0003920173039659858,-0.0016373114194720984,0.008479771204292774
1761307248928552400,1.051552490234375,0.00011930961773032323,0.0020418455824255943,0.011158112436532974
1761307248938480400,1.06148046875,-0.0014479606179520488,-0.00004500742215896025,0.009512544609606266
1761307248948408300,1.071408203125,0.0007422229973599315,0.003448527306318283,0.010013485327363014
1761307248958336300,1.081336181640625,0.0009329052991233766,-0.000150202278746292,0.00971387978643179
1761307248968264400,1.091264404296875,-0.0007366303470917046,0.0013528858544304967,0.010753843933343887
1761307248978192400,1.1011923828125,-0.0004756405542138964,0.0025214808993041515,0.010175139643251896
1761307248988121300,1.111121337890625,-0.0015899071004241705,-0.0015600797487422824,0.00851599033921957
1761307248998049300,1.12104931640625,0.0005038700764998794,0.0036791570018976927,0.012044145725667477
1761307249007977200,1.130977294921875,0.002469282830134034,0.000687361869495362,0.00771624268963933
1761307249017905200,1.1409052734375,0.001794171635992825,-0.00028389296494424343,0.011175422929227352
1761307249027833300,1.150833251953125,0.000017310547264060006,-0.00040480049210600555,0.011515508405864239
1761307249037761300,1.16076123046875,0.0003933488915208727,0.0009946906939148903,0.009534649550914764
1761307249047689200,1.170689208984375,0.0004977448261342943,0.002127865795046091,0.009924269281327724
1761307249057617400,1.180617431640625,-0.001591505017131567,0.0011265170760452747,0.009296296164393425
1761307249067545300,1.19054541015625,0.0008583368035033345,-0.0031409321818500757,0.01053173653781414
1761307249077473300,1.200473388671875,-0.0035353463608771563,0.006503173150122166,0.006310892757028341
1761307249087401500,1.2104013671875,-0.0003430151555221528,0.004305799026042223,0.009504555724561214
1761307249097329400,1.220329345703125,0.0010908307740464807,0.0010375675046816468,0.007503722794353962
1761307249107257300,1.23025732421875,-0.0007941546500660479,0.0012213257141411304,0.008595085702836514
1761307249117185300,1.240185302734375,-0.001136637176387012,0.0010266485624015331,0.008038219064474106
1761307249127114200,1.2501142578125,-0.0018258632626384497,0.003525758860632777,0.007208111695945263
1761307249137042200,1.260042236328125,0.003569967346265912,0.0022218753583729267,0.010685134679079056
1761307249146970400,1.269970458984375,0.0009334379574283957,0.0015712650492787361,0.010237723588943481
1761307249156898300,1.279898193359375,-0.0005163869354873896,0.0006050702068023384,0.0115546565502882
1761307249166826200,1.289826171875,-0.00006364954606397077,0.004352936986833811,0.01155705377459526
1761307249176754200,1.299754150390625,-0.002445580903440714,-0.00035446672700345516,0.009845972992479801
1761307249186682000,1.30968212890625,-0.0030027141328901052,-0.0000655137628200464,0.009044627659022808
1761307249196610300,1.3196103515625,0.0012383698485791683,-0.0008892294717952609,0.012849219143390656
1761307249206538200,1.329538330078125,-0.004867459647357464,0.0003962783666793257,0.007077882997691631
1761307249216466400,1.339466552734375,0.0010402307379990816,0.0020785972010344267,0.010085390880703926
1761307249226394400,1.349394287109375,-0.0002511360798962414,0.0006386260502040386,0.006509564816951752
1761307249236322300,1.359322265625,-0.0012860405258834362,-0.00011717908637365326,0.010122941806912422
1761307249246250500,1.36925048828125,0.0005898901727050543,0.0019568908028304577,0.009670470841228962
1761307249256179500,1.379179443359375,-0.004707936197519302,0.0022807312197983265,0.008206530474126339
1761307249266107400,1.389107421875,-0.0027377295773476362,0.0028551749419420958,0.011019361205399036
1761307249276035300,1.399035400390625,0.00021944446780253202,0.0015278555219992995,0.007954861968755722
1761307249285963300,1.40896337890625,0.0029055087361484766,0.0008633967954665422,0.0062610916793346405
1761307249295891200,1.41889111328125,0.00063383235828951,0.002528937766328454,0.010448379442095757
1761307249305819400,1.4288193359375,0.0001304948964389041,0.0008109325426630676,0.006964166183024645
1761307249315747300,1.438747314453125,-0.00031638352083973587,0.0031760858837515116,0.010580206289887428
1761307249325675300,1.44867529296875,-0.00195129809435457,0.0010921623324975371,0.0073135728016495705
1761307249335603200,1.458603271484375,-0.001722798915579915,0.00037230990710668266,0.009874735027551651
1761307249345532400,1.468532470703125,0.0014223942998796701,0.0012628709664568305,0.00697987899184227
1761307249355460400,1.47846044921875,-0.00020399813365656883,-0.0009339706157334149,0.008371912874281406
1761307249365388300,1.48838818359375,-0.0009659285424277186,0.0005685848882421851,0.009254484437406063
1761307249375316500,1.49831640625,-0.0030162963084876537,0.005852829199284315,0.010397779755294323
1761307249385245400,1.508245361328125,0.0005464806454256177,0.00040480049210600555,0.010339989326894283
1761307249395173400,1.51817333984375,-0.0003478088474366814,0.003602724289521575,0.008116249926388264
1761307249405101300,1.528101318359375,0.001041562296450138,0.001484445994719863,0.008580971509218216
1761307249415029200,1.538029296875,0.0006641923682764173,0.0016732640797272325,0.009862218052148819
1761307249424957200,1.547957275390625,0.0009432916413061321,0.0005520732956938446,0.010003365576267242
1761307249434885400,1.557885498046875,-0.001002680161036551,0.0024897893890738487,0.010016148909926414
1761307249444813300,1.567813232421875,-0.0024711471050977707,-0.001002413802780211,0.005200088489800692
1761307249454741200,1.5777412109375,-0.001249555149115622,0.0003038666909560561,0.008834770880639553
1761307249464669200,1.587669189453125,0.0006807039608247578,-0.000046871635277057067,0.012281700037419796
1761307249474597000,1.59759716796875,0.0011222560424357653,0.0007158577209338546,0.005821137689054012
1761307249484525300,1.607525390625,0.002151035238057375,0.002211222657933831,0.010510964319109917
1761307249494454300,1.617454345703125,-0.002624811604619026,0.001924932817928493,0.00971281435340643
1761307249504382500,1.627382568359375,-0.004555337131023407,0.00250523560680449,0.00851572398096323
1761307249514310400,1.637310302734375,0.0002620550512801856,0.00407437002286315,0.010802846401929855
1761307249524238300,1.64723828125,-0.00043516053119674325,0.0009859022684395313,0.0070978570729494095
1761307249534166300,1.657166259765625,-0.0009555422002449632,0.002545981900766492,0.008588427677750587
1761307249544094200,1.66709423828125,0.00028628981090150774,0.00242134602740407,0.010582603514194489
1761307249554022400,1.6770224609375,-0.0001400822657160461,-0.000336090917699039,0.010085124522447586
1761307249563950300,1.686950439453125,-0.0035627768374979496,0.0023936491925269365,0.008085623383522034
1761307249573878300,1.696878173828125,-0.0012950951931998134,-0.0004170510219410062,0.006917294580489397
1761307249583806200,1.70680615234375,-0.0022128205746412277,0.0008082693675532937,0.011775433085858822
1761307249593734100,1.716734130859375,0.0006221143994480371,0.0025039040483534336,0.009886452928185463
1761307249603662300,1.726662353515625,0.000592020689509809,0.0017329188995063305,0.008358065038919449
1761307249613591300,1.73659130859375,0.0005411543534137309,0.000928377965465188,0.012136291712522507
1761307249623519500,1.74651953125,-0.0023465112317353487,0.0005805690889246762,0.009266202338039875
1761307249633447400,1.756447509765625,-0.0011025486746802926,0.0009861685102805495,0.01136796921491623
1761307249643375400,1.766375244140625,-0.0007590008899569511,0.000358461489668116,0.008696552366018295
1761307249653303300,1.77630322265625,-0.0009773800848051906,0.001564873498864472,0.012079033069312572
1761307249663231500,1.7862314453125,0.0012751214671880007,0.0001930791768245399,0.010793259367346764
1761307249673159400,1.796159423828125,0.0010436928132548928,0.0022024342324584723,0.00746031291782856
1761307249683087400,1.80608740234375,-0.0014554174849763513,-0.0031241541728377342,0.007848868146538734
1761307249693015300,1.816015380859375,-0.003802461316809058,0.0005821670056320727,0.010184993036091328
1761307249702943200,1.825943115234375,-0.0014413028256967664,0.0009954896522685885,0.011843875981867313
1761307249712872200,1.8358720703125,-0.0024951156228780746,0.0024258734192699194,0.00771730812266469
1761307249722800000,1.845800048828125,0.00005246427463134751,0.001116130850277841,0.009366337209939957
1761307249732728300,1.855728271484375,0.0016788567882031202,0.0008817726047709584,0.009061671793460846
1761307249742656300,1.86565625,-0.0004319647268857807,-0.0012562130577862263,0.008639294654130936
1761307249752584200,1.875584228515625,-0.0026639599818736315,-0.0005062668933533132,0.011798868887126446
1761307249762512100,1.88551220703125,-0.001023186487145722,-0.0017334514996036887,0.009094428271055222
1761307249772440300,1.8954404296875,-0.00009321063407696784,0.002162486780434847,0.007413974031805992
1761307249782368500,1.905368408203125,0.000675377668812871,0.002666356973350048,0.010927748866379261
1761307249792296400,1.91529638671875,0.002139050979167223,0.001862348522990942,0.007272826507687569
1761307249802224400,1.925224365234375,-0.0017816547770053148,0.00012543488992378116,0.010944260284304619
1761307249812152300,1.93515234375,-0.0007257114048115909,0.0032551817130297422,0.009915481321513653
1761307249822080300,1.945080322265625,-0.0009976201690733433,-0.00009480853623244911,0.008078965358436108
1761307249832009200,1.95500927734375,-0.002531600883230567,-0.0018975022248923779,0.011886220425367355
1761307249841937400,1.9649375,0.0006854976527392864,-0.00034194986801594496,0.01119140163064003
1761307249851865300,1.974865234375,0.0001257012045243755,-0.003437075763940811,0.009693640284240246
1761307249861793300,1.984793212890625,0.0003603257064241916,-0.001398425898514688,0.0076238312758505344
1761307249871721200,1.99472119140625,-0.0022772690281271935,0.00010093380114994943,0.010363158769905567
1761307249881649200,2.004649169921875,-0.0014141384745016694,0.0010101370280608535,0.01082734763622284
1761307249891577300,2.014577392578125,-0.0014058827655389905,-0.0017805894603952765,0.01146783772855997
1761307249901505300,2.02450537109375,-0.0024535702541470528,0.001073786523193121,0.009530387818813324
1761307249911433200,2.03443310546875,-0.0000015978966985130683,0.0018751317402347922,0.011092065833508968
1761307249921361200,2.044361083984375,0.001609348226338625,0.000999750685878098,0.008974320255219936
1761307249931289000,2.0542890625,-0.0002460760879330337,0.0010149306617677212,0.006910902913659811
1761307249941218300,2.06421826171875,0.0013643373968079686,0.00019441076437942684,0.00762969022616744
1761307249951146200,2.074146240234375,-0.002129996195435524,0.0013688647886738181,0.01034744642674923
1761307249961074400,2.084074462890625,-0.0035814191214740276,0.00043329631444066763,0.011114702560007572
1761307249971002400,2.09400244140625,-0.00034887410583905876,0.0007840346079319715,0.009436378255486488
1761307249980930300,2.103930419921875,-0.00025779398856684566,0.003968109842389822,0.00803475733846426
1761307249990858200,2.113858154296875,-0.0021795309148728848,0.0024109596852213144,0.008270712569355965
1761307250000786400,2.123786376953125,-0.0020839234348386526,0.00037683729897253215,0.010898720473051071
1761307250010714400,2.13371435546875,-0.001829591696150601,0.001175519311800599,0.009517072699964046
1761307250020642300,2.143642333984375,-0.0021949773654341698,-0.0013749900972470641,0.009732255712151527
1761307250030570200,2.1535703125,-0.0016282566357403994,-0.00035926041891798377,0.011925901286303997
1761307250040498200,2.163498291015625,0.0016863135388121009,0.0007408913807012141,0.00899695698171854
1761307250050427100,2.17342724609375,0.0003608583356253803,0.0009376989910379052,0.007217699196189642
1761307250060355300,2.183355224609375,-0.0006095975404605269,0.0007890945998951793,0.006728210020810366
1761307250070283500,2.193283447265625,-0.0008149272762238979,0.0011976235546171665,0.008258994668722153
1761307250080211500,2.20321142578125,-0.002444781828671694,0.00115394766908139,0.007123156916350126
1761307250090139400,2.213139404296875,-0.002755572786554694,0.0006021407316438854,0.008154598996043205
1761307250100067300,2.2230673828125,-0.002692189533263445,0.0007928230334073305,0.011610583402216434
1761307250109995300,2.232995361328125,0.0020530307665467262,0.0014868428697809577,0.01061908807605505
1761307250119923500,2.24292333984375,-0.00048709215479902923,0.002246376359835267,0.00791358295828104
1761307250129851400,2.252851318359375,-0.0012186624808236957,0.0023968450259417295,0.009215869009494781
1761307250139779300,2.262779296875,-0.0008689894457347691,0.00021678130724467337,0.008980445563793182
1761307250149707300,2.272707275390625,-0.0022799321450293064,-0.00034354778472334146,0.008610266260802746
1761307250159636200,2.28263623046875,0.00033582461765035987,0.00344559783115983,0.007711715530604124
1761307250169564200,2.292564208984375,-0.001258609932847321,0.000254331884207204,0.009246761910617352
1761307250179492400,2.302492431640625,-0.00015579492901451886,0.001079911831766367,0.011018296703696251
1761307250189420300,2.312420166015625,-0.0011669971281662583,0.00010412959818495438,0.008840363472700119
1761307250199348200,2.32234814453125,-0.0006620618514716625,0.004941761493682861,0.010726680047810078
1761307250209276200,2.332276123046875,-0.0020871192682534456,0.001091896090656519,0.0067636300809681416
1761307250219204400,2.342204345703125,-0.0027286747936159372,0.00236195744946599,0.010836668312549591
1761307250229132300,2.35213232421875,-0.0012695288751274347,-0.0026434536557644606,0.006992129608988762
1761307250239060500,2.362060546875,-0.002379534300416708,-0.00017603494052309543,0.006911701988428831
1761307250248988400,2.371988525390625,-0.000023968450477696024,0.0004239752306602895,0.007632886059582233
1761307250258917400,2.38191748046875,-0.0021025657188147306,-0.0031473238486796618,0.008608668111264706
1761307250268845300,2.39184521484375,-0.0017949705943465233,0.0002772350562736392,0.008104265667498112
1761307250278773200,2.401773193359375,-0.0007592672482132912,0.0026706180069595575,0.009299758821725845
1761307250288701200,2.411701171875,-0.003567570587620139,-0.001586178783327341,0.011064901947975159
1761307250298629400,2.42162939453125,-0.004076766781508923,0.0029590383637696505,0.009679258801043034
1761307250308557300,2.431557373046875,-0.00031638352083973587,0.0002031991898547858,0.00827657151967287
1761307250318485200,2.4414853515625,-0.000472977408207953,-0.00000958738019107841,0.010952516458928585
1761307250328413200,2.4514130859375,-0.0020298613235354424,0.0008194546680897474,0.00851572398096323
1761307250338341000,2.461341064453125,-0.0034498588647693396,-0.00044075315236113966,0.01022733747959137
1761307250348269300,2.471269287109375,0.0009329052991233766,0.0013012205017730594,0.007829161360859871
1761307250358197200,2.481197265625,-0.002582467393949628,-0.00026365293888375163,0.01107315719127655
1761307250368125200,2.491125244140625,-0.0009784454014152288,0.00024181502521969378,0.006464024540036917
1761307250378054100,2.50105419921875,-0.00058323226403445,-0.0017981663113459945,0.009014001116156578
1761307250387982000,2.510982177734375,-0.0027395938523113728,0.0021465078461915255,0.00965928565710783
1761307250397910000,2.520909912109375,-0.004612328484654427,0.005461610853672028,0.008112787269055843
1761307250407838200,2.530838134765625,-0.0028357338160276413,0.0027827369049191475,0.00606401776894927
1761307250417766100,2.54076611328125,0.0003254382754676044,0.002406432293355465,0.011501659639179707
1761307250427694000,2.550694091796875,0.0002567287301644683,0.00170815153978765,0.008836368098855019
1761307250437622000,2.5606220703125,0.002822950715199113,0.0016013587592169642,0.010577809065580368
1761307250447550000,2.570550048828125,-0.001252750982530415,0.00014674017438665032,0.013030847534537315
1761307250457478100,2.58047802734375,0.0003499393642414361,0.002039981307461858,0.007589476183056831
1761307250467406000,2.590406005859375,-0.002686596941202879,0.0000679106087773107,0.011915515176951885
1761307250477334300,2.600334228515625,0.000850879936479032,0.0037819549906998873,0.00729466462507844
1761307250487263200,2.61026318359375,0.00028309403569437563,0.0024770060554146767,0.01070777140557766
1761307250497191200,2.620191162109375,-0.0004964132094755769,0.0021140172611922026,0.00887817982584238
1761307250507119000,2.630119140625,-0.002029328839853406,0.0012519520241767168,0.008747152984142303
1761307250517047000,2.640047119140625,-0.0000500674286740832,0.001844771672040224,0.012062521651387215
1761307250526975200,2.649975341796875,-0.0009108011145144701,-0.00022210762836039066,0.009943444281816483
1761307250536903200,2.659903076171875,-0.001898034941405058,0.004402738064527512,0.008564460091292858
1761307250546831000,2.6698310546875,-0.000526773277670145,0.00025353292585350573,0.010372213087975979
1761307250556759000,2.679759033203125,-0.0009486179915256798,0.002496180823072791,0.007839813828468323
1761307250566687200,2.689687255859375,0.0003563309437595308,0.000984836951829493,0.00860121101140976
1761307250576615200,2.699615234375,-0.001517735538072884,-0.00023276027059182525,0.009988185949623585
1761307250586543000,2.709543212890625,-0.0029923277907073498,0.0020266654901206493,0.008674181997776031
1761307250596472300,2.719472412109375,-0.000568318588193506,-0.0010279801208525896,0.009971407242119312
1761307250606400300,2.729400146484375,0.0007858988246880472,0.0010849718237295747,0.008400941267609596
1761307250616328200,2.739328125,0.0011984225129708648,0.003254915354773402,0.009338107891380787
1761307250626256100,2.749256103515625,-0.0004500742070376873,-0.0007560714147984982,0.009276589378714561
1761307250636184300,2.759184326171875,0.0006314354832284153,-0.0006748450105078518,0.008023837581276894
1761307250646112300,2.7691123046875,-0.0016000272007659078,0.0036962011363357306,0.009766343981027603
1761307250656040200,2.779040283203125,-0.00034461304312571883,0.0031649006996303797,0.009399627335369587
1761307250665968000,2.788968017578125,0.0011174624087288976,-0.0002801645314320922,0.010468886233866215
1761307250675896000,2.79889599609375,-0.0007238471880555153,0.001955026527866721,0.007167631760239601
1761307250685824300,2.80882421875,0.0013464941876009107,0.002042910782620311,0.009125054813921452
1761307250695752200,2.818752197265625,-0.000035686356568476185,-0.001927595934830606,0.01007953193038702
1761307250705680100,2.82868017578125,-0.0014037522487342358,0.002954510971903801,0.009280051104724407
1761307250715609000,2.838609130859375,-0.002369148191064596,0.003766242414712906,0.010342119261622429
1761307250725537000,2.848537109375,-0.0013307816116139293,0.0009017463307827711,0.006292516831308603
1761307250735465000,2.85846484375,-0.00018482338055036962,0.0009033442474901676,0.009125054813921452
1761307250745393200,2.86839306640625,-0.0012034825049340725,0.0010705908061936498,0.009157812222838402
1761307250755321000,2.878321044921875,-0.0013424995122477412,0.0006538060260936618,0.006901581771671772
1761307250765249300,2.888249267578125,-0.0006119944155216217,-0.00011424961121520028,0.009733054786920547
1761307250775177200,2.89817724609375,-0.002243713242933154,0.002796319080516696,0.008821188472211361
1761307250785105200,2.908105224609375,-0.0029265477787703276,-0.00040719733806326985,0.00827018078416586
1761307250795033300,2.918033447265625,-0.001160339335910976,0.0004194478678982705,0.007517038378864527
1761307250804961300,2.927961181640625,0.0029702235478907824,-0.00008388957212446257,0.00968724861741066
1761307250814889200,2.93788916015625,-0.000957939017098397,-0.0011728560784831643,0.010332532227039337
1761307250824818200,2.947818115234375,-0.0007334345718845725,0.003061569994315505,0.007312241476029158
1761307250834746000,2.95774609375,-0.0009978864109143615,0.0005744438385590911,0.009784187190234661
1761307250844674000,2.967674072265625,-0.0021315941121429205,-0.001526523963548243,0.008321579545736313
1761307250854602000,2.97760205078125,-0.0008615325787104666,0.0024607607629150152,0.009376989677548409
1761307250864530200,2.9875302734375,-0.0010109359864145517,0.00042450788896530867,0.011955196037888527
1761307250874458000,2.9974580078125,0.002365419641137123,0.0028008464723825455,0.008095210418105125
1761307250884386000,3.007385986328125,0.002162220422178507,0.0009121326729655266,0.010359164327383041
1761307250894314000,3.01731396484375,-0.00022663500567432493,0.0059998356737196445,0.007473628968000412
1761307250904242000,3.027241943359375,-0.0007432882557623088,0.0019526296528056264,0.007003048434853554
1761307250914170000,3.037170166015625,-0.0027614317368716,0.003326820908114314,0.009892578236758709
1761307250924098300,3.047098388671875,0.000254331884207204,0.002150502521544695,0.007441404741257429
1761307250934026200,3.057026123046875,-0.0006194512825459242,0.0017217335989698768,0.010299509391188622
1761307250943955200,3.066955078125,0.0015459649730473757,0.0017094830982387066,0.007476292084902525
1761307250953883100,3.076883056640625,-0.0015925703337416053,-0.000004261057711119065,0.008897088468074799
1761307250963811000,3.08681103515625,-0.0001233043585671112,0.002382996492087841,0.008025435730814934
1761307250973739300,3.0967392578125,-0.0016317188274115324,-0.002130528911948204,0.006932474672794342
1761307250983667200,3.106667236328125,0.000055393749789800495,0.005132710561156273,0.009735983796417713
1761307250993595100,3.11659521484375,-0.0014966964954510331,0.0025044367648661137,0.009006012231111526
1761307251003523000,3.126523193359375,-0.0017393104499205947,0.0025305356830358505,0.00885101594030857
1761307251013451000,3.136450927734375,-0.0014000238152220845,0.0019891150295734406,0.011487012729048729
1761307251023379200,3.146379150390625,0.0003890878288075328,0.0005877596559002995,0.007540207821875811
1761307251033307100,3.15630712890625,-0.00256382510997355,0.001246892032213509,0.011012437753379345
1761307251043235000,3.166235107421875,0.0005904228310100734,0.001249555149115622,0.009038235992193222
1761307251053163000,3.1761630859375,-0.0006162554491311312,0.0012937636347487569,0.00993092730641365
1761307251063092200,3.18609228515625,-0.0005733785801567137,0.0035630431957542896,0.009378854185342789
1761307251073020200,3.196020263671875,0.0031305458396673203,-0.0004934837343171239,0.007736749015748501
1761307251082948000,3.205947998046875,-0.002132392954081297,0.0034964641090482473,0.008415322750806808
1761307251092876300,3.215876220703125,-0.0023877902422100306,-0.0014761901693418622,0.011020692996680737
1761307251102804200,3.22580419921875,-0.0007217166712507606,-0.0001478054327890277,0.006947654765099287
1761307251112732200,3.235732177734375,0.0024045680183917284,0.002237055217847228,0.009010539390146732
1761307251122660000,3.24566015625,-0.0004527373821474612,0.00017656758427619934,0.008067780174314976
1761307251132588000,3.255588134765625,0.002935868687927723,0.000472977408207953,0.011594871059060097
1761307251142516200,3.26551611328125,0.00014567491598427296,-0.00022397184511646628,0.005656820256263018
1761307251152444200,3.275444091796875,-0.0007472829893231392,-0.002263420494273305,0.010125870816409588
1761307251162372000,3.2853720703125,-0.0010572749888524413,0.0009749832679517567,0.012030031532049179
1761307251172300000,3.295300048828125,-0.0019172097090631723,0.001374723738990724,0.00836951658129692
1761307251182228000,3.30522802734375,-0.0010831075487658381,-0.00037816885742358863,0.008754342794418335
1761307251192157000,3.315156982421875,-0.0011627360945567489,0.00207673292607069,0.010163155384361744
1761307251202085400,3.32508544921875,-0.00045300371129997075,0.004090349189937115,0.00960016343742609
1761307251212013300,3.335013427734375,-0.0012767193838953972,0.000945954816415906,0.011788216419517994
1761307251221941200,3.344941162109375,-0.000023435817638528533,-0.00005699164830730297,0.009729326702654362
1761307251231869200,3.354869140625,0.00133903743699193,0.0003784351865760982,0.00974290817975998
1761307251241797000,3.364797119140625,0.0013134710025042295,0.000811997801065445,0.008262990042567253
1761307251251725300,3.374725341796875,-0.0019654128700494766,0.0008940231637097895,0.010690993629395962
1761307251261653200,3.3846533203125,0.0002532666258048266,-0.00029294771957211196,0.009195362217724323
1761307251271581200,3.394581298828125,0.000107858024421148,-0.00013502225920092314,0.009096026420593262
1761307251281509000,3.404509033203125,-0.0014415690675377846,0.0004988100845366716,0.009949569590389729
1761307251291437000,3.41443701171875,-0.00023675501870457083,0.001208009896799922,0.007218231912702322
1761307251301365200,3.424365234375,-0.0012815131340175867,0.001865544356405735,0.01070857048034668
1761307251311294000,3.4342939453125,0.0031406658235937357,-0.0013600763631984591,0.008186290971934795
1761307251321222100,3.44422216796875,0.00029055087361484766,0.002584597794339061,0.006881075445562601
1761307251331150000,3.454150146484375,-0.0012117383303120732,0.002430134452879429,0.008303203620016575
1761307251341078000,3.464078125,-0.0007752461824566126,0.002561428351327777,0.006597449071705341
1761307251351005400,3.47400537109375,0.000004793690095539205,-0.0002442118711769581,0.008837433531880379
1761307251360933600,3.48393359375,-0.0012186624808236957,0.0027079021092504263,0.010042247362434864
1761307251370861600,3.493861572265625,0.0006458165589720011,-0.0014538196846842766,0.008027566596865654
1761307251380789500,3.50378955078125,-0.002775546396151185,-0.0009062737226486206,0.010467554442584515
1761307251390717400,3.513717529296875,0.0012889700010418892,0.002094576135277748,0.007458981592208147
1761307251400645400,3.523645263671875,-0.000505734293255955,0.00056219327962026,0.010924287140369415
1761307251410573600,3.533573486328125,0.00031079089967533946,0.0014093448407948017,0.00495188171043992
1761307251420501500,3.54350146484375,-0.0015089471125975251,0.002264485927298665,0.009838782250881195
1761307251430429400,3.553429443359375,-0.0013515542959794402,0.00048363005043938756,0.010278736241161823
1761307251440358400,3.5633583984375,-0.00020186760229989886,0.00046845004544593394,0.0065223476849496365
1761307251450286300,3.573286376953125,0.0006130596739239991,0.00002956108801299706,0.008684834465384483
1761307251460214300,3.58321435546875,0.0003787015157286078,0.0023904533591121435,0.00866246409714222
1761307251470142500,3.593142578125,0.00013395700079854578,0.001966211711987853,0.01031495537608862
1761307251480070400,3.6030703125,-0.0007637945818714797,-0.0005363606614992023,0.010801514610648155
1761307251489998300,3.612998291015625,-0.0016532903537154198,-0.0012508867075666785,0.006043245084583759
1761307251499926300,3.62292626953125,0.000020506340661086142,-0.0004857605672441423,0.009102950803935528
1761307251509854500,3.6328544921875,-0.002754773711785674,0.000011451592399680521,0.009197493083775043
1761307251519782700,3.64278271484375,-0.0006056028068996966,0.00063383235828951,0.010268616490066051
1761307251529710600,3.652710693359375,-0.00005406216951087117,0.001967543503269553,0.011600197292864323
1761307251539638500,3.662638427734375,-0.0018349179299548268,0.0012799152173101902,0.008699215948581696
1761307251549566500,3.67256640625,-0.0006767092272639275,-0.000606934423558414,0.011553325690329075
1761307251559494400,3.682494384765625,0.0015699334908276796,0.0012383698485791683,0.011083809658885002
1761307251569423400,3.69242333984375,0.001731853699311614,-0.001573928166180849,0.008492288179695606
1761307251579351600,3.7023515625,-0.0008341020438820124,-0.0015329155139625072,0.0099008334800601
1761307251589279500,3.712279541015625,-0.00088949577184394,0.00387410051189363,0.009769806638360023
1761307251599207400,3.72220751953125,-0.0004942826926708221,-0.0013989584986120462,0.009696036577224731
1761307251609135400,3.73213525390625,0.001100684516131878,0.0017755294684320688,0.007230748422443867
1761307251619063300,3.742063232421875,-0.0020903151016682386,0.0010010822443291545,0.009561813436448574
1761307251628991500,3.751991455078125,-0.0007211840129457414,0.0005014732014387846,0.010334396734833717
1761307251638919400,3.76191943359375,0.0007544735562987626,0.005857889074832201,0.007926099933683872
1761307251648847400,3.771847412109375,-0.0004772384709212929,0.0013337110867723823,0.00755032803863287
1761307251658775300,3.781775390625,-0.00048363005043938756,0.00036192359402775764,0.006262689363211393
1761307251668703200,3.791703125,-0.0021022993605583906,-0.0015180017799139023,0.009880327619612217
1761307251678631400,3.80163134765625,-0.0007233145297504961,0.0020820593927055597,0.006542587652802467
1761307251688559600,3.8115595703125,-0.0021734058391302824,0.002254898427054286,0.00824780948460102
1761307251698487600,3.821487548828125,-0.0021065603941679,-0.0018133464036509395,0.009861685335636139
1761307251708416500,3.83141650390625,0.0022098910994827747,0.0022927154786884785,0.010522149503231049
1761307251718344400,3.841344482421875,-0.0027092336677014828,0.0033984598703682423,0.010903247632086277
1761307251728272400,3.8512724609375,-0.00004207794336252846,0.0008117315010167658,0.009512278251349926
1761307251738200300,3.861200439453125,-0.0011432950850576162,0.0030466562602669,0.009239038452506065
1761307251748128500,3.87112841796875,-0.0030985879711806774,0.00250470289029181,0.008297877386212349
1761307251758056400,3.881056396484375,-0.0021342572290450335,0.001743571599945426,0.00929443258792162
1761307251767984400,3.890984375,0.0011704593198373914,-0.002284725895151496,0.008419050835072994
1761307251777912300,3.900912353515625,-0.0024261397775262594,0.001526257605291903,0.008557535707950592
1761307251787840300,3.91084033203125,-0.0016817862633615732,0.0013869742397218943,0.00708773685619235
1761307251797768400,3.9207685546875,-0.0022825952619314194,-0.001939313835464418,0.010341587476432323
1761307251807696400,3.9306962890625,-0.0017358483746647835,0.004789162427186966,0.007478156127035618
1761307251817624300,3.940624267578125,-0.003263970138505101,-0.0005960154230706394,0.00814820732921362
1761307251827552300,3.95055224609375,-0.000570981705095619,0.0015584818320348859,0.011639079079031944
1761307251837481500,3.9604814453125,0.0011321097845211625,-0.000431432097684592,0.007443801499903202
1761307251847409400,3.970409423828125,-0.0017185378819704056,0.0008828379213809967,0.012028699740767479
1761307251857337600,3.980337646484375,-0.0020122844725847244,-0.0005411543534137309,0.008868060074746609
1761307251867265500,3.990265625,0.0005874933558516204,0.0016524913953617215,0.009611614979803562
1761307251877193500,4.000193359375,-0.0013363742036744952,-0.0018884475575760007,0.008079498074948788
1761307251887121400,4.010121337890625,-0.0005635248962789774,0.0003531351685523987,0.011211642064154148
1761307251897049300,4.02004931640625,-0.0005131911602802575,0.0008399609941989183,0.00905714463442564
1761307251906977500,4.0299775390625,0.0013707289472222328,-0.00009400958515470847,0.0072986590676009655
1761307251916905500,4.039905517578125,-0.0002740392810665071,-0.00039760995423421264,0.009843575768172741
1761307251926833400,4.04983349609375,-0.0016381103778257966,0.0003981425834354013,0.008784702979028225
1761307251936761300,4.05976123046875,-0.0011076086666435003,0.0011518171522766352,0.00911679957062006
1761307251946689300,4.069689208984375,-0.003739877138286829,0.003233077470213175,0.01404524501413107
1761307251956617500,4.079617431640625,0.0014301175251603127,0.0036610474344342947,0.009531186893582344
1761307251966545400,4.08954541015625,-0.0001613875647308305,0.0010817759903147817,0.009222793392837048
1761307251976473300,4.099473388671875,-0.0016450346447527409,-0.0009092031978070736,0.00868936162441969
1761307251986402600,4.109402587890625,-0.0007044061203487217,0.0008596684201620519,0.010760235600173473
1761307251996330500,4.11933056640625,-0.0009012137306854129,0.004068777430802584,0.012265987694263458
1761307252006258400,4.129258544921875,-0.0009422263829037547,0.0007717840489931405,0.005843774415552616
1761307252016186400,4.139186279296875,-0.00008335694292327389,0.00037976677413098514,0.00845819991081953
1761307252026114600,4.149114501953125,-0.0003051982494071126,0.0015036207623779774,0.009187906049191952
1761307252036042500,4.15904248046875,-0.0013659353135153651,-0.0002324939559912309,0.008894159458577633
1761307252045970400,4.168970458984375,-0.0002426139690214768,0.0002969424531329423,0.01044198777526617
1761307252055898400,4.1788984375,0.000565389113035053,0.0015129417879506946,0.006067479960620403
1761307252065826300,4.188826416015625,0.0009771138429641724,0.002310824813321233,0.00990296434611082
1761307252075754500,4.19875439453125,0.0009707222343422472,-0.001076715998351574,0.006745520513504744
1761307252085682400,4.208682373046875,-0.0036277580074965954,0.00155288923997432,0.009839847683906555
1761307252095610400,4.2186103515625,0.0009627327090129256,-0.0022738068364560604,0.012655074708163738
1761307252105538300,4.228538330078125,-0.000669518718495965,-0.0033459956757724285,0.006108758971095085
1761307252115466200,4.23846630859375,-0.001859685406088829,0.0008649947121739388,0.009035306982696056
1761307252125395500,4.2483955078125,-0.0020186761394143105,0.0015776565996930003,0.008129565045237541
1761307252135323600,4.25832373046875,-0.00025752768851816654,0.0010306433541700244,0.009735452011227608
1761307252145251600,4.26825146484375,0.0014543522847816348,0.0019654128700494766,0.010891263373196125
1761307252155179500,4.278179443359375,-0.0006788397440686822,0.0020040287636220455,0.007443268783390522
1761307252165107500,4.288107421875,-0.0016317188274115324,-0.0010008158860728145,0.01079938467592001
1761307252175035400,4.298035400390625,0.000809068325906992,0.002671949565410614,0.007665909361094236
1761307252184963600,4.307963623046875,-0.0013222594279795885,0.003311907174065709,0.009041165933012962
1761307252194891500,4.3178916015625,0.0003709783486556262,0.001457548001781106,0.012563196010887623
1761307252204819500,4.3278193359375,-0.0002612560929264873,0.003631486324593425,0.008883772417902946
1761307252214747400,4.337747314453125,-0.0018351842882111669,-0.00011132013605674729,0.00891173630952835
1761307252224675300,4.34767529296875,0.0025901903863996267,0.0025073662400245667,0.008898686617612839
1761307252234603500,4.357603515625,-0.0021499700378626585,0.0007368966471403837,0.0079173119738698
1761307252244531500,4.367531494140625,0.00026285400963388383,0.001076982356607914,0.008342618122696877
1761307252254459400,4.37745947265625,-0.0014998923288658261,0.002639725338667631,0.00896952673792839
1761307252264387300,4.38738720703125,-0.003634948516264558,0.0024927188642323017,0.013133911415934563
1761307252274316500,4.397316650390625,0.0004846953088417649,0.0020969731267541647,0.00815113727003336
1761307252284244500,4.407244384765625,-0.002001898130401969,0.0029172266367822886,0.009178584441542625
1761307252294172400,4.41717236328125,-0.0016322514275088906,0.003710049670189619,0.008834504522383213
1761307252304100600,4.4271005859375,0.0010953581659123302,0.0023134879302233458,0.007980428636074066
1761307252314028500,4.437028564453125,0.0003834952076431364,0.002177400514483452,0.00833569373935461
1761307252323956500,4.44695654296875,0.00006418218254111707,0.0033132387325167656,0.009317868389189243
1761307252333884400,4.456884521484375,-0.000020240024241502397,0.0008362325606867671,0.009661681950092316
1761307252343812400,4.466812255859375,-0.0001227717293659225,0.003641606541350484,0.01091709639877081
1761307252353740000,4.476739990234375,-0.00025992453447543085,0.0015358449891209602,0.008769523352384567
1761307252363668000,4.48666796875,-0.000963797967415303,0.0046661244705319405,0.011198326013982296
1761307252373596000,4.496595947265625,-0.0010418286547064781,-0.0003755057114176452,0.010941064916551113
1761307252383523800,4.50652392578125,-0.0033036512322723866,0.0014176006661728024,0.009789779782295227
1761307252393452000,4.5164521484375,-0.0024615598376840353,0.002552906284108758,0.007303985767066479
1761307252403380000,4.5263798828125,0.0014588796766474843,-0.00008175904804375023,0.00878177396953106
1761307252413308000,4.536307861328125,0.0010343717876821756,0.0020722055342048407,0.011596201919019222
1761307252423235800,4.54623583984375,-0.0018216022290289402,0.003658917034044862,0.007553523872047663
1761307252433164800,4.556164794921875,-0.0007358313887380064,0.0012655340833589435,0.008221977390348911
1761307252443092700,4.5660927734375,0.0012511530658230186,0.001910019083879888,0.0062800003215670586
1761307252453021000,4.57602099609375,0.000036218989407643676,0.0012604740913957357,0.009297361597418785
1761307252462949000,4.58594921875,-0.0006578007596544921,0.00010492854926269501,0.010113886557519436
1761307252472877000,4.595876953125,0.0022000374738126993,-0.0016397082945331931,0.006908772513270378
1761307252482805000,4.605804931640625,-0.000391218374716118,-0.0028152274899184704,0.00942199770361185
1761307252492733000,4.61573291015625,-0.0029579729307442904,0.0006380933918990195,0.009396431036293507
1761307252502660900,4.625660888671875,-0.0005728459218516946,0.0013347762869670987,0.008371113799512386
1761307252512589000,4.635589111328125,-0.0009901633020490408,0.0005105279851704836,0.009982859715819359
1761307252522517000,4.64551708984375,-0.0027225494850426912,0.000059921123465755954,0.007923170924186707
1761307252532445000,4.65544482421875,0.0014618091518059373,-0.00016964336100500077,0.008772718720138073
1761307252542372900,4.665372802734375,0.0004362257895991206,-0.0004652542411349714,0.006881075445562601
1761307252552301000,4.675301025390625,-0.0018865832826122642,0.002419215627014637,0.00896846130490303
1761307252562229000,4.68522900390625,-0.001446362817659974,-0.002514290390536189,0.008846755139529705
1761307252572157000,4.695156982421875,-0.0023547669406980276,0.00001864212754298933,0.008729576133191586
1761307252582084900,4.7050849609375,0.0005320995696820319,0.0007800398743711412,0.011374094523489475
1761307252592012800,4.7150126953125,-0.00014514227223116904,-0.0010929612908512354,0.008948487229645252
1761307252601941800,4.724941650390625,0.00007723167072981596,-0.0008753810543566942,0.009308014065027237
1761307252611870000,4.734869873046875,-0.00010226538870483637,0.0003454120014794171,0.008183094672858715
1761307252621798100,4.744798095703125,-0.0002364887041039765,0.003198722843080759,0.008287224918603897
1761307252631726000,4.75472607421875,-0.0015686018159613013,0.0005992112564854324,0.008828645572066307
1761307252641654000,4.764654052734375,-0.0011001517996191978,-0.0013283847365528345,0.007689611054956913
1761307252651582000,4.77458203125,0.0005946838646195829,-0.0002942793071269989,0.010378871113061905
1761307252661510000,4.784510009765625,-0.002065015025436878,-0.0016964336391538382,0.013256683014333248
1761307252671438000,4.79443798828125,0.00012729909212794155,-0.0012956279097124934,0.0072962623089551926
1761307252681366000,4.804365966796875,0.0006988134700804949,-0.001689509372226894,0.010088853538036346
1761307252691294000,4.8142939453125,-0.0016160061350092292,-0.0014588796766474843,0.008831840939819813
1761307252701222000,4.824221923828125,0.000075101139373146,0.002183792181313038,0.010973555035889149
1761307252711149800,4.83414990234375,-0.0006415555253624916,0.0008652610122226179,0.011297395452857018
1761307252721078000,4.844078125,0.00098217383492738,-0.0011896340874955058,0.007955128327012062
1761307252731006000,4.854005859375,0.00021305288828443736,-0.00038482676609419286,0.008138620294630527
1761307252740934000,4.863933837890625,-0.0005065332516096532,0.0010333064710721374,0.008241417817771435
1761307252750861800,4.87386181640625,-0.00034594463068060577,-0.0006151901907287538,0.008706672117114067
1761307252760790800,4.883790771484375,-0.0024141555186361074,0.0010644654976204038,0.0076185050420463085
1761307252770719000,4.893718994140625,-0.0028272117488086224,0.0037374801468104124,0.007201453670859337
1761307252780647000,4.90364697265625,0.00015180018090177327,0.0028189560398459435,0.008945824578404427
1761307252790575000,4.9135751953125,0.0009278453071601689,0.0015329155139625072,0.006213421002030373
1761307252800503000,4.9235029296875,0.00019041601626668125,-0.0007134608458727598,0.009446765296161175
1761307252810431000,4.933430908203125,-0.0010207896120846272,0.002817091764882207,0.010851848870515823
1761307252820359000,4.94335888671875,0.00039654469583183527,0.0032703618053346872,0.007831824012100697
1761307252830287000,4.953287109375,0.0003336940717417747,0.0021584921050816774,0.009250756353139877
1761307252840215000,4.963215087890625,0.001210406655445695,0.002959304489195347,0.007248591631650925
1761307252850143000,4.97314306640625,0.0004063983797095716,0.0029087045695632696,0.010885404422879219
1761307252860071000,4.98307080078125,-0.0012186624808236957,0.0013230583863332868,0.008763131685554981
1761307252869998800,4.992998779296875,0.0009403621661476791,-0.00018748654110822827,0.010096043348312378
1761307252879927000,5.002927001953125,-0.0015640745405107737,0.00015899071877356619,0.008853944949805737
1761307252889855000,5.01285498046875,-0.0014791196445003152,0.0018010957865044475,0.007958590984344482
1761307252899783000,5.022782958984375,-0.0005113269435241818,0.0022189458832144737,0.009675264358520508
1761307252909710800,5.0327109375,-0.0018839201657101512,0.0006452839006669819,0.008708802983164787
1761307252919638800,5.042638671875,-0.00039308256236836314,0.0026871294248849154,0.010530139319598675
1761307252929568000,5.052568115234375,0.00021544973424170166,0.0005701828049495816,0.009668872691690922
1761307252939496000,5.062495849609375,-0.0013470269041135907,-0.0020783308427780867,0.008510397747159004
1761307252949424000,5.072424072265625,-0.0025012409314513206,0.0008074704091995955,0.01088833436369896
1761307252959352000,5.08235205078125,-0.0054570832289755344,0.002674879040569067,0.007485613226890564
1761307252969280000,5.092280029296875,-0.0002463423879817128,0.0009443568997085094,0.009105081669986248
1761307252979208000,5.1022080078125,-0.0006836334359832108,0.0018381137633696198,0.009807889349758625
1761307252989136000,5.112135986328125,-0.0007757788407616317,0.002329733222723007,0.009681389667093754
1761307252999064000,5.12206396484375,0.00009108010999625549,0.0012974920682609081,0.010127202607691288
1761307253008992000,5.131991943359375,-0.003260774305090308,0.0007771103992126882,0.009827330708503723
1761307253018920000,5.141919921875,-0.003084473079070449,-0.0010663296561688185,0.009600961580872536
1761307253028847900,5.151847900390625,0.00022290658671408892,0.004803543444722891,0.00812237523496151
1761307253038775800,5.16177587890625,-0.0027425233274698257,0.0004695153038483113,0.006965763866901398
1761307253048704000,5.1717041015625,0.0008977515972219408,0.0027446537278592587,0.010089385323226452
1761307253058632000,5.1816318359375,0.00004207794336252846,0.00039281626231968403,0.00947765726596117
1761307253068560000,5.191559814453125,-0.00037204360705800354,0.0037087181117385626,0.0073479278944432735
1761307253078487800,5.20148779296875,-0.00279019377194345,0.0010873686987906694,0.011148258112370968
1761307253088415700,5.211415771484375,-0.00026525085559114814,-0.00250470289029181,0.010967696085572243
1761307253098344000,5.221343994140625,-0.0017454357584938407,0.0018668759148567915,0.009011604823172092
1761307253108273200,5.231273193359375,-0.00027324032271280885,0.0019459717441350222,0.007226487621665001
1761307253118201000,5.241201171875,-0.002171807922422886,-0.0012058793799951673,0.008436361327767372
1761307253128129000,5.25112890625,0.0007070692372508347,0.0005179848521947861,0.00529596209526062
1761307253138057000,5.261056884765625,-0.00015339808305725455,0.001654622028581798,0.00863503385335207
1761307253147985000,5.27098486328125,-0.0030248183757066727,0.000441818410763517,0.010677145794034004
1761307253157913000,5.2809130859375,-0.0024804682470858097,-0.0003400856803636998,0.012029765173792839
1761307253167841000,5.290841064453125,0.0018072210950776935,0.004457865376025438,0.008854211308062077
1761307253177769000,5.30076904296875,0.0013640711549669504,-0.0011622034944593906,0.005891178734600544
1761307253187697000,5.31069677734375,-0.0019688750617206097,-0.001942243310622871,0.00695085059851408
1761307253197624800,5.320624755859375,-0.0016487629618495703,-0.000251402409048751,0.011285677552223206
1761307253207553000,5.330552978515625,-0.0006090649403631687,-0.0009390306076966226,0.009272061288356781
1761307253217481000,5.34048095703125,0.0013701963471248746,0.0026703516487032175,0.010751713998615742
1761307253227409000,5.350408935546875,-0.003032008884474635,-0.0007605988066643476,0.009996441192924976
1761307253237336800,5.3603369140625,0.0006823018775321543,0.004724713973701,0.008933307603001595
1761307253247264800,5.3702646484375,-0.0005254416610114276,0.0030040456913411617,0.0107682254165411
1761307253257193000,5.38019287109375,-0.0012085424968972802,0.004222974646836519,0.004807804711163044
1761307253267121000,5.390120849609375,-0.0026117621455341578,0.0014895059866830707,0.008134093135595322
1761307253277050000,5.400050048828125,-0.0030692932195961475,0.0023574302904307842,0.011662514880299568
1761307253286978000,5.40997802734375,0.0002697782183531672,0.00036485306918621063,0.009886186569929123
1761307253296906000,5.419906005859375,0.000018109494703821838,-0.0008215851848945022,0.009181514382362366
1761307253306834000,5.429833984375,0.0007547398563474417,0.00452817277982831,0.007898136973381042
1761307253316761900,5.439761962890625,-0.002680737990885973,0.0013440974289551377,0.007848335430026054
1761307253326690000,5.44968994140625,-0.0013219931861385703,0.0013371731620281935,0.010850783437490463
1761307253336618000,5.459617919921875,-0.002555036684498191,-0.0014737932942807674,0.00803422462195158
1761307253346546000,5.4695458984375,-0.0000500674286740832,0.0027744811959564686,0.009457684122025967
1761307253356474600,5.479474609375,0.00039414784987457097,-0.0015017564874142408,0.009828396141529083
1761307253366402600,5.489402587890625,-0.00028762139845639467,-0.002208026824519038,0.009668606333434582
1761307253376330500,5.49933056640625,-0.0016442356863990426,0.0009435579413548112,0.009496033191680908
1761307253386258700,5.5092587890625,-0.0003203782835043967,-0.0014253237750381231,0.0076331524178385735
1761307253396186600,5.5191865234375,-0.0013339773286134005,0.0043622576631605625,0.009001750499010086
1761307253406114600,5.529114501953125,-0.0022178804501891136,-0.00026498452643863857,0.00908297672867775
1761307253416042500,5.53904248046875,-0.0010487528052181005,0.004503138829022646,0.008738896809518337
1761307253425970400,5.548970458984375,-0.00000958738019107841,0.0030546458438038826,0.00887684803456068
1761307253435898600,5.558898681640625,0.00027297402266412973,0.00045859633246436715,0.007425159215927124
1761307253445826600,5.56882666015625,0.0009177253232337534,0.00017417073831893504,0.009092298336327076
1761307253455755800,5.578755859375,-0.0007957525085657835,-0.0027153589762747288,0.007960987277328968
1761307253465683700,5.58868359375,-0.00037204360705800354,-0.00009853696246864274,0.009252354502677917
1761307253475611600,5.598611572265625,0.0010013486025854945,0.0005989448982290924,0.006328203249722719
1761307253485539600,5.60853955078125,0.0010048106778413057,0.0013046825770288706,0.006902647204697132
1761307253495467800,5.6184677734375,-0.000636495475191623,-0.0012178635224699974,0.010306433774530888
1761307253505395700,5.628395751953125,-0.0006420881254598498,0.0026285399217158556,0.006935936864465475
1761307253515323600,5.63832373046875,-0.001919073867611587,-0.0000045273736759554595,0.011921640485525131
1761307253525251600,5.64825146484375,0.0003075950953643769,0.00004820321555598639,0.006048837676644325
1761307253535179500,5.658179443359375,0.0004237089306116104,0.0012772521004080772,0.007668572477996349
1761307253545107700,5.668107666015625,-0.0016594156622886658,0.0007001450285315514,0.00917379092425108
1761307253555035600,5.67803564453125,-0.0016562198288738728,0.0026471822056919336,0.00987313687801361
1761307253564963600,5.687963623046875,0.0007781756576150656,0.0002085255109705031,0.01119246706366539
1761307253574891500,5.6978916015625,-0.0024703482631593943,-0.0023675502743571997,0.012794625014066696
1761307253584819500,5.7078193359375,-0.0009898969437927008,0.0030336068011820316,0.00794287770986557
1761307253594747600,5.71774755859375,-0.0022509037517011166,-0.00034674355993047357,0.006970557849854231
1761307253604675600,5.727675537109375,-0.00020373181905597448,-0.0015795208746567369,0.006691724993288517
1761307253614603800,5.737603759765625,0.0011387676931917667,-0.000984570593573153,0.008452607318758965
1761307253624531700,5.74753173828125,-0.004714594222605228,0.0024194817524403334,0.005023254547268152
1761307253634459600,5.757459716796875,-0.00180908537004143,-0.0013038836186751723,0.007768440991640091
1761307253644388600,5.767388671875,-0.0008703210623934865,0.0006250438746064901,0.00797377061098814
1761307253654316500,5.777316650390625,0.00038482676609419286,0.0012117383303120732,0.008535963483154774
1761307253664244700,5.78724462890625,-0.0006343649583868682,-0.0004082625964656472,0.00993252545595169
1761307253674172700,5.797172607421875,0.00015526228526141495,-0.002926813904196024,0.007013434544205666
1761307253684100600,5.8071005859375,0.00048389637959189713,0.003765976056456566,0.008187622763216496
1761307253694028500,5.817028564453125,-0.0009827064350247383,0.002037850907072425,0.010641725733876228
1761307253703956500,5.82695654296875,-0.0010498181218281388,0.0033683660440146923,0.00717642018571496
1761307253713884700,5.836884765625,-0.0008743157959543169,0.0008197209681384265,0.009546367451548576
1761307253723812600,5.8468125,-0.0013917679898440838,0.00009108010999625549,0.009700830094516277
1761307253733740500,5.856740478515625,-0.0009052084642462432,-0.0010274475207552314,0.008640360087156296
1761307253743668500,5.86666845703125,0.0001310275256400928,0.0011614045361056924,0.01104279700666666
1761307253753596700,5.8765966796875,-0.002808303339406848,0.0018128136871382594,0.009940781630575657
1761307253763524600,5.886524658203125,-0.0015134743880480528,0.0012120045721530914,0.010391920804977417
1761307253773452800,5.896452880859375,-0.001645567244850099,0.002528937766328454,0.009590309113264084
1761307253783380700,5.906380615234375,-0.001942509668879211,0.0012500877492129803,0.009256082586944103
1761307253793308700,5.91630859375,-0.000251402409048751,0.0018453042721375823,0.011166634038090706
1761307253803236600,5.926236572265625,-0.001612277701497078,-0.0009321063989773393,0.008833172731101513
1761307253813164800,5.936164794921875,0.0010820423485711217,-0.0003294330381322652,0.011147992685437202
1761307253823092700,5.9460927734375,0.0001323590986430645,0.0018796591321006417,0.00917112734168768
1761307253833020700,5.956020751953125,0.00013688647595699877,0.00038695731200277805,0.007169762160629034
1761307253842949600,5.96594970703125,-0.0027947211638092995,0.00037204360705800354,0.007529022637754679
1761307253852877600,5.975877685546875,-0.0017382452497258782,0.001278849900700152,0.00960016343742609
1761307253862805500,5.985805419921875,-0.003053047927096486,-0.0007329019135795534,0.01025689858943224
1761307253872733700,5.995733642578125,-0.00008309062832267955,-0.0009981527691707015,0.009981527924537659
1761307253882661600,6.00566162109375,-0.0012942962348461151,0.0010852381819859147,0.009734120219945908
1761307253892589600,6.015589599609375,0.0002263686910737306,0.0007925567333586514,0.007360444404184818
1761307253902517500,6.025517578125,-0.0007390272221527994,0.00017443705291952938,0.008036620914936066
1761307253912445400,6.035445556640625,-0.0013547500129789114,0.0036791570018976927,0.008076834492385387
1761307253922373600,6.04537353515625,-0.0007954862085171044,-0.0010636665392667055,0.007331149652600288
1761307253932301800,6.0553017578125,0.0024202808272093534,-0.0003552656853571534,0.008431035093963146
1761307253942229800,6.065229736328125,0.00038456046604551375,0.0021262678783386946,0.010269948281347752
1761307253952157700,6.07515771484375,0.00022290658671408892,-0.00014274542627390474,0.010134393349289894
1761307253962085600,6.085085693359375,0.001071123406291008,0.0018109495285898447,0.009123723953962326
1761307253972013800,6.095013916015625,-0.000180029688635841,0.0009616674506105483,0.008899485692381859
1761307253981941800,6.104941650390625,-0.00011424961121520028,-0.0009504822082817554,0.008901615627110004
1761307253991869700,6.11486962890625,-0.00044341632747091353,0.0014514228096231818,0.00669225724413991
1761307254001797600,6.124797607421875,-0.0013757890556007624,-0.002013616031035781,0.008329568430781364
1761307254011725600,6.1347255859375,0.000916393706575036,0.0015635418239980936,0.008569253608584404
1761307254021653800,6.14465380859375,-0.0003374225052539259,0.0020418455824255943,0.009689911268651485
1761307254031581700,6.154581787109375,-0.0012535499408841133,0.0014817827614024282,0.008555937558412552
1761307254041509600,6.164509521484375,-0.0007408913807012141,0.0005547364708036184,0.008989766240119934
1761307254051438600,6.1744384765625,0.00025592977181077003,0.0021523667965084314,0.008522914722561836
1761307254061366500,6.184366455078125,0.00010120012302650139,0.0001627191377338022,0.009759952314198017
1761307254071294500,6.19429443359375,0.000180029688635841,-0.0005041363765485585,0.007185474969446659
1761307254081222700,6.20422265625,-0.0010634001810103655,0.000005858954409632133,0.00983372237533331
1761307254091150800,6.21415087890625,0.00019813918333966285,0.000005858954409632133,0.005100752227008343
1761307254101078800,6.224078857421875,0.0013070794520899653,-0.0008189220097847283,0.006346579175442457
1761307254111006700,6.2340068359375,-0.0026820695493370295,0.00003062635369133204,0.010676346719264984
1761307254120934700,6.2439345703125,0.00014407701382879168,0.004000866785645485,0.008742624893784523
1761307254130862600,6.253862548828125,-0.001499625970609486,0.00018855179951060563,0.010506702587008476
1761307254140790800,6.263790771484375,-0.0003177151083946228,0.0027060380671173334,0.009882990270853043
1761307254150718700,6.27371875,-0.0012096078135073185,-0.0009941579774022102,0.009435047395527363
1761307254160646700,6.283646728515625,-0.0004069310089107603,0.0005962817813269794,0.010938667692244053
1761307254170574600,6.29357470703125,0.0005275722360238433,-0.000957939017098397,0.006362558342516422
1761307254180502500,6.30350244140625,0.00003728425508597866,-0.0026644926983863115,0.011271828785538673
1761307254190430700,6.3134306640625,0.001359277404844761,0.00004420847471919842,0.008205997757613659
1761307254200358700,6.323358642578125,0.002123604528605938,0.0024019049014896154,0.00740332156419754
1761307254210286600,6.33328662109375,-0.0027230822015553713,-0.00006364954606397077,0.008731972426176071
1761307254220214500,6.343214599609375,-0.0027595674619078636,0.0015843145083636045,0.004933239426463842
1761307254230142700,6.353142822265625,-0.00001997370782191865,0.000565389113035053,0.010639328509569168
1761307254240070700,6.363070556640625,-0.0033952640369534492,0.002287655370309949,0.009119994938373566
1761307254249998600,6.37299853515625,0.001076982356607914,0.004263987299054861,0.009276323020458221
1761307254259927800,6.382927734375,-0.001654355670325458,0.0021859225817024708,0.008285626769065857
1761307254269855700,6.392855712890625,-0.0001675128296483308,0.0012383698485791683,0.006154032424092293
1761307254279783700,6.40278369140625,-0.00026844663079828024,-0.0001685781026026234,0.010055563412606716
1761307254289711600,6.412711669921875,-0.00170788518153131,0.0016935041639953852,0.008243282325565815
1761307254299639800,6.422639892578125,-0.0013576794881373644,-0.0011534150689840317,0.007160973735153675
1761307254309567700,6.432567626953125,0.0013784521725028753,0.001175519311800599,0.00902918167412281
1761307254319495700,6.44249560546875,0.00023142869758885354,0.001511610229499638,0.0072746905498206615
1761307254329423600,6.452423583984375,0.0007251787465065718,0.002516687149181962,0.00851385947316885
1761307254339351600,6.4623515625,-0.0027561055030673742,0.0016924388473853469,0.00890694186091423
1761307254349280300,6.4722802734375,-0.0018793927738443017,0.00152306177187711,0.009765278548002243
1761307254359208400,6.48220849609375,-0.0015052186790853739,-0.0014322480419650674,0.007452589925378561
1761307254369136400,6.492136474609375,-0.0016636766958981752,-0.0004977448261342943,0.007523696403950453
1761307254379064300,6.502064208984375,-0.0009456885163672268,0.0010191916953772306,0.01059272326529026
1761307254388992300,6.5119921875,0.001371527905575931,0.0008237157016992569,0.009580455720424652
1761307254398920200,6.521920166015625,-0.0007430219557136297,0.0010575412306934595,0.00926407240331173
1761307254408848400,6.531848388671875,-0.0008207862265408039,0.004185690078884363,0.0110443951562047
1761307254418776300,6.5417763671875,-0.00043809000635519624,0.0015686018159613013,0.007763647008687258
1761307254428704300,6.551704345703125,-0.0003563309437595308,0.0015092133544385433,0.009610815905034542
1761307254438632200,6.561632080078125,0.0009680590592324734,0.001969407545402646,0.009601494297385216
1761307254448560000,6.57156005859375,-0.00033449303009547293,0.0023635553661733866,0.007459780666977167
1761307254458488300,6.58148828125,0.001207743538543582,0.0007744472241029143,0.011390339583158493
1761307254468416300,6.591416259765625,-0.001446096459403634,0.0002008023438975215,0.008805742487311363
1761307254478344200,6.60134423828125,-0.0011672634864225984,0.00216514989733696,0.00905448105186224
1761307254488273400,6.6112734375,-0.00192226970102638,-0.000854075769893825,0.008599081076681614
1761307254498201300,6.621201416015625,0.0011747203534469008,0.00000958738019107841,0.009790845215320587
1761307254508129300,6.63112939453125,0.0016045545926317573,0.005381449591368437,0.008465656079351902
1761307254518057500,6.641057373046875,0.001710814656689763,-0.0006599313346669078,0.009831058792769909
1761307254527985400,6.6509853515625,-0.0013885721564292908,0.0012887036427855492,0.00820866134017706
1761307254537913300,6.660913330078125,-0.001175252953544259,-0.0004034689045511186,0.007957525551319122
1761307254547841300,6.67084130859375,-0.0026439863722771406,0.00048176583368331194,0.006344981025904417
1761307254557769200,6.680769287109375,-0.004467719234526157,0.0011209244839847088,0.010105098597705364
1761307254567697400,6.690697509765625,0.0010823087068274617,-0.0007739146240055561,0.009594304487109184
1761307254577625300,6.700625244140625,0.0006934871198609471,0.00009161273919744417,0.009461145848035812
1761307254587553300,6.71055322265625,0.0015984292840585113,0.0009422263829037547,0.009475527331233025
1761307254597481200,6.720481201171875,0.0010402307379990816,-0.005648830905556679,0.008718922734260559
1761307254607409200,6.7304091796875,-0.002802444389089942,0.005272259935736656,0.008894159458577633
1761307254617337300,6.74033740234375,0.002368881832808256,-0.0002740392810665071,0.008551943115890026
1761307254627265300,6.750265380859375,-0.00216594897210598,0.0024857944808900356,0.008884038776159286
1761307254637193200,6.760193115234375,-0.000708134553860873,-0.0002878876985050738,0.007156712934374809
1761307254647121200,6.77012109375,-0.000598145998083055,0.0007858988246880472,0.00803049560636282
1761307254657049000,6.780049072265625,-0.0004191815387457609,0.0027899276465177536,0.008313856087625027
1761307254666977300,6.789977294921875,-0.0007536745979450643,0.000360059377271682,0.009762615896761417
1761307254676905200,6.7999052734375,-0.002147573046386242,0.000919323181733489,0.008332232013344765
1761307254686833400,6.80983349609375,-0.0001906823308672756,0.0011560781858861446,0.006813697516918182
1761307254696761300,6.81976123046875,0.0007004113867878914,0.0017635452095419168,0.011713647283613682
1761307254706689300,6.829689208984375,0.0003933488915208727,0.001829591696150601,0.009550628252327442
1761307254716618200,6.8396181640625,0.00012783173588104546,0.0035180358681827784,0.00939003936946392
1761307254726546200,6.849546142578125,-0.0027947211638092995,0.0014037522487342358,0.006972954608500004
1761307254736474400,6.859474365234375,-0.0014674017438665032,0.0008066715090535581,0.006188920233398676
1761307254746402300,6.86940234375,-0.0016863135388121009,0.000031425301131093875,0.011094729416072369
1761307254756330200,6.879330322265625,-0.001005343277938664,0.000728907180018723,0.00899828877300024
1761307254766258200,6.889258056640625,0.000696150294970721,0.0034887411165982485,0.009983657859265804
1761307254776186000,6.89918603515625,-0.000877511571161449,0.0019459717441350222,0.01101323589682579
1761307254786114300,6.9091142578125,-0.002429868094623089,0.0016594156622886658,0.008943693712353706
1761307254796042200,6.919042236328125,-0.0022895196452736855,0.0020599551498889923,0.00848296657204628
1761307254805970200,6.92897021484375,-0.0018066884949803352,0.0031933963764458895,0.0062576294876635075
1761307254815898000,6.938898193359375,-0.0013651363551616669,0.0008085357258096337,0.008020109497010708
1761307254825826000,6.948825927734375,-0.0007262440049089491,0.001118793967179954,0.007463775109499693
1761307254835754200,6.958754150390625,0.0003989415417890996,-0.00009800432599149644,0.007386277429759502
1761307254845682400,6.968682373046875,-0.0017323862994089723,0.0017598168924450874,0.007950867526233196
1761307254855610400,6.9786103515625,-0.0024554345291107893,0.001272990950383246,0.010032127611339092
1761307254865538300,6.988538330078125,0.00017363809456583112,-0.0009451558580622077,0.009061139076948166
1761307254875466200,6.99846630859375,-0.0020663465838879347,-0.0026996464002877474,0.010521616786718369
1761307254885394400,7.00839453125,-0.00216594897210598,0.002109756227582693,0.010893127880990505
1761307254895322400,7.018322265625,0.0001512675517005846,0.0006165218073874712,0.008109059184789658
1761307254905250300,7.028250244140625,-0.0007792409160174429,0.0003486077766865492,0.009100819937884808
1761307254915178200,7.03817822265625,-0.001939580193720758,0.0002846919232979417,0.007077882997691631
1761307254925106200,7.048106201171875,-0.0037433390971273184,0.0006940197781659663,0.007400924805551767
1761307254935034400,7.058034423828125,-0.00065460498444736,0.002746518002822995,0.009325324557721615
1761307254944962300,7.06796240234375,-0.0005339637864381075,0.0010522148804739118,0.010929080657660961
1761307254954890200,7.07789013671875,0.0016921724891290069,0.0007936219917610288,0.009586048312485218
1761307254964818200,7.087818115234375,-0.002314553363248706,0.0011622034944593906,0.00812184251844883
1761307254974747100,7.0977470703125,0.0004463458026293665,-0.000050333743274677545,0.007285876199603081
1761307254984675000,7.107675048828125,-0.003026416292414069,0.0007097324123606086,0.009356217458844185
1761307254994603300,7.117603271484375,-0.0032296155113726854,0.0026192190125584602,0.008990298956632614
1761307255004531500,7.127531494140625,-0.0015933692920953035,0.0007749798824079335,0.010116283781826496
1761307255014459400,7.13745947265625,0.0016812535468488932,0.0014961638953536749,0.008077899925410748
1761307255024387300,7.14738720703125,0.0018096179701387882,-0.00042450788896530867,0.01127901952713728
1761307255034315300,7.157315185546875,-0.0018732674652710557,-0.0003073287953156978,0.008478439413011074
1761307255044243500,7.167243408203125,0.0002918824611697346,0.0028357338160276413,0.010483533143997192
1761307255054171400,7.17717138671875,-0.0017025588313117623,-0.0014732606941834092,0.008393485099077225
1761307255064099300,7.187099365234375,-0.0015600797487422824,0.0016966998809948564,0.008984972722828388
1761307255074027300,7.19702734375,-0.0026525084394961596,0.001986984396353364,0.011010306887328625
1761307255083955200,7.206955078125,0.0022128205746412277,-0.0027110979426652193,0.008270712569355965
1761307255093883400,7.21688330078125,0.00004367584188003093,-0.0021758025977760553,0.008928247727453709
1761307255103811300,7.226811279296875,-0.0008165251929312944,-0.002286856295540929,0.008795089088380337
1761307255113739300,7.2367392578125,-0.0036072516813874245,0.0026080335956066847,0.00791438203305006
1761307255123667200,7.246667236328125,-0.0005869606975466013,0.0037025928031653166,0.008028898388147354
1761307255133595100,7.25659521484375,-0.00011185276525793597,0.0020453077740967274,0.012154134921729565
1761307255143523300,7.2665234375,-0.0019659455865621567,0.0006346312584355474,0.010158095508813858
1761307255153451300,7.276451171875,0.00020133497309871018,0.001029311795718968,0.00866219773888588
1761307255163379200,7.286379150390625,0.00028336033574305475,0.0011760519118979573,0.00803049560636282
1761307255173307100,7.29630712890625,-0.0010586065473034978,0.0018674085149541497,0.00999297946691513
1761307255183235000,7.306235107421875,-0.0011709919199347496,0.0057257963344454765,0.00842917151749134
1761307255193163300,7.316163330078125,-0.0006599313346669078,-0.0009827064350247383,0.008175638504326344
1761307255203091500,7.326091552734375,-0.001755023142322898,0.00344586418941617,0.006353769451379776
1761307255213019400,7.336019287109375,-0.0005515406373888254,0.0008285093936137855,0.010015349835157394
1761307255222947300,7.345947265625,-0.0002282329078298062,0.0011382350930944085,0.009465406648814678
1761307255232875300,7.355875244140625,-0.00009853696246864274,0.0008183894096873701,0.005853095557540655
1761307255242803500,7.365803466796875,0.0002596582053229213,-0.0005083974683657289,0.008442752994596958
1761307255252732200,7.375732177734375,-0.0006181196658872068,0.0006884271278977394,0.00791624654084444
1761307255262660400,7.385660400390625,-0.000016777914424892515,0.001592037733644247,0.0073316823691129684
1761307255272588300,7.39558837890625,-0.0019025622168555856,-0.002299905987456441,0.007501591928303242
1761307255282516200,7.40551611328125,-0.0008045409340411425,-0.0012013519881293178,0.008806008845567703
1761307255292444200,7.415444091796875,-0.0012713931500911713,0.0009824400767683983,0.009594570845365524
1761307255302372000,7.4253720703125,-0.0014543522847816348,0.00170761882327497,0.0060030315071344376
1761307255312300300,7.43530029296875,-0.00038509309524670243,0.00029827404068782926,0.011442005634307861
1761307255322228200,7.445228271484375,0.0005882922559976578,0.0019712718203663826,0.009875267744064331
1761307255332156200,7.45515625,-0.003635747591033578,0.0023816649336367846,0.008499212563037872
1761307255342084000,7.465083984375,-0.00048709215479902923,-0.00043835630640387535,0.009021458216011524
1761307255352011500,7.475011474609375,0.0011249192757532,0.0007339671719819307,0.009824134409427643
1761307255361939500,7.484939453125,-0.0026354643050581217,0.0004237089306116104,0.010933874174952507
1761307255371867400,7.494867431640625,-0.0024527714122086763,0.00133903743699193,0.007440072949975729
1761307255381795300,7.50479541015625,-0.000179230744834058,-0.0014045510906726122,0.00848829373717308
1761307255391723500,7.5147236328125,-0.00347435986623168,0.0006404902087524533,0.013675332069396973
1761307255401651700,7.524651611328125,0.00007616640505148098,0.0007097324123606086,0.011055047623813152
1761307255411579600,7.53457958984375,-0.0016937704058364034,0.0030802120454609394,0.009256615303456783
1761307255421507600,7.544507568359375,-0.00155288923997432,0.0017363809747621417,0.005056011490523815
1761307255431435500,7.554435546875,-0.00270683690905571,0.00009454221435589716,0.012226572260260582
1761307255441363500,7.564363525390625,-0.0010514160385355353,-0.00004021373388241045,0.008049670606851578
1761307255451291600,7.574291748046875,0.0021853898651897907,0.001998968655243516,0.006045641843229532
1761307255461219600,7.584219482421875,-0.00033209618413820863,0.0018908443162217736,0.010349310003221035
1761307255471147500,7.5941474609375,-0.00012010856153210625,-0.0011717908782884479,0.009236108511686325
1761307255481075500,7.604075439453125,0.0011965582380071282,0.002670884132385254,0.008743690326809883
1761307255491003400,7.61400341796875,-0.00017310546536464244,0.0012506204657256603,0.011314173229038715
1761307255500931600,7.623931640625,-0.0007611314067617059,0.0006013417732901871,0.008742891252040863
1761307255510859500,7.633859619140625,-0.0005041363765485585,0.004492752719670534,0.010611898265779018
1761307255520787500,7.643787353515625,0.0011970909545198083,-0.0015811186749488115,0.010640926659107208
1761307255530715400,7.65371533203125,-0.00020586235041264445,0.002633600030094385,0.010668090544641018
1761307255540643300,7.663643310546875,-0.0010612696642056108,0.000428502622526139,0.009946640580892563
1761307255550572500,7.673572509765625,-0.0015387744642794132,0.0012772521004080772,0.007098922040313482
1761307255560500700,7.683500732421875,0.00012889699428342283,-0.001062068622559309,0.009162073023617268
1761307255570428700,7.6934287109375,0.00007723167072981596,0.001755289500579238,0.009886719286441803
1761307255580356600,7.703356689453125,0.002284193178638816,-0.00045380264054983854,0.006962035782635212
1761307255590284500,7.713284423828125,-0.0018381137633696198,0.001419198582880199,0.011362642981112003
1761307255600212500,7.72321240234375,-0.0018381137633696198,0.00011957593233091757,0.007168963085860014
1761307255610140700,7.733140625,-0.0015403723809868097,0.0018253305461257696,0.008787366561591625
1761307255620068600,7.743068603515625,-0.001112668658606708,0.0008024104172363877,0.00948085356503725
1761307255629996500,7.75299658203125,-0.0026085663121193647,0.0023760723415762186,0.009335977025330067
1761307255639924500,7.762924560546875,-0.0024775387719273567,0.0011954930378124118,0.01050137635320425
1761307255649852400,7.772852294921875,-0.0012724583502858877,0.0017539578257128596,0.006941795814782381
1761307255659780600,7.782780517578125,-0.002441852353513241,0.0014484933344647288,0.009313606657087803
1761307255669708500,7.79270849609375,-0.002290052128955722,0.003299922915175557,0.00839827861636877
1761307255679636500,7.802636474609375,-0.00012436961696948856,0.0025803367607295513,0.009728261269629002
1761307255689564400,7.812564453125,-0.0022602248936891556,0.0010689928894862533,0.008050736039876938
1761307255699492400,7.822492431640625,-0.0027624969370663166,-0.00021651499264407903,0.006946056615561247
1761307255709420500,7.832420654296875,-0.0005358280031941831,0.0021813951898366213,0.01167423278093338
1761307255719348500,7.842348388671875,-0.0003451456723269075,0.0004271710349712521,0.007968444377183914
1761307255729276400,7.8522763671875,-0.000004793690095539205,-0.0017267935909330845,0.01068300474435091
1761307255739204400,7.862204345703125,-0.0015211976133286953,0.0008660599705763161,0.008153267204761505
1761307255749132500,7.872132568359375,-0.0010008158860728145,-0.00047590688336640596,0.008987103588879108
1761307255759060700,7.882060791015625,-0.0028818065766245127,0.002688993699848652,0.008266718126833439
1761307255768988700,7.89198876953125,-0.0004625910660251975,-0.0021046961192041636,0.008524511940777302
1761307255778916600,7.90191650390625,-0.00023675501870457083,0.0013025520602241158,0.009581254795193672
1761307255788844500,7.911844482421875,-0.00031664984999224544,0.00037736992817372084,0.008746353909373283
1761307255798772500,7.9217724609375,-0.000999750685878098,0.0006420881254598498,0.009384713135659695
1761307255808700700,7.93170068359375,-0.0002532666258048266,-0.0007089334540069103,0.007735417690128088
1761307255818628600,7.941628662109375,-0.0015345134306699038,-0.00061279337387532,0.00944836251437664
1761307255828556500,7.951556640625,-0.0009523464250378311,0.004117513541132212,0.010276872664690018
1761307255838484500,7.961484375,0.0006079996819607913,0.0009185242815874517,0.008523712866008282
1761307255848412400,7.971412353515625,-0.001020257011987269,-0.000862864195369184,0.007127950433641672
1761307255858340600,7.981340576171875,0.0000900148443179205,0.0020069582387804985,0.008075503632426262
1761307255868268500,7.9912685546875,-0.00024501082953065634,-0.0003813646617345512,0.00830879621207714
1761307255878196500,8.001196533203125,-0.00005858954318682663,0.00036991306114941835,0.00845740083605051
1761307255888124400,8.01112451171875,-0.0009214537567459047,0.00023542344570159912,0.009914948605000973
1761307255898053400,8.021053466796875,-0.002767290687188506,0.0017014936311170459,0.009926400147378445
1761307255907981600,8.030981689453125,0.0004540689697023481,-0.0001715075777610764,0.010267284698784351
1761307255917909500,8.040909423828126,-0.0016913736471906304,0.00014514227223116904,0.009092031978070736
1761307255927837700,8.050837646484375,0.0003438140847720206,0.0008820389630272985,0.008980179205536842
1761307255937765600,8.060765625,-0.001493234420195222,0.0037768951151520014,0.007923436351120472
1761307255947693600,8.070693603515625,-0.0023284016642719507,0.001654622028581798,0.00857164990156889
1761307255957621500,8.08062158203125,-0.002272208919748664,-0.00205249828286469,0.010477407835423946
1761307255967549400,8.090549560546876,0.001794171635992825,0.00038402783684432507,0.008284294977784157
1761307255977477600,8.1004775390625,0.0014471617760136724,0.0001739044237183407,0.009899502620100975
1761307255987405600,8.110405517578124,0.0009217200567945838,0.0010357033461332321,0.01176158431917429
1761307255997333500,8.12033349609375,-0.001499625970609486,0.000580036488827318,0.008370582014322281
1761307256007261400,8.130261474609375,-0.00005672533006872982,0.0026098978705704212,0.010104033164680004
1761307256017189400,8.140189453125,-0.0003818972909357399,0.005619003437459469,0.008680040948092937
1761307256027117600,8.15011767578125,-0.0009355684742331505,0.0021976404823362827,0.011537612415850163
1761307256037045500,8.16004541015625,-0.0032690302468836308,0.0012857741676270962,0.009219863452017307
1761307256046973400,8.169973388671876,0.0018317222129553556,-0.0006095975404605269,0.007400125730782747
1761307256056901400,8.1799013671875,-0.0034698324743658304,0.0019006980583071709,0.008325573988258839
1761307256066829600,8.18982958984375,-0.00043276368523947895,0.0016138756182044744,0.007166033610701561
1761307256076757500,8.199757568359376,0.0011555455857887864,0.0011342403013259172,0.008864065632224083
1761307256086685400,8.209685546875,0.001187503570690751,0.00148151651956141,0.008670453913509846
1761307256096613400,8.21961328125,0.0023220102302730083,0.001782453735359013,0.010760768316686153
1761307256106541600,8.22954150390625,-0.0006095975404605269,0.0022506373934447765,0.008096275851130486
1761307256116469500,8.239469482421875,-0.0017118799732998013,-0.003605653764680028,0.007155647501349449
1761307256126397700,8.249397705078126,-0.002272741636261344,0.004385693464428186,0.008867260999977589
1761307256136325600,8.25932568359375,-0.0018133464036509395,-0.0001805623178370297,0.010695787146687508
1761307256146253600,8.269253662109374,0.0006809702608734369,0.0009518137667328119,0.007933557033538818
1761307256156181500,8.279181396484375,0.0013435647124424577,0.0003539340978022665,0.0062403189949691296
1761307256166109400,8.289109375,0.0012620720081031322,-0.00035420042695477605,0.010869425721466541
1761307256176037600,8.29903759765625,0.0001704423048067838,0.001047687605023384,0.00857537891715765
1761307256185965600,8.308965576171875,-0.00019520970818120986,0.0014263890916481614,0.007611314300447702
1761307256195893500,8.3188935546875,-0.0013014868600293994,0.000984570593573153,0.009236641228199005
1761307256205821400,8.328821533203126,-0.002380333375185728,0.0019619506783783436,0.010500045493245125
1761307256215749400,8.338749267578125,-0.002998985582962632,0.0009795106016099453,0.009013468399643898
1761307256225677600,8.348677490234374,-0.0011555455857887864,0.0017534252256155014,0.007792143151164055
1761307256235605500,8.35860546875,-0.0014125406742095947,0.0021052288357168436,0.006792658474296331
1761307256245533400,8.368533447265625,-0.0012831110507249832,-0.0013912353897467256,0.009410013444721699
1761307256255461400,8.37846142578125,-0.002235191175714135,0.0011464908020570874,0.009135441854596138
1761307256265389600,8.3883896484375,0.0012780509423464537,-0.001440237509086728,0.009587380103766918
1761307256275317500,8.3983173828125,-0.0019976370967924595,-0.0007893609581515193,0.010514692403376102
1761307256285246700,8.408246826171874,0.0018628811230883002,0.0009392969077453017,0.008080829866230488
1761307256295174700,8.418174560546875,0.0001597896625753492,-0.00016538229829166085,0.00944756343960762
1761307256305102600,8.4281025390625,0.0017805894603952765,0.002180596347898245,0.010846788994967937
1761307256315030500,8.438030517578126,-0.0010801780736073852,0.0011598066193982959,0.007574562914669514
1761307256324958500,8.44795849609375,-0.0009108011145144701,0.003054911969229579,0.006402771919965744
1761307256334886700,8.45788671875,-0.0023214775137603283,0.005834186915308237,0.007186806295067072
1761307256344814600,8.467814697265625,-0.0017723336350172758,0.0003121224872302264,0.008608668111264706
1761307256354742500,8.477742431640625,0.0005249090609140694,0.0017395768081769347,0.00869335699826479
1761307256364670700,8.487670654296876,0.0009539442835375667,-0.00020905814017169178,0.008231298066675663
1761307256374598700,8.4975986328125,-0.0002639192680362612,0.00373002327978611,0.008493886329233646
1761307256384526800,8.50752685546875,0.00030786142451688647,0.001511876587755978,0.007078682072460651
1761307256394454800,8.517454833984376,0.0006239786162041128,-0.0002210423699580133,0.00905501376837492
1761307256404382700,8.5273828125,-0.00276169809512794,0.0005158542771823704,0.01011015847325325
1761307256414310700,8.537310546875,-0.0027166905347257853,0.00455693481490016,0.00999457761645317
1761307256424238600,8.547238525390625,-0.0016729978378862143,0.001746501075103879,0.007185741327702999
1761307256434166800,8.557166748046875,-0.00036751621519215405,0.0031486554071307182,0.007738347165286541
1761307256444094700,8.5670947265625,-0.00004660531703848392,0.0009422263829037547,0.008992696180939674
1761307256454022700,8.577022705078125,-0.001630120910704136,0.0011675298446789384,0.009867544285953045
1761307256463950600,8.58695068359375,-0.0013912353897467256,0.002694586291909218,0.008043278940021992
1761307256473878500,8.59687841796875,0.001529453438706696,0.0013611416798084974,0.010010289959609509
1761307256483806700,8.606806640625,0.00031185615807771683,-0.000990962260402739,0.006825415417551994
1761307256493734700,8.616734619140624,0.00016484966909047216,-0.002141714096069336,0.009368734434247017
1761307256503662600,8.62666259765625,-0.002311357529833913,0.0011680624447762966,0.009718406945466995
1761307256513590500,8.636590576171875,-0.00026764770154841244,0.0031230889726430178,0.00751996785402298
1761307256523518500,8.6465185546875,0.0004719121498055756,0.005281847435981035,0.010243049822747707
1761307256533446700,8.65644677734375,-0.0008279767935164273,-0.0013784521725028753,0.007449394091963768
1761307256543374600,8.66637451171875,-0.00042290997225791216,0.001210939371958375,0.010273410007357597
1761307256553302500,8.676302490234375,0.0010061422362923622,-0.0030546458438038826,0.010037986561655998
1761307256563230700,8.686230712890625,-0.0027300063520669937,0.000716922979336232,0.008657670579850674
1761307256573158700,8.69615869140625,-0.0002271676348755136,0.0017118799732998013,0.012803146615624428
1761307256583086800,8.7060869140625,-0.0005605954211205244,0.0008455536444671452,0.007357514929026365
1761307256593014800,8.716014892578125,-0.0008498146780766547,-0.0034549187403172255,0.010774350725114346
1761307256602942700,8.725942626953126,0.0009558085002936423,0.001469532260671258,0.011039601638913155
1761307256612870700,8.73587060546875,-0.0014231932582333684,-0.0014274542918428779,0.010544519871473312
1761307256622798600,8.745798583984374,-0.002841326640918851,-0.00024820660473778844,0.011895009316504002
1761307256632726800,8.755726806640626,0.00008309062832267955,0.0008175904513336718,0.009687514975667
1761307256642654700,8.76565478515625,-0.0017840516520664096,0.0034288198221474886,0.011569304391741753
1761307256652582700,8.775582763671874,-0.0023068301379680634,0.0011137339752167463,0.007360977120697498
1761307256662510600,8.785510498046875,0.0005352954030968249,0.0014210627414286137,0.007174556143581867
1761307256672438500,8.7954384765625,0.003225088119506836,-0.0009025452891364694,0.009393502026796341
1761307256682366700,8.80536669921875,-0.00018269284919369966,0.001032507512718439,0.008359395898878574
1761307256692294700,8.815294677734375,-0.0014602112350985408,-0.0016311861108988523,0.009048888459801674
1761307256702222600,8.82522265625,-0.0013350426452234387,-0.0018988338997587562,0.008987902663648129
1761307256712150500,8.835150634765625,0.0008732505375519395,0.0034376082476228476,0.009646768681704998
1761307256722078500,8.845078369140625,0.0013646037550643086,-0.0006660565850324929,0.008913866244256496
1761307256732006700,8.855006591796876,-0.003582217963412404,0.0021409152541309595,0.009098956361413002
1761307256741934600,8.8649345703125,-0.002722283359616995,0.0020325244404375553,0.009501093067228794
1761307256751862500,8.874862548828125,-0.0005291700945235789,-0.0002716424351092428,0.0075484635308384895
1761307256761790700,8.884790771484376,-0.0027593011036515236,0.002606435678899288,0.010463560000061989
1761307256771718700,8.89471875,-0.0010396981379017234,0.001493500778451562,0.00777643034234643
1761307256781646800,8.904646728515624,-0.001347559504210949,-0.0002460760879330337,0.009957559406757355
1761307256791575600,8.914575439453126,0.0002695118892006576,0.001782453735359013,0.01041455753147602
1761307256801503700,8.924503662109375,-0.0006383596919476986,0.0018453042721375823,0.009950635023415089
1761307256811431700,8.934431640625,0.0005776396137662232,0.0013819142477586865,0.009219330735504627
1761307256821359600,8.944359619140625,-0.002805107505992055,0.0014719291357323527,0.011452658101916313
1761307256831287600,8.95428759765625,-0.0015821839915588498,-0.0033300165086984634,0.009469934739172459
1761307256841215500,8.964215576171876,-0.0027483822777867317,0.0016951019642874599,0.007573497481644154
1761307256851143700,8.974143798828125,0.0011017497163265944,0.0032117723021656275,0.007559382822364569
1761307256861071600,8.984071533203124,-0.0014314490836113691,0.0010373012628406286,0.008806008845567703
1761307256870999600,8.99399951171875,-0.0005904228310100734,0.00096113485051319,0.00794607400894165
1761307256880927500,9.003927490234375,-0.00034194986801594496,-0.0025835325941443443,0.0087820403277874
1761307256890855400,9.01385546875,-0.001418932224623859,0.002118011936545372,0.008870190940797329
1761307256900783600,9.02378369140625,-0.0007408913807012141,0.0009036105475388467,0.00942119862884283
1761307256910711600,9.033711669921875,0.001074052881449461,-0.00020719393796753138,0.011412710882723331
1761307256920639700,9.0436396484375,-0.0012335762148723006,-0.0023318638559430838,0.009236641228199005
1761307256930567700,9.053567626953125,-0.00040080572944134474,0.004607002250850201,0.00993146002292633
1761307256940495600,9.06349560546875,0.001600293442606926,0.0014982944121584296,0.007488009985536337
1761307256950423800,9.073423828125,-0.0008788431296125054,0.0007978830835781991,0.007479221560060978
1761307256960351700,9.083351806640625,-0.0005430185701698065,0.0003539340978022665,0.00951174646615982
1761307256970279700,9.09327978515625,-0.0000655137628200464,0.0007776430575177073,0.007675230037420988
1761307256980207600,9.10320751953125,-0.0036432044580578804,0.001413073274306953,0.008019576780498028
1761307256990135600,9.113135498046875,0.0006775081856176257,-0.002067944500595331,0.010976484976708889
1761307257000063700,9.123063720703126,-0.0019449065439403057,0.00018189390539191663,0.010853713378310204
1761307257009991700,9.13299169921875,-0.00016218650853261352,-0.0034756914246827364,0.010076336562633514
1761307257019919600,9.142919677734374,-0.000728907180018723,0.003317233407869935,0.00872025452554226
1761307257029847600,9.15284765625,-0.0012266519479453564,0.0031915323343127966,0.009829461574554443
1761307257039775500,9.162775390625,-0.004643754102289677,-0.00019973708549514413,0.007156712934374809
1761307257049703700,9.17270361328125,-0.00049082055920735,0.00033103092573583126,0.006372944451868534
1761307257059631600,9.182631591796875,0.0007526093395426869,0.0022738068364560604,0.008589226752519608
1761307257069559600,9.1925595703125,-0.0010791128734126687,-0.0012386362068355083,0.008176969364285469
1761307257079487500,9.202487548828126,-0.0014620753936469555,0.00046845004544593394,0.008865396492183208
1761307257089415400,9.21241552734375,0.00012650014832615852,0.001315335277467966,0.011295530945062637
1761307257099343600,9.222343505859374,-0.0013164004776626825,-0.0004977448261342943,0.007927964441478252
1761307257109271600,9.232271484375,-0.0002519350382499397,0.0012458267156034708,0.010965566150844097
1761307257119199700,9.24219970703125,0.0004721784498542547,0.0010817759903147817,0.008726379834115505
1761307257129127700,9.252127685546874,-0.001689509372226894,0.004762530792504549,0.008586031384766102
1761307257139055600,9.2620556640625,-0.0017531589837744832,0.004443218000233173,0.010663297027349472
1761307257148983800,9.27198388671875,-0.0016194682102650404,0.0011467571603134274,0.006923952605575323
1761307257158911700,9.281911865234376,-0.00041678472189232707,0.002826679265126586,0.008553540334105492
1761307257168839700,9.291839599609375,0.00029534456552937627,0.0012660667998716235,0.007475226651877165
1761307257178767600,9.301767578125,-0.001534779672510922,0.0011976235546171665,0.009414274245500565
1761307257188695600,9.311695556640625,0.0011350392596796155,-0.001323857344686985,0.008187889121472836
1761307257198623700,9.321623779296875,-0.00037284253630787134,0.0010362359462305903,0.00729493098333478
1761307257208551700,9.3315517578125,0.0013520868960767984,0.0004972121678292751,0.011493937112390995
1761307257218479600,9.341479736328125,-0.0016492956783622503,-0.0015837819082662463,0.005037901923060417
1761307257228407600,9.351407470703125,-0.0029798108153045177,0.002810966456308961,0.010279268957674503
1761307257238335500,9.36133544921875,0.000032490566809428856,0.0005739112384617329,0.012237224727869034
1761307257248263700,9.371263671875,0.0008804410463199019,0.0022655511274933815,0.008971656672656536
1761307257258191600,9.381191650390624,-0.0011771172285079956,-0.0004974784678779542,0.008897621184587479
1761307257268119600,9.39111962890625,-0.002388855442404747,0.0026402578223496675,0.006910902913659811
1761307257278047500,9.401047607421875,-0.001198688754811883,0.0030770162120461464,0.011990349739789963
1761307257287975400,9.410975341796876,-0.0015627428656443954,-0.0004916195175610483,0.011998872272670269
1761307257297903600,9.420903564453125,-0.001213336130604148,0.0005717806634493172,0.010554905980825424
1761307257307831600,9.43083154296875,0.0005704491049982607,-0.0010511496802791953,0.009741577319800854
1761307257317759700,9.440759765625,0.000021837920940015465,-0.00039228363311849535,0.00857164990156889
1761307257327687700,9.450687744140625,0.0013704627053812146,0.002406165935099125,0.010849984362721443
1761307257337615600,9.46061572265625,-0.0013611416798084974,0.0012458267156034708,0.00697854720056057
1761307257347543800,9.470543701171875,-0.001874066423624754,0.0017457021167501807,0.009351157583296299
1761307257357472300,9.48047216796875,0.0020937772933393717,0.0014136058744043112,0.00800253264605999
1761307257367400200,9.490400146484374,-0.0016378440195694566,0.0023545008152723312,0.008701345883309841
1761307257377328000,9.500328125,-0.0000327568814100232,-0.0015821839915588498,0.011361311189830303
1761307257387256000,9.510256103515625,-0.0026911243330687284,0.000036218989407643676,0.010832407511770725
1761307257397184300,9.520184326171876,-0.0010639328975230455,-0.00039707732503302395,0.007386543322354555
1761307257407112200,9.5301123046875,-0.0025446503423154354,0.002117745578289032,0.009102684445679188
1761307257417040100,9.5400400390625,-0.000027164242055732757,0.0018306568963453174,0.008382565341889858
1761307257426968000,9.549968017578125,-0.00007137271313695237,0.0018935075495392084,0.011931493878364563
1761307257436896000,9.55989599609375,-0.0012713931500911713,0.002226402750238776,0.007926099933683872
1761307257446824200,9.56982421875,0.0004308994684834033,0.0034133736044168472,0.006878145970404148
1761307257456752400,9.57975244140625,-0.0027337349019944668,0.0022029669489711523,0.010684601962566376
1761307257466680300,9.589680419921875,-0.004567321389913559,0.000833036785479635,0.008109325543045998
1761307257476608300,9.599608154296876,-0.000913197931367904,-0.0007906925166025758,0.01094798929989338
1761307257486536200,9.6095361328125,-0.001186970854178071,0.0026117621455341578,0.005617139395326376
1761307257496464100,9.619464111328124,0.0003225088003091514,0.0008383630774915218,0.00737269502133131
1761307257506392300,9.629392333984375,-0.0033009881153702736,0.0014900385867804289,0.00908617302775383
1761307257516320300,9.6393203125,-0.001148355077020824,0.0008833705214783549,0.008808405138552189
1761307257526248200,9.649248291015626,0.000666322885081172,0.0025864620693027973,0.008714661933481693
1761307257536176000,9.659176025390625,-0.0007949535502120852,0.003034405643120408,0.008768191561102867
1761307257546104300,9.669104248046875,-0.0035864789970219135,0.0005779059720225632,0.009357549250125885
1761307257556032300,9.6790322265625,-0.000045540054998127744,0.0012335762148723006,0.009211075492203236
1761307257565960200,9.688960205078125,-0.00011824435205198824,0.000028495824153651483,0.008649148046970367
1761307257575888100,9.69888818359375,-0.001612544059753418,-0.00010599380766507238,0.011968512088060379
1761307257585816000,9.708816162109375,-0.0012727247085422277,-0.0014596786350011826,0.009837716817855835
1761307257595744300,9.718744140625,-0.0027569043450057507,0.0013038836186751723,0.012568522244691849
1761307257605672200,9.728672119140626,0.0011235876008868217,-0.001561944023706019,0.009438242763280869
1761307257615601400,9.738601318359375,0.0009957558941096067,0.0028013791888952255,0.008785502053797245
1761307257625528000,9.748528076171874,-0.0024288028944283724,-0.0009214537567459047,0.01203988492488861
1761307257635457300,9.758457275390626,-0.0008490157779306173,0.0006817692192271352,0.008230765350162983
1761307257645384200,9.76838427734375,-0.0015022892039269209,0.0003576625313144177,0.009769806638360023
1761307257655312400,9.7783125,-0.0018165421206504107,-0.000028495824153651483,0.010936803184449673
1761307257665241300,9.788241455078126,-0.0007185208378359675,0.0015579492319375277,0.007219563238322735
1761307257675169300,9.798169189453125,-0.003858121344819665,0.0000673779723001644,0.010597250424325466
1761307257685097200,9.80809716796875,-0.0003062635369133204,-0.0003475425182841718,0.006866694428026676
1761307257695025200,9.818025146484375,-0.00036751621519215405,0.000996821210719645,0.008136489428579807
1761307257704953000,9.827953125,0.0009763148264028132,0.0005510080372914672,0.009777262806892395
1761307257714881300,9.83788134765625,-0.0005249090609140694,-0.0014729943359270692,0.008547681383788586
1761307257724809200,9.847809326171875,-0.002906840294599533,-0.0012362393317744136,0.00752023421227932
1761307257734737200,9.857737060546874,0.0006676545017398894,0.0014940333785489202,0.00902758352458477
1761307257744665000,9.8676650390625,-0.002320678671821952,0.00030652983696199954,0.007739146240055561
1761307257754593000,9.877593017578125,0.004687163513153791,0.0007821703911758959,0.006246710661798716
1761307257764521200,9.887521240234374,0.0002639192680362612,0.0013430321123450994,0.008020642213523388
1761307257774449200,9.89744921875,-0.0020295949652791023,0.001862082164734602,0.010330401360988617
1761307257784377000,9.907377197265625,-0.001534779672510922,0.0001073253879440017,0.01136690378189087
1761307257794305000,9.917304931640626,-0.00010812433902174234,-0.002433330286294222,0.00726536987349391
1761307257804233000,9.92723291015625,-0.00006524744821945205,0.0007028082036413252,0.009836917743086815
1761307257814161400,9.937161376953124,-0.0006322344415821135,-0.0021252024453133345,0.007336209993809462
1761307257824089300,9.94708935546875,0.0013787185307592154,0.006042446009814739,0.008344216272234917
1761307257834017300,9.957017333984375,-0.0015523566398769617,0.0022335932590067387,0.010307764634490013
1761307257843945200,9.9669453125,-0.0001483380765421316,0.0038037928752601147,0.009737848304212093
1761307257853873200,9.976873046875,-0.0006202502408996224,0.0024461133871227503,0.0073532541282474995
1761307257863801300,9.98680126953125,0.000922252656891942,0.0001901497016660869,0.008713596500456333
1761307257873729300,9.996729248046876,-0.00245117349550128,0.0019044264918193221,0.008770056068897247
1761307257883657200,10.0066572265625,-0.0001155811914941296,-0.001315335277467966,0.006735933478921652
1761307257893585200,10.016585205078124,-0.00009134642459684983,0.0032631712965667248,0.010252637788653374
1761307257903513000,10.02651318359375,-0.0018277274211868644,0.0020442423410713673,0.008309595286846161
1761307257913441300,10.036441162109375,-0.004325239919126034,0.00048363005043938756,0.00893703568726778
1761307257923369200,10.046369140625,0.0004367584188003093,0.0008436894277110696,0.009531186893582344
1761307257933297200,10.056297119140625,-0.00036911413189955056,0.002296976512297988,0.008565524592995644
1761307257943225000,10.06622509765625,-0.0005829659639857709,0.002127599436789751,0.010113886557519436
1761307257953153000,10.076153076171876,0.0024434502702206373,0.0012213257141411304,0.01007820013910532
1761307257963081200,10.086081298828125,-0.0012905678013339639,0.0006524744676426053,0.007187605369836092
1761307257973009200,10.096009033203124,-0.002159823663532734,0.0007925567333586514,0.009740778245031834
1761307257982937000,10.10593701171875,-0.00028522455249913037,0.0002436792419757694,0.008104265667498112
1761307257992865000,10.115864990234375,0.0014927018200978637,0.001683384063653648,0.012415923178195953
1761307258002793000,10.12579296875,0.001561944023706019,0.0021084246691316366,0.010405236855149269
1761307258012721400,10.135721435546875,0.001900964416563511,0.0015222628135234118,0.008976451121270657
1761307258022649300,10.1456494140625,-0.0004426173691172153,0.0014737932942807674,0.009376457892358303
1761307258032577300,10.155577392578126,-0.0028072381392121315,0.0008623315370641649,0.008279767818748951
1761307258042505200,10.165505126953125,-0.0006860303110443056,0.0009954896522685885,0.009237973019480705
1761307258052433200,10.17543310546875,0.00010759170982055366,0.0034503915812820196,0.009829461574554443
1761307258062361300,10.185361328125,0.0006383596919476986,0.004593420308083296,0.008187090046703815
1761307258072289300,10.195289306640625,0.0011576761025935411,0.0003837615076918155,0.00884835235774517
1761307258082217200,10.20521728515625,0.0014602112350985408,0.0012572783743962646,0.00888057705014944
1761307258092145200,10.215145263671875,-0.0013105415273457766,0.0018349179299548268,0.010612696409225464
1761307258102073000,10.225072998046874,-0.00355878216214478,-0.0007488809060305357,0.010686999186873436
1761307258112001300,10.235001220703126,-0.0021939121652394533,0.004355067387223244,0.008201204240322113
1761307258121929200,10.24492919921875,0.002124936319887638,-0.00038589202449657023,0.010040117427706718
1761307258131857200,10.254857177734374,-0.0010330402292311192,0.0036487970501184464,0.009767675772309303
1761307258141785000,10.26478515625,0.000474575295811519,0.003760383464396,0.011094729416072369
1761307258151713000,10.274713134765625,0.00012596751912496984,-0.0024048343766480684,0.006936469115316868
1761307258161641200,10.28464111328125,-0.002581668319180608,0.00020746025256812572,0.009375392459332943
1761307258171569200,10.294569091796875,-0.0027483822777867317,0.001455151243135333,0.009178850799798965
1761307258181497000,10.3044970703125,-0.00034727618913166225,0.0006591323763132095,0.010612164624035358
1761307258191425000,10.314425048828125,-0.0005344964447431266,0.002115615177899599,0.00962786003947258
1761307258201353000,10.32435302734375,0.0020421119406819344,0.002694586291909218,0.00854608416557312
1761307258211281400,10.334281494140624,-0.0015068164793774486,0.001067661214619875,0.011084875091910362
1761307258221209300,10.344209228515625,-0.000999750685878098,0.0014942996203899384,0.008436094969511032
1761307258231137300,10.35413720703125,-0.0024530377704650164,0.0008988168556243181,0.00774686923250556
1761307258241065200,10.364065185546876,-0.00021758026559837162,-0.00032863407977856696,0.010762899182736874
1761307258250993200,10.3739931640625,0.0029997846577316523,0.00049108691746369,0.006946056615561247
1761307258260921300,10.38392138671875,0.0013733921805396676,0.004236290231347084,0.010039851069450378
1761307258270849300,10.393849365234376,-0.0025595640763640404,-0.0003888215287588537,0.009918144904077053
1761307258280777200,10.403777099609375,-0.001535046030767262,0.0013856426812708378,0.00968804769217968
1761307258290705200,10.413705078125,0.00014647385978605598,-0.00041332258842885494,0.009339972399175167
1761307258300633000,10.423633056640625,-0.0006998787284828722,-0.002433063928037882,0.009348760358989239
1761307258310561300,10.433561279296875,0.00007217166421469301,0.002127865795046091,0.011314972303807735
1761307258320489200,10.4434892578125,-0.002079928759485483,0.0014096111990511417,0.007927165366709232
1761307258330417200,10.453417236328125,-0.00026738137239590287,0.001961151836439967,0.008649148046970367
1761307258340345000,10.463344970703124,-0.00022157499915920198,0.00010439591278554872,0.009795905090868473
1761307258350273000,10.47327294921875,-0.00041092574247159064,0.0008932242053560913,0.011484349146485329
1761307258360201200,10.483201171875,-0.0009297095239162445,0.0027569043450057507,0.008372179232537746
1761307258370129200,10.493129150390626,0.001088433898985386,0.004485561978071928,0.010335728526115417
1761307258380057000,10.50305712890625,-0.0004293015517760068,0.002435460686683655,0.007508516311645508
1761307258389985000,10.512985107421875,-0.00276089902035892,-0.00012197277828818187,0.007666707970201969
1761307258399913000,10.522912841796876,-0.002264219569042325,0.001600293442606926,0.005079447291791439
1761307258409841200,10.532841064453125,0.0005249090609140694,0.0015933692920953035,0.009497631341218948
1761307258419769000,10.54276904296875,-0.004807005636394024,-0.00016192019393201917,0.009375126101076603
1761307258429697000,10.552697021484375,-0.0012532835826277733,-0.0016200009267777205,0.008353803306818008
1761307258439625200,10.562625244140625,-0.002816825406625867,-0.00011611382069531828,0.008837167173624039
1761307258449553200,10.57255322265625,0.00016724651504773647,0.0020184097811579704,0.009882990270853043
1761307258459481300,10.5824814453125,0.0022333269007503986,0.0025302693247795105,0.010865431278944016
1761307258469409300,10.5924091796875,0.0006141249323263764,0.00030599720776081085,0.010733870789408684
1761307258479337200,10.602337158203126,0.0001246359315700829,0.004512992687523365,0.009291502647101879
1761307258489265200,10.61226513671875,-0.0009241168736480176,-0.0025542378425598145,0.009781790897250175
1761307258499193000,10.622193115234374,-0.0009028115891851485,-0.0005281048361212015,0.009432383812963963
1761307258509121300,10.632121337890625,0.00014141385327093303,0.002514290390536189,0.008220645599067211
1761307258519049200,10.64204931640625,0.0014442323008552194,0.0005819007055833936,0.008139952085912228
1761307258528977200,10.65197705078125,-0.00015206649550236762,0.002240251051262021,0.009304019622504711
1761307258538905000,10.661905029296875,-0.000648479734081775,0.003314836649224162,0.008930910378694534
1761307258548833000,10.6718330078125,-0.0034224283881485462,0.0002388855500612408,0.009336776100099087
1761307258558761200,10.68176123046875,0.00008255799184553325,-0.0003201119543518871,0.009139702655375004
1761307258568689200,10.691689208984375,0.0008841694798320532,-0.00047830372932367027,0.006880809087306261
1761307258578617000,10.7016171875,-0.0026841999497264624,0.0012839100090786815,0.007354319095611572
1761307258588545000,10.711544921875,0.0014165353495627642,0.002686330582946539,0.01059458777308464
1761307258598473000,10.721472900390625,0.0007054713787510991,0.0008210525847971439,0.00845686811953783
1761307258608401200,10.731401123046876,-0.0013422331539914012,-0.0013672668719664216,0.009798302315175533
1761307258618329000,10.7413291015625,0.001603489276021719,-0.0006548712844960392,0.010012154467403889
1761307258628257000,10.751257080078124,-0.0008226504432968795,0.00202320353128016,0.007927165366709232
1761307258638185200,10.761185302734376,-0.0004239752306602895,-0.0013728595804423094,0.008010788820683956
1761307258648113200,10.771113037109375,0.0014721954939886928,0.0027899276465177536,0.006909038871526718
1761307258658041300,10.781041259765624,0.00123783724848181,0.00043356261448934674,0.008429969660937786
1761307258667969300,10.79096923828125,0.0003147856332361698,0.0006372944335453212,0.009789513424038887
1761307258677897200,10.800897216796875,-0.0015904398169368505,-0.001219727797433734,0.009986055083572865
1761307258687825200,10.8108251953125,0.00005193164179218002,0.000958205375354737,0.012356268242001534
1761307258697753000,10.820753173828125,-0.0007576693315058947,0.0022096247412264347,0.007674431428313255
1761307258707681300,10.830681396484374,0.00012223910016473383,0.0009651295840740204,0.009887784719467163
1761307258717609200,10.840609130859375,0.0011659319279715419,-0.0006988134700804949,0.008439291268587112
1761307258727537200,10.850537109375,-0.0027896612882614136,-0.0022418489679694176,0.00965742114931345
1761307258737465000,10.860465087890624,-0.0024194817524403334,0.0013171994360163808,0.010027600452303886
1761307258747393000,10.87039306640625,-0.00005219795639277436,0.0006242449744604528,0.010820423252880573
1761307258757321200,10.8803212890625,-0.0012490225490182638,0.0017097494564950466,0.00929283443838358
1761307258767249200,10.890249267578126,-0.003989415243268013,0.0014759238110855222,0.007398793939501047
1761307258777177000,10.900177001953125,0.0001310275256400928,-0.0006095975404605269,0.011061705648899078
1761307258787105000,10.91010498046875,-0.00016698020044714212,0.0006356965750455856,0.00866246409714222
1761307258797033000,10.920032958984375,0.000809068325906992,-0.0021339908707886934,0.008783903904259205
1761307258806960000,10.929960205078125,-0.0034194989129900932,-0.0008122641011141241,0.009848102927207947
1761307258816888000,10.93988818359375,-0.0014887070283293724,0.0005187837523408234,0.006041381042450666
1761307258826816000,10.94981591796875,0.0020572920329868793,0.0023193468805402517,0.007625428959727287
1761307258836744200,10.959744140625,-0.001543568097986281,-0.0004964132094755769,0.010792993009090424
1761307258846673200,10.969673095703126,0.0006045375484973192,0.002635730430483818,0.007533017545938492
1761307258856600000,10.97960009765625,-0.0020911141764372587,0.003924700431525707,0.010634002275764942
1761307258866528000,10.989528076171876,-0.0016679377295076847,0.0008101335843093693,0.008775648660957813
1761307258876456200,10.999456298828125,-0.002459961920976639,0.003178216516971588,0.008501875214278698
1761307258886384000,11.009384033203125,-0.005805691238492727,-0.0015744607662782073,0.008135956712067127
1761307258896312300,11.019312255859376,-0.0011150655336678028,0.003269562730565667,0.008317318744957447
1761307258906240300,11.029240234375,-0.0009454221581108868,-0.0012998889433220029,0.009469934739172459
1761307258916168200,11.039168212890624,-0.0017014936311170459,-0.0003534014686010778,0.00936074461787939
1761307258926096100,11.04909619140625,-0.0018218684708699584,0.0004780374001711607,0.010009490884840488
1761307258936024000,11.059024169921875,-0.000431432097684592,0.0016703346045687795,0.007126885466277599
1761307258945952300,11.0689521484375,0.0014029532903805375,0.002968891989439726,0.008466721512377262
1761307258955880200,11.078880126953125,0.0013427657540887594,0.003849865635856986,0.008044610731303692
1761307258965808000,11.08880810546875,-0.00023675501870457083,-0.001588575541973114,0.009299758821725845
1761307258975736000,11.098736083984376,0.0012639362830668688,0.002855441300198436,0.008472846820950508
1761307258985664300,11.108664306640625,-0.0014836470363661647,-0.0018471685471013188,0.008476043120026588
1761307258995592200,11.11859228515625,-0.0007888282998465002,0.0010314423125237226,0.008381234481930733
1761307259005520100,11.12852001953125,-0.0006399576086550951,0.000022370553779182956,0.009681123308837414
1761307259015448000,11.138447998046875,-0.002329467097297311,0.0020911141764372587,0.008133027702569962
1761307259025376000,11.1483759765625,0.00027510453946888447,-0.0008735168376006186,0.011022291146218777
1761307259035304200,11.15830419921875,0.0010735202813521028,0.002255431143566966,0.007028880994766951
1761307259045232000,11.168232177734374,-0.002549710450693965,-0.0024413196370005608,0.008648348972201347
1761307259055160000,11.17816015625,-0.002433063928037882,0.0013076120521873236,0.009254750795662403
1761307259065088000,11.188087890625,0.00036671728594228625,-0.001609081868082285,0.009038502350449562
1761307259075016200,11.19801611328125,-0.0023845944087952375,-0.0006719155353493989,0.009948504157364368
1761307259084944100,11.207944091796875,-0.001371527905575931,-0.000008788431841821875,0.009473929181694984
1761307259094872300,11.217872314453125,-0.0000655137628200464,-0.0004170510219410062,0.00996155384927988
1761307259104800300,11.22780029296875,-0.0009262474486604333,-0.002083124592900276,0.00933118350803852
1761307259114728200,11.237728271484375,-0.0007808388327248394,-0.00017656758427619934,0.008188420906662941
1761307259124656000,11.24765625,-0.002082858234643936,0.0019185412675142288,0.009239571169018745
1761307259134584000,11.257583984375,-0.00044314999831840396,0.004512193612754345,0.008785768412053585
1761307259144512300,11.26751220703125,0.0014122743159532547,0.0022602248936891556,0.009128783829510212
1761307259154440200,11.277440185546874,-0.00024208133982028812,0.00028522455249913037,0.010929613374173641
1761307259164368100,11.2873681640625,-0.003690076060593128,0.0008285093936137855,0.009893643669784069
1761307259174296000,11.297296142578125,-0.000749679864384234,-0.00047830372932367027,0.010852647945284843
1761307259184224300,11.307224365234376,-0.002909503411501646,0.0036453348584473133,0.008934639394283295
1761307259194152200,11.317152099609375,-0.0013273194199427962,0.002035187790170312,0.008432100526988506
1761307259204080000,11.327080078125,-0.0022005699574947357,-0.0009494169498793781,0.008963135071098804
1761307259214008000,11.337008056640625,-0.004315652418881655,0.0013659353135153651,0.006897054612636566
1761307259223936000,11.34693603515625,0.0022924491204321384,-0.0012261193478479981,0.01028432883322239
1761307259233864200,11.3568642578125,-0.000005592638444795739,0.0009622001089155674,0.008245945908129215
1761307259243792100,11.366792236328125,0.00025832661776803434,0.0011574097443372011,0.008898686617612839
1761307259253720000,11.376719970703125,-0.002868224401026964,0.0006929545197635889,0.008976717479526997
1761307259263648000,11.38664794921875,-0.0043899547308683395,0.00008255799184553325,0.007801996544003487
1761307259273576200,11.396576171875,0.00023169501218944788,0.001047687605023384,0.009050220251083374
1761307259283504000,11.406504150390624,-0.0018487664638087153,0.0020719394087791443,0.006196376867592335
1761307259293432300,11.416432373046876,-0.0001174454009742476,0.0021076255943626165,0.009312807582318783
1761307259303360300,11.4263603515625,-0.0019832560792565346,-0.0014570154016837478,0.009844907559454441
1761307259313288200,11.4362880859375,-0.001862082164734602,-0.0010159959783777595,0.0070576430298388
1761307259323216100,11.446216064453125,-0.002945456188172102,0.0012887036427855492,0.009268066845834255
1761307259333144000,11.45614404296875,-0.004132693167775869,0.001612544059753418,0.006976949516683817
1761307259343072300,11.466072265625,-0.0014596786350011826,-0.00030786142451688647,0.01134080532938242
1761307259353000200,11.476000244140625,-0.000589091214351356,0.0017486315919086337,0.00893730204552412
1761307259362927400,11.48592724609375,-0.0008458199445158243,-0.0001179780374513939,0.00854182243347168
1761307259372855600,11.49585546875,-0.0016591493040323257,0.0021933794487267733,0.010813232511281967
1761307259382783500,11.505783447265625,0.00002210423735959921,0.0031076427549123764,0.008082161657512188
1761307259392711400,11.51571142578125,0.00022450447431765497,-0.0006380933918990195,0.008747684769332409
1761307259402639600,11.5256396484375,0.0015811186749488115,0.001139566651545465,0.006511961575597525
1761307259412567600,11.535567626953124,0.0000018642127770363004,0.0009989517275243998,0.008621717803180218
1761307259422495500,11.54549560546875,-0.002680737990885973,-0.0029947245493531227,0.009411877952516079
1761307259432423700,11.555423583984375,-0.0012042814632877707,0.0006828344776295125,0.008613727986812592
1761307259442351600,11.5653515625,-0.0010727213229984045,0.0009374326909892261,0.010009757243096828
1761307259452279600,11.575279541015625,-0.001291100517846644,0.0034495925065129995,0.006284527480602264
1761307259462207500,11.58520751953125,0.00020106865849811584,0.0014255901332944632,0.007481351960450411
1761307259472135400,11.595135498046876,-0.0003784351865760982,0.0008615325787104666,0.013185310177505016
1761307259482063600,11.605063720703125,-0.0003350256592966616,0.002650377806276083,0.006905310321599245
1761307259491991600,11.614991455078124,0.000005858954409632133,-0.0012514194240793586,0.010628942400217056
1761307259501919500,11.62491943359375,-0.0010090717114508152,-0.00018881811411119998,0.007133543025702238
1761307259511847400,11.634847412109375,-0.0018548916559666395,0.0010431602131575346,0.008242216892540455
1761307259521775400,11.644775390625,-0.0015632755821570754,0.0017369136912748218,0.009123989380896091
1761307259531703600,11.65470361328125,-0.000907338981050998,-0.0012804478174075484,0.01164520438760519
