time,seconds_elapsed,z,y,x
1761838594834570800,0.01357080078125,0.15748615562915802,-0.3506152033805847,-0.062367867678403854
1761838594844640500,0.023640625,0.13503612577915192,-0.37989336252212524,-0.02209881693124771
1761838594854710500,0.03371044921875,0.11921216547489166,-0.4109301269054413,0.020800713449716568
1761838594864780500,0.043780517578125,0.10432342439889908,-0.4567933678627014,0.06721678376197815
1761838594874849500,0.053849609375,0.09116767346858978,-0.5127725005149841,0.10994241386651993
1761838594884919600,0.06391943359375,0.0733177661895752,-0.5752745866775513,0.14843980967998505
1761838594894989600,0.073989501953125,0.0341850146651268,-0.6202420592308044,0.1628568321466446
1761838594905059600,0.0840595703125,-0.007757432293146849,-0.6172062158584595,0.1437099725008011
1761838594915128800,0.09412890625,-0.045605212450027466,-0.5722861289978027,0.10267066210508347
1761838594925198600,0.104198486328125,-0.06649567931890488,-0.513999879360199,0.040009863674640656
1761838594935268600,0.1142685546875,-0.08544354140758514,-0.4420899748802185,-0.02783496305346489
1761838594945338400,0.12433837890625,-0.09722613543272018,-0.3648337721824646,-0.10037323832511902
1761838594955404800,0.13440478515625,-0.11609223484992981,-0.27516114711761475,-0.15813161432743073
1761838594965473800,0.144473876953125,-0.13566018640995026,-0.17662064731121063,-0.2133072465658188
1761838594975543800,0.154543701171875,-0.1556629240512848,-0.07580828666687012,-0.25245437026023865
1761838594985613800,0.16461376953125,-0.16739314794540405,0.00043947435915470123,-0.27857834100723267
1761838594995683800,0.174683837890625,-0.17081956565380096,0.0469510480761528,-0.2891137897968292
1761838595005752800,0.1847529296875,-0.17163799703121185,0.08333483338356018,-0.2885504364967346
1761838595015822800,0.19482275390625,-0.16977643966674805,0.10457727313041687,-0.2701719403266907
1761838595025892600,0.204892578125,-0.1695210486650467,0.10419430583715439,-0.24328359961509705
1761838595035963000,0.214962890625,-0.1763155609369278,0.09782029688358307,-0.1960042268037796
1761838595046033000,0.225032958984375,-0.18906448781490326,0.10000655055046082,-0.1467188000679016
1761838595056102000,0.235101806640625,-0.20968614518642426,0.11689259111881256,-0.08963046967983246
1761838595066172000,0.245171875,-0.2253960520029068,0.16114380955696106,-0.03543955832719803
1761838595076241700,0.25524169921875,-0.22667942941188812,0.20273412764072418,0.002264412585645914
1761838595086312000,0.26531201171875,-0.21490806341171265,0.23788879811763763,0.03225921466946602
1761838595096380700,0.275380615234375,-0.18964266777038574,0.2598947286605835,0.03930247947573662
1761838595106450700,0.28545068359375,-0.15388087928295135,0.2563858926296234,0.033057697117328644
1761838595116521000,0.29552099609375,-0.10801777988672256,0.2306315153837204,0.018436407670378685
1761838595126590700,0.3055908203125,-0.065088652074337,0.18756213784217834,0.010358737781643867
1761838595136660000,0.315659912109375,-0.037357959896326065,0.13859273493289948,0.011355826631188393
1761838595146729700,0.325729736328125,-0.03458492085337639,0.08468960970640182,0.025335164740681648
1761838595156799700,0.3357998046875,-0.052441149950027466,0.030153928324580193,0.030731795355677605
1761838595166869800,0.345869873046875,-0.08648905903100967,-0.019190851598978043,0.018391616642475128
1761838595176939800,0.355939697265625,-0.1183852106332779,-0.045505814254283905,-0.014613736420869827
1761838595187008800,0.3660087890625,-0.1521117091178894,-0.04729219153523445,-0.05342748016119003
1761838595197078800,0.376078857421875,-0.17972443997859955,-0.021743688732385635,-0.09969404339790344
1761838595207148800,0.386148681640625,-0.20049363374710083,0.0301663801074028,-0.1417325884103775
1761838595217218800,0.39621875,-0.20310485363006592,0.09628388285636902,-0.1762404888868332
1761838595227287800,0.406287841796875,-0.1882239133119583,0.15358473360538483,-0.2061607837677002
1761838595237357800,0.41635791015625,-0.15890491008758545,0.1889248788356781,-0.2246239334344864
1761838595247427600,0.426427490234375,-0.1323026716709137,0.21381647884845734,-0.23160812258720398
1761838595257497900,0.436497802734375,-0.10039107501506805,0.236464262008667,-0.2242109179496765
1761838595267566800,0.44656689453125,-0.07084875553846359,0.23448635637760162,-0.20870935916900635
1761838595277636900,0.456636962890625,-0.02701711468398571,0.20329834520816803,-0.19590142369270325
1761838595287707000,0.466706787109375,0.023584045469760895,0.15926064550876617,-0.1906859278678894
1761838595297776600,0.476776611328125,0.07584245502948761,0.12953977286815643,-0.177156001329422
1761838595307847000,0.486846923828125,0.12820515036582947,0.12616850435733795,-0.16104112565517426
1761838595317916000,0.496916015625,0.16022033989429474,0.12844416499137878,-0.15660643577575684
1761838595327985700,0.506985595703125,0.177061066031456,0.14025576412677765,-0.16837464272975922
1761838595338056000,0.517055908203125,0.1798483282327652,0.1693420112133026,-0.189128115773201
1761838595348125700,0.527125732421875,0.19149620831012726,0.21905578672885895,-0.21542438864707947
1761838595358195000,0.53719482421875,0.22399556636810303,0.28446435928344727,-0.23887725174427032
1761838595368265000,0.547264892578125,0.2661122679710388,0.3196233808994293,-0.25246474146842957
1761838595378334700,0.557334716796875,0.2940749228000641,0.3277928829193115,-0.2574262022972107
1761838595388404700,0.56740478515625,0.31923243403434753,0.27872970700263977,-0.2474229782819748
1761838595398473700,0.5774736328125,0.3401281237602234,0.19260947406291962,-0.22227661311626434
1761838595408543700,0.587543701171875,0.4221247434616089,-0.03675759211182594,-0.19700028002262115
1761838595418614000,0.597614013671875,0.46872979402542114,-0.06472797691822052,-0.18644855916500092
1761838595428683800,0.607683837890625,0.5080923438072205,-0.22141128778457642,-0.18801099061965942
1761838595438753800,0.61775390625,0.5568670630455017,-0.34683099389076233,-0.18531933426856995
1761838595448822800,0.62782275390625,0.5186057686805725,-0.4086049199104309,-0.20683985948562622
1761838595458892800,0.637892822265625,0.5001441836357117,-0.4378112852573395,-0.19910922646522522
1761838595468962800,0.647962890625,0.4940260052680969,-0.36730140447616577,-0.1427207887172699
1761838595479032800,0.65803271484375,0.520469605922699,-0.21035493910312653,-0.055827170610427856
1761838595489101800,0.668101806640625,0.5745753645896912,-0.139919713139534,0.04341157153248787
1761838595499171800,0.678171875,0.6461371779441833,0.01793355867266655,0.14605511724948883
1761838595509241900,0.688241943359375,0.6376011371612549,0.24564330279827118,0.22214184701442719
1761838595519312000,0.698311767578125,0.5745886564254761,0.3933912217617035,0.27819979190826416
1761838595529380900,0.708380859375,0.46404439210891724,0.4749121069908142,0.32627007365226746
1761838595539451000,0.718450927734375,0.344662606716156,0.4467904567718506,0.3596581220626831
1761838595549520600,0.728520751953125,0.28274431824684143,0.3001788258552551,0.3687238097190857
1761838595559591000,0.7385908203125,0.2778654098510742,0.16070054471492767,0.3590943515300751
1761838595569661000,0.748660888671875,0.3107672929763794,0.132912278175354,0.32666918635368347
1761838595579730000,0.75872998046875,0.3625849485397339,0.18364444375038147,0.2882547080516815
1761838595589800000,0.768800048828125,0.4370744526386261,0.2706277370452881,0.23820166289806366
1761838595599869700,0.77886962890625,0.5280368328094482,0.3663278818130493,0.18533311784267426
1761838595609939700,0.788939697265625,0.6156189441680908,0.45753350853919983,0.14571067690849304
1761838595620008700,0.7990087890625,0.6884667873382568,0.5289379358291626,0.12424612790346146
1761838595630078700,0.80907861328125,0.7430891394615173,0.5610730648040771,0.11939423531293869
1761838595640149000,0.81914892578125,0.7755447626113892,0.533959686756134,0.12754270434379578
1761838595650218800,0.82921875,0.7891319394111633,0.4712928831577301,0.1464991271495819
1761838595660287700,0.839287841796875,0.7856959104537964,0.38843050599098206,0.17822644114494324
1761838595670357800,0.849357666015625,0.7767723202705383,0.2931797504425049,0.2116982340812683
1761838595680427800,0.859427734375,0.756696343421936,0.20377716422080994,0.24203509092330933
1761838595690497800,0.869497802734375,0.7359873652458191,0.11205808818340302,0.26558011770248413
1761838595700567800,0.87956787109375,0.7143521308898926,0.029367998242378235,0.2847226560115814
1761838595710636800,0.88963671875,0.7141217589378357,-0.006231444887816906,0.30901339650154114
1761838595720706800,0.899706787109375,0.6664279699325562,0.004946641158312559,0.3090895712375641
1761838595730776800,0.90977685546875,0.5883480906486511,0.0027766823768615723,0.275381863117218
1761838595740846800,0.919846923828125,0.5173441767692566,0.01793592795729637,0.19323773682117462
1761838595750915800,0.929915771484375,0.45701518654823303,0.05627875775098801,0.07591769844293594
1761838595760985900,0.93998583984375,0.4074319303035736,0.08072604238986969,-0.056880030781030655
1761838595771055600,0.9500556640625,0.3829076886177063,0.06920285522937775,-0.17697197198867798
1761838595781126000,0.9601259765625,0.36204686760902405,0.06858393549919128,-0.26473620533943176
1761838595791196000,0.97019580078125,0.3349282145500183,0.11027288436889648,-0.3029581308364868
1761838595801264600,0.9802646484375,0.29570865631103516,0.17827723920345306,-0.29867708683013916
1761838595811335000,0.9903349609375,0.25365301966667175,0.2309992015361786,-0.2711765468120575
1761838595821404700,1.00040478515625,0.20047767460346222,0.2281043380498886,-0.24706855416297913
1761838595831474700,1.010474609375,0.13029807806015015,0.16850334405899048,-0.2282269150018692
1761838595841544000,1.0205439453125,0.024979908019304276,0.030571838840842247,-0.21299868822097778
1761838595851613700,1.03061376953125,-0.11435990035533905,-0.1488267183303833,-0.1861269623041153
1761838595861684000,1.04068408203125,-0.2879481911659241,-0.2992361783981323,-0.13039420545101166
1761838595871753700,1.050753662109375,-0.49160996079444885,-0.373233437538147,-0.03850683197379112
1761838595881822700,1.06082275390625,-0.6852273941040039,-0.39058661460876465,0.07725945115089417
1761838595891893000,1.07089306640625,-0.8477172255516052,-0.4284866452217102,0.1686815321445465
1761838595901962800,1.080962646484375,-0.9570050835609436,-0.5298479199409485,0.21920782327651978
1761838595912032800,1.09103271484375,-1.047208309173584,-0.6418583393096924,0.22058221697807312
1761838595922102800,1.101102783203125,-1.151811957359314,-0.6963511109352112,0.1820523887872696
1761838595932171800,1.111171875,-1.2772339582443237,-0.6541701555252075,0.10816732048988342
1761838595942241800,1.12124169921875,-1.3861933946609497,-0.5591560006141663,0.0004789438098669052
1761838595952312000,1.13131201171875,-1.440694808959961,-0.4788229167461395,-0.1455300748348236
1761838595962382000,1.141382080078125,-1.3971842527389526,-0.43565574288368225,-0.29803916811943054
1761838595972451000,1.151451171875,-1.2613621950149536,-0.4177604615688324,-0.42572468519210815
1761838595982521000,1.16152099609375,-1.0794190168380737,-0.41552048921585083,-0.49204057455062866
1761838595992590800,1.1715908203125,-0.9104931950569153,-0.4447323679924011,-0.49976015090942383
1761838596002660900,1.181660888671875,-0.7909079790115356,-0.5281572341918945,-0.46405595541000366
1761838596012731100,1.191731201171875,-0.7179819345474243,-0.6884442567825317,-0.40189599990844727
1761838596022800000,1.2017998046875,-0.6952374577522278,-0.8928772807121277,-0.3234131932258606
1761838596032870100,1.2118701171875,-0.7212455868721008,-1.086366057395935,-0.2381904125213623
1761838596042940000,1.22193994140625,-0.7960074543952942,-1.2368258237838745,-0.16324880719184875
1761838596053010000,1.232010009765625,-0.910235583782196,-1.3104922771453857,-0.10240761190652847
1761838596063079000,1.242078857421875,-1.0545611381530762,-1.2280242443084717,-0.07809588313102722
1761838596073149000,1.25214892578125,-1.1962791681289673,-0.994520902633667,-0.10006170719861984
1761838596083219000,1.262218994140625,-1.307402491569519,-0.6970444917678833,-0.17642678320407867
1761838596093289000,1.2722890625,-1.374802827835083,-0.39954498410224915,-0.2999873459339142
1761838596103359000,1.28235888671875,-1.3871679306030273,-0.11512631177902222,-0.43557924032211304
1761838596113428000,1.292427978515625,-1.3514668941497803,0.11635637283325195,-0.5576077103614807
1761838596123498000,1.302498046875,-1.2768070697784424,0.2516036629676819,-0.6435779929161072
1761838596133568000,1.312568115234375,-1.173372507095337,0.2539511024951935,-0.6764819622039795
1761838596143638000,1.322637939453125,-1.0624550580978394,0.14828592538833618,-0.6507561206817627
1761838596153707000,1.33270703125,-0.9434717893600464,0.035305701196193695,-0.5549972653388977
1761838596163776800,1.34277685546875,-0.8333292603492737,-0.056028470396995544,-0.3884618282318115
1761838596173847000,1.352846923828125,-0.728712260723114,-0.1241532638669014,-0.17313134670257568
1761838596183917000,1.3629169921875,-0.6175284385681152,-0.22088804841041565,0.07163314521312714
1761838596193986800,1.37298681640625,-0.5150032639503479,-0.3515791893005371,0.3129446506500244
1761838596204056000,1.38305615234375,-0.44112876057624817,-0.5037711262702942,0.550134539604187
1761838596214125800,1.393125732421875,-0.3812319040298462,-0.6427306532859802,0.7657462954521179
1761838596224195800,1.40319580078125,-0.3254903554916382,-0.7566503286361694,0.9652175903320312
1761838596234266000,1.41326611328125,-0.25232410430908203,-0.8423763513565063,1.134231686592102
1761838596244334800,1.4233349609375,-0.16122350096702576,-0.8827746510505676,1.2773078680038452
1761838596254405000,1.433405029296875,-0.07894231379032135,-0.8572796583175659,1.3946479558944702
1761838596264475000,1.443474853515625,-0.013127617537975311,-0.7988576292991638,1.481107234954834
1761838596274545000,1.453544921875,0.031521931290626526,-0.652586042881012,1.528676986694336
1761838596284615000,1.463614990234375,0.09477386623620987,-0.4050212502479553,1.532047986984253
1761838596294684000,1.473683837890625,0.19132670760154724,-0.08425641059875488,1.4886445999145508
1761838596304754000,1.48375390625,0.32699427008628845,0.23423048853874207,1.4044023752212524
1761838596314824000,1.493823974609375,0.48385050892829895,0.4486323893070221,1.2642878293991089
1761838596324894000,1.50389404296875,0.6182737946510315,0.5317307114601135,1.0689265727996826
1761838596334963200,1.513963134765625,0.7102060317993164,0.5427603125572205,0.8589727282524109
1761838596345033000,1.524032958984375,0.7512797117233276,0.5665044784545898,0.6675625443458557
1761838596355103000,1.53410302734375,0.7698567509651184,0.5381538271903992,0.4838578701019287
1761838596365172700,1.5441728515625,0.7841190695762634,0.42464616894721985,0.3216279447078705
1761838596375243000,1.554242919921875,0.7625784277915955,0.2553236186504364,0.18973463773727417
1761838596385312000,1.56431201171875,0.6680148839950562,0.10477354377508163,0.08089977502822876
1761838596395382000,1.574382080078125,0.4877711534500122,-0.038720905780792236,-0.027764515951275826
1761838596405452000,1.5844521484375,0.25401031970977783,-0.12812002003192902,-0.13420841097831726
1761838596415521800,1.594521728515625,0.009930750355124474,-0.02343340590596199,-0.20725977420806885
1761838596425591000,1.604591064453125,-0.19462531805038452,0.32355090975761414,-0.23653003573417664
1761838596435661000,1.6146611328125,-0.3048991858959198,0.843971312046051,-0.23114195466041565
1761838596445730800,1.624730712890625,-0.2910805642604828,1.331443190574646,-0.2265474796295166
1761838596455801000,1.634801025390625,-0.1739456057548523,1.658726453781128,-0.2629948854446411
1761838596465870800,1.644870849609375,-0.0009277439676225185,1.8545238971710205,-0.3393844664096832
1761838596475940000,1.654940185546875,0.19306424260139465,1.9529792070388794,-0.42936334013938904
1761838596486010000,1.665010009765625,0.385101854801178,1.9274264574050903,-0.5136180520057678
1761838596496080000,1.675079833984375,0.5605751276016235,1.7959948778152466,-0.5866806507110596
1761838596506150000,1.68514990234375,0.7052124738693237,1.632826805114746,-0.6243041753768921
1761838596516219000,1.695218994140625,0.8101596832275391,1.4860663414001465,-0.6052311658859253
1761838596526289000,1.705288818359375,0.8535864949226379,1.36467444896698,-0.5281400680541992
1761838596536359200,1.715359130859375,0.829622745513916,1.2949817180633545,-0.39510196447372437
1761838596546429000,1.725428955078125,0.7517159581184387,1.3012182712554932,-0.21998871862888336
1761838596556499000,1.7354990234375,0.6412560343742371,1.319610834121704,-0.04370499029755592
1761838596566568000,1.74556787109375,0.512290358543396,1.2997089624404907,0.11462445557117462
1761838596576638000,1.755637939453125,0.3854316771030426,1.2361363172531128,0.238554909825325
1761838596586708000,1.7657080078125,0.2547580897808075,1.1238816976547241,0.31586965918540955
1761838596596778000,1.775778076171875,0.12355132400989532,0.9605888724327087,0.34903454780578613
1761838596606848000,1.785847900390625,-0.000601778388954699,0.7724527716636658,0.35475316643714905
1761838596616917000,1.7959169921875,-0.12033721804618835,0.5877580642700195,0.3492628335952759
1761838596626987000,1.805987060546875,-0.23279745876789093,0.42125803232192993,0.333035945892334
1761838596637057000,1.81605712890625,-0.3382355868816376,0.260750949382782,0.3156717121601105
1761838596647127000,1.826126953125,-0.44604620337486267,0.14772772789001465,0.3016514778137207
1761838596657196000,1.836196044921875,-0.5439338088035583,0.08830048888921738,0.270914763212204
1761838596667265800,1.846265869140625,-0.5937383770942688,0.048286229372024536,0.2104293256998062
1761838596677336000,1.856336181640625,-0.5982922911643982,0.03780371695756912,0.11059074848890305
1761838596687406000,1.866406005859375,-0.5696843266487122,0.009861564263701439,-0.021082594990730286
1761838596697475800,1.876475830078125,-0.5389260649681091,-0.057238638401031494,-0.1754455268383026
1761838596707545000,1.886545166015625,-0.5282920598983765,-0.07997031509876251,-0.308114618062973
1761838596717614800,1.89661474609375,-0.5565081834793091,-0.1018778458237648,-0.4106125235557556
1761838596727684900,1.906684814453125,-0.6836187243461609,-0.15899518132209778,-0.492288738489151
1761838596737755100,1.916755126953125,-0.9378660321235657,-0.2902391850948334,-0.5737203359603882
1761838596747823900,1.926823974609375,-1.3061987161636353,-0.43434762954711914,-0.6364388465881348
1761838596757894100,1.93689404296875,-1.7324903011322021,-0.49644935131073,-0.6465376019477844
1761838596767964000,1.9469638671875,-2.116246461868286,-0.4347095489501953,-0.6405010223388672
1761838596778034000,1.957033935546875,-2.3304641246795654,-0.39109212160110474,-0.6573688983917236
1761838596788104000,1.96710400390625,-2.3274030685424805,-0.5054053664207458,-0.7355750203132629
1761838596798173000,1.9771728515625,-2.1309564113616943,-0.6666219234466553,-0.8283226490020752
1761838596808243000,1.987242919921875,-1.785903811454773,-0.7727616429328918,-0.8838958740234375
1761838596818313000,1.99731298828125,-1.3676530122756958,-0.9025236368179321,-0.8903332948684692
1761838596828383000,2.007383056640625,-1.0205192565917969,-1.245999813079834,-0.8664607405662537
1761838596838453000,2.017452880859375,-0.8574700951576233,-1.8394460678100586,-0.8303576707839966
1761838596848522000,2.02752197265625,-0.9091727137565613,-2.6132888793945312,-0.7749396562576294
1761838596858592000,2.037592041015625,-1.0963019132614136,-3.38738751411438,-0.6628568172454834
1761838596868661800,2.047661865234375,-1.3038636445999146,-3.894444227218628,-0.43540021777153015
1761838596878732000,2.05773193359375,-1.4835854768753052,-3.958977699279785,-0.09303763508796692
1761838596888800800,2.06780078125,-1.6085636615753174,-3.5855066776275635,0.285934180021286
1761838596898871000,2.07787109375,-1.6654598712921143,-3.000553607940674,0.601137638092041
1761838596908941000,2.087941162109375,-1.6321935653686523,-2.4062955379486084,0.8135036826133728
1761838596919010800,2.0980107421875,-1.5216124057769775,-1.877115249633789,0.9208540916442871
1761838596929081000,2.1080810546875,-1.3532524108886719,-1.431418776512146,0.9557958245277405
1761838596939149800,2.11814990234375,-1.1523008346557617,-1.1321171522140503,0.9263787269592285
1761838596949219800,2.1282197265625,-0.9508429765701294,-1.0296218395233154,0.8688139915466309
1761838596959289300,2.138289306640625,-0.7647988200187683,-1.0513718128204346,0.8069654107093811
1761838596969359400,2.148359375,-0.6160843968391418,-1.0933542251586914,0.7762460708618164
1761838596979428400,2.158428466796875,-0.5189781188964844,-1.1002278327941895,0.7644104361534119
1761838596989498400,2.168498291015625,-0.45730069279670715,-1.0695637464523315,0.7744646668434143
1761838596999568400,2.178568359375,-0.42337310314178467,-0.9728632569313049,0.7766194343566895
1761838597009638400,2.188638427734375,-0.4180121421813965,-0.8043786287307739,0.7483202219009399
1761838597019708400,2.19870849609375,-0.4244495630264282,-0.5554255843162537,0.7081891894340515
1761838597029777400,2.20877734375,-0.44956690073013306,-0.24723424017429352,0.6561886072158813
1761838597039847400,2.218847412109375,-0.48993369936943054,0.06311605870723724,0.6053258776664734
1761838597049917400,2.22891748046875,-0.5464611649513245,0.34777867794036865,0.5430230498313904
1761838597059987200,2.2389873046875,-0.5872188210487366,0.5621475577354431,0.4721236228942871
1761838597070057500,2.249057373046875,-0.6008017659187317,0.6839104890823364,0.4094139039516449
1761838597080126200,2.259126220703125,-0.5687418580055237,0.7976770401000977,0.3574357330799103
1761838597090196500,2.269196533203125,-0.4881328046321869,0.9733529686927795,0.33085763454437256
1761838597100266500,2.2792666015625,-0.3601246774196625,1.2147141695022583,0.32555484771728516
1761838597110336300,2.289336181640625,-0.20667597651481628,1.5158250331878662,0.33190807700157166
1761838597120405500,2.299405517578125,-0.03783809021115303,1.8066391944885254,0.3111315071582794
1761838597130475300,2.309475341796875,0.15825338661670685,1.9156863689422607,0.22250549495220184
1761838597140545300,2.319545166015625,0.37359943985939026,1.7275404930114746,0.044593747705221176
1761838597150615600,2.329615478515625,0.6192770600318909,1.2578041553497314,-0.17886251211166382
1761838597160685300,2.339685302734375,0.8602428436279297,0.7305200099945068,-0.3333092927932739
1761838597170754600,2.349754638671875,1.0533981323242188,0.29116901755332947,-0.35989299416542053
1761838597180824300,2.35982421875,1.2026379108428955,-0.06069858744740486,-0.2665780186653137
1761838597190894300,2.369894287109375,1.3141872882843018,-0.22675679624080658,-0.05016527697443962
1761838597200964400,2.37996435546875,1.3897364139556885,-0.17388315498828888,0.2692405581474304
1761838597211034400,2.390034423828125,1.3934751749038696,0.007107674144208431,0.5880622267723083
1761838597221103400,2.400103271484375,1.3238550424575806,0.22797732055187225,0.8417390584945679
1761838597231173400,2.41017333984375,1.2010273933410645,0.5250723958015442,0.9990738034248352
1761838597241243400,2.420243408203125,1.054658055305481,0.8295827507972717,1.0425760746002197
1761838597251313400,2.4303134765625,0.8972721099853516,1.1016212701797485,0.9667303562164307
1761838597261382400,2.44038232421875,0.7545216679573059,1.3378329277038574,0.8039280772209167
1761838597271452400,2.450452392578125,0.642217218875885,1.5384107828140259,0.5810396075248718
1761838597281522200,2.460522216796875,0.5752283334732056,1.7550437450408936,0.34381401538848877
1761838597291592400,2.470592529296875,0.5715627670288086,1.9954293966293335,0.1073836162686348
1761838597301662500,2.480662353515625,0.6430414915084839,2.189971923828125,-0.11824089288711548
1761838597311731500,2.4907314453125,0.7916733026504517,2.2869887351989746,-0.3332373797893524
1761838597321801500,2.500801513671875,0.9827104210853577,2.3064074516296387,-0.49070730805397034
1761838597331871200,2.510871337890625,1.1501489877700806,2.2702481746673584,-0.5663256049156189
1761838597341941200,2.520941162109375,1.2749301195144653,2.1627697944641113,-0.5594661235809326
1761838597352011500,2.531011474609375,1.3407328128814697,1.9722967147827148,-0.488648384809494
1761838597362080300,2.541080322265625,1.3357962369918823,1.7325669527053833,-0.3721004128456116
1761838597372150500,2.551150634765625,1.2448527812957764,1.4973212480545044,-0.23042529821395874
1761838597382220300,2.56122021484375,1.0608831644058228,1.322424054145813,-0.09262176603078842
1761838597392290300,2.571290283203125,0.8062453269958496,1.1948082447052002,0.028535282239317894
1761838597402359300,2.581359375,0.5207569599151611,1.101508617401123,0.12388376891613007
1761838597412429300,2.59142919921875,0.2544504702091217,1.0162986516952515,0.1988605409860611
1761838597422499300,2.601499267578125,0.044574908912181854,0.9324049949645996,0.24634000658988953
1761838597432569300,2.6115693359375,-0.0944809839129448,0.8562638759613037,0.28209906816482544
1761838597442639400,2.621639404296875,-0.17021845281124115,0.7820815443992615,0.3102145195007324
1761838597452708400,2.631708251953125,-0.20138809084892273,0.6742634773254395,0.3374660909175873
1761838597462778400,2.6417783203125,-0.19869908690452576,0.5114812254905701,0.36599528789520264
1761838597472848400,2.651848388671875,-0.19630463421344757,0.2996448874473572,0.404634565114975
1761838597482918100,2.661918212890625,-0.21698689460754395,0.06909631937742233,0.45099177956581116
1761838597492988400,2.671988525390625,-0.27027007937431335,-0.1628682017326355,0.5053181648254395
1761838597503057200,2.68205712890625,-0.3565422594547272,-0.4102814793586731,0.5796242952346802
1761838597513127400,2.69212744140625,-0.4731397330760956,-0.7718631029129028,0.6594551801681519
1761838597523197400,2.702197509765625,-0.6246079206466675,-1.2966395616531372,0.6993287801742554
1761838597533267200,2.71226708984375,-0.8551524877548218,-1.8647522926330566,0.6789337396621704
1761838597543336400,2.72233642578125,-1.171744704246521,-2.314002752304077,0.6243248581886292
1761838597553406200,2.73240625,-1.5457327365875244,-2.5591282844543457,0.5501095056533813
1761838597563476200,2.742476318359375,-1.9308819770812988,-2.617928981781006,0.4472213089466095
1761838597573546500,2.75254638671875,-2.283773183822632,-2.550676107406616,0.27528390288352966
1761838597583616300,2.7626162109375,-2.56011962890625,-2.451728343963623,0.021233098581433296
1761838597593685500,2.772685546875,-2.7145683765411377,-2.3953945636749268,-0.32935500144958496
1761838597603755300,2.78275537109375,-2.7122726440429688,-2.385009765625,-0.7755955457687378
1761838597613825300,2.7928251953125,-2.5421226024627686,-2.4983320236206055,-1.281994104385376
1761838597623895300,2.802895263671875,-2.2070038318634033,-2.770388126373291,-1.7715216875076294
1761838597633965300,2.81296533203125,-1.728529453277588,-3.0549590587615967,-2.149456739425659
1761838597644034300,2.823034423828125,-1.2025165557861328,-3.238534927368164,-2.3254001140594482
1761838597654104300,2.833104248046875,-0.7660260796546936,-3.336115598678589,-2.274284601211548
1761838597664174300,2.84317431640625,-0.49051275849342346,-3.326983690261841,-2.0398871898651123
1761838597674244400,2.853244384765625,-0.3799380362033844,-3.2254486083984375,-1.663836121559143
1761838597684313300,2.863313232421875,-0.38786908984184265,-3.002037763595581,-1.2079319953918457
1761838597694383400,2.87338330078125,-0.5331354737281799,-2.656003475189209,-0.7329287528991699
1761838597704453000,2.883453125,-0.7706015706062317,-2.238463878631592,-0.3218424618244171
1761838597714523400,2.8935234375,-1.021614670753479,-1.8039000034332275,-0.036575306206941605
1761838597724593400,2.903593505859375,-1.206122636795044,-1.3768975734710693,0.10436995327472687
1761838597734662400,2.913662353515625,-1.2929373979568481,-1.0216587781906128,0.1103639304637909
1761838597744732400,2.923732421875,-1.298817753791809,-0.7632958292961121,0.006633788347244263
1761838597754802400,2.933802490234375,-1.238606572151184,-0.6478211879730225,-0.15300248563289642
1761838597764872200,2.9438720703125,-1.1529150009155273,-0.6535087823867798,-0.335857629776001
1761838597774942500,2.9539423828125,-1.0689069032669067,-0.7300336360931396,-0.5032570362091064
1761838597785011200,2.96401123046875,-1.000340223312378,-0.8203788995742798,-0.6236481666564941
1761838597795081500,2.97408154296875,-0.9696617126464844,-0.8676816821098328,-0.6974448561668396
1761838597805151500,2.9841513671875,-0.981895387172699,-0.8712129592895508,-0.7299476265907288
1761838597815221200,2.99422119140625,-1.0216851234436035,-0.8345656991004944,-0.742929995059967
1761838597825290500,3.00429052734375,-1.0563653707504272,-0.7478771209716797,-0.708852231502533
1761838597835360300,3.0143603515625,-1.0862146615982056,-0.6271051168441772,-0.6077130436897278
1761838597845430300,3.02443017578125,-1.1089715957641602,-0.47576096653938293,-0.44207853078842163
1761838597855500500,3.03450048828125,-1.1282256841659546,-0.2989957928657532,-0.22573131322860718
1761838597865570300,3.0445703125,-1.1477645635604858,-0.14276903867721558,-0.0002828775905072689
1761838597875639600,3.0546396484375,-1.1564421653747559,-0.0727665051817894,0.21052655577659607
1761838597885709300,3.064709228515625,-1.1371574401855469,-0.0812966600060463,0.4289911091327667
1761838597895779300,3.074779296875,-1.0991307497024536,-0.09600423276424408,0.651958167552948
1761838597905849300,3.084849365234375,-1.039786696434021,-0.11483577638864517,0.8729007244110107
1761838597915919400,3.09491943359375,-0.9866166710853577,-0.10852168500423431,1.0828936100006104
1761838597925988400,3.10498828125,-0.9475193023681641,-0.03888110816478729,1.2643721103668213
1761838597936058400,3.115058349609375,-0.901350200176239,0.13769926130771637,1.4145735502243042
1761838597946128400,3.12512841796875,-0.8206835389137268,0.4296500086784363,1.5199942588806152
1761838597956199200,3.13519921875,-0.6810572147369385,0.7333576679229736,1.5554648637771606
1761838597966269200,3.145269287109375,-0.4900810122489929,0.9120920300483704,1.505348801612854
1761838597976338200,3.155338134765625,-0.2727809250354767,0.9308958053588867,1.3968417644500732
1761838597986408200,3.165408203125,-0.04602842777967453,0.8674812316894531,1.25469172000885
1761838597996478200,3.175478271484375,0.15431559085845947,0.7687666416168213,1.0900588035583496
1761838598006548200,3.18554833984375,0.3185497224330902,0.5513337850570679,0.9115058183670044
1761838598016617200,3.1956171875,0.42985549569129944,0.213341623544693,0.7184380888938904
1761838598026687200,3.205687255859375,0.4417274594306946,-0.11871413141489029,0.5300483107566833
1761838598036757200,3.21575732421875,0.3238777816295624,-0.364361435174942,0.36348146200180054
1761838598046827300,3.2258271484375,0.11321517825126648,-0.473802775144577,0.2218085527420044
1761838598056897300,3.235897216796875,-0.14302432537078857,-0.431670218706131,0.09870526939630508
1761838598066966300,3.24596630859375,-0.37885332107543945,-0.23026005923748016,0.007680294569581747
1761838598077036000,3.2560361328125,-0.562184751033783,0.17344613373279572,-0.0487840436398983
1761838598087106300,3.266106201171875,-0.6923267245292664,0.7855454683303833,-0.06942057609558105
1761838598097176300,3.27617626953125,-0.783894419670105,1.5089921951293945,-0.07591176778078079
1761838598107246000,3.28624609375,-0.8338029384613037,2.200232744216919,-0.10509797185659409
1761838598117315300,3.2963154296875,-0.8483645915985107,2.7691047191619873,-0.1573377400636673
1761838598127385000,3.306385009765625,-0.8190234303474426,3.185641288757324,-0.23967024683952332
1761838598137455000,3.316455078125,-0.7371642589569092,3.4051809310913086,-0.33462420105934143
1761838598147525400,3.326525390625,-0.6036187410354614,3.436282157897949,-0.43845418095588684
1761838598157594000,3.336593994140625,-0.4422897696495056,3.30088210105896,-0.5230609774589539
1761838598167664400,3.346664306640625,-0.2828282415866852,3.0083303451538086,-0.5923196077346802
1761838598177734100,3.356734130859375,-0.16328345239162445,2.607210874557495,-0.6327857971191406
1761838598187804200,3.36680419921875,-0.11900391429662704,2.179299831390381,-0.649511456489563
1761838598197874400,3.37687451171875,-0.15492303669452667,1.7619167566299438,-0.6411693692207336
1761838598207943200,3.386943115234375,-0.25629252195358276,1.3827319145202637,-0.6073983311653137
1761838598218013200,3.39701318359375,-0.40594327449798584,1.0754611492156982,-0.545955240726471
1761838598228083200,3.407083251953125,-0.5925439596176147,0.849490225315094,-0.47308218479156494
1761838598238153200,3.4171533203125,-0.792992353439331,0.677863359451294,-0.3933063745498657
1761838598248223200,3.42722314453125,-1.0145376920700073,0.503730297088623,-0.32544413208961487
1761838598258292200,3.437292236328125,-1.2392230033874512,0.31229162216186523,-0.28187188506126404
1761838598268362200,3.4473623046875,-1.4278755187988281,0.11686274409294128,-0.26786792278289795
1761838598278432300,3.457432373046875,-1.5519237518310547,-0.09867380559444427,-0.268131285905838
1761838598288502300,3.467502197265625,-1.6157169342041016,-0.3332423269748688,-0.24862907826900482
1761838598298572300,3.477572265625,-1.6032567024230957,-0.5506933927536011,-0.16981655359268188
1761838598308641300,3.487641357421875,-1.5177924633026123,-0.8108100891113281,-0.02028464525938034
1761838598318711300,3.497711181640625,-1.4027163982391357,-1.129024624824524,0.18999294936656952
1761838598328781000,3.507781005859375,-1.3499165773391724,-1.4572032690048218,0.45230865478515625
1761838598338851300,3.517851318359375,-1.4783216714859009,-1.7061874866485596,0.7370426058769226
1761838598348920000,3.527920166015625,-1.854617714881897,-1.8231598138809204,0.9726018309593201
1761838598358990000,3.537989990234375,-2.4413371086120605,-1.916669249534607,1.0675643682479858
1761838598369060400,3.548060302734375,-3.1688170433044434,-2.0583701133728027,0.9774274826049805
1761838598379130000,3.558130126953125,-3.7970104217529297,-2.248685121536255,0.7095938920974731
1761838598389200100,3.5682001953125,-4.106266975402832,-2.5265541076660156,0.3093174695968628
1761838598399269000,3.57826904296875,-4.0358052253723145,-2.8298141956329346,-0.14136821031570435
1761838598409339100,3.588339111328125,-3.6196658611297607,-3.003664493560791,-0.5127750039100647
1761838598419409200,3.5984091796875,-2.992673397064209,-3.0716805458068848,-0.7535950541496277
1761838598429479200,3.608479248046875,-2.354072332382202,-3.226879358291626,-0.8711554408073425
1761838598439549200,3.618549072265625,-1.931447982788086,-3.5538320541381836,-0.8906066417694092
1761838598449618400,3.628618408203125,-1.7917076349258423,-3.9862420558929443,-0.8041673302650452
1761838598459688200,3.638688232421875,-1.8762118816375732,-4.494396686553955,-0.6258353590965271
1761838598469758200,3.64875830078125,-2.1293625831604004,-4.982124328613281,-0.3808792531490326
1761838598479828200,3.658828125,-2.4752275943756104,-5.217669486999512,-0.08446383476257324
1761838598489897200,3.668897216796875,-2.8291611671447754,-5.145596027374268,0.2032124400138855
1761838598499967200,3.67896728515625,-3.12524151802063,-4.768919467926025,0.4379362463951111
1761838598510037200,3.689037353515625,-3.3013904094696045,-4.219788551330566,0.5905988812446594
1761838598520107300,3.699107177734375,-3.326598882675171,-3.582129955291748,0.6607675552368164
1761838598530177000,3.709177001953125,-3.211012601852417,-2.9187912940979004,0.6792755722999573
1761838598540246300,3.719246337890625,-2.9895951747894287,-2.2884016036987305,0.6664985418319702
1761838598550316300,3.72931640625,-2.7212367057800293,-1.7561187744140625,0.6454949975013733
1761838598560386300,3.73938623046875,-2.430907964706421,-1.359955906867981,0.6418616771697998
1761838598570456300,3.749456298828125,-2.168379068374634,-1.11513352394104,0.658489465713501
1761838598580526000,3.759526123046875,-1.9634456634521484,-1.0216283798217773,0.6906793713569641
1761838598590595300,3.76959521484375,-1.8238074779510498,-1.054595947265625,0.7064511179924011
1761838598600665300,3.779665283203125,-1.7423160076141357,-1.1368921995162964,0.6752740144729614
1761838598610735000,3.789735107421875,-1.710674524307251,-1.2073501348495483,0.5830933451652527
1761838598620805400,3.799805419921875,-1.6976274251937866,-1.1875487565994263,0.47736266255378723
1761838598630875100,3.809875244140625,-1.700474500656128,-1.0579935312271118,0.36947593092918396
1761838598640944000,3.819944091796875,-1.7021161317825317,-0.831486165523529,0.2781582772731781
1761838598651014400,3.830014404296875,-1.703613042831421,-0.5470308661460876,0.2197740525007248
1761838598661084200,3.840084228515625,-1.7082208395004272,-0.2651536464691162,0.1857180893421173
1761838598671154200,3.850154296875,-1.7168800830841064,0.0208934023976326,0.1732308268547058
1761838598681223200,3.86022314453125,-1.73476243019104,0.28807690739631653,0.18202191591262817
1761838598691293200,3.870293212890625,-1.7522015571594238,0.5249980688095093,0.1867041140794754
1761838598701363200,3.88036328125,-1.7502862215042114,0.7504178881645203,0.18162839114665985
1761838598711433200,3.89043310546875,-1.7215542793273926,0.9164409637451172,0.1544167697429657
1761838598721503200,3.900503173828125,-1.6709030866622925,0.9676849842071533,0.1176459789276123
1761838598731572200,3.910572265625,-1.6120423078536987,0.9288793802261353,0.0782337635755539
1761838598741642200,3.920642333984375,-1.5476702451705933,0.8319584131240845,0.05279311537742615
1761838598751712300,3.930712158203125,-1.491392731666565,0.7291808724403381,0.04277269169688225
1761838598761780200,3.9407802734375,-1.4319411516189575,0.6666647791862488,0.05471670255064964
1761838598771850000,3.95085009765625,-1.357950210571289,0.6469849348068237,0.09585912525653839
1761838598781920300,3.960920166015625,-1.282712459564209,0.602733850479126,0.13528642058372498
1761838598791990300,3.970990234375,-1.2110493183135986,0.4813413619995117,0.17102155089378357
1761838598802059300,3.981059326171875,-1.1640315055847168,0.2838256359100342,0.14769679307937622
1761838598812129300,3.99112939453125,-1.1556391716003418,0.00794230867177248,0.03796367347240448
1761838598822199000,4.001198974609375,-1.2145488262176514,-0.3205586075782776,-0.13111935555934906
1761838598832269300,4.011269287109375,-1.3550446033477783,-0.5814275741577148,-0.32012954354286194
1761838598842339300,4.02133935546875,-1.5278640985488892,-0.6787775754928589,-0.49054014682769775
1761838598852408000,4.031407958984375,-1.6379890441894531,-0.6000373959541321,-0.6277879476547241
1761838598862478300,4.041478271484375,-1.6450520753860474,-0.3683317005634308,-0.7301726341247559
1761838598872548000,4.051548095703125,-1.5669007301330566,-0.06854623556137085,-0.8131924271583557
1761838598882618000,4.0616181640625,-1.402480959892273,0.21738670766353607,-0.8821179270744324
1761838598892687400,4.071687255859375,-1.1759328842163086,0.42513999342918396,-0.9374903440475464
1761838598902757000,4.081757080078125,-0.907237708568573,0.5735279321670532,-0.9631086587905884
1761838598912827100,4.0918271484375,-0.6292718648910522,0.7168289422988892,-0.9471459984779358
1761838598922897400,4.1018974609375,-0.38240882754325867,0.8238989114761353,-0.9099218845367432
1761838598932967200,4.11196728515625,-0.17273607850074768,0.8599212765693665,-0.8464780449867249
1761838598943036400,4.122036376953125,-0.006020859815180302,0.8378271460533142,-0.7827030420303345
1761838598953106200,4.132106201171875,0.09318212419748306,0.7746398448944092,-0.7148388028144836
1761838598963175400,4.142175537109375,0.10924844443798065,0.6684092879295349,-0.6524713039398193
1761838598973245700,4.15224560546875,0.032349877059459686,0.547253429889679,-0.6043773293495178
1761838598983314400,4.162314453125,-0.12767867743968964,0.4571214020252228,-0.5912694931030273
1761838598993384700,4.172384765625,-0.32807686924934387,0.4095437824726105,-0.6143488883972168
1761838599003454500,4.182454345703125,-0.5265148878097534,0.3776300549507141,-0.6710566878318787
1761838599013524500,4.1925244140625,-0.709976851940155,0.33773112297058105,-0.7654939293861389
1761838599023594500,4.202594482421875,-0.8483869433403015,0.28360795974731445,-0.8651909828186035
1761838599033663500,4.21266357421875,-0.9427040219306946,0.23884925246238708,-0.9240143895149231
1761838599043733500,4.2227333984375,-1.0039410591125488,0.2076314091682434,-0.9121068120002747
1761838599053803500,4.232803466796875,-1.054631233215332,0.14674003422260284,-0.8417706489562988
1761838599063873500,4.24287353515625,-1.1023592948913574,0.006772002205252647,-0.7302542328834534
1761838599073943600,4.252943603515625,-1.1553454399108887,-0.25059255957603455,-0.6087921857833862
1761838599084012500,4.263012451171875,-1.2611595392227173,-0.5999569296836853,-0.5139327645301819
1761838599094082600,4.27308251953125,-1.4585752487182617,-1.0020960569381714,-0.47756779193878174
1761838599104152300,4.28315234375,-1.7919713258743286,-1.440040111541748,-0.5078327655792236
1761838599114222600,4.29322265625,-2.287311315536499,-1.854195475578308,-0.5964189767837524
1761838599124291600,4.30329150390625,-2.8149595260620117,-2.1250948905944824,-0.6945128440856934
1761838599134361600,4.313361572265625,-3.181690216064453,-2.055590867996216,-0.7055063843727112
1761838599144431600,4.323431640625,-3.2652924060821533,-1.6639474630355835,-0.6232472062110901
1761838599154501400,4.33350146484375,-3.011282444000244,-1.2375166416168213,-0.48847636580467224
1761838599164571600,4.343571533203125,-2.563035249710083,-1.1058586835861206,-0.3579244911670685
1761838599174640600,4.353640625,-2.170571804046631,-1.4087458848953247,-0.2530997097492218
1761838599184710400,4.36371044921875,-1.9813836812973022,-2.064066171646118,-0.18715263903141022
1761838599194780700,4.37378076171875,-2.0237810611724854,-2.927485466003418,-0.13902410864830017
1761838599204850700,4.3838505859375,-2.177004337310791,-3.786081552505493,-0.05246444791555405
1761838599214920400,4.39392041015625,-2.3217251300811768,-4.476606845855713,0.08615672588348389
1761838599224989700,4.40398974609375,-2.455458402633667,-4.913629531860352,0.2161456197500229
1761838599235059500,4.4140595703125,-2.6272077560424805,-4.972035884857178,0.31621506810188293
1761838599245129500,4.42412939453125,-2.8385188579559326,-4.603273391723633,0.3828856945037842
1761838599255199700,4.43419970703125,-3.0393974781036377,-3.943504571914673,0.4074236750602722
1761838599265268500,4.4442685546875,-3.1747543811798096,-3.2036616802215576,0.37136179208755493
1761838599275338800,4.4543388671875,-3.2235107421875,-2.5367767810821533,0.28634127974510193
1761838599285408500,4.464408447265625,-3.180114507675171,-1.9650200605392456,0.18077252805233002
1761838599295478500,4.474478515625,-3.0644214153289795,-1.4921455383300781,0.07100547850131989
1761838599305548500,4.484548583984375,-2.890498399734497,-1.0399956703186035,-0.008875500410795212
1761838599315617500,4.494617431640625,-2.707104444503784,-0.6442286372184753,-0.07592654228210449
1761838599325687600,4.5046875,-2.5425865650177,-0.34960585832595825,-0.14991767704486847
1761838599335757600,4.514757568359375,-2.40881609916687,-0.1585494577884674,-0.21737061440944672
1761838599345827600,4.52482763671875,-2.2831342220306396,-0.0719679594039917,-0.2850053012371063
1761838599355896600,4.534896484375,-2.177288770675659,-0.08946199715137482,-0.364824503660202
1761838599365966600,4.544966552734375,-2.0839684009552,-0.19554661214351654,-0.4640783965587616
1761838599376036600,4.55503662109375,-1.995254397392273,-0.31729856133461,-0.5610834956169128
1761838599386106400,4.5651064453125,-1.9264862537384033,-0.40368297696113586,-0.6399847269058228
1761838599396177400,4.575177490234375,-1.8739382028579712,-0.4425639510154724,-0.715053379535675
1761838599406247700,4.58524755859375,-1.8357784748077393,-0.42282646894454956,-0.7799309492111206
1761838599416317400,4.5953173828125,-1.8209209442138672,-0.3267192542552948,-0.8287795186042786
1761838599426386700,4.60538671875,-1.816312551498413,-0.20001830160617828,-0.8608216047286987
1761838599436456400,4.61545654296875,-1.8180946111679077,-0.05245845392346382,-0.8558802604675293
1761838599446526500,4.6255263671875,-1.7913730144500732,0.17947730422019958,-0.7728232145309448
1761838599456596700,4.6355966796875,-1.7388204336166382,0.4526640772819519,-0.6191407442092896
1761838599466665500,4.64566552734375,-1.6504253149032593,0.7265002131462097,-0.42225566506385803
1761838599476735500,4.655735595703125,-1.541698932647705,0.9490439891815186,-0.1980043202638626
1761838599486805500,4.665805419921875,-1.4189226627349854,1.1035661697387695,0.03092098981142044
1761838599496875500,4.67587548828125,-1.2963865995407104,1.2031445503234863,0.2673097550868988
1761838599506945500,4.685945556640625,-1.1770520210266113,1.2095781564712524,0.4957147240638733
1761838599517014500,4.6960146484375,-1.0494117736816406,1.122453212738037,0.6916625499725342
1761838599527084500,4.70608447265625,-0.9140232801437378,0.9663503766059875,0.8582565784454346
1761838599537154600,4.716154541015625,-0.7556435465812683,0.7994993329048157,1.018585205078125
1761838599547224600,4.726224609375,-0.5845463871955872,0.5970737934112549,1.1588157415390015
1761838599557293600,4.73629345703125,-0.44794997572898865,0.25114232301712036,1.2051897048950195
1761838599567363600,4.746363525390625,-0.36151307821273804,-0.16501334309577942,1.1281554698944092
1761838599577433600,4.75643359375,-0.27666378021240234,-0.46935054659843445,0.9729060530662537
1761838599587503600,4.766503662109375,-0.16385680437088013,-0.670405387878418,0.7956529855728149
1761838599597573600,4.77657373046875,-0.06815146654844284,-0.7924585938453674,0.6157172918319702
1761838599607642600,4.786642578125,-0.028140133246779442,-0.8578234910964966,0.43220633268356323
1761838599617712400,4.79671240234375,-0.07514205574989319,-0.7705441117286682,0.2569423019886017
1761838599627782700,4.80678271484375,-0.2217613309621811,-0.4443571865558624,0.1139819473028183
1761838599637852700,4.816852783203125,-0.40711790323257446,0.05977329611778259,0.026349661871790886
1761838599647922400,4.82692236328125,-0.552865743637085,0.5893223881721497,-0.024783829227089882
1761838599657991700,4.83699169921875,-0.6232079267501831,0.9993552565574646,-0.06559258699417114
1761838599668061400,4.8470615234375,-0.597601592540741,1.2867079973220825,-0.1073078140616417
1761838599678131500,4.85713134765625,-0.5000022053718567,1.5474519729614258,-0.14336366951465607
1761838599688201700,4.86720166015625,-0.35905519127845764,1.813476800918579,-0.14866788685321808
1761838599698270500,4.8772705078125,-0.19441263377666473,2.026944398880005,-0.12649588286876678
1761838599708340700,4.8873408203125,-0.023965002968907356,2.2027223110198975,-0.08396653831005096
1761838599718410500,4.897410400390625,0.10759004950523376,2.3294196128845215,-0.039404597133398056
1761838599728480500,4.90748046875,0.18900154531002045,2.347750663757324,-0.01956138387322426
1761838599738549500,4.917549560546875,0.24159367382526398,2.2847490310668945,-0.03188798949122429
1761838599748619500,4.92761962890625,0.27142587304115295,2.171647787094116,-0.07097094506025314
1761838599758689500,4.937689453125,0.31244760751724243,2.009359121322632,-0.13091377913951874
1761838599768759600,4.947759521484375,0.33857402205467224,1.8230730295181274,-0.20662611722946167
1761838599778829600,4.95782958984375,0.3411180377006531,1.6780000925064087,-0.3184385895729065
1761838599788898600,4.967898681640625,0.311160683631897,1.5840799808502197,-0.4622860550880432
1761838599798968600,4.977968505859375,0.24901387095451355,1.5470904111862183,-0.6310976147651672
1761838599809038600,4.98803857421875,0.17134995758533478,1.5445432662963867,-0.8130064606666565
1761838599819108600,4.998108642578125,0.08065922558307648,1.5676287412643433,-0.9854264855384827
1761838599829177600,5.008177490234375,-0.011373229324817657,1.6003248691558838,-1.1200979948043823
1761838599839247400,5.018247314453125,-0.09812114387750626,1.6268986463546753,-1.1875336170196533
1761838599849317600,5.028317626953125,-0.1804804652929306,1.6449147462844849,-1.1892125606536865
1761838599859387600,5.0383876953125,-0.27146977186203003,1.6778523921966553,-1.1353192329406738
1761838599869457400,5.04845751953125,-0.3665408790111542,1.7382550239562988,-1.0473902225494385
1761838599879526700,5.058526611328125,-0.49588197469711304,1.7801716327667236,-0.9645563960075378
1761838599889596400,5.068596435546875,-0.6622097492218018,1.7659647464752197,-0.8812422752380371
1761838599899666400,5.07866650390625,-0.8748021721839905,1.6499451398849487,-0.8045051097869873
1761838599909736700,5.08873681640625,-1.1364939212799072,1.353424072265625,-0.7644304037094116
1761838599919805400,5.098805419921875,-1.4258079528808594,0.96242356300354,-0.7492989301681519
1761838599929875700,5.108875732421875,-1.6078097820281982,0.4295053482055664,-0.6915309429168701
1761838599939945500,5.118945556640625,-1.663569688796997,-0.10674892365932465,-0.6179075837135315
1761838599950015500,5.129015380859375,-1.6027843952178955,-0.5166288614273071,-0.5280897617340088
1761838599960085500,5.13908544921875,-1.405874252319336,-0.8081915974617004,-0.42338827252388
1761838599970154500,5.149154541015625,-1.1414953470230103,-1.078697681427002,-0.33460623025894165
1761838599980224500,5.159224609375,-0.9607032537460327,-1.3439902067184448,-0.2596883177757263
1761838599990294800,5.169294677734375,-0.9531849026679993,-1.552517294883728,-0.18481703102588654
1761838600000364500,5.179364501953125,-1.1774448156356812,-1.7003545761108398,-0.13481509685516357
1761838600010433800,5.189433837890625,-1.5879533290863037,-1.790438175201416,-0.11563447117805481
1761838600020503600,5.199503662109375,-2.0185916423797607,-1.749625325202942,-0.12876808643341064
1761838600030573600,5.209573486328125,-2.2994370460510254,-1.6049277782440186,-0.1620328277349472
1761838600040643600,5.2196435546875,-2.3692054748535156,-1.48732590675354,-0.22397559881210327
1761838600050712600,5.229712646484375,-2.281275510787964,-1.4684367179870605,-0.31375980377197266
1761838600060782600,5.239782470703125,-2.1139512062072754,-1.5706725120544434,-0.40867599844932556
1761838600070852600,5.2498525390625,-1.9275234937667847,-1.781683087348938,-0.4866672158241272
1761838600080922600,5.259922607421875,-1.7398616075515747,-2.0587027072906494,-0.5049740076065063
1761838600090992600,5.26999267578125,-1.5744411945343018,-2.341980457305908,-0.4528500437736511
1761838600101061600,5.2800615234375,-1.437155842781067,-2.5319290161132812,-0.29524338245391846
1761838600111131600,5.290131591796875,-1.3150218725204468,-2.5670647621154785,-0.05105522647500038
1761838600121201400,5.300201416015625,-1.2347054481506348,-2.506833076477051,0.21140290796756744
1761838600131271700,5.310271728515625,-1.2003130912780762,-2.3649325370788574,0.4411998987197876
1761838600141340400,5.32034033203125,-1.2041444778442383,-2.1647613048553467,0.6229661107063293
1761838600151410700,5.33041064453125,-1.2129433155059814,-1.927618384361267,0.7596376538276672
1761838600161480700,5.340480712890625,-1.1858515739440918,-1.7077784538269043,0.8449838161468506
1761838600171550500,5.350550537109375,-1.1172740459442139,-1.5016216039657593,0.8925045132637024
1761838600181619700,5.36061962890625,-1.0209203958511353,-1.3155657052993774,0.8978009223937988
1761838600191689500,5.370689453125,-0.9109562635421753,-1.1420338153839111,0.8843876719474792
1761838600201759500,5.380759521484375,-0.7948077917098999,-0.99267578125,0.8624925017356873
1761838600211829800,5.390829833984375,-0.6770231127738953,-0.8798403143882751,0.8345865607261658
1761838600221899500,5.4008994140625,-0.5748865008354187,-0.808224618434906,0.8016279339790344
1761838600231968800,5.41096875,-0.4816332459449768,-0.7765971422195435,0.7604736089706421
1761838600242038500,5.42103857421875,-0.39749211072921753,-0.7764285802841187,0.7066802978515625
1761838600252108500,5.431108642578125,-0.3138193190097809,-0.7877419590950012,0.6427042484283447
1761838600262178600,5.441178466796875,-0.23945464193820953,-0.8018105030059814,0.5673983097076416
1761838600272247600,5.45124755859375,-0.1683083027601242,-0.8152621388435364,0.4880605638027191
1761838600282317600,5.461317626953125,-0.11822430044412613,-0.8108217120170593,0.41081324219703674
1761838600292387600,5.4713876953125,-0.07068660855293274,-0.7419947385787964,0.3689592778682709
1761838600302457600,5.48145751953125,-0.007829282432794571,-0.620635986328125,0.3744281828403473
1761838600312527600,5.491527587890625,0.07105514407157898,-0.4672357738018036,0.4219842553138733
1761838600322596600,5.5015966796875,0.1894989013671875,-0.257998526096344,0.5317061543464661
1761838600332666600,5.51166650390625,0.3427150845527649,0.016679638996720314,0.7140402793884277
1761838600342736400,5.521736328125,0.5338560342788696,0.3191087245941162,0.9563286900520325
1761838600352806700,5.531806640625,0.7568363547325134,0.5777716636657715,1.2335853576660156
1761838600362875600,5.541875732421875,1.002251386642456,0.7346352338790894,1.5559065341949463
1761838600372945700,5.551945556640625,1.2392951250076294,0.7845245003700256,1.9297078847885132
1761838600383015700,5.562015625,1.4269033670425415,0.809608519077301,2.315375328063965
1761838600393085400,5.57208544921875,1.5163991451263428,0.8187404870986938,2.6160292625427246
1761838600403154700,5.58215478515625,1.5689549446105957,0.7781159281730652,2.754556894302368
1761838600413224700,5.592224609375,1.6255258321762085,0.6609283089637756,2.663261890411377
1761838600423294500,5.60229443359375,1.7061865329742432,0.5205817818641663,2.326967477798462
1761838600433364700,5.61236474609375,1.8020509481430054,0.41285690665245056,1.8016278743743896
1761838600443434800,5.622434814453125,1.853197455406189,0.3889003396034241,1.1471245288848877
1761838600453503500,5.63250341796875,1.815980315208435,0.4512118995189667,0.4577735364437103
1761838600463573800,5.64257373046875,1.680079460144043,0.5974273085594177,-0.18995581567287445
1761838600473643500,5.6526435546875,1.449397325515747,0.8886799216270447,-0.7294355630874634
1761838600483713500,5.662713623046875,1.1417601108551025,1.317724347114563,-1.1275811195373535
1761838600493782500,5.672782470703125,0.8310109972953796,1.8989659547805786,-1.3704638481140137
1761838600503852500,5.6828525390625,0.5388913750648499,2.5369503498077393,-1.4769197702407837
1761838600513922800,5.6929228515625,0.32093775272369385,3.0865747928619385,-1.4972816705703735
1761838600523992600,5.70299267578125,0.19668126106262207,3.5027542114257812,-1.4781914949417114
1761838600534061600,5.7130615234375,0.1744007170200348,3.7451632022857666,-1.452590823173523
1761838600544131600,5.723131591796875,0.22816945612430573,3.8100991249084473,-1.4458041191101074
1761838600554201600,5.73320166015625,0.33306044340133667,3.7254140377044678,-1.4330356121063232
1761838600564271600,5.743271728515625,0.47932836413383484,3.5395281314849854,-1.3984283208847046
1761838600574340600,5.753340576171875,0.6393164396286011,3.2931771278381348,-1.3203673362731934
1761838600584410600,5.76341064453125,0.7963191270828247,2.990206480026245,-1.203383207321167
1761838600594480600,5.773480712890625,0.9377572536468506,2.641927480697632,-1.0503854751586914
1761838600604550700,5.783550537109375,1.0539683103561401,2.286129951477051,-0.8618548512458801
1761838600614620700,5.79362060546875,1.1516002416610718,1.9256839752197266,-0.6568993330001831
1761838600624689700,5.803689697265625,1.2176672220230103,1.5733414888381958,-0.45792314410209656
1761838600634759700,5.813759765625,1.2501873970031738,1.2435694932937622,-0.2705133259296417
1761838600644829400,5.823829345703125,1.2634716033935547,0.9377732872962952,-0.09639673680067062
1761838600654899700,5.833899658203125,1.276432991027832,0.6544834971427917,0.05791080743074417
1761838600664968400,5.843968505859375,1.2751322984695435,0.38111215829849243,0.19249555468559265
1761838600675038500,5.85403857421875,1.2582355737686157,0.12565748393535614,0.30914947390556335
1761838600685108700,5.864108642578125,1.226528286933899,-0.08859933167695999,0.40658247470855713
1761838600695178500,5.874178466796875,1.1774156093597412,-0.27383071184158325,0.475737065076828
1761838600705247700,5.884247802734375,1.111586093902588,-0.4370778501033783,0.5271068215370178
1761838600715317500,5.8943173828125,1.0250144004821777,-0.5735504627227783,0.5757151246070862
1761838600725387500,5.904387451171875,0.9274091720581055,-0.6949495077133179,0.6295802593231201
1761838600735457500,5.91445751953125,0.8230838179588318,-0.830776035785675,0.7014456987380981
1761838600745526500,5.924526611328125,0.7260303497314453,-1.0165313482284546,0.8015781044960022
1761838600755596500,5.934596435546875,0.6201902031898499,-1.2397642135620117,0.9196426868438721
1761838600765666600,5.94466650390625,0.4778604805469513,-1.505949854850769,1.0493402481079102
1761838600775736600,5.954736572265625,0.2735520899295807,-1.7980316877365112,1.146927833557129
1761838600785806600,5.964806640625,-0.0011313882423564792,-2.1534626483917236,1.174163818359375
1761838600795875600,5.97487548828125,-0.3044302761554718,-2.642698287963867,1.1237133741378784
1761838600805945600,5.984945556640625,-0.600628674030304,-3.229630708694458,1.0207666158676147
1761838600816015400,5.995015380859375,-0.9058245420455933,-3.7727158069610596,0.9053476452827454
1761838600826085600,6.005085693359375,-1.2653920650482178,-4.098452568054199,0.8061541318893433
1761838600836154600,6.015154541015625,-1.6852985620498657,-4.119983196258545,0.715834379196167
1761838600846224600,6.025224609375,-2.0788543224334717,-3.8135275840759277,0.593920111656189
1761838600856294700,6.035294677734375,-2.3067381381988525,-3.2084712982177734,0.423225075006485
1761838600866364400,6.045364501953125,-2.2811050415039062,-2.5037825107574463,0.20116578042507172
1761838600876433700,6.05543359375,-1.9979362487792969,-1.8879145383834839,-0.10087715834379196
1761838600886503700,6.065503662109375,-1.5232335329055786,-1.5066609382629395,-0.48735547065734863
1761838600896573400,6.075573486328125,-0.9287596940994263,-1.4362738132476807,-0.9125240445137024
1761838600906643700,6.085643798828125,-0.3430345356464386,-1.762722373008728,-1.3156131505966187
1761838600916712400,6.09571240234375,0.07941126078367233,-2.296327590942383,-1.602049708366394
1761838600926782700,6.10578271484375,0.2668841481208801,-2.713310480117798,-1.7205541133880615
1761838600936852700,6.115852783203125,0.2768728733062744,-2.8188583850860596,-1.636974573135376
1761838600946922500,6.125922607421875,0.18386174738407135,-2.5569493770599365,-1.3868306875228882
1761838600956991700,6.13599169921875,0.038901105523109436,-2.0383248329162598,-1.0380970239639282
1761838600967061500,6.1460615234375,-0.13084465265274048,-1.4553462266921997,-0.6964024901390076
1761838600977131500,6.156131591796875,-0.281286358833313,-0.9574706554412842,-0.4111779034137726
1761838600987201500,6.166201416015625,-0.39585334062576294,-0.54376220703125,-0.22523356974124908
1761838600997270500,6.1762705078125,-0.4656539857387543,-0.24504026770591736,-0.14247050881385803
1761838601007340500,6.186340576171875,-0.5016555786132812,-0.11314412951469421,-0.15087635815143585
1761838601017410600,6.19641064453125,-0.5310006737709045,-0.12423273921012878,-0.21036045253276825
1761838601027480600,6.20648046875,-0.5607869625091553,-0.15103110671043396,-0.2851826250553131
1761838601037550300,6.21655029296875,-0.5833668112754822,-0.09571218490600586,-0.35626906156539917
1761838601047619600,6.22661962890625,-0.5998395681381226,0.013385312631726265,-0.42516547441482544
1761838601057689600,6.236689697265625,-0.6082239747047424,0.14278537034988403,-0.4951232671737671
1761838601067759600,6.246759521484375,-0.611979603767395,0.25932222604751587,-0.5627560019493103
1761838601077829600,6.25682958984375,-0.6029791831970215,0.3465322256088257,-0.6184799671173096
1761838601087898400,6.2668984375,-0.5830578804016113,0.426349937915802,-0.6409698128700256
1761838601097968600,6.27696875,-0.543917715549469,0.5211046934127808,-0.6304367184638977
1761838601108038700,6.28703857421875,-0.47287875413894653,0.6484683156013489,-0.5779353380203247
1761838601118108400,6.2971083984375,-0.3642556071281433,0.8321657180786133,-0.4743698239326477
1761838601128177700,6.307177734375,-0.21462517976760864,1.0675722360610962,-0.3157782256603241
1761838601138247400,6.317247314453125,-0.031127793714404106,1.3225094079971313,-0.10944211483001709
1761838601148317700,6.327317626953125,0.17749063670635223,1.591232180595398,0.13165025413036346
1761838601158387700,6.3373876953125,0.4025636911392212,1.8950480222702026,0.4131762385368347
1761838601168456400,6.34745654296875,0.6261864304542542,2.1709325313568115,0.6949969530105591
1761838601178526700,6.357526611328125,0.8423847556114197,2.33242130279541,0.9375174045562744
1761838601188596500,6.367596435546875,1.067171573638916,2.296907424926758,1.1296480894088745
1761838601198666500,6.37766650390625,1.2621126174926758,2.022390127182007,1.2170565128326416
1761838601208735500,6.387735595703125,1.3506261110305786,1.5590004920959473,1.1536214351654053
1761838601218805500,6.397805419921875,1.3344380855560303,1.0071547031402588,0.9568487405776978
1761838601228875500,6.40787548828125,1.2592562437057495,0.586186945438385,0.6798718571662903
1761838601238945500,6.417945556640625,1.1770309209823608,0.3562149405479431,0.36481642723083496
1761838601249014500,6.4280146484375,1.1151195764541626,0.32381853461265564,0.09193726629018784
1761838601259084500,6.43808447265625,1.062550663948059,0.41584378480911255,-0.1187366172671318
1761838601269154600,6.448154541015625,0.9919083714485168,0.4939611554145813,-0.28298115730285645
1761838601279224600,6.458224609375,0.874963104724884,0.45696932077407837,-0.43605512380599976
1761838601289293600,6.46829345703125,0.7111749649047852,0.27198004722595215,-0.589310884475708
1761838601299363600,6.478363525390625,0.5070031881332397,0.06634993106126785,-0.7146185040473938
1761838601309433300,6.488433349609375,0.28958410024642944,-0.02798711508512497,-0.7672637701034546
1761838601319503600,6.498503662109375,0.07987216114997864,0.10359034687280655,-0.7561706304550171
1761838601329572400,6.508572265625,-0.07033384591341019,0.45932742953300476,-0.669654130935669
1761838601339642600,6.518642578125,-0.12146547436714172,0.9793452620506287,-0.5466392636299133
1761838601349712600,6.528712646484375,-0.06431511044502258,1.5533769130706787,-0.41998788714408875
1761838601359782400,6.538782470703125,0.08904407918453217,2.030895948410034,-0.3011363446712494
1761838601369851600,6.5488515625,0.28112074732780457,2.343109369277954,-0.21970270574092865
1761838601379921400,6.55892138671875,0.4565671384334564,2.468701124191284,-0.16895031929016113
1761838601389991400,6.568991455078125,0.5826976895332336,2.4138875007629395,-0.14028631150722504
1761838601400061700,6.579061767578125,0.6690900921821594,2.2287182807922363,-0.12310386449098587
1761838601410130400,6.58913037109375,0.7335526943206787,1.9784849882125854,-0.08760622143745422
1761838601420200700,6.59920068359375,0.7473486661911011,1.7066779136657715,-0.02014249749481678
1761838601430270700,6.609270751953125,0.7056323289871216,1.4388024806976318,0.06232920289039612
1761838601440340500,6.619340576171875,0.5968392491340637,1.2360199689865112,0.149385005235672
1761838601450409700,6.62940966796875,0.43868938088417053,1.0986502170562744,0.21913418173789978
1761838601460479500,6.6394794921875,0.2738111913204193,1.0012261867523193,0.2619548738002777
1761838601470549500,6.649549560546875,0.13095557689666748,0.9046210050582886,0.2595594823360443
1761838601480619800,6.659619873046875,0.017193058505654335,0.7571873068809509,0.2186461240053177
1761838601490688500,6.6696884765625,-0.05035186931490898,0.5781049728393555,0.1536036729812622
1761838601500758500,6.679758544921875,-0.08433780074119568,0.3897574245929718,0.0780700296163559
1761838601510828500,6.68982861328125,-0.10738753527402878,0.1687713861465454,0.003381471149623394
1761838601520898600,6.699898681640625,-0.1383691430091858,-0.06474843621253967,-0.05722009018063545
1761838601530967600,6.709967529296875,-0.17731831967830658,-0.2705965042114258,-0.0799701139330864
1761838601541037600,6.72003759765625,-0.22445014119148254,-0.4441099762916565,-0.07680681347846985
1761838601551107600,6.730107666015625,-0.2529090344905853,-0.610572874546051,-0.03934001550078392
1761838601561177600,6.740177490234375,-0.2622109055519104,-0.8347865343093872,0.004960601683706045
1761838601571246600,6.75024658203125,-0.2992430627346039,-1.2191376686096191,0.028596121817827225
1761838601581316400,6.76031640625,-0.40559613704681396,-1.7952861785888672,0.014030231162905693
1761838601591386600,6.77038671875,-0.614302396774292,-2.5241267681121826,-0.04360972344875336
1761838601601456600,6.78045654296875,-0.9141700267791748,-3.2816569805145264,-0.1509428322315216
1761838601611525600,6.790525634765625,-1.2742042541503906,-3.9074466228485107,-0.3061797320842743
1761838601621595600,6.800595703125,-1.635277509689331,-4.225434303283691,-0.47754883766174316
1761838601631665400,6.81066552734375,-1.9100655317306519,-4.1147236824035645,-0.6199235320091248
1761838601641735700,6.820735595703125,-2.0028069019317627,-3.53656005859375,-0.6999515295028687
1761838601651804400,6.830804443359375,-1.843403697013855,-2.716338872909546,-0.710591197013855
1761838601661874400,6.84087451171875,-1.4384742975234985,-1.9693031311035156,-0.7181444764137268
1761838601671944700,6.85094482421875,-0.8596992492675781,-1.5723564624786377,-0.7403317093849182
1761838601682014500,6.861014404296875,-0.19970697164535522,-1.605075478553772,-0.7709311842918396
1761838601692083700,6.871083740234375,0.4022800326347351,-1.9342658519744873,-0.7604783773422241
1761838601702153500,6.881153564453125,0.8236435055732727,-2.413970470428467,-0.6585296392440796
1761838601712223500,6.891223388671875,1.0566773414611816,-2.906228542327881,-0.4345623552799225
1761838601722293500,6.90129345703125,1.1301300525665283,-3.2789840698242188,-0.11476731300354004
1761838601732362500,6.911362548828125,1.0948854684829712,-3.517578363418579,0.22021406888961792
1761838601742432500,6.9214326171875,0.9770374894142151,-3.576892852783203,0.47294458746910095
1761838601752502500,6.93150244140625,0.8380011320114136,-3.228700876235962,0.5954792499542236
1761838601762572500,6.941572509765625,0.706171989440918,-2.5196757316589355,0.5706990957260132
1761838601772641500,6.9516416015625,0.6436901688575745,-1.6405867338180542,0.4372696578502655
1761838601782711600,6.961711669921875,0.6811429858207703,-0.6711268424987793,0.262844055891037
1761838601792781600,6.971781494140625,0.7746226191520691,0.28093966841697693,0.08543145656585693
1761838601802851300,6.981851318359375,0.8721179962158203,1.0909843444824219,-0.0782562792301178
1761838601812920600,6.991920654296875,0.9612249135971069,1.7182844877243042,-0.22428882122039795
1761838601822990600,7.001990478515625,1.040969729423523,2.1717793941497803,-0.35714539885520935
1761838601833060600,7.012060546875,1.1107584238052368,2.4625988006591797,-0.4796702563762665
1761838601843130600,7.022130615234375,1.1439733505249023,2.5703446865081787,-0.6059048771858215
1761838601853199400,7.032199462890625,1.1158827543258667,2.4763476848602295,-0.7142335176467896
1761838601863269600,7.04226953125,1.0529831647872925,2.293164014816284,-0.7812607288360596
1761838601873339600,7.052339599609375,0.9755553007125854,2.110295534133911,-0.7652248740196228
1761838601883408600,7.06240869140625,0.9229376316070557,2.011986017227173,-0.6546882390975952
1761838601893478700,7.072478759765625,0.9274638891220093,2.040532350540161,-0.4436573088169098
1761838601903548400,7.08254833984375,0.9827558994293213,2.0990307331085205,-0.1873011589050293
1761838601913618700,7.09261865234375,1.0824939012527466,2.1293275356292725,0.08942580223083496
1761838601923687400,7.1026875,1.1989117860794067,2.1373472213745117,0.3592500686645508
1761838601933757400,7.11275732421875,1.3259276151657104,2.1083321571350098,0.6396726369857788
1761838601943827700,7.12282763671875,1.4490461349487305,2.074928045272827,0.9201575517654419
1761838601953897500,7.1328974609375,1.5661782026290894,2.0551300048828125,1.1853276491165161
1761838601963967000,7.142967041015625,1.6731758117675781,2.0522308349609375,1.4136170148849487
1761838601974037000,7.153037109375,1.7792679071426392,2.0213942527770996,1.5756494998931885
1761838601984107000,7.16310693359375,1.8737115859985352,1.836156964302063,1.6408947706222534
1761838601994176800,7.1731767578125,1.9692120552062988,1.439041018486023,1.6034908294677734
1761838602004246000,7.18324609375,2.0929112434387207,0.9212242960929871,1.4995756149291992
1761838602014316000,7.19331591796875,2.2280943393707275,0.3081566095352173,1.344847321510315
1761838602024386000,7.203385986328125,2.3127031326293945,-0.35860729217529297,1.12458336353302
1761838602034456000,7.2134560546875,2.368453025817871,-0.9569668173789978,0.8578551411628723
1761838602044524800,7.22352490234375,2.411693572998047,-1.358702301979065,0.5855860710144043
1761838602054595000,7.233594970703125,2.4274303913116455,-1.4981930255889893,0.348193496465683
1761838602064665000,7.2436650390625,2.3887202739715576,-1.3461401462554932,0.1538868546485901
1761838602074734800,7.25373486328125,2.284599542617798,-0.9678020477294922,0.016207244247198105
1761838602084804000,7.26380419921875,2.114589214324951,-0.3990437388420105,-0.0851244330406189
1761838602094873900,7.273873779296875,1.908213496208191,0.2042076140642166,-0.16619174182415009
1761838602104943900,7.28394384765625,1.698231816291809,0.7156866192817688,-0.2371106594800949
1761838602115014100,7.29401416015625,1.5194281339645386,1.0983740091323853,-0.2953805923461914
1761838602125083000,7.304082763671875,1.3838937282562256,1.3973740339279175,-0.3197043240070343
1761838602135153200,7.314153076171875,1.2881293296813965,1.6235636472702026,-0.31079384684562683
1761838602145223000,7.324222900390625,1.247369408607483,1.8298918008804321,-0.272600919008255
1761838602155292200,7.334292236328125,1.252808690071106,2.0474934577941895,-0.23732462525367737
1761838602165362000,7.34436181640625,1.2875453233718872,2.1797964572906494,-0.23603512346744537
1761838602175432000,7.354431884765625,1.358518362045288,2.2175166606903076,-0.27583837509155273
1761838602185502000,7.364501953125,1.452291488647461,2.196805238723755,-0.3400077819824219
1761838602195571000,7.374571044921875,1.5431429147720337,2.13392972946167,-0.40816229581832886
1761838602205641000,7.384640869140625,1.6223084926605225,2.0885348320007324,-0.45144104957580566
1761838602215711000,7.3947109375,1.7029863595962524,2.0917279720306396,-0.44403770565986633
1761838602225781000,7.404781005859375,1.7843120098114014,2.0981392860412598,-0.3862423002719879
1761838602235850000,7.41485009765625,1.8577651977539062,2.055459976196289,-0.3041599690914154
1761838602245920000,7.424919921875,1.9075404405593872,1.9464647769927979,-0.21465887129306793
1761838602255990000,7.434989990234375,1.9349708557128906,1.759896993637085,-0.13479840755462646
1761838602266059800,7.445059814453125,1.948019027709961,1.529466986656189,-0.048962317407131195
1761838602276129000,7.45512890625,1.9597235918045044,1.277275562286377,0.05399415269494057
1761838602286198800,7.46519873046875,1.9772381782531738,1.0122567415237427,0.15766409039497375
1761838602296269000,7.47526904296875,2.0055551528930664,0.7438279390335083,0.2676851451396942
1761838602306339000,7.485339111328125,2.0280799865722656,0.524183988571167,0.37171992659568787
1761838602316407800,7.49540771484375,2.0449137687683105,0.38208237290382385,0.4607078731060028
1761838602326478000,7.50547802734375,2.0580406188964844,0.29328539967536926,0.5289002060890198
1761838602336548000,7.515548095703125,2.0683648586273193,0.23173315823078156,0.5678017139434814
1761838602346617000,7.5256171875,2.0898637771606445,0.15099143981933594,0.5847623348236084
1761838602356687000,7.53568701171875,2.116093635559082,-0.014964882284402847,0.5847722291946411
1761838602366756900,7.5457568359375,2.129638433456421,-0.2576443552970886,0.5656712651252747
1761838602376827000,7.555826904296875,2.1241540908813477,-0.48876962065696716,0.5399224162101746
1761838602386896000,7.565895751953125,2.077016830444336,-0.635549783706665,0.5114042162895203
1761838602396966000,7.5759658203125,2.0090227127075195,-0.7014563679695129,0.46007877588272095
1761838602407036200,7.5860361328125,1.9285368919372559,-0.7545585036277771,0.36618661880493164
1761838602417106000,7.59610595703125,1.8367010354995728,-0.7662497758865356,0.2357129603624344
1761838602427175200,7.606175048828125,1.7287538051605225,-0.6933239102363586,0.09308256208896637
1761838602437245000,7.616244873046875,1.6228294372558594,-0.534651517868042,-0.028931355103850365
1761838602447315000,7.62631494140625,1.5464907884597778,-0.29072272777557373,-0.12073931097984314
1761838602457385000,7.636385009765625,1.5201455354690552,-0.007151381112635136,-0.1906762570142746
1761838602467454000,7.646453857421875,1.5354843139648438,0.2147618532180786,-0.282388836145401
1761838602477524000,7.65652392578125,1.5821607112884521,0.3039233684539795,-0.4076022207736969
1761838602487594000,7.666593994140625,1.663095474243164,0.2991237938404083,-0.5327126979827881
1761838602497663000,7.6766630859375,1.6798306703567505,0.2897857129573822,-0.6921547055244446
1761838602507733000,7.68673291015625,1.6454298496246338,0.2520873248577118,-0.8470492362976074
1761838602517803000,7.696802978515625,1.640619158744812,0.25795063376426697,-0.954602062702179
1761838602527873000,7.706873046875,1.6780171394348145,0.33176785707473755,-0.9911619424819946
1761838602537942000,7.71694189453125,1.742039442062378,0.47295841574668884,-0.9615607857704163
1761838602548012000,7.727011962890625,1.8312851190567017,0.6450494527816772,-0.901724100112915
1761838602558081800,7.737081787109375,1.9380981922149658,0.7873011827468872,-0.8307572603225708
1761838602568152000,7.747152099609375,2.039442300796509,0.8798324465751648,-0.7515143752098083
1761838602578221000,7.757220947265625,2.1162023544311523,0.9741438031196594,-0.6670652627944946
1761838602588290800,7.767290771484375,2.177294969558716,1.1018553972244263,-0.5610607862472534
1761838602598361000,7.777361083984375,2.2486860752105713,1.234572410583496,-0.44165289402008057
1761838602608430800,7.787430908203125,2.3246920108795166,1.315793752670288,-0.3306020200252533
1761838602618500000,7.7975,2.401975154876709,1.305996298789978,-0.24665500223636627
1761838602628570000,7.807570068359375,2.4641151428222656,1.2352848052978516,-0.17357440292835236
1761838602638639900,7.817639892578125,2.5178990364074707,1.1527819633483887,-0.10842141509056091
1761838602648709000,7.827709228515625,2.5621650218963623,1.0884090662002563,-0.045489583164453506
1761838602658779000,7.83777880859375,2.6003637313842773,1.0487309694290161,0.03198380023241043
1761838602668849000,7.847848876953125,2.636441707611084,1.0540649890899658,0.12418884038925171
1761838602678919200,7.857919189453125,2.6797714233398438,1.1234130859375,0.24003271758556366
1761838602688988000,7.86798779296875,2.749300479888916,1.2581030130386353,0.3782028555870056
1761838602699058200,7.87805810546875,2.8616514205932617,1.480617642402649,0.5338096022605896
1761838602709128000,7.8881279296875,3.030019760131836,1.765607476234436,0.7164481282234192
1761838602719198000,7.898197998046875,3.2169768810272217,1.9106297492980957,0.8261567950248718
1761838602729267000,7.908266845703125,3.430375337600708,1.819739818572998,0.8659502863883972
1761838602739337000,7.9183369140625,3.6554815769195557,1.6213165521621704,0.8870101571083069
1761838602749407000,7.928406982421875,3.8284249305725098,1.4185413122177124,0.8948153853416443
1761838602759476000,7.93847607421875,3.9604647159576416,1.0417522192001343,0.9130188822746277
1761838602769545000,7.948544921875,4.011096000671387,0.47562509775161743,0.9218917489051819
1761838602779614000,7.958614013671875,3.90622615814209,-0.09343817085027695,0.9315043091773987
1761838602789684000,7.96868408203125,3.612933397293091,-0.42070072889328003,0.924900472164154
1761838602799754000,7.97875390625,3.180469036102295,-0.47608286142349243,0.9074572920799255
1761838602809824000,7.988823974609375,2.7247822284698486,-0.4269707202911377,0.9365991950035095
1761838602819893000,7.99889306640625,2.2927651405334473,-0.21846440434455872,0.9253350496292114
1761838602829963000,8.008962890625,1.949863076210022,0.13921943306922913,0.8789065480232239
1761838602840033000,8.019032958984376,1.759265661239624,0.5747944116592407,0.8161882162094116
1761838602850102800,8.029102783203125,1.7191855907440186,0.9634308218955994,0.7354699373245239
1761838602860172000,8.039172119140625,1.7826586961746216,1.2786595821380615,0.6590033769607544
1761838602870241800,8.04924169921875,1.872389554977417,1.5268707275390625,0.6042695641517639
1761838602880312000,8.05931201171875,1.9418065547943115,1.6748515367507935,0.5736911296844482
1761838602890380800,8.069380859375,1.9688628911972046,1.6916275024414062,0.5585124492645264
1761838602900451000,8.079451171875,1.960559606552124,1.5890848636627197,0.5579769611358643
1761838602910521000,8.08952099609375,1.8915953636169434,1.4190382957458496,0.5326827764511108
1761838602920590800,8.0995908203125,1.7610564231872559,1.2376900911331177,0.46204403042793274
1761838602930660000,8.10966015625,1.6037547588348389,1.092481017112732,0.33149561285972595
1761838602940729900,8.119729736328125,1.4594353437423706,1.03372323513031,0.1359848827123642
1761838602950800000,8.1297998046875,1.3749366998672485,1.0720891952514648,-0.09683158993721008
1761838602960869000,8.139869140625,1.356919288635254,1.1466753482818604,-0.3430691063404083
1761838602970937900,8.149937744140624,1.3945717811584473,1.2213479280471802,-0.5647876262664795
1761838602981008100,8.160008056640624,1.4731534719467163,1.2933204174041748,-0.7335010170936584
1761838602991078100,8.170078125,1.5648442506790161,1.3736613988876343,-0.841354489326477
1761838603001147100,8.180147216796875,1.6530797481536865,1.439112901687622,-0.8903210163116455
1761838603011217200,8.190217041015625,1.7417811155319214,1.462800145149231,-0.9111143946647644
1761838603021287000,8.200286865234375,1.8333039283752441,1.4289517402648926,-0.9160010814666748
1761838603031357000,8.21035693359375,1.9192079305648804,1.330987572669983,-0.9153112769126892
1761838603041426000,8.220426025390625,1.9817849397659302,1.1869943141937256,-0.9156782031059265
1761838603051496000,8.230495849609374,2.0024757385253906,1.03109872341156,-0.8977423906326294
1761838603061566200,8.240566162109374,1.9845573902130127,0.9053834080696106,-0.8610208630561829
1761838603071635000,8.250635009765626,1.916606068611145,0.8563791513442993,-0.8205367922782898
1761838603081705200,8.260705322265625,1.8231914043426514,0.8618975281715393,-0.7919375896453857
1761838603091775000,8.27077490234375,1.7273577451705933,0.9117920994758606,-0.7873359322547913
1761838603101845000,8.280844970703125,1.6438308954238892,0.9619466066360474,-0.8202720880508423
1761838603111914200,8.290914306640625,1.580106258392334,0.9792992472648621,-0.8591454029083252
1761838603121984000,8.30098388671875,1.53899085521698,0.9209638237953186,-0.8794681429862976
1761838603132054000,8.311053955078124,1.5111171007156372,0.8119571805000305,-0.8823472857475281
1761838603142124000,8.3211240234375,1.4976367950439453,0.6771108508110046,-0.8593145608901978
1761838603152193000,8.331193115234376,1.5028584003448486,0.548642635345459,-0.8361592292785645
1761838603162263000,8.341262939453125,1.5150154829025269,0.41341322660446167,-0.8283974528312683
1761838603172333000,8.3513330078125,1.5320147275924683,0.22265607118606567,-0.8641916513442993
1761838603182402000,8.361402099609375,1.5365971326828003,-0.03220763057470322,-0.9353646636009216
1761838603192472000,8.37147216796875,1.5586276054382324,-0.24368712306022644,-1.010809302330017
1761838603202542000,8.3815419921875,1.6332683563232422,-0.3642186224460602,-1.0631771087646484
1761838603212612000,8.391612060546874,1.7427990436553955,-0.498229444026947,-1.1084247827529907
1761838603222681000,8.40168115234375,1.817219614982605,-0.746881365776062,-1.1666059494018555
1761838603232751000,8.411751220703126,1.7912594079971313,-1.0413655042648315,-1.236208200454712
1761838603242820900,8.42182080078125,1.6424567699432373,-1.2923107147216797,-1.2891396284103394
1761838603252890000,8.43189013671875,1.393880009651184,-1.4105545282363892,-1.2929128408432007
1761838603262959900,8.4419599609375,1.0765738487243652,-1.3254023790359497,-1.2256587743759155
1761838603273030100,8.452030029296875,0.7873201370239258,-1.0652261972427368,-1.0928045511245728
1761838603283100200,8.46210009765625,0.5871778130531311,-0.7223337292671204,-0.9241279363632202
1761838603293169000,8.4721689453125,0.48842623829841614,-0.3339678943157196,-0.7435765266418457
1761838603303239200,8.4822392578125,0.44758841395378113,-0.01969568058848381,-0.6099084615707397
1761838603313309000,8.492308837890626,0.44507065415382385,0.16157957911491394,-0.544439971446991
1761838603323379000,8.50237890625,0.49935415387153625,0.2196921706199646,-0.517326295375824
1761838603333448200,8.5124482421875,0.6102780103683472,0.1534055471420288,-0.49475544691085815
1761838603343518000,8.52251806640625,0.7755066752433777,0.012524574063718319,-0.42529839277267456
1761838603353588200,8.532588134765625,0.9807090759277344,-0.17919452488422394,-0.32154378294944763
1761838603363657000,8.542656982421875,1.1841074228286743,-0.40102604031562805,-0.18147799372673035
1761838603373727000,8.55272705078125,1.3660129308700562,-0.5871213674545288,-0.011450866237282753
1761838603383797200,8.56279736328125,1.5233922004699707,-0.7245440483093262,0.18261362612247467
1761838603393866000,8.572865966796876,1.5943387746810913,-0.8342213034629822,0.3733375072479248
1761838603403936300,8.582936279296876,1.5556118488311768,-0.9312149882316589,0.5206375122070312
1761838603414006000,8.593006103515625,1.3923262357711792,-0.9763984084129333,0.6131070256233215
1761838603424076000,8.603075927734375,1.1472599506378174,-0.9269832968711853,0.6513617038726807
1761838603434145000,8.61314501953125,0.8951950073242188,-0.7867223024368286,0.6450888514518738
1761838603444215000,8.623215087890625,0.6813840270042419,-0.6009249091148376,0.5885900855064392
1761838603454285000,8.63328515625,0.5498089790344238,-0.40588968992233276,0.5142351388931274
1761838603464355000,8.64335498046875,0.48631927371025085,-0.20339633524417877,0.43709656596183777
1761838603474424000,8.653424072265626,0.4779612123966217,-0.0189918614923954,0.37971076369285583
1761838603484494000,8.663494140625,0.5168124437332153,0.1048608124256134,0.35064685344696045
1761838603494564000,8.673564208984375,0.5942047238349915,0.14229367673397064,0.3504612445831299
1761838603504632800,8.6836328125,0.6889193654060364,0.11211603879928589,0.3824021816253662
1761838603514703000,8.693703125,0.7504828572273254,0.05411585420370102,0.42759284377098083
1761838603524773000,8.703773193359375,0.7805553078651428,0.011813734658062458,0.4611085057258606
1761838603534843000,8.7138427734375,0.7826794385910034,0.006159577518701553,0.4740307033061981
1761838603544912100,8.723912109375,0.7770940065383911,0.036239419132471085,0.44473642110824585
1761838603554982000,8.73398193359375,0.7897911667823792,0.054960645735263824,0.374037504196167
1761838603565052200,8.74405224609375,0.8285598158836365,0.06844712793827057,0.2832449674606323
1761838603575121200,8.75412109375,0.8717054128646851,0.11326040327548981,0.19847576320171356
1761838603585191000,8.76419091796875,0.8994480967521667,0.16175813972949982,0.11929311603307724
1761838603595261200,8.77426123046875,0.9143370389938354,0.23151086270809174,0.06866109371185303
1761838603605331000,8.7843310546875,0.9341471195220947,0.4160676896572113,0.07933587580919266
1761838603615400200,8.794400146484374,0.978436291217804,0.7444788813591003,0.14948248863220215
1761838603625470200,8.80447021484375,1.0554311275482178,1.1552010774612427,0.257076233625412
1761838603635540000,8.8145400390625,1.1879404783248901,1.50748610496521,0.36112675070762634
1761838603645610000,8.82460986328125,1.3595610857009888,1.7111635208129883,0.4516279101371765
1761838603655679000,8.834678955078125,1.5223348140716553,1.7625731229782104,0.5266358256340027
1761838603665749000,8.8447490234375,1.6474777460098267,1.6453591585159302,0.594273030757904
1761838603675819300,8.8548193359375,1.7538987398147583,1.3442480564117432,0.6712990999221802
1761838603685888000,8.864887939453125,1.8384015560150146,0.8993093371391296,0.7521198987960815
1761838603695958000,8.8749580078125,1.8673897981643677,0.4304768741130829,0.8175559043884277
1761838603706028000,8.885028076171874,1.813034176826477,-0.03180266544222832,0.8425048589706421
1761838603716097000,8.895096923828126,1.6793415546417236,-0.3669319450855255,0.8466711044311523
1761838603726167000,8.9051669921875,1.5067837238311768,-0.4837232530117035,0.8480697870254517
1761838603736237000,8.915237060546875,1.335278868675232,-0.379157155752182,0.8481829762458801
1761838603746307000,8.92530712890625,1.1870570182800293,-0.17037276923656464,0.8001862168312073
1761838603756376000,8.9353759765625,1.065956711769104,0.05743882805109024,0.682094156742096
1761838603766446000,8.945446044921875,0.9480807781219482,0.2557365596294403,0.4905479848384857
1761838603776515800,8.955515869140624,0.8245332837104797,0.42289096117019653,0.23630185425281525
1761838603786586000,8.965586181640624,0.708021879196167,0.617678165435791,-0.030687350779771805
1761838603796654800,8.97565478515625,0.6362819075584412,0.8823162317276001,-0.2721005082130432
1761838603806725000,8.98572509765625,0.5987675786018372,1.1875934600830078,-0.4652138650417328
1761838603816795100,8.995795166015625,0.5707141160964966,1.5139076709747314,-0.6107247471809387
1761838603826864000,9.005864013671875,0.5525756478309631,1.819244146347046,-0.7318832278251648
1761838603836934100,9.01593408203125,0.5785563588142395,2.0026350021362305,-0.8446763753890991
1761838603847004000,9.02600390625,0.66614830493927,2.0346717834472656,-0.9245736002922058
1761838603857073200,9.0360732421875,0.7905279994010925,1.9570382833480835,-0.9528158903121948
1761838603867143200,9.04614306640625,0.9226123094558716,1.8645286560058594,-0.9058756828308105
1761838603877213000,9.056212890625,1.0282875299453735,1.8007712364196777,-0.7997474074363708
1761838603887283200,9.066283203125,1.0822851657867432,1.7514265775680542,-0.6695034503936768
1761838603897352000,9.07635205078125,1.0905712842941284,1.6969164609909058,-0.5201744437217712
1761838603907422000,9.086421875,1.0671896934509277,1.6075915098190308,-0.3796461224555969
1761838603917492200,9.0964921875,1.0193374156951904,1.475555658340454,-0.24838611483573914
1761838603927562000,9.10656201171875,0.9352818727493286,1.2962833642959595,-0.1456189751625061
1761838603937631200,9.11663134765625,0.8014838695526123,1.0855239629745483,-0.06741658598184586
1761838603947701000,9.126700927734374,0.619822084903717,0.882120668888092,0.0016418243758380413
1761838603957771000,9.13677099609375,0.40214622020721436,0.6517620086669922,0.06614438444375992
1761838603967840300,9.14684033203125,0.1902877688407898,0.36133790016174316,0.14458943903446198
1761838603977910000,9.156909912109375,0.05003691464662552,0.06999155133962631,0.2609884738922119
1761838603987980000,9.16697998046875,-0.01985018327832222,-0.17691068351268768,0.42362332344055176
1761838603998050300,9.17705029296875,-0.06333693861961365,-0.34602221846580505,0.6342799067497253
1761838604008119000,9.187119140625,-0.12269150465726852,-0.4637691378593445,0.8881692886352539
1761838604018189300,9.197189208984375,-0.26142728328704834,-0.6508777141571045,1.1095682382583618
1761838604028259000,9.207259033203124,-0.5290951132774353,-0.9343819618225098,1.2551606893539429
1761838604038328000,9.217328125,-0.9115500450134277,-1.2484084367752075,1.2998394966125488
1761838604048398000,9.227398193359376,-1.3351154327392578,-1.6093885898590088,1.212199330329895
1761838604058468000,9.237468017578125,-1.6927454471588135,-1.9314968585968018,1.0231399536132812
1761838604068537000,9.247537109375,-1.9294999837875366,-2.032228469848633,0.79298335313797
1761838604078607000,9.257607177734375,-2.059997320175171,-1.9116883277893066,0.5547907948493958
1761838604088677000,9.267677001953125,-2.089026689529419,-1.58347749710083,0.3421146273612976
1761838604098747100,9.2777470703125,-2.013852119445801,-1.1581403017044067,0.15409280359745026
1761838604108816100,9.287816162109374,-1.83332359790802,-0.8509856462478638,-0.03526084125041962
1761838604118886000,9.297885986328126,-1.5720709562301636,-0.6557894945144653,-0.2137506902217865
1761838604128956200,9.3079560546875,-1.2581560611724854,-0.5877928733825684,-0.3892417252063751
1761838604139025200,9.318025146484375,-0.9088773131370544,-0.72133868932724,-0.5289804339408875
1761838604149095200,9.32809521484375,-0.5880958437919617,-1.037338376045227,-0.6151289939880371
1761838604159165200,9.338165283203125,-0.3620624840259552,-1.4582024812698364,-0.6395941376686096
1761838604169235000,9.34823486328125,-0.2560727000236511,-1.92311692237854,-0.6056287288665771
1761838604179304200,9.35830419921875,-0.26354101300239563,-2.3219127655029297,-0.5212613940238953
1761838604189374200,9.368374267578124,-0.34818434715270996,-2.526334524154663,-0.3863085210323334
1761838604199444000,9.37844384765625,-0.5065412521362305,-2.4423718452453613,-0.2234247773885727
1761838604209513200,9.38851318359375,-0.7043850421905518,-2.11268949508667,-0.07459276169538498
1761838604219583000,9.3985830078125,-0.8914604187011719,-1.6646767854690552,0.029007935896515846
1761838604229653200,9.4086533203125,-1.0227879285812378,-1.1921513080596924,0.06765144318342209
1761838604239723300,9.41872314453125,-1.0941963195800781,-0.7535004019737244,0.045780766755342484
1761838604249792000,9.4287919921875,-1.1066864728927612,-0.36649495363235474,-0.03634339198470116
1761838604259862300,9.4388623046875,-1.0777837038040161,-0.04731055721640587,-0.15068380534648895
1761838604269932000,9.44893212890625,-1.0254738330841064,0.1378502994775772,-0.30193471908569336
1761838604280001300,9.459001220703126,-0.9547940492630005,0.18018017709255219,-0.4536432921886444
1761838604290071000,9.469071044921876,-0.871194064617157,0.12652450799942017,-0.5659762620925903
1761838604300141000,9.47914111328125,-0.7750811576843262,0.051051050424575806,-0.602172315120697
1761838604310211000,9.489211181640625,-0.6771247386932373,-0.02528606355190277,-0.5759649872779846
1761838604320280000,9.499280029296875,-0.5979524254798889,-0.05662694200873375,-0.4994254410266876
1761838604330350000,9.50935009765625,-0.543068528175354,-0.06028451770544052,-0.3905004858970642
1761838604340420000,9.519420166015625,-0.5075400471687317,-0.05090007185935974,-0.26602059602737427
1761838604350489000,9.529489013671874,-0.484637975692749,-0.014241623692214489,-0.1271621584892273
1761838604360559000,9.53955908203125,-0.4682382345199585,0.048459041863679886,0.024142403155565262
1761838604370629000,9.549629150390626,-0.44057008624076843,0.1320016235113144,0.19425708055496216
1761838604380699100,9.55969921875,-0.387143075466156,0.27313530445098877,0.40022382140159607
1761838604390768000,9.56976806640625,-0.3192497491836548,0.47194570302963257,0.6282468438148499
1761838604400838100,9.579838134765625,-0.2595371603965759,0.6986270546913147,0.8490543365478516
1761838604410908000,9.589907958984375,-0.22914277017116547,0.898809015750885,1.0329481363296509
1761838604420977200,9.59997705078125,-0.2064015120267868,1.0673900842666626,1.1827837228775024
1761838604431047200,9.610047119140624,-0.15279144048690796,1.2002050876617432,1.2937774658203125
1761838604441117000,9.620116943359376,-0.038852088153362274,1.2153582572937012,1.3477752208709717
1761838604451187200,9.630187255859376,0.12580618262290955,1.0411500930786133,1.3246195316314697
1761838604461256000,9.640255859375,0.3585891127586365,0.690586507320404,1.2633527517318726
1761838604471326200,9.650326171875,0.6232575178146362,0.20800402760505676,1.144577980041504
1761838604481396200,9.660396240234375,0.8802019953727722,-0.3066031336784363,0.975204586982727
1761838604491465200,9.67046533203125,1.0959320068359375,-0.7025275826454163,0.8274640440940857
1761838604501535200,9.68053515625,1.2012150287628174,-0.9276595115661621,0.7270908355712891
1761838604511605000,9.69060498046875,1.1307380199432373,-1.0307716131210327,0.6659699082374573
1761838604521674200,9.70067431640625,0.9037354588508606,-1.0859030485153198,0.6195119023323059
1761838604531744000,9.710743896484376,0.6064589619636536,-1.088678002357483,0.5820804834365845
1761838604541814000,9.72081396484375,0.2792302966117859,-0.9825928211212158,0.5577381253242493
1761838604551884300,9.73088427734375,-0.06958606094121933,-0.72150719165802,0.5183537602424622
1761838604561953000,9.740953125,-0.42070043087005615,-0.3043736219406128,0.4344697594642639
1761838604572023000,9.75102294921875,-0.7045684456825256,0.21470628678798676,0.2819725275039673
1761838604582093000,9.761093017578125,-0.8685504794120789,0.7171366214752197,0.07166110724210739
1761838604592162000,9.771162109375,-0.90701824426651,1.1195635795593262,-0.17744101583957672
1761838604602232000,9.781232177734376,-0.844186544418335,1.4099334478378296,-0.4473678469657898
1761838604612302000,9.791302001953126,-0.7308725118637085,1.5931475162506104,-0.6981070041656494
1761838604622372000,9.8013720703125,-0.6149168610572815,1.6704589128494263,-0.9067757725715637
1761838604632441000,9.811441162109375,-0.538255512714386,1.648521065711975,-1.0601907968521118
1761838604642511000,9.821510986328125,-0.5013670325279236,1.552231788635254,-1.1384479999542236
1761838604652581000,9.8315810546875,-0.4837919771671295,1.40092134475708,-1.1327513456344604
1761838604662650000,9.841650146484374,-0.4527032971382141,1.2116203308105469,-1.061789870262146
1761838604672720100,9.85172021484375,-0.39737269282341003,1.0192893743515015,-0.9187821745872498
1761838604682790100,9.8617900390625,-0.3505990505218506,0.8582752346992493,-0.7357050180435181
1761838604692860200,9.871860107421876,-0.3514997661113739,0.7024424076080322,-0.5356221199035645
1761838604702929000,9.881928955078125,-0.39703211188316345,0.5407227277755737,-0.3504032492637634
1761838604712999200,9.891999267578125,-0.47917869687080383,0.40894702076911926,-0.1960291564464569
1761838604723069200,9.902069091796875,-0.5652837753295898,0.279746413230896,-0.07554029673337936
1761838604733138200,9.91213818359375,-0.6330557465553284,0.15239982306957245,0.004831021185964346
1761838604743208200,9.922208251953125,-0.6946269869804382,0.04512317106127739,0.053035300225019455
1761838604753278000,9.93227783203125,-0.7322295904159546,-0.07665322721004486,0.08213534951210022
1761838604763347200,9.94234716796875,-0.7440779805183411,-0.20310357213020325,0.12129607051610947
1761838604773417000,9.9524169921875,-0.7249699831008911,-0.31549063324928284,0.17866037786006927
1761838604783487000,9.962487060546875,-0.6893843412399292,-0.42809656262397766,0.24924825131893158
1761838604793557200,9.97255712890625,-0.6401583552360535,-0.5222185850143433,0.3349873423576355
1761838604803626000,9.9826259765625,-0.5864945650100708,-0.5799567103385925,0.45461785793304443
1761838604813696300,9.9926962890625,-0.5520899891853333,-0.629985511302948,0.6060211062431335
1761838604823766000,10.00276611328125,-0.5878642201423645,-0.6502916216850281,0.7505642175674438
1761838604833835000,10.0128349609375,-0.7381424307823181,-0.6674456596374512,0.8410416841506958
1761838604843905300,10.0229052734375,-1.0368926525115967,-0.7661547064781189,0.8135461211204529
1761838604853975000,10.03297509765625,-1.4483035802841187,-1.0658015012741089,0.6178783178329468
1761838604864045000,10.043045166015625,-1.8600842952728271,-1.493088960647583,0.30243057012557983
1761838604874114000,10.053114013671875,-2.1646316051483154,-1.8465383052825928,-0.02188197895884514
1761838604884184000,10.06318408203125,-2.312828779220581,-1.984355092048645,-0.2862609028816223
1761838604894254000,10.073254150390625,-2.314178943634033,-1.8867002725601196,-0.4650818407535553
1761838604904323000,10.083322998046874,-2.201418399810791,-1.6079427003860474,-0.5820382833480835
1761838604914393000,10.09339306640625,-2.0084762573242188,-1.2455010414123535,-0.6581347584724426
1761838604924463000,10.103463134765626,-1.787078619003296,-0.9827018976211548,-0.754569411277771
1761838604934533000,10.113533203125,-1.5436984300613403,-0.965211033821106,-0.8858880400657654
1761838604944602000,10.12360205078125,-1.2958604097366333,-1.2067121267318726,-1.0512436628341675
1761838604954672000,10.133672119140625,-1.0548772811889648,-1.6628172397613525,-1.2568870782852173
1761838604964742400,10.143742431640625,-0.8272169232368469,-2.1461069583892822,-1.4515271186828613
1761838604974811400,10.153811279296875,-0.6783387660980225,-2.535205841064453,-1.579644799232483
1761838604984881400,10.16388134765625,-0.645664393901825,-2.62339186668396,-1.5930064916610718
1761838604994951200,10.173951171875,-0.6895527839660645,-2.4057393074035645,-1.479420781135559
1761838605005020400,10.1840205078125,-0.7455718517303467,-1.904626727104187,-1.247261881828308
1761838605015090400,10.19409033203125,-0.7791686654090881,-1.2051061391830444,-0.9396064877510071
1761838605025160200,10.20416015625,-0.7779644131660461,-0.4791451692581177,-0.6169652938842773
1761838605035230500,10.21423046875,-0.7589459419250488,0.1825409084558487,-0.27960094809532166
1761838605045299200,10.22429931640625,-0.7492544651031494,0.7047633528709412,0.04730100557208061
1761838605055369500,10.234369384765625,-0.759868323802948,1.03141188621521,0.32385674118995667
1761838605065439500,10.244439453125,-0.7758009433746338,1.1930793523788452,0.5397621393203735
1761838605075508500,10.254508544921874,-0.7866270542144775,1.2347007989883423,0.7042210102081299
1761838605085578500,10.26457861328125,-0.8178781867027283,1.213361144065857,0.8134931325912476
1761838605095648300,10.274648193359376,-0.8602859973907471,1.1025447845458984,0.8526890873908997
1761838605105718300,10.28471826171875,-0.8962506651878357,0.8905190825462341,0.7971677780151367
1761838605115787300,10.294787353515625,-0.9159578680992126,0.6156790852546692,0.6862746477127075
1761838605125857300,10.304857177734375,-0.9273024201393127,0.3791315257549286,0.5679343938827515
1761838605135927600,10.314927490234375,-0.9489184617996216,0.2596997916698456,0.4650590121746063
1761838605145996300,10.324996337890624,-0.9748770594596863,0.25466564297676086,0.37919601798057556
1761838605156066300,10.33506640625,-0.9527175426483154,0.32045331597328186,0.3177143335342407
1761838605166136300,10.34513623046875,-0.8644121885299683,0.4335452616214752,0.29922160506248474
1761838605176206300,10.355206298828126,-0.7412445545196533,0.5801098942756653,0.3081200420856476
1761838605186275300,10.365275390625,-0.5974024534225464,0.726051926612854,0.3185138404369354
1761838605196345300,10.375345458984375,-0.4347092807292938,0.8495437502861023,0.32111191749572754
1761838605206415400,10.385415283203125,-0.2965679168701172,0.9219420552253723,0.31171444058418274
1761838605216484400,10.395484375,-0.25770819187164307,0.9081398248672485,0.31300088763237
1761838605226554400,10.405554443359375,-0.3739114999771118,0.6239970326423645,0.31092867255210876
1761838605236624100,10.4156240234375,-0.4775412678718567,0.17958904802799225,0.26490700244903564
1761838605246693400,10.425693359375,-0.4758080840110779,-0.16437605023384094,0.21690085530281067
1761838605256763400,10.435763427734376,-0.44335293769836426,-0.416574090719223,0.1531827598810196
1761838605266833400,10.44583349609375,-0.3963196575641632,-0.5394201278686523,0.08968553692102432
1761838605276903400,10.4559033203125,-0.3455336093902588,-0.5230827331542969,0.029700951650738716
1761838605286972200,10.46597216796875,-0.32887953519821167,-0.4651941657066345,-0.04038119316101074
1761838605297042400,10.47604248046875,-0.36429840326309204,-0.3873012661933899,-0.1259024739265442
1761838605307112400,10.486112548828125,-0.46365082263946533,-0.28180068731307983,-0.2479383647441864
