time,seconds_elapsed,z,y,x
1761838729118786800,0.076786865234375,0.1504874985873699,-0.05730068084597587,-0.0759906952034682
1761838729128856800,0.08685693359375,0.21021686788499355,-0.20232406880855558,-0.0759482443012297
1761838729138926800,0.0969267578125,0.3126449767023325,-0.2970978634804487,-0.13592895801141858
1761838729148995800,0.106995849609375,0.32047990811169147,-0.32564182091951366,-0.20004428730830548
1761838729159065600,0.117065673828125,0.30118717862069605,-0.3043105713382363,-0.2601430013749748
1761838729169135900,0.127135986328125,0.27660452602803703,-0.2612348151996732,-0.32364348670914767
1761838729179206000,0.137205810546875,0.16902794840633867,-0.24990473515093325,-0.3540522881720215
1761838729189275000,0.14727490234375,0.0918991160184145,-0.22831074298024176,-0.3816700706768781
1761838729199345000,0.157344970703125,0.07275602413117885,-0.20985124944299458,-0.39040691936202343
1761838729209414700,0.16741455078125,0.04468611394464969,-0.2039949246302247,-0.3566117633964866
1761838729219484000,0.17748388671875,0.006140986973047256,-0.22561901967823503,-0.28856428228244185
1761838729229553700,0.1875537109375,0.02370703880190849,-0.22493863619863985,-0.2565912271775305
1761838729239623700,0.197623779296875,0.07436755098104476,-0.18513181872814893,-0.22880386025942862
1761838729249694000,0.20769384765625,0.04230477176606655,-0.16475041721761224,-0.16108100798986852
1761838729259762700,0.2177626953125,-0.01973345899581909,-0.1754433684065938,-0.09138254479840398
1761838729269833000,0.2278330078125,0.045533086162805554,-0.13294833476543425,-0.07681713609024882
1761838729279903000,0.237903076171875,0.08018062117397785,-0.08776566947549581,-0.043616438886523244
1761838729289971700,0.2479716796875,0.031516835770010944,-0.06207300981432199,-0.004005143988132477
1761838729300042000,0.2580419921875,0.045001171243190766,-0.02931903346478939,0.01885207305140793
1761838729310111700,0.26811181640625,0.14766601142585276,0.011081658245623112,0.02821815955080092
1761838729320181800,0.278181640625,0.19853461339771747,0.0348649771541357,0.04914345867969096
1761838729330250800,0.288250732421875,0.24633155283927916,0.031977731280028815,0.09603088206090032
1761838729340320800,0.29832080078125,0.26533202138543127,0.03728782038688659,0.13712737401574848
1761838729350390800,0.308390869140625,0.22264204969406126,0.06251461610198021,0.17707681482732296
1761838729360459800,0.318459716796875,0.14680501068234442,0.06460691220611334,0.1931826579105109
1761838729370529800,0.32852978515625,0.20080138928592203,0.08149433412104845,0.1604002591840923
1761838729380599800,0.338599853515625,0.19653028783798215,0.13927110804617404,0.14895254410505293
1761838729390668800,0.348668701171875,0.11995967385470867,0.1579059581503272,0.15863953312188386
1761838729400738800,0.35873876953125,0.09579027823805808,0.17267974891215562,0.1578770243167877
1761838729410808800,0.368808837890625,0.10801730712652206,0.16968991944640874,0.187820546355471
1761838729420878800,0.37887890625,0.1004559319615364,0.13482348098754882,0.2234551196426153
1761838729430947800,0.38894775390625,0.055465282112359994,0.11338964781463146,0.24907588311135767
1761838729441017900,0.399017822265625,0.02594868024885654,0.12828268104195595,0.2503426881767809
1761838729451087600,0.409087646484375,0.01982932058572769,0.12628215487450362,0.2079846518535167
1761838729461156900,0.419156982421875,0.07265782445371151,0.11262246283441782,0.16810688803866505
1761838729471227000,0.429226806640625,0.10228256286680698,0.06233458335995674,0.15105163527615367
1761838729481297000,0.439296875,0.12219430103898048,0.04565875836908817,0.14880356408841908
1761838729491367000,0.449366943359375,0.12047989833652972,0.009720014503598213,0.15477372453920543
1761838729501435600,0.459435546875,0.1325724871903658,-0.0300745280072093,0.11082198928371072
1761838729511506000,0.469505859375,0.2023673234283924,-0.004169979161024093,-0.016724194177240134
1761838729521576000,0.479575927734375,0.10481997238993644,0.011344400835037231,-0.12954568671509623
1761838729531645000,0.48964501953125,-0.0612602321267128,-0.0008718143984675407,-0.18034867610484362
1761838729541715000,0.49971484375,-0.17194354359209538,0.006119359663128853,-0.2068492911480367
1761838729551784700,0.50978466796875,-0.20737083080410956,0.0075856328234076495,-0.1980170192644
1761838729561854700,0.519854736328125,-0.2019441295802593,-0.0011073767200112342,-0.19477241131998596
1761838729571923700,0.529923828125,-0.1605745928376913,-0.031123452538251876,-0.18298742711059748
1761838729581993700,0.53999365234375,-0.10961655901670456,-0.06690057610124349,-0.18223302854672074
1761838729592064000,0.55006396484375,-0.09697101245522499,-0.10548691186606883,-0.1600676662288606
1761838729602132700,0.5601328125,-0.20017185921072958,-0.14421294836252926,-0.12073343470618128
1761838729612203000,0.570203125,-0.14902210220992565,-0.12648469170928,-0.11250957704447209
1761838729622272800,0.580272705078125,-0.036272505864500995,-0.1099821774587035,-0.09799524093642831
1761838729632342800,0.5903427734375,-0.05343114593625068,-0.16421148803532123,-0.0433028794253245
1761838729642411800,0.600411865234375,-0.006454290705919265,-0.22243337537944316,-0.009369739761203527
1761838729652481800,0.610481689453125,0.10680150159597396,-0.24437223546504974,-0.02235251892041415
1761838729662551800,0.6205517578125,0.1333078157275915,-0.22864158236980436,-0.0213166000014171
1761838729672620800,0.630620849609375,0.06499006630480289,-0.23854484448581934,-0.002522759943269193
1761838729682690800,0.64069091796875,0.07149579493701458,-0.2420510990411043,-0.02165171370729804
1761838729692760800,0.6507607421875,0.0975847604393959,-0.21662878075391054,-0.04811510201264173
1761838729702830800,0.660830810546875,0.05723579891622066,-0.19025982926636933,-0.06083119305968284
1761838729712899800,0.67089990234375,0.012522796964645385,-0.17564736654609442,-0.047951326285675167
1761838729722969900,0.680969970703125,-0.01937748516499996,-0.19269173258841035,-0.05610332428757101
1761838729733039900,0.691039794921875,-0.05791852048337459,-0.19533464831262826,-0.053525655819289385
1761838729743108900,0.70110888671875,-0.006757657566666603,-0.2228928095847368,-0.06995733332335949
1761838729753179000,0.711178955078125,-0.024990064349770545,-0.27150018862634895,-0.07124445052444935
1761838729763249000,0.721248779296875,-0.01105681606531143,-0.2986842558890581,-0.08002685538437217
1761838729773318700,0.731318603515625,0.042867081823945045,-0.2870166144490242,-0.06902370573505759
1761838729783388000,0.741387939453125,0.07299509358406066,-0.27198680309951306,-0.04552168798595667
1761838729793457700,0.751457763671875,0.09126549428999424,-0.24904256536364555,-0.01402173028551042
1761838729803528000,0.76152783203125,0.10318272657692432,-0.2402230068311095,0.002918956186622381
1761838729813596700,0.7715966796875,0.08879822739362717,-0.2379384030252695,-0.02381977846138179
1761838729823666700,0.781666748046875,0.07920096248686313,-0.1874377575829625,-0.06780366242080926
1761838729833737000,0.791737060546875,0.12522972321212292,-0.11512567782700062,-0.11896602317485958
1761838729843805700,0.8018056640625,0.1681511655718088,-0.06194879891276359,-0.18466368975974617
1761838729853876000,0.8118759765625,0.2066103678256273,-0.015201368524134158,-0.19690430878214538
1761838729863945700,0.82194580078125,0.22235621849000453,-0.009512801493704318,-0.16188662528432904
1761838729874015700,0.832015625,0.21018764179050922,-0.03008008096516132,-0.11700900735557078
1761838729884084700,0.842084716796875,0.23771277757585046,-0.012964695513248442,-0.0673650518078357
1761838729894154800,0.85215478515625,0.3032248219281435,-0.023818974743783472,-0.03960077350437641
1761838729904224800,0.862224853515625,0.3024737112998962,-0.003763444186747074,-0.05022902542669326
1761838729914293800,0.872293701171875,0.29835984624028206,0.0267260943621397,-0.04925769617650658
1761838729924363800,0.88236376953125,0.26457097388505935,-0.0016778700843453405,-0.02539137515965849
1761838729934433800,0.892433837890625,0.20495792444348335,-0.04281710520237684,-0.019037220359966158
1761838729944503800,0.90250390625,0.2471843702763319,0.019452011705935,-0.04919668670427054
1761838729954572800,0.91257275390625,0.35096330918073654,0.08689853125214576,-0.046232101277634496
1761838729964642800,0.922642822265625,0.39233518401086326,0.12599018619060515,0.013886267337575553
1761838729974712800,0.932712890625,0.4220096067845821,0.07211129648685455,0.14220237572509795
1761838729984781800,0.94278173828125,0.4448153128325939,0.019925766697525975,0.28178333517173304
1761838729994851800,0.952851806640625,0.4453624253213405,0.041431203801929946,0.39723493875116106
1761838730004921900,0.962921875,0.5523217478275299,0.05523790309727192,0.5510435445852577
1761838730014992000,0.972991943359375,0.492106056317687,-0.05893880344182253,0.6794856539726257
1761838730025060900,0.983060791015625,0.3636182080924511,-0.24757015472352503,0.7400467979192733
1761838730035130600,0.993130615234375,0.27472704171836376,-0.397897202052176,0.7211778467983007
1761838730045201000,1.003200927734375,0.19197686231732367,-0.5193734179496765,0.6422723601266741
1761838730055269600,1.01326953125,0.06321078167259693,-0.5677157163143157,0.5456659432001412
1761838730065340000,1.02333984375,-0.02718845117688179,-0.5270034744367003,0.41297640550136566
1761838730075410000,1.033409912109375,-0.022005495581030845,-0.4673348954156041,0.26658200318021696
1761838730085475800,1.043475830078125,-0.02625847685039043,-0.41422085260450836,0.12977091030571608
1761838730095545000,1.053545166015625,-0.03620528584718704,-0.3961690630853176,0.06426160589978099
1761838730105614800,1.06361474609375,-0.1263712944626808,-0.42900253441184755,0.017812427805364132
1761838730115684900,1.073684814453125,-0.1943330700546503,-0.39527942076921463,-0.024088000943511722
1761838730125753900,1.08375390625,-0.2679933495491743,-0.3386269746989012,0.01173000261913985
1761838730135824000,1.093823974609375,-0.4074363070309162,-0.28519115258753297,0.04256152300611138
1761838730145894100,1.10389404296875,-0.4741933830082416,-0.2438800680339336,0.065147448823601
1761838730155964000,1.1139638671875,-0.3880512230813503,-0.2752034270584583,0.02288023258894682
1761838730166033200,1.124033203125,-0.2855558942466974,-0.27106881147176026,-0.05198197004124522
1761838730176103000,1.13410302734375,-0.26179917108416556,-0.2910664743617177,-0.19366781107895076
1761838730186173000,1.1441728515625,-0.10400982505083084,-0.4377878984138369,-0.359802083870396
1761838730196242000,1.154241943359375,0.07784428718090057,-0.47495384598672385,-0.5069804579097777
1761838730206312000,1.16431201171875,0.14830781646072863,-0.4924915485039353,-0.6331381826870143
1761838730216382000,1.1743818359375,0.2876835539251566,-0.4620508175328374,-0.6383954456280917
1761838730226452000,1.184451904296875,0.329917598542571,-0.3612380349576473,-0.5301040708005428
1761838730236521000,1.19452099609375,0.4494043941885233,-0.2610433842808008,-0.4180087005801499
1761838730246591000,1.204591064453125,0.664732905998826,-0.13601502885967492,-0.2687106309730559
1761838730256661000,1.214660888671875,0.8665946179926395,-0.044346798987686634,-0.09692140115983784
1761838730266729700,1.224729736328125,1.1105179406464099,-0.03248129688799381,0.06173091837838292
1761838730276800000,1.234800048828125,1.369794315254688,-0.07963701581656932,0.1107293425641954
1761838730286870000,1.2448701171875,1.6043430758416652,-0.0445464132130146,0.124138055517897
1761838730296939800,1.254939697265625,1.8622984309792519,-0.02945318123847246,0.1955840199638158
1761838730307009000,1.265009033203125,2.1275988881826398,-0.013124854511022566,0.28118191694617267
1761838730317078800,1.275078857421875,2.41937935603261,0.0758043057858944,0.34983079801946876
1761838730327148800,1.285148681640625,2.6985470105469225,0.17963965105265378,0.4178298368819058
1761838730337218000,1.295218017578125,3.000280132612586,0.2666945419102907,0.47422947723492975
1761838730347287800,1.305287841796875,3.3379613508939743,0.33420857373476026,0.4800127368114888
1761838730357358000,1.315358154296875,3.6570290541201826,0.33520284546911716,0.48515419135317206
1761838730367427800,1.325427734375,4.109402234986424,0.38655280121713875,0.4192503712043166
1761838730377496800,1.335496826171875,4.617352926167846,0.6449775274321436,0.2735086058393121
1761838730387567000,1.345567138671875,4.997143101382255,0.9873208923056721,0.30619521604105826
1761838730397636900,1.355636962890625,5.14038486662507,1.2489116813361645,0.4012771268140524
1761838730407706000,1.3657060546875,5.151000953185558,1.544411169709265,0.5043565391469746
1761838730417775900,1.37577587890625,5.0628790176182985,1.8963021151289343,0.5456074544785544
1761838730427846000,1.385845947265625,5.095006678763031,1.747542170986533,0.37503918129503727
1761838730437916200,1.395916259765625,4.816652094197273,1.9830022011995314,0.7029298040546477
1761838730447985000,1.40598486328125,4.126951335680484,2.88971489456892,0.7409038531400263
1761838730458055000,1.416054931640625,4.255000792488455,3.228167097222805,0.41514406839665025
1761838730468125000,1.426125,4.667631745553017,3.6337075075045226,0.3424097811732441
1761838730478194000,1.43619384765625,4.145266744571924,3.6855285878956314,0.17550722742304206
1761838730488264000,1.446263916015625,3.8454181210786103,3.3057112324133513,0.1565156180367805
1761838730498334000,1.456333984375,4.296436380204558,3.2928383068367837,0.3535344383103773
1761838730508403000,1.46640283203125,4.314009446296096,3.447070252649486,0.7799338410191238
1761838730518473000,1.476472900390625,4.014683969894051,3.8685982133969663,1.2327670406125486
1761838730528543000,1.48654296875,3.101825613376498,4.387963155779242,1.2097821786053478
1761838730538612700,1.49661279296875,1.5706833828240632,4.346708769848942,0.8611679167687892
1761838730548682000,1.506681884765625,0.6794482445716857,3.251015473368764,0.7359357093386352
1761838730558752000,1.516751953125,0.3100210579395294,1.9449255685225129,0.9963787896387278
1761838730568822000,1.526822021484375,-0.5795768344998359,1.1191840621829032,1.7439695731967686
1761838730578891000,1.53689111328125,-2.8868285254776476,0.3274544232994318,2.6726348629161714
1761838730588960800,1.546960693359375,-5.903930613553523,0.024548019670695066,3.5225498565256594
1761838730599031000,1.557031005859375,-9.712582892292737,-1.3724585660278796,3.5718756129696962
1761838730609101000,1.56710107421875,-12.74252341915369,-3.550482111807167,2.663394156362116
1761838730619170000,1.577170166015625,-12.362902170765398,-3.1078555411905047,1.77043628597036
1761838730629240000,1.587239990234375,-11.80451776189804,-3.2648709802418945,1.773033170595765
1761838730639309800,1.597309814453125,-13.761772942900658,-5.327324319297075,0.7066950018070638
1761838730649379000,1.607379150390625,-15.067559773147105,-6.875517053371667,0.23039997034445403
1761838730659448800,1.61744873046875,-18.292453547787666,-7.902457716143131,-0.32021599647849797
1761838730669518800,1.627518798828125,-21.93730058120489,-8.053417508417368,-1.147371680464968
1761838730679589000,1.637589111328125,-24.639461106073856,-7.4182748540401455,-0.9662629797730594
1761838730689657900,1.647657958984375,-26.117045933961865,-6.0705059081107375,-0.42179932503476736
1761838730699728100,1.65772802734375,-25.017859534668922,-4.866414196231961,0.5461516808904707
1761838730709798000,1.6677978515625,-22.952493523037433,-3.839679869687557,1.3780273060709238
1761838730719867000,1.677866943359375,-21.96437797322273,-3.203122964598238,1.3031722638338803
1761838730729937000,1.68793701171875,-19.343964003670216,-1.4975311989821494,0.724977092950791
1761838730740007000,1.6980068359375,-15.162830995947122,1.2858388517171144,0.5784945922210812
1761838730750077000,1.708076904296875,-12.122155140060185,1.6673633033782242,0.1284432053659111
1761838730760146000,1.71814599609375,-9.018500557690858,2.08507608975172,0.29572063857680186
1761838730770216000,1.7282158203125,-6.071721129119396,3.164137400382757,1.0424001707751303
1761838730780286000,1.738285888671875,-3.233613087669015,3.370859996411204,1.3856978406988083
1761838730790355000,1.74835498046875,-0.1958230163514614,3.005706833836436,1.1707081323888153
1761838730800425000,1.758425048828125,2.2735814765661955,2.8198429014414548,0.13955986185967922
1761838730810495000,1.768494873046875,4.037365757301449,3.229632785861194,-1.3166411094769834
1761838730820565000,1.77856494140625,5.03051754771769,3.4193086777597665,-2.519884095571935
1761838730830634000,1.788634033203125,5.2138639443337915,2.89875131072253,-3.567521509413421
1761838730840704000,1.7987041015625,5.154004811176657,2.2177567134916782,-4.449770500394702
1761838730850774000,1.80877392578125,4.984747145667672,2.2482079658567904,-4.9477206065654755
1761838730860843000,1.818843017578125,5.202244233688712,2.684161634580791,-5.172067122089863
1761838730870913000,1.8289130859375,5.702784940874576,3.0403192975342272,-4.393391610568761
1761838730880982800,1.838982666015625,6.529574787223338,3.2014585385173557,-2.425297786296159
1761838730891053000,1.849052978515625,7.205433482870459,2.679463539892435,0.11848233131114393
1761838730901121800,1.859121826171875,7.5093725905478,0.7509624519482254,2.776298358747363
1761838730911192000,1.869192138671875,8.1047923063457,-0.06719253565198742,3.857003344932198
1761838730921262000,1.879261962890625,9.656483988451956,-0.5501253337617963,4.72178536054492
1761838730931330800,1.889330810546875,10.32875898039341,-2.21606539940387,5.255651998749375
1761838730941401000,1.899401123046875,11.384721154987812,-1.883500062831491,4.404036630962789
1761838730951470800,1.909470947265625,12.752228820610046,-0.8278883821751922,3.205803581984341
1761838730961540900,1.919540771484375,13.370396959310769,-0.20427425302825866,2.207251101568341
1761838730971609900,1.92960986328125,13.56946407214999,0.4126297109555453,1.2989751044049858
1761838730981679900,1.939679931640625,13.415294085657596,0.725040148249641,0.779188794805482
1761838730991750000,1.94975,12.729584442603587,0.6039489130817354,0.6326547830842435
1761838731001819000,1.95981884765625,12.003624622225761,0.5413927959255874,0.4544855333777144
1761838731011889000,1.969888916015625,11.317715072685479,0.9572431494280695,0.1687718364871107
1761838731021959000,1.979958984375,10.8127828525424,1.3059591180734336,-0.13114397049089893
1761838731032028000,1.99002783203125,10.539675520980358,1.6605941015042363,-0.4887991967920214
1761838731042098000,2.000097900390625,10.7680599137187,2.0364172727838157,-0.8305654193647205
1761838731052168000,2.01016796875,11.186278311526774,2.0227844687506553,-0.8194209250159561
1761838731062238000,2.020238037109375,11.41874149801135,1.6329960466131568,-0.5204953346516936
1761838731072307000,2.030306884765625,11.370945143091678,1.135178919172287,0.017473569506127388
1761838731082377000,2.040376953125,11.346723725026845,0.3182753838047385,0.5973281067024916
1761838731092446700,2.05044677734375,11.155506741166114,-0.6149202428206801,1.040183006182313
1761838731102515700,2.060515625,10.797947686982154,-1.0582894484981893,1.2299400004930794
1761838731112585700,2.070585693359375,10.037192447555064,-0.9886341668613254,1.2360001773148774
1761838731122655700,2.08065576171875,8.828365523847937,-0.7041684059388935,0.8885534979529678
1761838731132725800,2.090725830078125,7.5112196797192095,-0.2171814462006092,0.32625067353285847
1761838731142794800,2.100794677734375,6.476562158960103,-0.06845116654410958,-0.10328837890848516
1761838731152865000,2.110864990234375,5.957953295642137,0.6740608524449169,-0.511756988129206
1761838731162934800,2.120934814453125,4.784551905581355,1.1677797507867216,-0.6726338883817196
1761838731173004000,2.131004150390625,4.129881543913483,1.335812550675869,-0.4927643010307103
1761838731183073800,2.14107373046875,3.696943715879321,1.5471224744945764,-0.1215808453157544
1761838731193143800,2.151143798828125,3.312987068635225,1.701558710707724,0.3923983854401856
1761838731203213800,2.1612138671875,2.692913973096013,1.7683061420738695,1.0611674150872974
1761838731213282800,2.17128271484375,1.6175433336764573,1.4742700042515993,1.980791977804154
1761838731223352800,2.181352783203125,0.45190556335449217,0.4425903302595019,3.1313442610666153
1761838731233422800,2.1914228515625,-0.3609633096694946,-0.9088236941739917,3.9788793738022443
1761838731243491800,2.201491943359375,-1.3751853606432676,-2.005011350042373,4.052525624771416
1761838731253561900,2.211561767578125,-2.6523084064632654,-4.738083876655995,4.2254988036721945
1761838731263632000,2.2216318359375,-4.7240562280863525,-6.118903151533007,2.308537639135122
1761838731273700600,2.23170068359375,-6.715346949681639,-5.818434934836626,-1.6229090984933077
1761838731283771000,2.24177099609375,-8.032455968931316,-2.9263574027895927,-6.779561355438828
1761838731293841000,2.2518408203125,-7.261789576342702,1.0481072233103215,-11.03870757716894
1761838731303910700,2.26191064453125,-6.617438948637247,2.7942221379727123,-11.363325315737724
1761838731313980000,2.27197998046875,-7.912084207144379,1.4289242573544383,-7.211933950805664
1761838731324049700,2.282049560546875,-9.177593972060084,0.6524224366106093,-1.9466955008044837
1761838731334119700,2.29211962890625,-10.22884782283306,0.5280269722655415,2.1419087146945297
1761838731344189000,2.30218896484375,-11.205628324162959,0.11220774455368518,4.75409510025829
1761838731354258700,2.3122587890625,-11.689893019330501,-0.148595255099982,5.965738542690873
1761838731364329000,2.322328857421875,-11.60300500947237,-0.6328373000442982,6.4509799739360805
1761838731374398700,2.332398681640625,-11.173084483432769,-1.307565968748182,6.3576429340690375
1761838731384468000,2.342468017578125,-10.494861396741866,-1.6834810560949145,5.597969060137868
1761838731394538000,2.3525380859375,-9.934770183956623,-1.7113832084991036,4.3689699937567115
1761838731404607700,2.362607666015625,-9.902146848249435,-1.5685037006974218,2.848341266173124
1761838731414677000,2.372677001953125,-10.120129089438915,-1.0412409908026456,1.077112003194168
1761838731424746800,2.382746826171875,-9.993082087671755,-0.5049227581949904,-0.7389219586078077
1761838731434816800,2.392816650390625,-9.47365138657689,-0.18484796028546988,-2.2459861981540916
1761838731444885800,2.4028857421875,-9.1635940882802,-0.1869816661122255,-3.1593229858383536
1761838731454955800,2.412955810546875,-8.611357680648565,-0.12207652901136315,-3.7297038297086953
1761838731465025800,2.42302587890625,-7.311645201879739,0.2558574512765743,-4.13069052220881
1761838731475095800,2.433095703125,-5.957316751304268,0.344369610004127,-4.074639841423928
1761838731485164800,2.443164794921875,-4.481259863635898,0.1898768212981522,-3.7476024744927883
1761838731495234800,2.45323486328125,-2.9432974316745995,0.11395997678218409,-3.3399975328966973
1761838731505304800,2.463304931640625,-1.6612246544927358,-0.02827049252623692,-2.8123130904585123
1761838731515373800,2.473373779296875,-0.5734644890993833,-0.11503270231392233,-2.2828404494293033
1761838731525443800,2.48344384765625,0.4131698822468519,-0.07210716830100863,-1.8577543578088282
1761838731535513900,2.493513916015625,1.2765379394084215,-0.0033288521617650985,-1.512733152028173
1761838731545583600,2.50358349609375,1.956725019648671,0.05360113220829516,-1.2046785718560218
1761838731555652900,2.51365283203125,2.5755443157345055,0.0844806199228391,-0.9402912109095602
1761838731565722600,2.52372265625,3.139237352403998,0.16690799711029974,-0.7479274681665002
1761838731575793000,2.53379296875,3.4832506963163614,0.3628367753911763,-0.5355341330252588
1761838731585862000,2.54386181640625,3.776333478936553,0.508483629014343,-0.33177835091315205
1761838731595931600,2.553931640625,4.042703611198068,0.5798633963562548,-0.1662727862129919
1761838731606002000,2.564001953125,4.339483494770526,0.6591827975910156,-0.060920734506659205
1761838731616070700,2.574070556640625,4.664303477913141,0.6931145124830305,0.035421775353257544
1761838731626141000,2.584140869140625,4.890708095011115,0.724868591075018,0.08687184417461975
1761838731636211000,2.5942109375,5.062810628557205,0.6634936465274542,0.2234459682217799
1761838731646280700,2.60428076171875,5.111395503506064,0.4354823248852044,0.46705739364847537
1761838731656350000,2.614349853515625,5.003760473695397,0.2868866313938051,0.6205266114603728
1761838731666419700,2.624419677734375,4.737174068334698,0.3776595929265022,0.7389775612525642
1761838731676489700,2.63448974609375,4.272951459720731,0.42215149947330355,0.9010095132917165
1761838731686558700,2.644558837890625,3.877785436198115,0.2897792110301554,1.005613943234831
1761838731696628700,2.654628662109375,3.556474337959289,0.2704708455786109,1.027972636167705
1761838731706699000,2.664698974609375,3.1292811910569664,0.24066139824837446,1.0324516812779008
1761838731716767700,2.674767822265625,2.6611890475332736,0.201098034144938,1.0725653727404774
1761838731726837800,2.684837646484375,2.0417846450358628,0.38950273706391453,1.1195664856292307
1761838731736907800,2.69490771484375,1.4646066883713007,0.6003909283392131,1.2454022119104862
1761838731746977800,2.704977783203125,1.2055652915626764,0.7707280596479773,1.4124417629785835
1761838731757046800,2.715046875,0.9025660950839519,0.8163454630933702,1.6261906043820082
1761838731767116800,2.72511669921875,0.6216676712542772,0.6615666970528662,1.8865800547987222
1761838731777186800,2.735186767578125,0.25651567772328854,0.4468054637365043,2.1157158504262563
1761838731787255800,2.745255859375,-0.21983985175490378,0.31377646495029327,2.23111566901952
1761838731797325800,2.755325927734375,-0.6076975980907678,0.4117224599175155,2.0376339550971982
1761838731807395800,2.765395751953125,-0.9618447980046272,0.6267791690491139,1.6681819262847304
1761838731817464800,2.77546484375,-1.3382996913164853,0.7675607547234743,1.3573445835262536
1761838731827534800,2.785534912109375,-1.566832552614808,0.7319866063866763,1.1201971847482024
1761838731837604900,2.79560498046875,-1.6476064635068177,0.6369754227623343,0.9275495835624634
1761838731847675000,2.8056748046875,-1.6386404822409153,0.42134354409128427,0.8660064428411424
1761838731857743600,2.81574365234375,-1.579656378352642,0.13479001710936425,0.8175969244591891
1761838731867814000,2.82581396484375,-1.4723095178335903,-0.1076570955120027,0.7574247798301279
1761838731877884000,2.8358837890625,-1.396803318211436,-0.278796921505779,0.6196215523794293
1761838731887953000,2.845952880859375,-1.3515133931547403,-0.32591011646687984,0.43222653795965016
1761838731898023000,2.85602294921875,-1.4522370361417531,-0.31802652361020445,0.3389321681905538
1761838731908092700,2.8660927734375,-1.5546195522516966,-0.24554836657233534,0.450272116933763
1761838731918162000,2.876161865234375,-1.5409528459489346,-0.11175766269862651,0.5622025058507919
1761838731928231700,2.886231689453125,-1.2142226452708245,0.06221504863351583,0.5664579713381827
1761838731938301700,2.8963017578125,-0.8008253840088844,0.21618476331345735,0.38524665052201595
1761838731948372000,2.9063720703125,-0.2714928821027279,0.2013506206665188,0.11253650158401578
1761838731958440700,2.916440673828125,0.26536124747991563,0.012199702490121126,-0.32577125598546114
1761838731968511000,2.926510986328125,0.7419435714513063,0.008708280177786945,-0.7985773858863859
1761838731978580700,2.936580810546875,1.038894135415554,-0.06059270812869071,-1.2184542184259741
1761838731988649700,2.946649658203125,1.1192419298499823,-0.3338346989210695,-1.552066506768018
1761838731998720000,2.956719970703125,1.2018611763477325,-0.7551463135041296,-1.8874188437104225
1761838732008789800,2.966789794921875,1.2608259910136461,-1.1156186247862874,-2.2930314424455163
1761838732018859000,2.97685888671875,1.3205606210082768,-1.1642507729429752,-2.5827561468094586
1761838732028928800,2.9869287109375,1.423738086888194,-1.0713546817764639,-2.4623235947459934
1761838732038998800,2.996998779296875,1.6125678833514452,-0.9661608345728367,-2.0544109023749826
1761838732049068800,3.00706884765625,2.1184815157473085,-0.7895851742006837,-1.5459841181144118
1761838732059137800,3.0171376953125,2.5787726301312444,-0.5581782187707722,-1.0728506924878805
1761838732069207800,3.027207763671875,2.8471418272554874,-0.4275687022164464,-0.6249930893499404
1761838732079277800,3.03727783203125,2.9427842214554545,-0.3067895286723971,-0.3234599833684042
1761838732089346800,3.047346923828125,2.9508418557047844,-0.09308774128109217,-0.11909008794594556
1761838732099417000,3.0574169921875,2.768743413323164,0.13638254699781535,0.0675528294648975
1761838732109487000,3.067487060546875,2.620450209909677,0.32250586098134515,0.15596118075810372
1761838732119555800,3.077555908203125,2.6257430556207892,0.5464968410663307,0.1397063211256638
1761838732129626000,3.087626220703125,2.6945821985691785,0.6621399668961763,0.061959283774159844
1761838732139695900,3.09769580078125,2.847483772560954,0.7407019738923758,-0.1183019332429394
1761838732149766000,3.107765869140625,3.128828771114349,0.8152620517708361,-0.3879487125549465
1761838732159835100,3.117835205078125,3.527130754575133,0.8893833729058503,-0.6934966436684131
1761838732169905000,3.12790478515625,3.94611019988358,0.8820842288736254,-0.8678416954442858
1761838732179975000,3.137974853515625,4.272063570970297,0.7942245244391262,-0.9334561772577464
1761838732190044000,3.1480439453125,4.5554497199624775,0.715565925200656,-0.9581473317261785
1761838732200114000,3.158114013671875,4.740700488895177,0.7851826283928006,-0.9447451215784997
1761838732210184200,3.16818408203125,4.871322426539659,0.831424374281615,-0.9864688055209815
1761838732220253000,3.1782529296875,4.725426347395778,0.9216059457924216,-1.0147989740788936
1761838732230323200,3.1883232421875,4.606938499659299,1.0857413729168475,-0.970984163076058
1761838732240393000,3.19839306640625,4.702136072701215,1.2830544816955922,-0.9638646864596754
1761838732250462000,3.2084619140625,4.780445054784417,1.3273175479225814,-0.8014445388205349
1761838732260532000,3.218531982421875,4.803392799651623,1.2550137976035476,-0.486986156020686
1761838732270602000,3.22860205078125,4.779871054288745,1.1797864149227737,-0.12029902534428984
1761838732280672000,3.238672119140625,4.388018685358762,0.9484783898226916,0.330310579915531
1761838732290741000,3.248740966796875,3.725926064735651,0.3357615022651851,0.839497059969604
1761838732300811000,3.25881103515625,3.1748990328937765,-0.6105615361545235,1.5047029903076587
1761838732310881000,3.268881103515625,2.5188988839268682,-1.7571683697268365,2.3969256782926616
1761838732320950000,3.278949951171875,1.0667980413854121,-3.0796739873230456,3.265321938879788
1761838732331019800,3.289019775390625,-2.1049545101761815,-4.199727525816858,3.7170457159265875
1761838732341090000,3.299090087890625,-6.117986621209979,-4.294615594518184,3.51773690328598
1761838732351159000,3.309158935546875,-9.871555310630798,-3.4403584800511595,2.700213190193474
1761838732361229000,3.31922900390625,-13.617751425457,-2.1924456004939974,1.7893218959651886
1761838732371299000,3.329299072265625,-17.023786195623874,-0.6065582918625324,0.40324605226684357
1761838732381367800,3.339367919921875,-20.62308962148428,0.6072151483360677,-0.5266610176745802
1761838732391438000,3.34943798828125,-24.83074238734245,0.6070347137352451,-0.30481983603462576
1761838732401508000,3.359508056640625,-27.68976286844015,0.12358728976733982,0.571007524401322
1761838732411577900,3.369577880859375,-30.289536201024053,-0.8447798957433551,2.27537756620273
1761838732421647000,3.379647216796875,-31.8259543261528,-1.9592308649897574,4.30646677583158
1761838732431716900,3.389716796875,-31.73741796456575,-2.162443553201109,5.247046082967519
1761838732441787000,3.399786865234375,-30.65840692281723,-2.0187964220277963,5.2590603458881375
1761838732451856000,3.40985595703125,-28.480515771245955,-1.872408321583271,4.085901532411575
1761838732461926000,3.41992578125,-25.072554416930675,-0.6635778907448053,1.5505889815613627
1761838732471996200,3.42999609375,-19.14183984134793,0.3244783300980925,-1.1889167929701507
1761838732482065000,3.44006494140625,-12.694281658554077,0.12129238376319408,-4.533031551927328
1761838732492135200,3.45013525390625,-6.414020070329308,0.23038842603713272,-7.4563389194965355
1761838732502205000,3.460204833984375,-2.1466063709914684,0.9949538714021444,-8.446869129237532
1761838732512274000,3.47027392578125,1.401792797061801,3.0421368683502075,-8.306206859093905
1761838732522344000,3.480343994140625,4.57674326788187,5.317898903825879,-8.03036221152246
1761838732532414000,3.4904140625,7.119347437044977,7.248921326941251,-7.236749243110418
1761838732542484000,3.50048388671875,8.396582126545905,7.427735925346613,-5.537390965056419
1761838732552553000,3.510552978515625,9.042748279240726,7.467375861817598,-3.614395196530223
1761838732562623000,3.520623046875,9.016972032949328,7.052164829131961,-1.0484463921368121
1761838732572693000,3.53069287109375,8.384370879748463,6.437102255231141,1.25949927245453
1761838732582762000,3.540761962890625,7.3812208424091335,7.538376566714048,2.5213790103048086
1761838732592832000,3.55083203125,6.175416481393575,7.29504478021264,3.389616134807467
1761838732602902000,3.560902099609375,6.527322039860486,6.9251143202334635,2.705733707180619
1761838732612971000,3.570970947265625,7.6647998836249105,6.425059935259819,1.1710058732263744
1761838732623041000,3.581041015625,8.891794916707276,5.327939236325025,-0.15620998615371062
1761838732633111000,3.591111083984375,10.402916103494167,4.491595964211225,-0.7291722796183079
1761838732643179800,3.6011796875,12.141716749620437,4.084637503825128,-0.33399047400467097
1761838732653250000,3.61125,13.237097911411523,3.899758490814268,0.30206056392174213
1761838732663320000,3.621320068359375,13.748846825832128,4.432026169389486,0.6792272952973842
1761838732673389000,3.63138916015625,14.098628231751919,5.363346065270901,0.7763071749545634
1761838732683459000,3.641458984375,13.977501267683506,5.806755018436909,0.9897788068518042
1761838732693528800,3.65152880859375,13.394095814806223,5.509340928614139,0.9929024187650531
1761838732703599000,3.66159912109375,12.693611796468495,5.80099046356082,0.5980807517006993
1761838732713667800,3.671667724609375,12.125696173667906,5.594667680504918,0.06243292916789651
1761838732723737900,3.68173779296875,11.995374680274724,5.021687175530195,-0.574325270647183
1761838732733808000,3.69180810546875,12.213754396349191,4.471726311615109,-1.1640580999150871
1761838732743876900,3.701876953125,12.343902871263026,3.9245062708407636,-1.5238533887185155
1761838732753947100,3.711947021484375,12.27002398058176,3.736846687200665,-1.6985910930737853
1761838732764017000,3.722016845703125,11.98725216409564,3.8126580072492358,-1.6159714081846177
1761838732774086000,3.7320859375,11.277398259866237,3.841337573766708,-1.060994615803659
1761838732784156200,3.74215625,10.29621280157566,3.3524329438388345,-0.058161297996994106
1761838732794226000,3.752225830078125,9.402197092694044,2.370947041296959,0.9911604704685508
1761838732804295200,3.762295166015625,8.699611133641005,1.6158566957637666,1.5042426793195307
1761838732814365000,3.772364990234375,8.074442176267505,1.553911988504231,1.3312553257629274
1761838732824435000,3.78243505859375,7.540166957262158,1.4502721658095716,0.8403211627688258
1761838732834504000,3.79250390625,6.759540896195173,1.1998413609579204,0.26012647036528214
1761838732844574000,3.802573974609375,5.773133903864026,0.9609875966534018,-0.394130323799327
1761838732854644000,3.81264404296875,4.721385547572374,0.9088122959971427,-1.2442571335285901
1761838732864713000,3.822712890625,3.909921280649304,1.088270453003049,-2.073492181072384
1761838732874783000,3.832782958984375,3.404070192095637,1.4323974864229558,-2.574679515598714
1761838732884853000,3.84285302734375,3.108139034307003,1.786425736132264,-2.5105431435137984
1761838732894923000,3.852923095703125,2.94111482693851,2.0340289163425562,-1.878457392489165
1761838732904991700,3.86299169921875,2.8898779761761424,2.179012849077582,-0.9155605281483381
1761838732915062000,3.87306201171875,2.7316671898603437,2.152649158287048,0.2159839069791138
1761838732925132000,3.883132080078125,2.292864269185066,2.048817612412572,1.2864685279227792
1761838732935201000,3.893200927734375,1.8850421777069568,1.9040575515612959,2.1871552390009166
1761838732945271000,3.90327099609375,2.046055161961913,1.5372513610824943,2.991070405718684
1761838732955341000,3.913341064453125,2.347663780865073,0.09869184489846229,4.098021009272337
1761838732965410000,3.92341015625,2.1428110703617333,-1.7918632510110735,5.067224937868118
1761838732975480000,3.93347998046875,1.6082541118055582,-3.443791084848344,5.210319403594732
1761838732985549800,3.9435498046875,-0.38649288772344587,-5.114769363853335,4.122824026617407
1761838732995619000,3.953619140625,-3.4061043282717463,-4.710516070772707,0.5324441311206668
1761838733005688800,3.963688720703125,-4.897451139530539,-0.6795707019075751,-4.150268206121027
1761838733015759000,3.973759033203125,-5.343147911372781,1.9564198992222546,-7.326630005043745
1761838733025827800,3.983827880859375,-5.931249413111805,1.94977037820518,-8.500261696729064
1761838733035897900,3.99389794921875,-5.978594517132639,2.4139137841030953,-7.216495559632778
1761838733045968100,4.003968017578125,-6.69458823929131,2.9090350965887306,-3.915819106516242
1761838733056036900,4.014036865234375,-8.093246245458722,1.953101276193559,0.33023492086343464
1761838733066106000,4.024106201171875,-9.75847662846148,-0.12477335774675011,4.20985027590245
1761838733076174800,4.0341748046875,-12.12181027214527,-2.3135908308714628,6.633575259923934
1761838733086245000,4.0442451171875,-13.78713184056282,-3.61719797899127,7.1887336924821135
1761838733096315600,4.054315673828125,-14.515245039582252,-3.8191789334505795,6.53208998491466
1761838733106384600,4.064384521484375,-14.709558820414543,-3.5865339606583118,5.200125926360488
1761838733116454700,4.07445458984375,-14.694964477872848,-3.1480829221606252,2.89759395738095
1761838733126524700,4.084524658203125,-14.049205736935138,-3.006525749003887,-0.190461416253075
1761838733136594700,4.0945947265625,-11.922044071125983,-3.5447485365912317,-5.0539638897567984
1761838733146663700,4.10466357421875,-10.048197825694084,-4.835427229554951,-9.91118121857643
1761838733156733700,4.114733642578125,-10.36975033147335,-3.3699773683577776,-10.984965465587377
1761838733166803700,4.1248037109375,-12.087393623280525,-1.5586301030673086,-8.29666512376666
1761838733176872700,4.134872802734375,-13.559016327893733,-0.7166453910004347,-5.611811123007536
1761838733186942500,4.1449423828125,-12.352357395875453,0.7723542726103216,-4.178699643096327
1761838733197012700,4.1550126953125,-10.752487081533669,1.535599209961295,-3.0347137326121327
1761838733207081700,4.165081787109375,-9.0405791185081,1.8700068133994936,-1.9557602662697433
1761838733217151700,4.17515185546875,-6.668588705638051,2.113890973086655,-1.1297044332839548
1761838733227221800,4.1852216796875,-4.147522999066114,2.022164583286643,-0.4460225697305053
1761838733237290500,4.19529052734375,-1.8682593852102756,1.8598587827421724,0.03579739916604012
1761838733247360800,4.20536083984375,0.10091711973249912,1.59301811035946,0.38280597937162963
1761838733257430800,4.2154306640625,1.6038111609220504,1.3036973106212912,0.5951725361037999
1761838733267499800,4.225499755859375,2.7686335232079027,1.0426941122204065,0.7050527875579893
1761838733277569800,4.23556982421875,3.63515741405189,0.663956222537905,0.8578991972964256
1761838733287639600,4.2456396484375,4.212832798844576,0.3408429702479392,0.9960418127693236
1761838733297708800,4.255708740234375,4.56186075604856,0.24082002287618814,0.9500435933127999
1761838733307778600,4.265778564453125,4.823437224292755,0.2903866754040122,0.7912630442850291
1761838733317848600,4.2758486328125,5.0250060908198355,0.48582471102587876,0.562043808157742
1761838733327917600,4.28591748046875,5.3348342565357685,0.6912917540352791,0.35985048958938565
1761838733337987600,4.295987548828125,5.562467538645863,0.8562544257640838,0.19728687835894523
1761838733348057900,4.306057861328125,5.607464618235826,1.011402317377925,0.16339191528074443
1761838733358126600,4.316126708984375,5.404971622601151,1.1732131740123033,0.32104744233395904
1761838733368196600,4.326196533203125,5.0826808656752105,1.3043284481316804,0.5766087054092437
1761838733378266600,4.3362666015625,5.034203542754054,1.4721446826606988,0.6736594320371747
1761838733388335600,4.346335693359375,5.230625109520554,1.5531960953198372,0.7056134901806712
1761838733398406000,4.356406005859375,5.583899033731222,1.5544529635131359,0.681299717657268
1761838733408475600,4.3664755859375,5.663869811546802,1.478830151773989,0.6400821566060185
1761838733418545000,4.376544921875,5.170796956023573,1.2588032530143856,0.7641521883890032
1761838733428614700,4.38661474609375,4.550007236647605,1.193418196042627,0.806365190218389
1761838733438684700,4.3966845703125,3.9544712009936567,1.3291481243506074,0.765727621012181
1761838733448753700,4.406753662109375,3.6029356448829173,1.4734497739098966,0.6392221057105809
1761838733458823700,4.41682373046875,3.3408290152847764,1.4344230009011922,0.5535011303378269
1761838733468893700,4.426893798828125,2.8278572810709477,1.063767879909277,0.6005654811885207
1761838733478963700,4.436963623046875,1.902636286586523,0.6195997789390385,0.712612409157306
1761838733489032700,4.44703271484375,1.2982985203176736,0.3007932108670473,0.5716732217684388
1761838733499102700,4.457102783203125,0.9118471336483955,0.05095628025531768,0.14527473237514496
1761838733509172700,4.4671728515625,0.650001200813055,-0.3530924301639199,-0.41069669706635176
1761838733519241700,4.47724169921875,0.4795195464670658,-0.814434076514095,-1.057606946126744
1761838733529311700,4.487311767578125,0.28809038116037844,-1.1876625551253557,-1.5854302855789661
1761838733539381800,4.4973818359375,0.06189093124568462,-1.4832789478763937,-1.7973010581508277
1761838733549450800,4.50745068359375,-0.4290384825080633,-1.592390772241354,-1.581583693153411
1761838733559520800,4.517520751953125,-1.0156091214179992,-1.5563500293061137,-1.14045130661726
1761838733569590800,4.5275908203125,-1.4609452432543037,-1.4562220141246913,-0.6429873765282332
1761838733579659800,4.53765966796875,-1.8757009333878754,-1.367220226982981,-0.11828253442272543
1761838733589729800,4.547729736328125,-2.2014619967728852,-1.3416715058371425,0.36276122593693433
1761838733599799600,4.557799560546875,-2.310813182851672,-1.2207494166910648,0.6500340071041136
1761838733609868800,4.567868896484375,-2.292583114156127,-1.0095200107626616,0.7674342787995934
1761838733619938600,4.5779384765625,-2.1718255679219958,-0.7744089401178061,0.7096946950796991
1761838733630008600,4.588008544921875,-1.9970850870877503,-0.5828820135250687,0.578190567773208
1761838733640077600,4.59807763671875,-1.7196493709325789,-0.41724312303513283,0.3674921269163489
1761838733650147600,4.608147705078125,-1.3122136484235525,-0.2750847691148519,0.1365860336806625
1761838733660217900,4.6182177734375,-0.9001309768915176,-0.20800518318489192,-0.028265213562920687
1761838733670286600,4.62828662109375,-0.5009364285051823,-0.15265972805991768,-0.12644180241562425
1761838733680356900,4.63835693359375,-0.17913725448846815,-0.11494447604119777,-0.18944566333927212
1761838733690426600,4.648426513671875,0.020337270107865332,-0.10958353352993726,-0.20643661869391797
1761838733700495600,4.65849560546875,0.2400900281012058,-0.08212284128293394,-0.23636231281496584
1761838733710566000,4.66856591796875,0.5182932214975356,-0.06307341902852058,-0.31464974065348505
1761838733720635600,4.6786357421875,0.7697621372252702,-0.04267287442609668,-0.3840951789319515
1761838733730705000,4.688704833984375,0.8606663969874382,-0.04446662597507238,-0.4102467613417655
1761838733740774700,4.698774658203125,1.0134078119814396,-0.06138780402913689,-0.46207032595090564
1761838733750844700,4.7088447265625,1.2452473136097193,-0.05038286428153515,-0.5518932202171534
1761838733760913700,4.71891357421875,1.401369018691778,-0.09932152110412716,-0.6417064698722214
1761838733770983700,4.728983642578125,1.5435767647117375,-0.2228610992722213,-0.7242465867191553
1761838733781053700,4.7390537109375,1.6149264291763306,-0.3392963983930647,-0.8318659805692732
1761838733791122700,4.749122802734375,1.5850596987009047,-0.4942053666844964,-0.8715794206678866
1761838733801192700,4.759192626953125,1.3107096736013888,-0.6164251674909145,-0.8335399051308632
1761838733811262700,4.7692626953125,0.9047621438235044,-0.5701501769196242,-0.8007412859220058
1761838733821331700,4.779331787109375,0.7449462603986263,-0.36347083551101383,-0.8327481702312827
1761838733831401500,4.7894013671875,0.6105524029999971,-0.12865407163761555,-0.8249917839508503
1761838733841471700,4.7994716796875,0.5378653524518012,0.01766834315955639,-0.7613554703425616
1761838733851540700,4.809540771484375,0.4227244770556688,0.18409575367867945,-0.6998095531422645
1761838733861610800,4.81961083984375,0.4840279638022184,0.24559096360504626,-0.6425045614473521
1761838733871680800,4.8296806640625,0.5497913525670767,0.3456888028439134,-0.6011244302455335
1761838733881749500,4.83974951171875,0.613094488698244,0.4056325455445796,-0.514982197253406
1761838733891819800,4.84981982421875,0.37169805417358875,0.4676920382902026,-0.37016346501745284
1761838733901889800,4.859889892578125,0.19938450822532175,0.49516661293208597,-0.2512803343530744
1761838733911958800,4.869958740234375,0.3374041549056768,0.6810125712789594,-0.2824279714845121
1761838733922028800,4.88002880859375,0.43184009592533107,0.9153463739410043,-0.29581776054203507
1761838733932098600,4.8900986328125,0.420831210654974,0.9886408888630568,-0.19781017158068714
1761838733942167800,4.900167724609375,0.6378454835951328,1.0441695185352116,-0.1699879525449127
1761838733952237600,4.910237548828125,0.9703004916608333,1.1645222833607345,-0.26021139043606817
1761838733962307600,4.9203076171875,1.351567753690481,1.2758837132833898,-0.388859324593842
1761838733972376600,4.93037646484375,1.7824024719655513,1.2842980520159006,-0.4896191348727792
1761838733982446600,4.940446533203125,2.2334335905730724,1.232856618592143,-0.5391445786073804
1761838733992516900,4.950516845703125,2.5925790371656414,1.1555031106028706,-0.5202477165661752
1761838734002585600,4.960585693359375,3.039523763242364,1.0972569656003266,-0.5070132642008364
1761838734012655600,4.970655517578125,3.5489427734106775,1.0200215310327707,-0.4252093892065808
1761838734022725600,4.9807255859375,3.933406785655021,0.9357383699107915,-0.2811094727644697
1761838734032794600,4.990794677734375,4.335578304025531,0.8226431019328534,-0.09875252557713537
1761838734042865000,5.000864990234375,4.696959546846151,0.6603805560082197,0.09117438194043934
1761838734052934700,5.0109345703125,4.946434658408164,0.5183799134002998,0.2554643968383781
1761838734063004000,5.02100390625,4.956131292036176,0.41726573672574013,0.3656784650905058
1761838734073073700,5.03107373046875,5.027152455198764,0.35705680375024673,0.4158846941635012
1761838734083143700,5.041143798828125,5.1437610650599,0.37620164920315147,0.4184890314429998
1761838734093212200,5.051212158203125,5.152393868848681,0.44034474328979845,0.43810525726731864
1761838734103282200,5.0612822265625,5.003385795164108,0.3966161492656916,0.609300210981816
1761838734113352200,5.071352294921875,4.798046762448549,0.29528544376362115,0.888046206017956
1761838734123421200,5.081421142578125,4.4557010594874615,0.4357457615943625,1.2447092612102626
1761838734133491200,5.0914912109375,3.7498622361183163,0.6341040320444852,1.6717682603389024
1761838734143561200,5.101561279296875,2.902801170635223,0.7879618107825517,2.0133597839318216
1761838734153630200,5.111630126953125,2.1334967140495777,0.9931088280573487,2.2229446375235913
1761838734163700200,5.1217001953125,1.4308645777672528,1.0076849042899907,2.4072999189212916
1761838734173770200,5.131770263671875,0.3276157513409853,0.5939995102690533,2.776459979049861
1761838734183839000,5.1418388671875,-1.3607266271799803,-0.18850582520589232,3.239756120468676
1761838734193909200,5.1519091796875,-3.6612948948711153,-0.9233610458314419,3.484903724220395
1761838734203979300,5.161979248046875,-6.364765917816758,-1.5606867433361709,3.400135190734267
1761838734214048300,5.17204833984375,-8.618615688952803,-2.3132646676570174,2.9642481575056907
1761838734224118300,5.1821181640625,-10.40121280670762,-3.0820220117539168,2.227497332391888
1761838734234188000,5.19218798828125,-12.319884866815805,-3.690337449482083,1.272434011220932
1761838734244257300,5.20225732421875,-14.549889651983975,-3.863006969261169,0.8510760732781142
1761838734254327300,5.212327392578125,-16.734782206749916,-3.90046400873512,0.9843966754220426
1761838734264397000,5.22239697265625,-18.87906568775177,-3.5245658725231883,1.5879153803929686
1761838734274466300,5.23246630859375,-21.566227380931377,-3.091925566130876,2.946409133954346
1761838734284536000,5.2425361328125,-24.714095199036596,-2.4464935729295014,4.495292772902548
1761838734294606300,5.2526064453125,-26.68247733873129,-0.9177063810706138,5.182482133120298
1761838734304675000,5.262675048828125,-26.57441093176603,0.9334407604929059,4.865022449612617
1761838734314745000,5.2727451171875,-24.140791453456877,2.5372806360527873,3.6812832054108378
1761838734324815400,5.2828154296875,-20.815862602615354,3.598925824719667,1.3454463482007384
1761838734334884000,5.292884033203125,-16.935549109244345,2.8432813524350524,-2.113652780416608
1761838734344954400,5.302954345703125,-13.665492835319041,1.845597909938544,-5.3485822113811965
1761838734355024100,5.313024169921875,-11.816850004726648,1.8363104416333138,-6.054065645441413
1761838734365093000,5.323093017578125,-9.978073903632163,2.1036425507947802,-5.205380193626881
1761838734375163100,5.3331630859375,-7.389402979820966,2.5005454811125993,-4.5027083098560565
1761838734385233200,5.343233154296875,-4.761737431704998,2.798459629411995,-3.828402104347944
1761838734395302400,5.353302490234375,-2.688572144499421,3.0453748273581263,-2.907663515974581
1761838734405372200,5.3633720703125,-0.5861392617553473,3.3248499403864145,-2.061218244302273
1761838734415442200,5.373442138671875,0.8855372188717127,3.0840052945256233,-1.1285872658222913
1761838734425511200,5.38351123046875,1.9612989034354686,3.133689947409928,-0.5127100145377218
1761838734435581200,5.393581298828125,3.5303415333151817,4.042646035791933,-0.3911959508478641
1761838734445650200,5.403650146484375,4.899478845965862,5.000401810917258,-0.5039755039401352
1761838734455720200,5.41372021484375,5.843773958754539,6.3194555344939225,-0.42608094787672157
1761838734465790200,5.423790283203125,6.7809741448462,6.587077128121257,0.44097843808345494
1761838734475859200,5.433859130859375,7.7796537587732075,5.833077792695164,1.8113352825917302
1761838734485929200,5.44392919921875,8.716623643240332,4.917075877454876,2.9917721242472526
1761838734495999000,5.4539990234375,9.643657824626564,4.11406292027384,3.486792898967862
1761838734506068200,5.464068115234375,10.267843616181612,3.1755040130496024,3.330450829133391
1761838734516138000,5.474137939453125,10.79202531119585,1.996318340498954,2.769882938747108
1761838734526208300,5.484208251953125,11.357808598142862,0.7106890398792922,1.8543334434494374
1761838734536277200,5.49427734375,11.848553302979468,0.13460004749521612,0.6209947404287756
1761838734546347300,5.50434716796875,12.65003802767992,1.1488669605240225,-0.35037356312666085
1761838734556417300,5.514417236328125,13.597052336299418,2.799139428369701,-0.7681371663719415
1761838734566486000,5.524486083984375,14.07659993981719,4.537797451154887,-0.7785292349182069
1761838734576556300,5.534556396484375,15.224157863569259,5.3773640692293645,0.14065627879425882
1761838734586626300,5.544626220703125,14.485920745420454,4.901160807703435,0.5666545168235898
1761838734596695300,5.5546953125,14.20343768274784,4.834696284931898,0.6091304439054802
1761838734606765300,5.564765380859375,13.88315943468809,5.475879973039031,0.34561592027079313
1761838734616835000,5.5748349609375,14.380164368963241,6.09426146222949,0.3326770533185452
1761838734626904300,5.584904296875,13.673518320864439,5.794056864905357,0.3338367447476834
1761838734636974000,5.59497412109375,12.912053471863269,4.971106158328056,0.5230484166679904
1761838734647044000,5.605044189453125,12.373245870125293,4.294420656467974,0.5166883801167831
1761838734657113000,5.615113037109375,12.037671853256224,3.565130522623658,0.3820326203789562
1761838734667183000,5.62518310546875,11.587676507437228,2.5766636751532555,0.17360807927083224
1761838734677253000,5.635253173828125,11.015164204496145,1.2732885822236537,-0.23214655828345565
1761838734687322000,5.645322021484375,10.320096365988254,-0.1759066020041704,-0.9208091693915427
1761838734697392000,5.65539208984375,9.617384150207043,-1.6716098549067973,-2.0602849089749156
1761838734707462100,5.665462158203125,9.111939304366707,-2.57331670281291,-3.4926305190801616
1761838734717531100,5.67553125,8.253298275727033,-2.1344307800292968,-4.6965062501206996
1761838734727601400,5.685601318359375,7.3371589978426695,-1.2479416672602295,-5.172490315937996
1761838734737671200,5.695671142578125,6.7974763668358325,-0.017462006932497023,-5.092262933012843
1761838734747740200,5.705740234375,6.1325651816606515,0.9596268296942114,-4.660747538997232
1761838734757810200,5.71581005859375,5.820407696214318,1.7733581647664307,-3.915939810286462
1761838734767880200,5.725880126953125,5.623640092489123,2.5280408062815667,-2.9050886970505116
1761838734777949200,5.73594921875,5.374349689844251,3.00218362814635,-1.7031857273876665
1761838734788019200,5.746019287109375,4.830707507556677,3.241350988444686,-0.5202719742245971
1761838734798088200,5.756088134765625,4.135526271802187,3.3952933036610484,0.7614020128980279
1761838734808158200,5.766158203125,2.8118530717313286,3.2352699149653312,2.0828060989931223
1761838734818228200,5.776228271484375,1.4507365684509277,2.9874922549709675,3.1018565930366515
1761838734828297200,5.786297119140625,0.8325567393124103,2.391495616067946,4.055611023566127
1761838734838367200,5.7963671875,0.39806232948601245,0.727706664045155,5.033134452217817
1761838734848437200,5.806437255859375,-0.22050679123103617,-1.3232280866518615,5.470163348957896
1761838734858506200,5.81650634765625,-0.6584767682135104,-3.189551535363495,5.111285028868913
1761838734868576300,5.826576171875,-1.9456074133068322,-4.782138122437894,3.0030840841174125
1761838734878646000,5.83664599609375,-3.016391893979907,-5.0053088721811765,-1.4482996966928243
1761838734888715300,5.84671533203125,-3.3316625430107116,-1.437443956157565,-6.686626466631889
1761838734898785000,5.856784912109375,-2.2538719829678535,1.9285776603117584,-9.52128524441123
1761838734908855300,5.866855224609375,-3.083817078477144,0.7471497617922723,-8.804974711388349
1761838734918924000,5.876924072265625,-5.1616789990663525,-0.9781121883250773,-5.52623653383553
1761838734928994300,5.886994384765625,-7.022012851974368,0.06545373829379678,-1.633711793667078
1761838734939064300,5.897064208984375,-9.837413387054204,0.4727909688644111,2.1102306970134377
1761838734949133000,5.907133056640625,-12.619310880982875,-0.41497006353661414,5.193217462146282
1761838734959203300,5.917203369140625,-14.621580092710255,-1.005398693048954,6.830519973781705
1761838734969273000,5.927273193359375,-15.340592285907267,-1.6816677230626345,6.98579003047049
1761838734979342300,5.93734228515625,-14.722642758393286,-1.3329878486439586,5.521222505065799
1761838734989412400,5.947412353515625,-13.531380132949351,-0.783532742293924,3.2266479248315094
1761838734999482000,5.957482177734375,-12.463542811644077,-0.4356942140702158,0.8765254987679422
1761838735009551400,5.96755126953125,-11.432701049780844,-0.3468156879819929,-0.919171046795696
1761838735019621000,5.97762109375,-10.930572196620702,-0.8049291660659015,-1.6205333092726766
1761838735029690400,5.9876904296875,-10.447973388838767,-1.747881778204441,-1.5286027752026914
1761838735039760100,5.997760009765625,-9.65163187224567,-2.277197767367214,-1.400762138839811
1761838735049830100,6.007830078125,-8.478795130330324,-2.083125540205836,-1.7426621438600123
1761838735059899100,6.017899169921875,-7.330246441975236,-1.604834512620419,-2.382765927775949
1761838735069969200,6.02796923828125,-7.230927989611029,-0.7503708427306264,-3.2179286118030546
1761838735080039200,6.0380390625,-7.340037768149376,0.27956147613748905,-3.860762112943828
1761838735090107600,6.048107666015625,-7.606096934765577,1.0100132011070846,-3.9367435288622974
1761838735100177400,6.058177490234375,-7.627236753427982,1.3377579856552182,-3.5650741162613033
1761838735110247700,6.06824755859375,-7.020940254306793,1.3523058587066827,-3.0576775518313046
1761838735120316400,6.07831640625,-5.669831934821605,1.176733895484358,-2.373786648637056
1761838735130386700,6.08838671875,-3.9974458348453044,0.9842045138508081,-1.6731424713015555
1761838735140456700,6.098456787109375,-2.041269681251049,0.7717834869850426,-1.1067694017678498
1761838735150525700,6.108525634765625,0.03514262505173683,0.5879145277995615,-0.6597019260942936
1761838735160595700,6.118595703125,1.870927727636695,0.4692810975799337,-0.27070355835594234
1761838735170665500,6.12866552734375,3.0850591874927282,0.5016904617428779,0.02028400555066764
1761838735180734700,6.138734619140625,3.9009383482486006,0.3508396097358316,0.36135245511755343
1761838735190804700,6.1488046875,4.366309542375803,0.154110584455356,0.7128232023637742
1761838735200874500,6.15887451171875,4.473966784018278,-0.02588347865869291,0.942762496393919
1761838735210943700,6.16894384765625,4.500310601064562,-0.22244186921315268,1.021052627646178
1761838735221013500,6.179013427734375,4.250331631633639,-0.09478303742427378,0.8282893641915172
1761838735231083500,6.18908349609375,3.9867409009575843,0.24263967605140058,0.5276322738595307
1761838735241152500,6.199152587890625,3.8317566754728554,0.6003937048181891,0.2358807398431003
1761838735251222500,6.209222412109375,3.614379414439201,0.8386892507180571,0.06774119164384901
1761838735261291500,6.21929150390625,3.391226492613554,0.9804290869653224,0.07125460659228265
1761838735271361500,6.229361572265625,3.1734622780889272,1.0288824444890021,0.28115787848345936
1761838735281431600,6.239431640625,2.8363334329932925,0.9543038811057806,0.6389291871786117
1761838735291500500,6.24950048828125,2.363382159000635,0.9123886201139539,0.9252410143591463
1761838735301570600,6.259570556640625,2.2065566895633935,1.102686151042208,0.843931096894294
1761838735311640600,6.269640625,2.2117782236039636,1.38306033180207,0.49118068510107693
1761838735321709600,6.27970947265625,2.211781730735302,1.5542615325942635,0.20682686012051998
1761838735331779800,6.28977978515625,2.167348130246997,1.6222998805537818,-0.00784223793298006
1761838735341849600,6.299849609375,2.0339877075493336,1.6000496164314448,-0.16292692811749876
1761838735351918600,6.309918701171875,1.9091063593834638,1.5198356775097548,-0.4320042735110968
1761838735361988600,6.319988525390625,1.9011352343738077,1.5331674527697263,-0.8081259162805974
1761838735372058600,6.33005859375,1.8557184680670498,1.574738503433764,-1.0644861111812294
1761838735382127600,6.340127685546875,1.6738830605357884,1.5344862802833317,-1.136110866260156
1761838735392197600,6.35019775390625,1.4893775570124388,1.3424655788242816,-1.0634900128159672
1761838735402266600,6.3602666015625,1.2510954551160334,1.0057597814463077,-0.8957280657574533
1761838735412336600,6.370336669921875,0.9693108961015939,0.6046145373836159,-0.7002509402342141
1761838735422406700,6.38040673828125,0.5833201126813888,0.2800080508612096,-0.5083874751634896
1761838735432475600,6.3904755859375,0.12214870833158492,0.05855433416888117,-0.256756719937548
1761838735442545700,6.400545654296875,-0.2884627216041088,-0.152830700712651,-0.056044908631220455
1761838735452615400,6.410615478515625,-0.6103507429480552,-0.4036372070088982,0.11999861762560904
1761838735462684700,6.4206845703125,-0.8478981008291244,-0.6518411295913159,0.2516820470217615
1761838735472754700,6.430754638671875,-1.0877829617470502,-0.8504982003249227,0.30675467655472455
1761838735482824400,6.440824462890625,-1.2472615760415793,-0.9744098266758024,0.2614008924815804
1761838735492893700,6.450893798828125,-1.2414736402899027,-1.023869877023995,0.11811565342321992
1761838735502963500,6.46096337890625,-1.130094747775793,-1.0530825275048612,-0.0035896219898015258
1761838735513033700,6.47103369140625,-1.0261913057088852,-1.0862506376132368,-0.08693367563076317
1761838735523102500,6.4811025390625,-0.971875193631649,-1.1126730728536844,-0.1897708036404103
1761838735533172500,6.49117236328125,-0.9432312829494476,-1.0706360121130942,-0.36193931509479876
1761838735543242800,6.50124267578125,-0.9743354462653397,-0.9701128601342439,-0.5615563169017433
1761838735553311500,6.5113115234375,-0.992056396394968,-0.7865059128858148,-0.7584086763009429
1761838735563381800,6.5213818359375,-0.9359925638675689,-0.5696700652524829,-0.8888451013106852
1761838735573450500,6.531450439453125,-0.7960714674800634,-0.37216669459864493,-0.9462571335766464
1761838735583520800,6.541520751953125,-0.5940782380610704,-0.19354425776451825,-0.8970932896960526
1761838735593590500,6.551590576171875,-0.3162584910243749,-0.09301555282771587,-0.8082130831073969
1761838735603659500,6.561659423828125,-0.022173253363370893,-0.014233108013868331,-0.6999540761794895
1761838735613729800,6.571729736328125,0.23703999288082123,0.07692132711708545,-0.5905045442927629
1761838735623799600,6.581799560546875,0.4078150772154331,0.1239598494067788,-0.4750331217680126
1761838735633868800,6.591868896484375,0.547688827329874,0.19216303253918884,-0.40545806576050814
1761838735643938600,6.6019384765625,0.6910334684252738,0.2312079257264733,-0.31231143389903004
1761838735654008600,6.612008544921875,0.8251882563710212,0.2234489821627736,-0.21669490479268133
1761838735664077600,6.62207763671875,0.8957938244700431,0.17898410975337029,-0.09460377186723053
1761838735674147600,6.632147705078125,0.9815034381985663,0.1014753381371498,0.022983985224366187
1761838735684217600,6.642217529296875,1.111905011090636,0.0744338942155242,0.04636398402899503
1761838735694286600,6.65228662109375,1.1480606125772,0.13401830208450555,0.07574724183641374
1761838735704356600,6.662356689453125,1.0946996092677115,0.18585911008939146,0.1382677031572908
1761838735714426600,6.672426513671875,0.9491600884765387,0.16593465856611728,0.24332952147908507
1761838735724495600,6.68249560546875,0.8031284002542495,0.13168869009315967,0.32834676902927457
1761838735734565400,6.6925654296875,0.7071884844124317,0.045216859820485115,0.4196284838017076
1761838735744634600,6.702634521484375,0.5116501302212476,-0.021481763967871666,0.46416116075031455
1761838735754704600,6.71270458984375,0.24313889427781105,-0.012615151423215865,0.3747464088935405
1761838735764774700,6.722774658203125,0.2211030035585165,0.12084960843175649,0.21937975996248424
1761838735774843600,6.73284375,0.1883727003455162,0.30272856284379956,0.05036101777590811
1761838735784913700,6.74291357421875,0.1700116987466812,0.46674394378513095,-0.12088497200608253
1761838735794983700,6.752983642578125,0.21561083588302135,0.5594760034963489,-0.2492880645573139
1761838735805052400,6.763052490234375,0.15227379748225212,0.5793830654934048,-0.27200806508325037
1761838735815122700,6.773122802734375,-0.10623042370975017,0.5032485048398375,-0.34901860485374925
1761838735825192700,6.783192626953125,0.05026654442548752,0.430027493545413,-0.09539382626637816
1761838735835261700,6.79326171875,0.31246319039463993,0.8469450378879905,-0.27154052063673734
1761838735845331700,6.803331787109375,0.7607996630907058,0.7157929388895631,-0.4230530514229089
1761838735855400400,6.813400390625,1.0187795681476592,0.36597821522206064,-0.36698921889550984
1761838735865470700,6.823470703125,1.0111492193996905,0.29975393094718455,-0.3352078869704157
1761838735875540500,6.83354052734375,0.8918138149231671,0.250729495537281,-0.3323195451177656
1761838735885609700,6.843609619140625,0.9445873737335204,0.2207736254736781,-0.3408854942154139
1761838735895679700,6.8536796875,0.9848112475723028,0.3072919252365827,-0.36014870535098015
1761838735905749500,6.86374951171875,1.0021177716821432,0.34085955605655904,-0.3943076531276107
1761838735915818800,6.87381884765625,1.1193144105643034,0.27010405809283256,-0.34908418090324844
1761838735925888500,6.883888427734375,1.3524942208856343,0.25938889507204294,-0.33130982008595017
1761838735935958500,6.89395849609375,1.4360907879829405,0.15913842255473135,-0.29856030071582645
1761838735946027500,6.904027587890625,1.249182899492979,-0.15053192225098608,-0.34300548204407094
1761838735956097500,6.91409765625,1.3532540993422268,-0.28524551312327384,-0.573151075768657
1761838735966167800,6.924167724609375,1.6019845300167799,-0.39599195295274253,-0.9165771578449755
1761838735976236500,6.934236572265625,1.897598876941204,-0.7932341982275247,-1.2713590754657984
1761838735986306600,6.944306640625,2.0701538304299114,-1.2109984225273132,-1.65916056156978
1761838735996376600,6.95437646484375,2.184733564811945,-1.2379878440007566,-1.9087978779561816
1761838736006445600,6.964445556640625,2.37471194678843,-0.9409846730664372,-1.7681117885455488
1761838736016515600,6.974515625,2.5229063660025597,-0.6906678499832749,-1.2765773946359753
1761838736026584600,6.98458447265625,2.684821267533302,-0.54293111140877,-0.680740695535019
1761838736036654600,6.994654541015625,2.875160299515724,-0.28670915593504903,-0.09740410664286464
1761838736046724600,7.004724609375,3.3271073639243838,0.09267185395658016,0.24796437820550052
1761838736056793600,7.014793701171875,3.904076061752438,0.4930088503763079,0.37525055902339516
1761838736066863600,7.024863525390625,4.446041835260391,0.8315995847180485,0.5439867944741621
1761838736076933600,7.03493359375,4.832624154832959,1.1348831510961055,0.6749936032503843
1761838736087002600,7.045002685546875,5.21809997446835,1.4771461442098022,0.8352735239904373
1761838736097073000,7.055072998046875,5.399083149084449,1.7694538508042692,1.0536395038004964
1761838736107143000,7.065142822265625,5.501951402884721,1.9759493600785731,1.2213948749877512
1761838736117212200,7.075212158203125,5.797746951594949,2.2211635993257164,1.2305537484772502
1761838736127282000,7.085281982421875,6.279051627913117,2.5161238662555814,1.2524069761060177
1761838736137351000,7.095350830078125,6.511726995843649,2.723396205121279,1.3250330902472138
1761838736147421000,7.1054208984375,6.678284170222282,2.7747999368831513,1.3416196295194327
1761838736157491000,7.115490966796875,6.851876650065183,2.733097807185352,1.2981712406761943
1761838736167560000,7.125559814453125,6.727005238771438,2.6409704353690144,1.2045849022231996
1761838736177630000,7.1356298828125,6.436522994038462,2.516532447056472,1.0120413459338247
1761838736187700000,7.145699951171875,5.998982056123018,2.4619810649186373,0.7826929304689169
1761838736197769000,7.15576904296875,5.52636688221693,2.304704052321613,0.6822058727167546
1761838736207839000,7.1658388671875,5.054623230448365,2.0194633615039286,0.6417142147872597
1761838736217908700,7.17590869140625,4.466621681952477,1.846283407984674,0.7206641981877386
1761838736227978000,7.18597802734375,3.7190076636493203,1.7123934084549546,0.7563252941556274
1761838736238047700,7.1960478515625,2.7609914840221403,1.5468965567842126,0.6059804189093411
1761838736248118000,7.206117919921875,1.73494046356678,1.5312712637595831,0.4790810089193284
1761838736258187000,7.21618701171875,0.8204729182869196,0.8895033460237085,0.7577165293183177
1761838736268257000,7.226257080078125,-1.066813238954544,-0.5513565560571849,1.423081961067021
1761838736278326000,7.236325927734375,-4.11951855533123,-1.688650713817775,1.9092909221701322
1761838736288395800,7.246395751953125,-7.452094121533632,-2.2687249764457342,1.5108892777271568
1761838736298466000,7.256466064453125,-11.771706210142373,-2.4609715956151486,0.3779199243631214
1761838736308534800,7.26653466796875,-16.70952384685278,-2.284568442265689,-0.4809103432383388
1761838736318605000,7.27660498046875,-22.15084513220787,-3.3633632109150287,-0.5803785062715411
1761838736328675000,7.286675048828125,-27.236047625315187,-6.172328452250361,-0.804523507874459
1761838736338743800,7.296743896484375,-30.46742725484371,-8.420027884063124,-2.0876231438860295
1761838736348814000,7.30681396484375,-32.52307149840593,-7.83955205489695,-2.0516941907621917
1761838736358883800,7.3168837890625,-33.43465676624775,-6.209944189417362,0.9560163841120898
1761838736368953000,7.326953125,-31.874284934079647,-4.652551957581937,3.8297938509672877
1761838736379022800,7.33702294921875,-28.637978954064845,-4.44922309564501,5.842580949577689
1761838736389092000,7.347092041015625,-25.50011347453594,-3.60043096858561,6.642100511685014
1761838736399162000,7.357162109375,-22.34681427903175,-1.9776886049613356,6.316225466531515
1761838736409232000,7.36723193359375,-19.964504132199288,-0.8823067125178873,5.871777233445644
1761838736419301000,7.377301025390625,-17.860692946839333,0.19663813212662934,5.6563715647459025
1761838736429371000,7.387370849609375,-15.68376742542982,1.2134405549824236,5.611898801290988
1761838736439441000,7.39744091796875,-13.134887244737147,2.130104149001837,5.331538722121715
1761838736449510000,7.407510009765625,-9.87289503480196,2.6237492514550684,4.742372513760626
1761838736459580000,7.417579833984375,-6.522122717651724,2.735353184896707,3.7479052568316455
1761838736469650000,7.42764990234375,-3.7592753766298292,2.9549381851077077,2.565628778658807
1761838736479719000,7.437718994140625,-2.2728519932478664,3.313684987771511,1.743027031649649
1761838736489789000,7.447788818359375,-1.4913585016965865,4.1518069599956275,1.46259359498322
1761838736499858000,7.45785791015625,-0.7426812380760908,5.422648733589053,1.3170926526367663
1761838736509928000,7.467927978515625,0.49676235769093036,6.462428419667482,0.8335744649875909
1761838736519998000,7.477998046875,2.2941724291741847,7.1828288523524995,0.007180339958146214
1761838736530067000,7.48806689453125,4.166383182358741,7.324145202490687,-0.7941603000964969
1761838736540137000,7.498136962890625,5.801777814546227,6.985615842947364,-1.2641098349899054
1761838736550207000,7.50820703125,7.126401447209715,6.403470619264245,-1.436127028340101
1761838736560276000,7.51827587890625,8.24716897919178,5.9392094322055575,-1.667565547952056
1761838736570346000,7.528345947265625,9.18877295320034,6.01384294064641,-1.847336278038472
1761838736580416000,7.538416015625,9.927837754344939,6.867288738730549,-1.829680648230016
1761838736590484700,7.548484619140625,10.846229195070267,7.630456299996376,-1.4883232256539165
1761838736600555000,7.558554931640625,11.65537115652561,7.939578363269567,-0.5853873839421198
1761838736610625000,7.568625,12.022937225461005,7.545430576878785,0.42496732407901433
1761838736620694000,7.578694091796875,12.210189981865883,6.486475650209188,1.0224665130320936
1761838736630764000,7.588763916015625,12.495287026429176,5.49923162253201,0.6051395111057907
1761838736640833000,7.5988330078125,13.288990595734118,5.147842196893691,-0.6690654553104192
1761838736650903000,7.608903076171875,14.120536112177371,4.866037764135003,-2.1665724696993824
1761838736660972800,7.618972900390625,14.300197098278998,4.440514596271514,-3.2594714592859146
1761838736671042000,7.6290419921875,14.16833948135972,4.49983976868242,-3.494652380296588
1761838736681112000,7.639112060546875,14.026070360541343,4.969373050925135,-2.9736878937631843
1761838736691181800,7.649181884765625,14.152196155810355,5.3951411334604025,-2.26208027773425
1761838736701251000,7.6592509765625,14.149938732272386,5.700611103966832,-1.6392258809134364
1761838736711320800,7.66932080078125,13.82504743745923,5.684256766015291,-1.0601491779554635
1761838736721390800,7.679390869140625,13.490143282675742,5.4972419100195165,-0.6443753968205302
1761838736731459800,7.6894599609375,13.185276538759469,5.301487282729148,-0.44439025582093744
1761838736741529900,7.69952978515625,13.01671796143055,4.654418628236651,-0.16724769565975292
1761838736751598800,7.709598876953125,12.747760735285281,3.923418475604057,0.12304923736788331
1761838736761668900,7.7196689453125,12.195948690545558,3.7966362622529264,0.31922501267977055
1761838736771739000,7.72973876953125,11.573755534112452,3.8314761049658057,0.5868490905251353
1761838736781807900,7.739807861328125,10.743268002289533,3.4739544601827856,1.0803889059729874
1761838736791878000,7.7498779296875,9.53004839658141,2.710447291699052,1.6439537862181663
1761838736801948000,7.759947998046875,8.21894943140149,2.362303131592274,1.8905885597877203
1761838736812017000,7.770016845703125,7.1214967240333555,2.310814936417341,1.8246838628560305
1761838736822087200,7.780087158203125,6.00037789439559,2.197279158130288,1.5473630052521823
1761838736832157000,7.790156982421875,5.20362721247971,1.9379320563733577,1.2190666512358932
1761838736842226000,7.800225830078125,4.613918275544047,1.7292752774119375,0.6979960009142756
1761838736852296000,7.8102958984375,4.25993415723741,1.6778054946765302,0.043418085036519914
1761838736862365000,7.820364990234375,4.078243711134792,1.7379919600918887,-0.5515065589871258
1761838736872435000,7.83043505859375,4.130118859800696,1.9227604984655975,-1.0132399811338633
1761838736882505000,7.8405048828125,4.162123771348595,2.0663529768422246,-1.1940529868148266
1761838736892574000,7.850573974609375,4.001237628343701,2.1501015196308493,-0.9292159093394875
1761838736902644000,7.86064404296875,3.6898984735429283,2.1866364758238195,-0.2661829939252697
1761838736912714000,7.8707138671875,3.356652607360482,2.1142592218771576,0.5157531816259027
1761838736922783000,7.880782958984375,2.789672219583392,2.1314158161222934,1.2611759734950958
1761838736932853000,7.89085302734375,2.2448545637756583,1.724089983728528,2.1390010105542836
1761838736942922800,7.9009228515625,1.8710557379305361,0.5912243099346757,3.32145416046828
1761838736952992000,7.910991943359375,1.4120955798894166,-1.339796067354083,4.698707851818203
1761838736963062000,7.92106201171875,0.5210112482845783,-4.180618628460168,5.991392623907327
1761838736973131000,7.931131103515625,-1.982236477524042,-6.340308937430382,5.116832141602039
1761838736983201000,7.941200927734375,-3.7164433661192655,-7.175367430430651,1.7468797615550458
1761838736993270800,7.951270751953125,-5.235924384972453,-7.290112584507465,-3.844325941927731
1761838737003340000,7.961340087890625,-7.051558095410466,-4.424023187936842,-9.282294701984524
1761838737013409800,7.971409912109375,-8.446543550544977,0.20221037930101154,-9.983933151054382
1761838737023480000,7.98147998046875,-9.468178508123755,1.7201576127156615,-7.166613630610704
1761838737033548800,7.991548828125,-9.37564401681125,2.3830849305972457,-3.7962966550350186
1761838737043618800,8.001618896484375,-8.157692121884226,3.0789483033969995,-0.9997405211567878
1761838737053689000,8.011689208984375,-7.8094111836552615,1.82008747497648,1.7249137212015688
1761838737063757800,8.0217578125,-8.65114667020142,0.4925792267873883,4.58392411929667
1761838737073828000,8.031828125,-10.135186373317241,-1.0124226003363728,7.234688218927383
1761838737083896800,8.041896728515624,-12.115967391335964,-3.005300591123104,8.92131327213645
1761838737093967600,8.051967529296874,-13.808717064905165,-3.626849019911885,8.911812453341483
1761838737104037600,8.06203759765625,-14.870422751587629,-3.0027371703758834,7.69342801221609
1761838737114106600,8.072106689453125,-15.090828420531748,-2.152802595283091,4.919595166799426
1761838737124176400,8.08217626953125,-13.346795134449005,-3.379126597236097,-0.40234870156832037
1761838737134246700,8.09224658203125,-10.440519565701484,-8.84891439087987,-9.691985509943962
1761838737144315400,8.1023154296875,-9.1927991399765,-6.283084244430065,-16.36526149661541
1761838737154385700,8.1123857421875,-10.627241576230526,0.4160816415077075,-12.23277941481471
1761838737164455700,8.12245556640625,-14.00349144898653,-1.1467498222395778,-6.253632524496316
1761838737174524700,8.132524658203126,-13.57254333346486,1.0119561518684028,-3.926048239585757
1761838737184594700,8.1425947265625,-11.199145976406335,1.8063908119268715,-2.4834628288865086
1761838737194663400,8.152663330078125,-9.147550715973972,1.8352733536705375,-1.2429288075342773
1761838737204733700,8.162733642578125,-7.133734274315834,2.2775366439327596,-0.26567009423337873
1761838737214803500,8.172803466796875,-5.010227039360999,2.1963855702914294,0.38255825168825686
1761838737224872700,8.182872802734375,-3.05154094877243,2.177752619883418,0.8819451857291162
1761838737234942700,8.192942626953124,-1.3612906908035278,1.9297944887556135,1.1803094158835707
1761838737245012500,8.203012451171874,0.3121294283956289,1.5846978796511888,1.294046269700676
1761838737255081700,8.213081787109376,1.7534926038235426,1.315427642033994,1.3359320854023098
1761838737265151500,8.2231513671875,2.926050528797507,0.981810019929707,1.34114455935359
1761838737275221500,8.233221435546875,3.8718794270247217,0.7358595753625035,1.2677289022698999
1761838737285290500,8.24329052734375,4.724167287245392,0.6386833957239985,1.1275199288517237
1761838737295360500,8.253360595703125,5.346007392457127,0.6078570995014161,0.959749725421518
1761838737305430500,8.263430419921875,5.76562981184423,0.6115371031884104,0.8278244500935077
1761838737315499500,8.27349951171875,6.084166184672713,0.6239139888763428,0.7436309400163591
1761838737325569500,8.283569580078124,6.301942674157023,0.6429208871632814,0.6952747592568397
1761838737335638500,8.293638427734376,6.34046032859981,0.708011345102638,0.6974424586847424
1761838737345708500,8.30370849609375,6.304961145195365,0.7593148313604294,0.7937775843892246
1761838737355778600,8.313778564453125,6.195492470216751,0.8141508756585418,0.9117905811555683
1761838737365847600,8.32384765625,6.168949331206083,0.9187814629562199,0.9796054225575178
1761838737375917600,8.33391748046875,6.133596278274059,0.9759327984593809,1.0881319943804293
1761838737385987600,8.343987548828125,5.994857669669389,0.9264150265745819,1.2415269779123366
1761838737396056600,8.354056640625,5.8581304008871316,0.8649594180062413,1.3198248540796338
1761838737406126600,8.364126708984376,5.652800720521808,0.9132121383912861,1.3111428043216466
1761838737416195600,8.374195556640625,5.540123604890704,0.880601808296144,1.1877942186810075
1761838737426265600,8.384265625,5.330790534102916,0.6480429063521326,1.046050509976223
1761838737436335600,8.394335693359375,4.6259109111547465,0.19072861582189798,0.8633509598962962
1761838737446404400,8.404404296875,3.6104660403877493,-0.4629677862472832,0.5937043632473796
1761838737456474600,8.414474609375,2.345880989101529,-0.7489654329121113,0.02602919813916087
1761838737466544600,8.424544677734374,1.0167103606581687,-0.751497727868706,-0.8239238624583929
1761838737476613600,8.434613525390626,0.08444353931546211,-0.6414245111256838,-1.851991118106991
1761838737486683600,8.44468359375,-0.6032751054733991,-0.19669190814048051,-2.8804636666208503
1761838737496753400,8.45475341796875,-1.0007114120155571,0.3873636792086065,-3.5265500320777297
1761838737506822700,8.46482275390625,-1.2995908982157707,0.7992287624672054,-3.4783465576618906
1761838737516892700,8.474892578125,-1.9956313811480997,0.9434452179610728,-2.796729152357578
1761838737526962400,8.48496240234375,-2.692894683873653,0.797068077301979,-2.0255137475840748
1761838737537031700,8.49503173828125,-2.885451391905546,0.8211160384960472,-1.3129795182295143
1761838737547101400,8.505101318359374,-2.8356156401127577,0.7709143760003149,-0.8166308559060096
1761838737557170700,8.515170654296876,-2.7956770129561423,0.5276796201325953,-0.3714164607532322
1761838737567240400,8.525240478515625,-2.796451504459977,0.41881461013555527,-0.03830459621399641
1761838737577310500,8.535310546875,-2.772515917599201,0.4173413957778364,0.17939181377142666
1761838737587379500,8.54537939453125,-2.8248580992549654,0.4043427979949861,0.25999928205534817
1761838737597449500,8.555449462890625,-2.830527377063036,0.3763694800507277,0.22706936461701988
1761838737607519700,8.565519775390625,-2.6868121490895747,0.377281772590056,0.05549041655361652
1761838737617588500,8.57558837890625,-2.5764748745828867,0.4464522663846612,-0.16707535303384063
1761838737627658500,8.585658447265626,-2.5525901411265135,0.5232474829040468,-0.36404213259294627
1761838737637728500,8.595728515625,-2.4677269150942562,0.5711646146591752,-0.5749738707490265
1761838737647797500,8.605797607421875,-2.31557294459939,0.46041211041510105,-0.6762237295672298
1761838737657867800,8.61586767578125,-2.0497288820385933,0.24881788976229727,-0.7448026141442358
1761838737667936500,8.6259365234375,-1.5953005222082137,0.16917634390108285,-0.8987288550086319
1761838737678006500,8.636006591796875,-1.0304255822777748,0.08327142679616809,-1.0166472322940825
1761838737688076500,8.64607666015625,-0.616671762663126,-0.09798194306343794,-1.1052138428889213
1761838737698145500,8.6561455078125,-0.2503121469080448,-0.16805428106859324,-1.2870369754604996
1761838737708215600,8.666215576171876,0.29614158566892146,-0.0397850440301001,-1.4602024620629845
1761838737718285600,8.67628564453125,0.8265361638486385,0.060413552169501776,-1.5106937551550566
1761838737728354600,8.6863544921875,1.1866355501651764,0.07786430705562233,-1.423156925999373
1761838737738424600,8.696424560546875,1.5475380695581435,0.05228299881443381,-1.2186365892555564
1761838737748494600,8.70649462890625,1.7739882793635129,0.013188713527470827,-0.9254832986824214
1761838737758563600,8.7165634765625,1.7278513820886612,-0.021710165896266696,-0.6193385707195848
1761838737768633600,8.726633544921874,1.7425468469172716,-0.022968203133344647,-0.3581778436694294
1761838737778703400,8.736703369140624,1.8168951086759566,0.005177694898843765,-0.15093392718061804
1761838737788772600,8.746772705078126,1.6760557283997535,-0.0418406613856554,0.042882206327840684
1761838737798842600,8.756842529296875,1.3715052108258008,-0.11947495907768606,0.21963965300768612
1761838737808911600,8.76691162109375,1.087042957034707,-0.129876233843714,0.3088242493703961
1761838737818981600,8.776981689453125,1.0192992081075907,-0.07140066399946808,0.3260612153753638
1761838737829051400,8.787051513671875,0.8806956240594387,0.025993396173417567,0.3778673173930496
1761838737839120600,8.79712060546875,0.6708674632310867,0.005429623833298683,0.41307592035308477
1761838737849190400,8.8071904296875,0.3746802848547697,-0.0965465034328401,0.3991401878505945
1761838737859260700,8.8172607421875,0.24973463928103445,-0.11236366576775908,0.3197112618267536
1761838737869329400,8.827329345703125,0.2967904049664736,-0.027448271156847476,0.24237901582121849
1761838737879399400,8.8373994140625,0.24602818597853182,-0.016894582308083772,0.17388284109160304
1761838737889469700,8.8474697265625,0.2107715791583061,-0.1511895093768835,0.19619922925271094
1761838737899538400,8.857538330078125,0.11899053656160831,-0.20645137787163256,0.26701529829725623
1761838737909608700,8.867608642578125,0.05388941109776497,-0.2952364535227418,0.369694970722869
1761838737919677400,8.877677490234374,-0.08430676119327545,-0.3785837220340967,0.39752369256466624
1761838737929747500,8.88774755859375,-0.020149054059386252,-0.3623683541618287,0.4021300903815776
1761838737939817700,8.897817626953126,0.009071195206046104,-0.27292320716679097,0.41114634052999316
1761838737949886500,8.907886474609375,-0.054338908430933947,-0.31982582811713217,0.4062568149227649
1761838737959956700,8.917956787109375,-0.08632803788781165,-0.3857455764874816,0.4379112690651789
1761838737970026500,8.928026611328125,-0.13566051633358,-0.3685119714833796,0.4931090593477711
1761838737980095700,8.938095703125,-0.17403905456662178,-0.32618323431983587,0.5574439496794715
1761838737990165500,8.94816552734375,-0.13405191209316253,-0.2566208916634321,0.5555865948423743
1761838738000235500,8.958235595703124,-0.06689911479651928,-0.11797887530103325,0.4895040571257472
1761838738010304500,8.968304443359376,0.016306407156586645,0.006958148574829101,0.40314580676276235
1761838738020374500,8.97837451171875,0.1348760879576206,0.14036884015500545,0.33509631635472176
1761838738030443800,8.98844384765625,0.24923311949968335,0.27442411324903365,0.2512755120474845
1761838738040513500,8.998513427734375,0.3291483677357435,0.3248677678070962,0.1600540760949254
1761838738050583600,9.00858349609375,0.45052024647593497,0.3598578326456249,0.10209266631789504
1761838738060652500,9.018652587890625,0.6332184083163738,0.42767669263556596,0.06263042450137436
1761838738070722600,9.02872265625,0.7629922046989202,0.432893988892436,0.03731646195948124
1761838738080792600,9.03879248046875,0.7664052280128002,0.35960736501589413,0.03275646056756377
1761838738090861600,9.048861572265626,0.6952572236001491,0.29432839876711364,0.03118153940103948
1761838738100931000,9.05893115234375,0.6608148557722568,0.27043796622231603,0.01869666329398751
1761838738111001000,9.0690009765625,0.6323690980106592,0.27724720784574747,0.007509206586331129
1761838738121070000,9.079070068359375,0.5768570541471243,0.2477737144716084,0.01159822946563363
1761838738131140000,9.08914013671875,0.4947206227302551,0.19354089676365255,-0.023077727922424674
1761838738141210000,9.099210205078125,0.48085108733177184,0.10509002150297164,-0.06700140612721443
1761838738151278800,9.10927880859375,0.46900458219349384,-0.027751638017594813,-0.1087264783091843
1761838738161349000,9.11934912109375,0.30414895103573797,-0.16080796320214866,-0.1719417169611901
1761838738171417900,9.12941796875,0.11200549997985362,-0.24272461438849566,-0.20599113994874058
1761838738181488000,9.139488037109375,0.0018137714236974715,-0.25177578971982,-0.3109763128377497
1761838738191558100,9.14955810546875,-0.05462298606932163,-0.2803963195264339,-0.4114843403127044
1761838738201627100,9.159627197265625,-0.08123451414108276,-0.3480784013941884,-0.5068316240236163
1761838738211697200,9.169697265625,-0.1620288832992315,-0.46092897389605636,-0.5766263871964067
1761838738221767000,9.179766845703124,-0.2501385439068079,-0.5266000082023441,-0.593855608286336
1761838738231836200,9.189836181640626,-0.4528618411660194,-0.6314838396087289,-0.6352898808281868
1761838738241906200,9.19990625,-0.634299773812294,-0.8371000818304717,-0.5859849479764699
1761838738251976000,9.209975830078125,-0.8613497030764817,-0.887708279300481,-0.5293159160975367
1761838738262045200,9.220045166015625,-0.8272329139411448,-0.8138738122828304,-0.4412509714145213
1761838738272115000,9.230114990234375,-0.7571639369368552,-0.7536259720690548,-0.22804661215133964
1761838738282185000,9.24018505859375,-0.6865425867468118,-0.6540132129333913,-0.16199366585537792
1761838738292254000,9.25025390625,-0.4868412676572799,-0.40333471693098544,-0.3908211261861026
1761838738302324000,9.260323974609374,-0.10574936219453811,-0.024553280367702244,-0.6940989934757351
1761838738312393000,9.27039306640625,0.08351473403275013,0.17643208718299866,-0.7419163911834359
1761838738322463000,9.280462890625,-0.4211918606609106,0.35883360416442156,-0.5972638823598623
1761838738332533200,9.290533203125,-0.9462877479106188,0.3995412429321557,-0.384526848347485
1761838738342602000,9.30060205078125,-1.0485329013764857,0.3195314482804388,-0.16807663903087378
1761838738352672000,9.310672119140625,-0.9576321487456559,0.3417508788730949,-0.08642992735970764
1761838738362742000,9.320741943359375,-0.8184194928884506,0.3365046487826854,-0.025845146809145805
1761838738372811000,9.33081103515625,-0.8093184870660305,0.3577417903397232,0.025427432853728532
1761838738382881300,9.34088134765625,-0.8833265570849179,0.4679967933904379,0.10056235147807746
1761838738392951000,9.350950927734376,-0.833928027665615,0.5575017077486962,0.11212693440243601
1761838738403020000,9.36102001953125,-0.5930827972829341,0.5591995246425271,-0.009133154526352882
1761838738413090000,9.371090087890625,-0.32882045095562934,0.5284748621635139,-0.12414459485653787
1761838738423160000,9.38116015625,-0.15777473298609257,0.43774142892360685,-0.15286555283032358
1761838738433229000,9.39122900390625,-0.08006547036170959,0.32172157873585816,-0.10341894648559391
1761838738443299000,9.401299072265624,-0.06930266880691051,0.2146674175530672,-0.07790748861022292
1761838738453368000,9.4113681640625,-0.034494390276074406,0.13494170053973792,-0.12530077915433793
1761838738463438000,9.42143798828125,-0.02138824046552181,0.12159750418961048,-0.1815672215817496
1761838738473508000,9.431508056640626,-0.06558101793527603,0.12960267759934066,-0.19156473785247652
1761838738483577000,9.4415771484375,-0.15304828898608683,0.0950457434810698,-0.1822193288149312
1761838738493647000,9.451647216796875,-0.17789689903855324,0.08902882127910852,-0.15718571758437902
1761838738503717000,9.461717041015625,-0.15100012428462503,0.08067161956131458,-0.14819496720340103
1761838738513786000,9.4717861328125,-0.1101022967070341,0.05980901040509343,-0.1518814736964181
1761838738523856100,9.481856201171874,-0.062463762697577474,0.054323272470384834,-0.2038558449530974
1761838738533926000,9.49192578125,-0.00888707081079483,0.04530892201811075,-0.2735883930772543
1761838738543995100,9.5019951171875,0.01880757632255554,0.06904314108788967,-0.3170460977381095
1761838738554065000,9.51206494140625,0.0053045361489057535,0.08689517025128006,-0.34764808368552474
1761838738564135200,9.52213525390625,-0.06599661299884318,0.09519143556207418,-0.3022236455289647
1761838738574204000,9.532203857421875,-0.13076105385422707,0.141481185311079,-0.17067969766873867
1761838738584274200,9.542274169921875,-0.043599487751722336,0.18041633451357483,-0.07219371407330036
1761838738594343000,9.552343017578124,0.021323358535766602,0.18677651719525457,-0.02131828050184995
1761838738604413000,9.562412841796874,0.03249123376011848,0.18958105322197077,0.025610077677946538
1761838738614483200,9.572483154296876,0.03598725918233395,0.21647958154156802,0.0578868467034772
1761838738624552000,9.582552001953125,0.0834288093149662,0.261539058843255,0.0797471799264662
1761838738634622200,9.592622314453125,0.11279226644337177,0.2556840492047369,0.06350757266208529
1761838738644692200,9.602692138671875,0.03955576531887054,0.2767681921571493,0.08758035777015612
1761838738654761000,9.612760986328125,0.0757470226407051,0.31594884055331346,0.12120021196771412
1761838738664831200,9.622831298828125,0.20025603036284445,0.31130583705306053,0.12911750616459175
1761838738674901000,9.63290087890625,0.19368717336654662,0.2859298421256244,0.1567444948892109
1761838738684970200,9.64297021484375,0.18654957657158375,0.2773481840021908,0.14681475575822406
1761838738695040000,9.6530400390625,0.18170856628119944,0.28653686810806395,0.14218124160552398
1761838738705110000,9.663110107421875,0.1810439648926258,0.29801249410733577,0.1596982483945787
1761838738715179000,9.673178955078125,0.2503290980428457,0.25565394632741806,0.1558228865322657
1761838738725249000,9.6832490234375,0.33022330349087714,0.20888313506320116,0.12383107192795723
1761838738735318300,9.693318359375,0.2932826891064644,0.1826432167828083,0.13946889564059675
1761838738745388000,9.703387939453124,0.2230108830064535,0.155329824052006,0.15950606855703517
1761838738755458000,9.7134580078125,0.27756431097090245,0.14909575196802616,0.1259438354313839
1761838738765527000,9.723527099609376,0.2719610841363668,0.1425282101459801,0.09264122135629876
1761838738775597000,9.73359716796875,0.2692044789046049,0.12965250809043646,0.07061381077098194
1761838738785667000,9.7436669921875,0.33122868114113807,0.07274579499810933,0.05349683615018148
1761838738795736000,9.753736083984375,0.36635026340484617,-0.02168108593225479,0.07056708098584785
1761838738805806000,9.76380615234375,0.3204875068962574,-0.1493304375067353,0.119368539561145
1761838738815876000,9.7738759765625,0.2673404385983944,-0.20901041470468043,0.11472381902784108
1761838738825945000,9.783945068359374,0.20463234575092792,-0.19170505963861942,0.08380442856117151
1761838738836015000,9.79401513671875,0.06662263594269752,-0.15692396137565373,0.020760082646796945
1761838738846085000,9.804085205078126,-0.08955167610943317,-0.12541940056532622,-0.006526047617744188
1761838738856153900,9.81415380859375,-0.18624679423272608,-0.0643467999652028,-0.019732317351503298
1761838738866224000,9.82422412109375,-0.19135902267992497,-0.033363924941420556,-0.06544533122505526
1761838738876293000,9.834293212890625,-0.19081483280062675,-0.026074936977028847,-0.044957925756508484
1761838738886363100,9.844363037109375,-0.17301906386911867,0.0032242227435111998,-0.044277784305508244
1761838738896433200,9.85443310546875,-0.16169336773455142,0.026737200278043747,-0.06731551814426202
1761838738906502000,9.864501953125,-0.14554361244440078,0.07212094109803438,-0.10014262822866439
1761838738916572200,9.874572265625,-0.16302900025248526,0.12915683352798224,-0.12132332689072936
1761838738926642200,9.88464208984375,-0.23739421314597128,0.14684154330044985,-0.11038873069928959
1761838738936711200,9.894711181640625,-0.22618892852067946,0.18299129956811666,-0.11337840490140952
1761838738946781200,9.90478125,-0.22645605502426622,0.19018121107220648,-0.1082168391534593
1761838738956851000,9.914850830078125,-0.1518687238126993,0.16131459755003452,-0.11280855999104678
1761838738966920200,9.924920166015625,-0.09098317021727562,0.10452274300903082,-0.12803040504762903
1761838738976990000,9.934989990234374,0.031060324174165724,0.08246873211115598,-0.1806078384976834
1761838738987060000,9.94506005859375,0.15684826579093933,0.08632073136419058,-0.255405780252628
1761838738997129000,9.95512890625,0.21945523635149,0.03101736181527376,-0.29575280554704364
1761838739007199000,9.965198974609375,0.26396950086057186,-0.008854922106862067,-0.3355041665032506
1761838739017268200,9.975268310546875,0.22479542833566665,-0.02114127996712923,-0.3451899864763021
1761838739027338000,9.985337890625,0.18391747450232504,-0.03301701119989157,-0.32281087180990725
1761838739037408000,9.995407958984375,0.23118542163372038,-0.014383330139517782,-0.32951263447087253
1761838739047477000,10.00547705078125,0.2698386851549148,0.010050269371271132,-0.34917953103650357
1761838739057547000,10.015547119140624,0.21153964092135427,-0.006486147148907185,-0.3501609067566693
1761838739067617300,10.0256171875,0.15568740531802178,-0.02794306893646717,-0.3196439687442034
1761838739077686000,10.03568603515625,0.09488134669959544,-0.05683657046556472,-0.2755715479847975
1761838739087756000,10.045756103515625,0.17969138123989103,-0.03468962058722973,-0.25424515724172814
1761838739097825500,10.055825439453125,0.18648001846671103,-0.011028759014606475,-0.21693870521960779
1761838739107894800,10.065894775390625,0.28957155962884423,0.038003275179862975,-0.18271878450335935
1761838739117964500,10.075964599609375,0.1490238557755947,0.09110767337977886,-0.13830803516767917
1761838739128034600,10.08603466796875,0.08347849367558956,0.09478080893456935,-0.0761733034950681
1761838739138103600,10.096103515625,0.06968319255709647,0.0939966728195548,-0.046824386348668486
1761838739148173600,10.106173583984376,0.050316813308000564,0.08050123143047094,0.01413717335872352
1761838739158243600,10.11624365234375,0.07833937722146511,0.08849924444705247,0.06380262835221365
1761838739168312600,10.1263125,0.11871405770778655,0.11340864477604627,0.08734360813852399
1761838739178382600,10.136382568359375,0.08626257143616675,0.08823241020441054,0.09621204731408506
1761838739188451600,10.14645166015625,0.1062853687673807,0.0890665229409933,0.08122406581230461
1761838739198521600,10.156521484375,0.12493453965783119,0.12238427065312861,0.0435068044995889
