time,seconds_elapsed,z,y,x
1761818081191079000,0.091078857421875,-0.016868121922016144,0.04835797846317291,-0.03970089182257652
1761818081201006800,0.1010068359375,-0.028486961498856544,0.08641108870506287,-0.047951098531484604
1761818081210934800,0.110934814453125,-0.03915272653102875,0.13278160989284515,-0.06620876491069794
1761818081220863000,0.120863037109375,-0.045944586396217346,0.17704786360263824,-0.0941019058227539
1761818081230792000,0.1307919921875,-0.06458312273025513,0.20740514993667603,-0.12481635063886642
1761818081240720100,0.14072021484375,-0.07363280653953552,0.24159002304077148,-0.16658616065979004
1761818081250648000,0.15064794921875,-0.05492284148931503,0.26583048701286316,-0.18647949397563934
1761818081260576000,0.160575927734375,-0.024149218574166298,0.29321950674057007,-0.2002142071723938
1761818081270505000,0.1705048828125,-0.004879382438957691,0.301412433385849,-0.18744248151779175
1761818081280433000,0.180432861328125,-0.0037291632033884525,0.3000180125236511,-0.1720542013645172
1761818081290360800,0.19036083984375,-0.022766297683119774,0.30407583713531494,-0.17506340146064758
1761818081300289800,0.200289794921875,-0.051291149109601974,0.3166715204715729,-0.20582742989063263
1761818081310218000,0.210218017578125,-0.10467854887247086,0.37743455171585083,-0.29710498452186584
1761818081320146000,0.22014599609375,-0.15405035018920898,0.46360883116722107,-0.4360319674015045
1761818081330074000,0.23007421875,-0.19557128846645355,0.5886418223381042,-0.6349290013313293
1761818081340003000,0.240003173828125,-0.22574090957641602,0.7638493180274963,-0.8873133063316345
1761818081349931000,0.249930908203125,-0.21380382776260376,0.9578380584716797,-1.1742650270462036
1761818081359859000,0.25985888671875,-0.17106223106384277,1.2034313678741455,-1.5199393033981323
1761818081369787000,0.269786865234375,-0.173158198595047,1.430064082145691,-1.8656220436096191
1761818081379715800,0.2797158203125,-0.17584958672523499,1.5141751766204834,-2.1246821880340576
1761818081389644000,0.28964404296875,-0.15581275522708893,1.4451690912246704,-2.2680790424346924
1761818081399572000,0.299572021484375,-0.15207608044147491,1.297336459159851,-2.309882640838623
1761818081409500000,0.3095,-0.1811619997024536,1.1620970964431763,-2.227964401245117
1761818081419429000,0.31942919921875,-0.2667626440525055,1.0875706672668457,-1.9850406646728516
1761818081429357000,0.329357177734375,-0.33461305499076843,1.0541632175445557,-1.6263023614883423
1761818081439285000,0.339284912109375,-0.3458643853664398,1.0364608764648438,-1.2034006118774414
1761818081449213000,0.349212890625,-0.3191806972026825,1.08237624168396,-0.7590693235397339
1761818081459142000,0.359141845703125,-0.26894763112068176,1.1647025346755981,-0.33767837285995483
1761818081469070000,0.369070068359375,-0.1682630330324173,1.206048607826233,0.03388960659503937
1761818081478998000,0.378998046875,-0.0266430601477623,1.3147151470184326,0.3320789635181427
1761818081488927000,0.388927001953125,0.11911134421825409,1.5505149364471436,0.560112476348877
1761818081498855000,0.39885498046875,0.24535317718982697,1.8016209602355957,0.7202566266059875
1761818081508782800,0.408782958984375,0.41747555136680603,1.9533183574676514,0.8515139818191528
1761818081518710800,0.418710693359375,0.5995611548423767,1.9826747179031372,0.9905411601066589
1761818081528640000,0.428639892578125,0.7154114246368408,1.9461649656295776,1.12107253074646
1761818081538568000,0.43856787109375,0.7718584537506104,1.832856297492981,1.2289643287658691
1761818081548496100,0.44849609375,0.7682549357414246,1.5664393901824951,1.353622317314148
1761818081558424000,0.458424072265625,0.7223449945449829,1.3239970207214355,1.495226263999939
1761818081568353000,0.46835302734375,0.6652639508247375,1.153671145439148,1.665518045425415
1761818081578281000,0.478281005859375,0.571757435798645,1.1033982038497925,1.8811944723129272
1761818081588209000,0.488208984375,0.42970776557922363,1.0165152549743652,2.1219918727874756
1761818081598136800,0.49813671875,0.2223827987909317,0.6651458144187927,2.2969934940338135
1761818081608065800,0.508065673828125,-0.10917114466428757,-0.05181296169757843,2.2736308574676514
1761818081617994000,0.517993896484375,-0.3877314031124115,-0.5942466855049133,2.149728536605835
1761818081627922200,0.527922119140625,-0.5897236466407776,-0.9665026664733887,1.961363673210144
1761818081637850000,0.53785009765625,-0.8031677603721619,-0.8720813393592834,1.61951744556427
1761818081647779000,0.547779052734375,-0.9754959344863892,-0.5832664966583252,1.467867136001587
1761818081657707000,0.55770703125,-1.1788157224655151,-0.23747339844703674,1.339443325996399
1761818081667635000,0.567635009765625,-1.2731521129608154,-0.10523984581232071,1.23677396774292
1761818081677563000,0.57756298828125,-1.3399200439453125,-0.10563798993825912,1.1278070211410522
1761818081687491800,0.587491943359375,-1.3844447135925293,-0.21966367959976196,1.0910412073135376
1761818081697419800,0.597419677734375,-1.3332313299179077,-0.3951617181301117,1.08563232421875
1761818081707348000,0.607347900390625,-1.197357416152954,-0.5384836792945862,1.0904040336608887
1761818081717277000,0.61727685546875,-1.0565403699874878,-0.7956499457359314,1.0252338647842407
1761818081727205000,0.627205078125,-1.113844871520996,-1.1223187446594238,0.8931331634521484
1761818081737133000,0.637133056640625,-1.3771649599075317,-1.168996810913086,0.783785343170166
1761818081747061000,0.64706103515625,-1.6253145933151245,-0.9736534357070923,0.667661726474762
1761818081756990000,0.656989990234375,-1.6153842210769653,-1.0022914409637451,0.4125517010688782
1761818081766918000,0.66691796875,-1.422067403793335,-1.2226946353912354,0.08477375656366348
1761818081776845800,0.676845703125,-1.1855944395065308,-1.2984591722488403,-0.19920417666435242
1761818081786774000,0.68677392578125,-0.9457360506057739,-1.3025003671646118,-0.39084160327911377
1761818081796703000,0.696702880859375,-0.7086044549942017,-1.4005159139633179,-0.4751732647418976
1761818081806631000,0.706630859375,-0.5040513277053833,-1.7310267686843872,-0.4464016556739807
1761818081816558800,0.716558837890625,-0.34709709882736206,-2.262862205505371,-0.27766960859298706
1761818081826488000,0.726488037109375,-0.17227181792259216,-2.647150993347168,-0.0395592637360096
1761818081836416000,0.736416015625,0.03226081654429436,-2.957489490509033,0.276043176651001
1761818081846344000,0.746343994140625,0.16566088795661926,-2.9750852584838867,0.5653627514839172
1761818081856272000,0.75627197265625,0.1609066128730774,-2.891549825668335,0.6990156173706055
1761818081866200800,0.766200927734375,0.0663345605134964,-2.670548439025879,0.6986417770385742
1761818081876129000,0.77612890625,0.0009089497034437954,-2.4401233196258545,0.533603847026825
1761818081886057000,0.786056884765625,0.0582599900662899,-2.1963510513305664,0.22458980977535248
1761818081895986000,0.79598583984375,0.21255049109458923,-2.0174033641815186,-0.10267858952283859
1761818081905914000,0.8059140625,0.41420045495033264,-1.8021303415298462,-0.30160099267959595
1761818081915842000,0.815842041015625,0.5638338923454285,-1.492380142211914,-0.33050402998924255
1761818081925770000,0.82577001953125,0.5387908220291138,-1.1495542526245117,-0.23986811935901642
1761818081935699000,0.835698974609375,0.4442957043647766,-0.7934033274650574,-0.03145232051610947
1761818081945627000,0.845626953125,0.4103071689605713,-0.7603799700737,0.2392255961894989
1761818081955555000,0.85555517578125,0.39112868905067444,-0.8713240623474121,0.41829201579093933
1761818081965483000,0.86548291015625,0.4160861670970917,-1.077002763748169,0.4794096052646637
1761818081975412000,0.875411865234375,0.40658533573150635,-1.2671090364456177,0.4901013970375061
1761818081985340000,0.88533984375,0.26498347520828247,-1.4269379377365112,0.48228245973587036
1761818081995267800,0.895267822265625,0.15090830624103546,-1.5456092357635498,0.5758702158927917
1761818082005197000,0.905197021484375,0.10535746067762375,-1.4721053838729858,0.7542285919189453
1761818082015125000,0.915125,0.10784512013196945,-1.2276897430419922,0.8887869715690613
1761818082025053000,0.925052978515625,0.1387007087469101,-1.0064259767532349,0.9418262839317322
1761818082034981000,0.934981201171875,0.22473785281181335,-0.9299349188804626,0.9062325954437256
1761818082044910000,0.94491015625,0.37273138761520386,-0.948091983795166,0.8127443194389343
1761818082054838000,0.954838134765625,0.5726367235183716,-1.0674530267715454,0.7027658820152283
1761818082064766000,0.964765869140625,0.7631498575210571,-1.179792881011963,0.588546872138977
1761818082074695000,0.97469482421875,0.8828139901161194,-1.192545771598816,0.527366042137146
1761818082084622800,0.984622802734375,0.9021636247634888,-1.2128851413726807,0.511154294013977
1761818082094550800,0.99455078125,0.7841560244560242,-1.1101723909378052,0.4991895854473114
1761818082104479000,1.00447900390625,0.512610673904419,-0.9184521436691284,0.4765089452266693
1761818082114408000,1.014407958984375,0.18188412487506866,-0.6999536752700806,0.44865572452545166
1761818082124336000,1.024336181640625,-0.0532689243555069,-0.6065678000450134,0.45190146565437317
1761818082134264000,1.03426416015625,-0.16972124576568604,-0.5934736132621765,0.5071333050727844
1761818082144192000,1.04419189453125,-0.25632596015930176,-0.6485774517059326,0.6009458899497986
1761818082154121000,1.054120849609375,-0.36174771189689636,-0.8099591732025146,0.6345602869987488
1761818082164049000,1.064048828125,-0.4390425384044647,-0.9593979120254517,0.6333455443382263
1761818082173976800,1.073976806640625,-0.4738684296607971,-1.0566529035568237,0.6347676515579224
1761818082183905800,1.08390576171875,-0.44749772548675537,-1.1098942756652832,0.673160195350647
1761818082193834000,1.093833984375,-0.41631102561950684,-1.154235601425171,0.7848576903343201
1761818082203762200,1.10376220703125,-0.4018545150756836,-1.1096540689468384,0.9608460068702698
1761818082213691000,1.11369091796875,-0.35864126682281494,-1.0123227834701538,1.1590278148651123
1761818082223619000,1.123619140625,-0.29089686274528503,-0.9579412341117859,1.3129634857177734
1761818082233547000,1.133547119140625,-0.2249774932861328,-0.9807453155517578,1.3934489488601685
1761818082243475000,1.143474853515625,-0.18162177503108978,-1.0722397565841675,1.3933738470077515
1761818082253404000,1.15340380859375,-0.15452809631824493,-1.233361005783081,1.3411465883255005
1761818082263331800,1.163331787109375,-0.16279301047325134,-1.4228805303573608,1.284820795059204
1761818082273259800,1.173259765625,-0.1958862543106079,-1.5227376222610474,1.225522756576538
1761818082283189000,1.18318896484375,-0.240303635597229,-1.5464919805526733,1.1568769216537476
1761818082293117000,1.193116943359375,-0.31393712759017944,-1.4610204696655273,1.1136807203292847
1761818082303045000,1.203045166015625,-0.4583877623081207,-1.3339450359344482,1.1197251081466675
1761818082312973000,1.21297314453125,-0.5993784666061401,-1.244977593421936,1.194312572479248
1761818082322902000,1.222902099609375,-0.6451901197433472,-1.178701400756836,1.3192766904830933
1761818082332830000,1.232829833984375,-0.6550518274307251,-1.0873284339904785,1.4723842144012451
1761818082342758000,1.2427578125,-0.628817081451416,-1.1544145345687866,1.5807676315307617
1761818082352686800,1.252686767578125,-0.6161105632781982,-1.327900767326355,1.6483067274093628
1761818082362614800,1.26261474609375,-0.6539631485939026,-1.5026189088821411,1.7287131547927856
1761818082372543000,1.27254296875,-0.7725244164466858,-1.6937875747680664,1.821124792098999
1761818082382471000,1.282470947265625,-0.9842462539672852,-1.891375184059143,1.9341615438461304
1761818082392400100,1.292400146484375,-1.1924223899841309,-2.040433168411255,2.043196439743042
1761818082402328000,1.302328125,-1.3752460479736328,-2.1525652408599854,2.1152701377868652
1761818082412256000,1.312256103515625,-1.5430092811584473,-2.266733169555664,2.179399013519287
1761818082422185000,1.32218505859375,-1.6733602285385132,-2.4019970893859863,2.2669456005096436
1761818082432113000,1.33211279296875,-1.8211768865585327,-2.617469549179077,2.3764395713806152
1761818082442040800,1.342040771484375,-1.9515430927276611,-2.825894832611084,2.4388914108276367
1761818082451969800,1.3519697265625,-2.076140880584717,-2.9827773571014404,2.4438347816467285
1761818082461897700,1.361897705078125,-2.2280986309051514,-3.0368106365203857,2.414199113845825
1761818082471826000,1.371825927734375,-2.3613662719726562,-3.066114664077759,2.3706815242767334
1761818082481754000,1.381754150390625,-2.562692165374756,-3.2243123054504395,2.261406183242798
1761818082491683000,1.39168310546875,-2.6792361736297607,-3.5522499084472656,2.109570026397705
1761818082501611000,1.401611083984375,-2.716942071914673,-3.874724864959717,1.9613065719604492
1761818082511539000,1.4115390625,-2.66803240776062,-4.045698642730713,1.7105712890625
1761818082521468000,1.421468017578125,-2.385873317718506,-3.8703887462615967,1.1910114288330078
1761818082531395800,1.431395751953125,-1.922837257385254,-3.0655009746551514,0.3658347725868225
1761818082541323800,1.44132373046875,-1.3853166103363037,-1.9615305662155151,-0.6750611066818237
1761818082551252700,1.451252685546875,-0.809177815914154,-1.0537418127059937,-1.7102701663970947
1761818082561181200,1.46118115234375,-0.258592814207077,-0.6224584579467773,-2.520134925842285
1761818082571109000,1.471109130859375,0.26100799441337585,-0.6467688679695129,-3.0682923793792725
1761818082581037000,1.481037109375,0.825875461101532,-1.0394798517227173,-3.478041648864746
1761818082590966000,1.490966064453125,1.4754414558410645,-1.5786129236221313,-3.832266330718994
1761818082600894000,1.50089404296875,2.2848808765411377,-2.0825722217559814,-4.160431861877441
1761818082610822000,1.51082177734375,3.2960922718048096,-2.4712226390838623,-4.582688331604004
1761818082620750800,1.520750732421875,4.5188703536987305,-2.6849629878997803,-5.18996000289917
1761818082630678800,1.5306787109375,5.930872917175293,-3.0067391395568848,-5.89905309677124
1761818082640607000,1.54060693359375,7.521315097808838,-3.5077571868896484,-6.4484028816223145
1761818082650536000,1.550535888671875,8.964756965637207,-4.024003028869629,-6.6643595695495605
1761818082660464000,1.560464111328125,9.740174293518066,-4.4901556968688965,-6.354724884033203
1761818082670392000,1.57039208984375,9.344841957092285,-4.307745933532715,-5.424685955047607
1761818082680320000,1.580320068359375,7.24400520324707,-2.6654176712036133,-4.550209045410156
1761818082690249000,1.5902490234375,3.180725336074829,0.5520153641700745,-3.5160739421844482
1761818082700177000,1.600177001953125,-1.117025375366211,3.0909831523895264,-0.9383810758590698
1761818082710104800,1.610104736328125,-4.322368621826172,1.9379597902297974,2.770153284072876
1761818082720033800,1.62003369140625,-6.285977840423584,-2.3205997943878174,5.947935104370117
1761818082729962000,1.6299619140625,-7.403535842895508,-6.687927722930908,7.471588134765625
1761818082739890000,1.639889892578125,-8.220565795898438,-8.072219848632812,7.286162376403809
1761818082749819100,1.649819091796875,-8.90385913848877,-6.003383636474609,5.9215545654296875
1761818082759747000,1.6597470703125,-9.425528526306152,-2.028564214706421,4.411430835723877
1761818082769675000,1.669675048828125,-9.739917755126953,1.0345653295516968,3.827430009841919
1761818082779603000,1.67960302734375,-10.077926635742188,2.209418296813965,4.4323954582214355
1761818082789532000,1.689531982421875,-10.378451347351074,1.4003888368606567,5.787418365478516
1761818082799459800,1.6994599609375,-10.610943794250488,-0.5443944334983826,7.102636814117432
1761818082809388000,1.709387939453125,-10.747833251953125,-2.549933433532715,7.833502769470215
1761818082819317000,1.71931689453125,-10.524088859558105,-3.7145495414733887,7.737522602081299
1761818082829245000,1.729244873046875,-9.529321670532227,-3.650850772857666,6.766978740692139
1761818082839172900,1.7391728515625,-7.623523712158203,-2.8221704959869385,5.013214111328125
1761818082849102000,1.74910205078125,-5.2461113929748535,-1.5449752807617188,2.517340660095215
1761818082859030000,1.759030029296875,-2.6737287044525146,0.21667425334453583,-0.5947691202163696
1761818082868958000,1.7689580078125,0.1307787001132965,1.575110912322998,-3.529139280319214
1761818082878887000,1.778886962890625,2.7930033206939697,2.0286061763763428,-5.5578532218933105
1761818082888814800,1.78881494140625,5.1807942390441895,1.8505733013153076,-6.449989318847656
1761818082898743000,1.798742919921875,7.34782600402832,1.457201361656189,-6.67069673538208
1761818082908671000,1.8086708984375,9.551499366760254,0.8066225051879883,-6.69845724105835
1761818082918600000,1.818599853515625,11.812560081481934,-0.3721252977848053,-6.490426540374756
1761818082928528100,1.828528076171875,14.176810264587402,-2.10862398147583,-6.128754138946533
1761818082938456000,1.8384560546875,16.379749298095703,-3.315157890319824,-5.478929042816162
1761818082948385000,1.848385009765625,17.550533294677734,-2.6492698192596436,-4.979788780212402
1761818082958313000,1.85831298828125,16.067533493041992,0.7645816802978516,-5.694102764129639
1761818082968241000,1.868240966796875,10.898969650268555,4.085758686065674,-7.819308280944824
1761818082978169900,1.878169921875,3.081393003463745,5.942751407623291,-7.959264278411865
1761818082988097800,1.888097900390625,-3.691166877746582,3.693615674972534,-3.0831401348114014
1761818082998026000,1.89802587890625,-7.395259380340576,-2.6340749263763428,3.6189093589782715
1761818083007955000,1.907954833984375,-9.05256175994873,-6.873357772827148,7.615458011627197
1761818083017883000,1.9178828125,-9.806135177612305,-5.790345191955566,8.049710273742676
1761818083027810800,1.927810791015625,-10.113850593566895,-2.3185956478118896,6.459167957305908
1761818083037740000,1.937739990234375,-10.189933776855469,0.7931942343711853,5.122633934020996
1761818083047668000,1.94766796875,-10.14378833770752,2.379847764968872,4.932676315307617
1761818083057596000,1.957595947265625,-10.099430084228516,2.5781376361846924,5.614754676818848
1761818083067523800,1.96752392578125,-9.86945915222168,1.684878945350647,6.546382904052734
1761818083077452800,1.977452880859375,-8.923787117004395,0.16864556074142456,6.98528528213501
1761818083087381000,1.987381103515625,-6.799335956573486,-1.7772608995437622,5.9024200439453125
1761818083097309000,1.997308837890625,-3.671656370162964,-2.8181934356689453,2.7710986137390137
1761818083107238000,2.00723779296875,-0.34185218811035156,-1.3907722234725952,-1.189215898513794
1761818083117165800,2.017165771484375,2.4888134002685547,1.0200085639953613,-4.562862873077393
1761818083127094000,2.027093994140625,5.035070419311523,2.030449151992798,-6.733649730682373
1761818083137023000,2.03702294921875,7.34822940826416,1.4713406562805176,-7.411258220672607
1761818083146951000,2.046950927734375,9.711181640625,0.08095302432775497,-6.992093086242676
1761818083156878800,2.05687890625,12.093939781188965,-2.028796911239624,-5.815735340118408
1761818083166807800,2.066807861328125,14.041986465454102,-4.204582691192627,-4.225381374359131
1761818083176736000,2.076736083984375,15.047607421875,-4.257491111755371,-3.0916941165924072
1761818083186664000,2.086663818359375,13.884907722473145,-1.1679456233978271,-3.4316413402557373
1761818083196593000,2.096593017578125,10.088939666748047,2.8552653789520264,-5.238565921783447
1761818083206520800,2.106520751953125,4.7889933586120605,5.457064628601074,-6.657900333404541
1761818083216449000,2.116448974609375,-0.6931905746459961,4.979090213775635,-5.154599666595459
1761818083226377000,2.126376953125,-4.699558734893799,1.0085840225219727,-0.9856706261634827
1761818083236306000,2.136305908203125,-6.648791790008545,-3.0524027347564697,3.2171273231506348
1761818083246233900,2.14623388671875,-7.466737747192383,-4.281692028045654,5.4362287521362305
1761818083256162000,2.156162109375,-7.7082319259643555,-3.071589946746826,5.721862316131592
1761818083266090800,2.1660908203125,-7.6831841468811035,-1.2467923164367676,4.91287899017334
1761818083276019000,2.17601904296875,-7.567102432250977,0.037048760801553726,4.092770099639893
1761818083285947000,2.18594677734375,-7.590160846710205,0.6435387134552002,3.5815348625183105
1761818083295876000,2.1958759765625,-7.987386703491211,0.4989229738712311,3.195158004760742
1761818083305804000,2.205803955078125,-8.601969718933105,-0.03307966887950897,2.91909122467041
1761818083315732000,2.21573193359375,-9.230294227600098,-0.30727869272232056,2.702617883682251
1761818083325661000,2.225660888671875,-9.623230934143066,-0.16474071145057678,2.5674657821655273
1761818083335588900,2.2355888671875,-9.261408805847168,0.5866262316703796,2.473304510116577
1761818083345516800,2.245516845703125,-8.049540519714355,1.7501475811004639,2.155670404434204
1761818083355445800,2.25544580078125,-6.262570858001709,2.15307879447937,1.358658790588379
1761818083365374000,2.2653740234375,-4.112246036529541,1.1584203243255615,0.28166985511779785
1761818083375302000,2.275302001953125,-1.5929129123687744,-0.2992425262928009,-0.8173510432243347
1761818083385229800,2.285229736328125,1.0681325197219849,-0.9407055974006653,-1.8153237104415894
1761818083395159000,2.295158935546875,3.762772560119629,-0.511357843875885,-2.696418285369873
1761818083405087000,2.3050869140625,6.368108749389648,0.15115490555763245,-3.2440402507781982
1761818083415015000,2.315014892578125,8.891754150390625,-0.06211224943399429,-3.4725990295410156
1761818083424943900,2.32494384765625,11.310157775878906,-1.2341742515563965,-3.4434092044830322
1761818083434871800,2.334871826171875,13.69404411315918,-2.8300373554229736,-3.1746373176574707
1761818083444800000,2.344800048828125,15.947856903076172,-3.723601818084717,-3.0374562740325928
1761818083454729000,2.35472900390625,17.489858627319336,-2.7061734199523926,-3.4599039554595947
1761818083464657000,2.364656982421875,17.367624282836914,0.23536719381809235,-4.975778579711914
1761818083474584800,2.374584716796875,13.978453636169434,4.615230083465576,-7.4876580238342285
1761818083484514000,2.38451416015625,7.929734230041504,6.121337890625,-10.395467758178711
1761818083494442000,2.39444189453125,2.067861557006836,5.137635231018066,-9.56812858581543
1761818083504370000,2.404369873046875,-1.7295361757278442,1.9957836866378784,-4.065096855163574
1761818083514299000,2.414298828125,-3.8524038791656494,-1.8306634426116943,2.991356372833252
1761818083524226800,2.424226806640625,-4.587931156158447,-3.8611671924591064,7.339012145996094
1761818083534155000,2.434155029296875,-4.875090599060059,-3.1287589073181152,8.681793212890625
1761818083544083700,2.444083740234375,-4.734838962554932,-1.394421935081482,7.987301826477051
1761818083554012000,2.454011962890625,-4.494513511657715,0.24983182549476624,6.6102681159973145
1761818083563939800,2.46393994140625,-4.586480140686035,1.577982783317566,5.548196315765381
1761818083573869000,2.473869140625,-5.1942138671875,2.241448163986206,4.501245498657227
1761818083583797000,2.483796875,-6.075761318206787,2.4828262329101562,3.4985666275024414
1761818083593725000,2.493724853515625,-6.742333889007568,2.5943706035614014,2.9667890071868896
1761818083603652900,2.50365283203125,-7.0764617919921875,2.330009937286377,2.8275277614593506
1761818083613581800,2.513581787109375,-7.040299415588379,1.5693624019622803,2.9194421768188477
1761818083623509800,2.523509765625,-6.728146076202393,0.6988901495933533,3.0866262912750244
1761818083633438000,2.53343798828125,-6.540369033813477,0.04475119709968567,3.3253300189971924
1761818083643367000,2.543366943359375,-6.715876579284668,-0.30168265104293823,3.732928991317749
1761818083653294800,2.553294921875,-7.100794315338135,-0.2613150179386139,3.9697515964508057
1761818083663223000,2.56322314453125,-7.409503936767578,-0.32030588388442993,3.7478902339935303
1761818083673152000,2.573152099609375,-7.345467567443848,-0.4599277377128601,3.539583921432495
1761818083683080000,2.583079833984375,-6.745632171630859,-0.6978628039360046,3.2790112495422363
1761818083693008000,2.5930078125,-5.612483501434326,-1.100928783416748,2.7262392044067383
1761818083702936800,2.602936767578125,-3.74363112449646,-1.533401370048523,1.7562707662582397
1761818083712864800,2.61286474609375,-0.9267727732658386,-1.5785858631134033,0.26225560903549194
1761818083722793000,2.62279296875,2.4710466861724854,-0.8036063313484192,-1.317273497581482
1761818083732722000,2.632721923828125,5.769786834716797,0.1987762302160263,-2.6922338008880615
1761818083742650000,2.642650146484375,9.008537292480469,0.7782483696937561,-3.8256943225860596
1761818083752578000,2.652578125,11.757560729980469,0.7513375282287598,-4.316757678985596
1761818083762507000,2.662507080078125,13.77458667755127,-0.3616195619106293,-4.117066383361816
1761818083772435000,2.67243505859375,15.156872749328613,-2.285041332244873,-3.7304253578186035
1761818083782363000,2.68236279296875,16.02170181274414,-3.659736156463623,-3.3973472118377686
1761818083792291800,2.692291748046875,15.571127891540527,-3.1668295860290527,-3.646390914916992
1761818083802219800,2.7022197265625,13.278205871582031,-0.5018160939216614,-5.2814040184021
1761818083812148000,2.71214794921875,9.514998435974121,2.6446778774261475,-7.891696453094482
1761818083822076700,2.72207666015625,5.645466327667236,4.262139797210693,-9.033914566040039
1761818083832005000,2.732005126953125,1.8258881568908691,3.4220073223114014,-7.436455249786377
1761818083841933000,2.74193310546875,-0.6328228116035461,0.9366387724876404,-3.0589756965637207
1761818083851862000,2.751862060546875,-1.9229416847229004,-1.6225037574768066,1.3330459594726562
1761818083861790000,2.7617900390625,-2.736199378967285,-2.9203498363494873,3.4246432781219482
1761818083871718000,2.7717177734375,-3.158176898956299,-2.1365253925323486,3.653005838394165
1761818083881645800,2.781645751953125,-3.4513649940490723,-0.3569882810115814,2.7119381427764893
1761818083891574800,2.79157470703125,-3.749535083770752,1.3136271238327026,1.642842173576355
1761818083901502700,2.801502685546875,-4.167497634887695,2.377716302871704,1.1412945985794067
1761818083911431000,2.811430908203125,-4.7884202003479,2.7949366569519043,1.216639757156372
1761818083921360100,2.821360107421875,-5.44810152053833,2.6533219814300537,1.7120780944824219
1761818083931288000,2.8312880859375,-5.940138339996338,2.403317928314209,2.5323734283447266
1761818083941216000,2.841216064453125,-6.250731945037842,2.3075854778289795,3.413754940032959
1761818083951145000,2.85114501953125,-6.426676273345947,2.1769626140594482,4.086901664733887
1761818083961073000,2.861072998046875,-6.523131847381592,1.6439871788024902,4.464634418487549
1761818083971000800,2.871000732421875,-6.571576118469238,0.7203435897827148,4.534505844116211
1761818083980929800,2.8809296875,-6.5112199783325195,-0.40165388584136963,4.406448841094971
1761818083990857700,2.890857666015625,-6.388023376464844,-1.3014603853225708,4.188848495483398
1761818084000786200,2.9007861328125,-6.36758279800415,-1.6954185962677002,3.7632038593292236
1761818084010715000,2.91071484375,-6.487570762634277,-1.3692858219146729,3.0440611839294434
1761818084020643000,2.92064306640625,-6.604611396789551,-0.5290641188621521,2.0231330394744873
1761818084030571000,2.930571044921875,-6.593044757843018,0.6974016427993774,0.8398081064224243
1761818084040500000,2.9405,-6.350888729095459,2.0537197589874268,-0.4245409667491913
1761818084050428200,2.95042822265625,-5.452081680297852,2.944117546081543,-1.5442947149276733
1761818084060356000,2.960356201171875,-3.7731499671936035,2.940721035003662,-2.2132585048675537
1761818084070285000,2.97028515625,-1.4142284393310547,1.4541250467300415,-2.278395652770996
1761818084080213000,2.980212890625,1.0610610246658325,-0.9251657128334045,-1.5499273538589478
1761818084090141200,2.99014111328125,3.479532241821289,-2.960549831390381,-0.8802007436752319
1761818084100070000,3.00006982421875,5.696475982666016,-3.995652198791504,-0.5579771399497986
1761818084109998000,3.009998046875,8.020505905151367,-3.8730862140655518,-0.39571475982666016
1761818084119926000,3.019926025390625,10.250638961791992,-3.0260674953460693,-0.34646332263946533
1761818084129855200,3.029855224609375,12.2607421875,-2.4376156330108643,-0.5054911375045776
1761818084139783200,3.039783203125,13.70731258392334,-2.6487374305725098,-0.7526004910469055
1761818084149711000,3.049711181640625,14.310518264770508,-2.600766897201538,-1.2032872438430786
1761818084159640000,3.05964013671875,13.547846794128418,-1.1937940120697021,-2.217834711074829
1761818084169568000,3.069568115234375,10.727447509765625,1.2843858003616333,-3.9813082218170166
1761818084179496000,3.079495849609375,6.588565826416016,3.1363649368286133,-5.972771167755127
1761818084189425000,3.0894248046875,3.162595748901367,3.8643124103546143,-6.815993309020996
1761818084199353000,3.09935302734375,0.8121684193611145,3.395115613937378,-5.797581195831299
1761818084209281000,3.109281005859375,-0.40743741393089294,2.0326733589172363,-2.8748819828033447
1761818084219210200,3.119210205078125,-1.016258955001831,0.11243794113397598,0.34546974301338196
1761818084229138200,3.12913818359375,-1.60603666305542,-1.3486690521240234,2.403642416000366
1761818084239066000,3.139066162109375,-2.284877061843872,-1.5303771495819092,3.4601356983184814
1761818084248994000,3.148994140625,-2.9778356552124023,-0.9453039765357971,3.645596981048584
1761818084258923000,3.158923095703125,-3.602506160736084,-0.24747245013713837,3.2239019870758057
1761818084268851000,3.168850830078125,-4.1967854499816895,0.2722102105617523,2.6540353298187256
1761818084278779100,3.178779052734375,-4.831589698791504,0.5914137363433838,2.093620538711548
1761818084288708000,3.1887080078125,-5.476734638214111,0.8301892876625061,1.6353967189788818
1761818084298636000,3.198635986328125,-5.959816932678223,1.0784194469451904,1.3824020624160767
1761818084308564000,3.20856396484375,-6.182010173797607,1.2790344953536987,1.3676574230194092
1761818084318493200,3.2184931640625,-6.250641822814941,1.5326436758041382,1.5888705253601074
1761818084328421000,3.228421142578125,-6.3376078605651855,1.6742265224456787,2.004855155944824
1761818084338349000,3.23834912109375,-6.533368110656738,1.4819473028182983,2.485558032989502
1761818084348278000,3.248278076171875,-6.879347801208496,1.0225749015808105,2.9048261642456055
1761818084358206000,3.2582060546875,-7.342050075531006,0.512598991394043,3.225094795227051
1761818084368134100,3.268134033203125,-7.872648239135742,0.21862545609474182,3.414875030517578
1761818084378062800,3.278062744140625,-8.33698558807373,0.1343478560447693,3.418814182281494
1761818084387991000,3.287990966796875,-8.288957595825195,0.023750916123390198,3.0193958282470703
1761818084397919000,3.2979189453125,-7.345848083496094,0.1071760356426239,2.06943941116333
1761818084407848200,3.30784814453125,-5.702021598815918,0.3093473017215729,0.7229803204536438
1761818084417776000,3.317776123046875,-3.6399412155151367,0.6837638020515442,-0.420734703540802
1761818084427704000,3.3277041015625,-1.3033592700958252,1.024871587753296,-1.1873726844787598
1761818084437633000,3.337633056640625,1.1475249528884888,1.0293902158737183,-1.606584906578064
1761818084447561000,3.34756103515625,3.434880018234253,0.4621960520744324,-1.6835887432098389
1761818084457489000,3.357489013671875,5.3032941818237305,-0.28464487195014954,-1.3249362707138062
1761818084467417900,3.36741796875,6.740340232849121,-0.9744670987129211,-0.7029722929000854
1761818084477346000,3.377345947265625,7.762282848358154,-1.5731419324874878,-0.015055138617753983
1761818084487274000,3.38727392578125,8.563323020935059,-2.33518648147583,0.6014589667320251
1761818084497203200,3.397203125,9.476758003234863,-3.206944465637207,1.0554392337799072
1761818084507131100,3.407131103515625,10.602837562561035,-3.61995267868042,1.1669431924819946
1761818084517059000,3.41705908203125,11.681471824645996,-2.95508074760437,0.6846660375595093
1761818084526988000,3.426988037109375,12.366511344909668,-1.2626210451126099,-0.618384599685669
1761818084536916000,3.436916015625,12.479229927062988,0.7246103286743164,-2.559332847595215
1761818084546844000,3.446843994140625,11.42721939086914,2.094501495361328,-4.477984428405762
1761818084556772900,3.45677294921875,8.536693572998047,2.606363534927368,-5.685593605041504
1761818084566701000,3.466701171875,4.595217704772949,2.407149314880371,-5.7934041023254395
1761818084576629000,3.47662890625,1.517674207687378,1.2223788499832153,-4.763238430023193
1761818084586558200,3.48655810546875,-0.2423558533191681,0.018111547455191612,-2.354099750518799
1761818084596486100,3.496486083984375,-1.0941998958587646,-0.7368940711021423,0.4300490617752075
1761818084606414000,3.5064140625,-1.6017032861709595,-1.0822863578796387,2.2005631923675537
1761818084616343000,3.516343017578125,-2.2288970947265625,-0.8487937450408936,2.9445126056671143
1761818084626271000,3.52627099609375,-2.9825279712677,-0.24266119301319122,3.050034284591675
1761818084636199000,3.536198974609375,-3.7210536003112793,0.36533981561660767,2.9216060638427734
1761818084646127900,3.5461279296875,-4.361181259155273,0.7006891369819641,2.7818570137023926
1761818084656055800,3.556055908203125,-4.843844413757324,0.702195942401886,2.572178363800049
1761818084665984300,3.565984375,-5.233406066894531,0.6342344880104065,2.261248826980591
1761818084675913200,3.575913330078125,-5.532146453857422,0.694500207901001,1.9382543563842773
1761818084685841200,3.585841064453125,-5.6964898109436035,0.8186708688735962,1.7176475524902344
1761818084695769000,3.59576904296875,-5.783680438995361,1.0074650049209595,1.639457106590271
1761818084705698000,3.605697998046875,-5.82677698135376,1.2309974431991577,1.690147042274475
1761818084715626000,3.6156259765625,-5.91693115234375,1.4396928548812866,1.8571629524230957
1761818084725554000,3.625553955078125,-6.196385860443115,1.5968453884124756,2.045976400375366
1761818084735483000,3.63548291015625,-6.711559772491455,1.786514163017273,2.1827425956726074
1761818084745411000,3.6454111328125,-7.275522232055664,1.8665552139282227,2.1967647075653076
1761818084755339300,3.65533935546875,-7.414793968200684,1.706719160079956,2.066209077835083
1761818084765268000,3.66526806640625,-6.869860649108887,1.454458236694336,1.7039309740066528
1761818084775196200,3.675196044921875,-5.4675798416137695,1.0354113578796387,1.0195866823196411
1761818084785124000,3.6851240234375,-3.2701845169067383,0.33654388785362244,0.05038169026374817
1761818084795053000,3.695052978515625,-0.8625979423522949,-0.31765684485435486,-0.7150622010231018
1761818084804981000,3.70498095703125,1.6252373456954956,-0.8589121699333191,-1.1639063358306885
1761818084814909000,3.714908935546875,4.20194149017334,-1.0693086385726929,-1.3697612285614014
1761818084824838000,3.724837890625,6.653464317321777,-1.0357623100280762,-1.3752456903457642
1761818084834766000,3.73476611328125,8.726265907287598,-1.0367937088012695,-1.26771879196167
1761818084844694000,3.744694091796875,10.414616584777832,-1.4246679544448853,-1.1418861150741577
1761818084854623000,3.754623046875,11.74736499786377,-2.1087465286254883,-1.0907212495803833
1761818084864551200,3.76455126953125,12.746635437011719,-2.6577682495117188,-1.229158639907837
1761818084874479000,3.77447900390625,13.243560791015625,-2.456939458847046,-1.6295279264450073
1761818084884408000,3.784407958984375,12.868539810180664,-1.2824065685272217,-2.3241069316864014
1761818084894336000,3.7943359375,11.505875587463379,0.10282550752162933,-3.2167890071868896
1761818084904264000,3.804263916015625,9.30591106414795,1.1146597862243652,-4.01913595199585
1761818084914193200,3.814193115234375,6.297344207763672,1.8234782218933105,-4.47929573059082
1761818084924121000,3.82412109375,3.2073163986206055,2.248840093612671,-4.520744800567627
1761818084934049000,3.834049072265625,1.0138380527496338,1.9470648765563965,-4.05609655380249
1761818084943978000,3.84397802734375,-0.26836147904396057,1.3660666942596436,-2.6538116931915283
1761818084953906200,3.85390625,-1.0775805711746216,0.2761898636817932,-0.9454641938209534
1761818084963834000,3.863834228515625,-1.7422579526901245,-0.9513481259346008,0.6143023371696472
1761818084973763000,3.87376318359375,-2.6167619228363037,-1.4234192371368408,1.7989046573638916
1761818084983691000,3.88369091796875,-3.565108299255371,-1.2219877243041992,2.380079984664917
1761818084993619000,3.893618896484375,-4.410110950469971,-0.78310227394104,2.577714443206787
1761818085003547600,3.903547607421875,-5.122533798217773,-0.4055960178375244,2.562058687210083
1761818085013475600,3.9134755859375,-5.693887710571289,-0.20552681386470795,2.400210380554199
1761818085023403500,3.923403564453125,-6.144349575042725,-0.0873773917555809,2.2173874378204346
1761818085033332500,3.93333251953125,-6.463505744934082,0.036138683557510376,2.088131904602051
1761818085043260700,3.9432607421875,-6.624811172485352,0.11064483225345612,1.9857693910598755
1761818085053188600,3.953188720703125,-6.682225704193115,0.18927092850208282,1.8960230350494385
1761818085063117800,3.963117919921875,-6.810007572174072,0.28738436102867126,1.8822213411331177
1761818085073045800,3.973045654296875,-7.05941104888916,0.25770530104637146,1.9647828340530396
1761818085082973700,3.9829736328125,-7.309375762939453,0.15952366590499878,2.017265796661377
1761818085092902700,3.992902587890625,-7.599475860595703,0.06395506858825684,1.7947381734848022
1761818085102830600,4.00283056640625,-7.698604583740234,0.00829047616571188,1.2759405374526978
1761818085112758500,4.012758544921875,-7.283481121063232,-0.061192724853754044,0.5905659198760986
1761818085122687500,4.0226875,-6.328544616699219,0.23204763233661652,-0.2770879566669464
1761818085132615700,4.03261572265625,-4.8140058517456055,1.0976029634475708,-1.0717408657073975
1761818085142543600,4.042543701171875,-2.781472682952881,1.8435304164886475,-1.4327770471572876
1761818085152472800,4.052472900390625,-0.46743202209472656,1.5537641048431396,-1.3439452648162842
1761818085162400800,4.06240087890625,1.882325530052185,0.23747266829013824,-0.9889601469039917
1761818085172328700,4.07232861328125,4.062312126159668,-1.154599666595459,-0.49790439009666443
1761818085182257700,4.082257568359375,6.013504981994629,-1.80980384349823,-0.00791022926568985
1761818085192185600,4.092185546875,7.769222736358643,-1.8987760543823242,0.39601781964302063
1761818085202113500,4.102113525390625,9.399578094482422,-1.700002670288086,0.5959196090698242
1761818085212042500,4.11204248046875,11.129290580749512,-1.3832721710205078,0.5691436529159546
1761818085221970400,4.121970458984375,12.87671184539795,-1.0701009035110474,0.21253110468387604
1761818085231899600,4.131899658203125,14.053388595581055,-0.5915316343307495,-0.733849823474884
1761818085241827800,4.141827880859375,13.970562934875488,0.12939144670963287,-2.2149341106414795
1761818085251755800,4.151755859375,12.142949104309082,1.1573288440704346,-3.7687952518463135
1761818085261683700,4.16168359375,8.527194023132324,1.7777962684631348,-5.102117538452148
1761818085271612700,4.17161279296875,4.459240913391113,2.1413049697875977,-5.5177903175354
1761818085281540600,4.18154052734375,1.7077980041503906,1.9881513118743896,-4.664982318878174
1761818085291469600,4.191469482421875,0.29693496227264404,1.030446171760559,-2.421781301498413
1761818085301397500,4.2013974609375,-0.4390774369239807,0.2872116267681122,0.09367035329341888
1761818085311325400,4.211325439453125,-1.1543992757797241,-0.22326524555683136,1.5629959106445312
1761818085321254000,4.22125390625,-2.1084954738616943,-0.25913041830062866,2.1002213954925537
1761818085331182600,4.2311826171875,-3.0522992610931396,-0.06375238299369812,2.2653839588165283
1761818085341110800,4.24111083984375,-3.7846648693084717,-0.10127827525138855,2.313382387161255
1761818085351039700,4.251039794921875,-4.360239505767822,-0.3313194811344147,2.16809344291687
1761818085360967700,4.2609677734375,-4.7779059410095215,-0.3016969859600067,1.701028823852539
1761818085370895600,4.2708955078125,-5.106709003448486,0.0971691757440567,1.132896900177002
1761818085380824600,4.280824462890625,-5.3953166007995605,0.6922705173492432,0.8184518814086914
1761818085390752500,4.29075244140625,-5.593349456787109,1.0871009826660156,0.8018121719360352
1761818085400680700,4.3006806640625,-5.7685627937316895,1.1642382144927979,1.0575520992279053
1761818085410609700,4.310609619140625,-5.9398274421691895,0.9483153223991394,1.504479169845581
1761818085420537600,4.32053759765625,-6.163418769836426,0.4630126357078552,2.0117311477661133
1761818085430465800,4.3304658203125,-6.636580467224121,-0.025573555380105972,2.452723264694214
1761818085440394800,4.340394775390625,-7.076426029205322,-0.44204744696617126,2.6806533336639404
1761818085450322700,4.35032275390625,-7.058355808258057,-0.9460317492485046,2.606501340866089
1761818085460250600,4.360250732421875,-6.5721330642700195,-1.2541812658309937,2.1630804538726807
1761818085470179600,4.3701796875,-5.67748498916626,-1.2570289373397827,1.2168769836425781
1761818085480107500,4.380107421875,-4.45257568359375,-0.9694839119911194,-0.0011177221313118935
1761818085490035700,4.39003564453125,-3.0432653427124023,-0.36027541756629944,-0.9997994303703308
1761818085499964700,4.399964599609375,-1.5145738124847412,0.35024282336235046,-1.544993281364441
1761818085509892600,4.409892578125,0.24606215953826904,0.8237030506134033,-1.65890634059906
1761818085519820800,4.41982080078125,2.1709060668945312,0.8022923469543457,-1.4719085693359375
1761818085529749500,4.42974951171875,4.166691780090332,0.29543018341064453,-1.0174870491027832
1761818085539677700,4.439677734375,6.050585746765137,-0.38740792870521545,-0.46555501222610474
1761818085549605600,4.449605712890625,7.7470526695251465,-1.068162441253662,-0.046743638813495636
1761818085559534600,4.45953466796875,9.213926315307617,-1.668054461479187,0.1667654812335968
1761818085569462800,4.469462890625,10.433024406433105,-1.8819962739944458,0.0692591741681099
1761818085579390700,4.479390625,11.554089546203613,-1.48179030418396,-0.327571839094162
1761818085589319700,4.489319580078125,12.351720809936523,-0.4706651568412781,-1.0222283601760864
1761818085599247600,4.49924755859375,12.08892822265625,0.8655323386192322,-2.047182559967041
1761818085609175800,4.50917578125,10.2073392868042,1.5686993598937988,-3.1975741386413574
1761818085619104500,4.5191044921875,7.254567623138428,1.230867624282837,-3.9023489952087402
1761818085629032700,4.52903271484375,4.364477634429932,0.8257361650466919,-3.8191514015197754
1761818085638960600,4.538960693359375,2.07589054107666,0.4176863133907318,-3.1563847064971924
1761818085648889900,4.548889892578125,0.5064667463302612,0.3232572674751282,-1.9600380659103394
1761818085658817800,4.55881787109375,-0.4491463601589203,0.3877783715724945,-0.7135592699050903
1761818085668745700,4.568745849609375,-0.9883337020874023,0.4500872790813446,0.4230789542198181
1761818085678673700,4.578673583984375,-1.3288624286651611,0.3149583041667938,1.342300534248352
1761818085688602600,4.5886025390625,-1.7005022764205933,-0.001928592217154801,1.9430567026138306
1761818085698530600,4.598530517578125,-2.1232047080993652,-0.21320109069347382,2.3251187801361084
1761818085708459500,4.60845947265625,-2.585850238800049,-0.24528604745864868,2.4003167152404785
1761818085718387700,4.6183876953125,-3.1174309253692627,0.059004828333854675,2.023360013961792
1761818085728315600,4.628315673828125,-3.769773006439209,0.687750518321991,1.421090006828308
1761818085738244900,4.638244873046875,-4.407604694366455,1.2970616817474365,0.9794244766235352
1761818085748172800,4.6481728515625,-4.968986511230469,1.5516207218170166,0.9009685516357422
1761818085758100700,4.658100830078125,-5.488194942474365,1.2909483909606934,1.2190903425216675
1761818085768029700,4.66802978515625,-6.031802654266357,0.6627673506736755,1.7328145503997803
1761818085777957600,4.67795751953125,-6.525900363922119,-0.14725084602832794,2.1674342155456543
1761818085787885600,4.687885498046875,-6.888535499572754,-0.876848042011261,2.289745807647705
1761818085797813800,4.697813720703125,-7.011895179748535,-1.3472092151641846,2.00555682182312
1761818085807742700,4.70774267578125,-6.886131286621094,-1.423531174659729,1.3684587478637695
1761818085817670700,4.717670654296875,-6.62796688079834,-1.244067907333374,0.5834067463874817
1761818085827600000,4.727599853515625,-6.289708137512207,-0.8691396713256836,-0.1631617695093155
1761818085837527800,4.73752783203125,-5.938663959503174,-0.14894399046897888,-0.8047289848327637
1761818085847455700,4.747455810546875,-5.37885046005249,0.7435749769210815,-1.2065478563308716
1761818085857383700,4.7573837890625,-4.107240200042725,1.373567819595337,-1.2578117847442627
1761818085867312600,4.767312744140625,-1.8677488565444946,0.9154157042503357,-1.062981367111206
1761818085877240600,4.777240478515625,0.8343220949172974,-0.36083438992500305,-0.7837275862693787
1761818085887169500,4.78716943359375,3.5800111293792725,-1.4725300073623657,-0.37807032465934753
1761818085897097500,4.797097412109375,6.05899715423584,-1.7937911748886108,-0.029873520135879517
1761818085907025700,4.807025634765625,8.1660737991333,-1.5114312171936035,0.0783136710524559
1761818085916953600,4.81695361328125,9.911301612854004,-0.95726078748703,-0.07353472709655762
1761818085926882800,4.8268828125,11.31369686126709,-0.26660406589508057,-0.5023020505905151
1761818085936810800,4.836810791015625,12.249171257019043,0.4684373140335083,-1.3254902362823486
1761818085946738700,4.84673876953125,12.31588363647461,0.9534505605697632,-2.413637399673462
1761818085956667600,4.856667724609375,11.311466217041016,1.2771395444869995,-3.2821767330169678
1761818085966595600,4.866595703125,9.010453224182129,1.416161298751831,-3.9732069969177246
1761818085976523500,4.8765234375,6.087011814117432,0.9519966244697571,-4.429337501525879
1761818085986452500,4.886452392578125,3.557347297668457,0.5064718723297119,-3.8494555950164795
1761818085996380700,4.896380615234375,1.7777818441390991,0.36043912172317505,-1.980678915977478
1761818086006309600,4.9063095703125,0.7883018851280212,-0.24538928270339966,-0.3379490077495575
1761818086016238300,4.91623828125,0.09385299682617188,-0.8136699199676514,0.6351828575134277
1761818086026166500,4.92616650390625,-0.6117241382598877,-0.750862717628479,1.131439447402954
1761818086036094500,4.936094482421875,-1.1921786069869995,-0.3264174461364746,1.3480937480926514
1761818086046023700,4.946023681640625,-1.6042181253433228,0.11069037765264511,1.806951880455017
1761818086055951600,4.95595166015625,-1.9137516021728516,0.1606011837720871,2.5528948307037354
1761818086065879600,4.965879638671875,-2.196462631225586,-0.11129077523946762,3.33809494972229
1761818086075808500,4.97580859375,-2.807135581970215,-0.3131827116012573,3.7372934818267822
1761818086085736400,4.985736328125,-3.8223154544830322,-0.21315224468708038,3.431856393814087
1761818086095664400,4.995664306640625,-4.9040608406066895,0.19720503687858582,2.6570723056793213
1761818086105593300,5.00559326171875,-5.697398662567139,0.6372207999229431,1.926524043083191
1761818086115521500,5.015521484375,-6.234447956085205,0.9466052055358887,1.479037880897522
1761818086125449700,5.02544970703125,-6.558045387268066,1.099820852279663,1.2714987993240356
1761818086135378700,5.035378662109375,-6.800125598907471,1.0296881198883057,1.2693029642105103
1761818086145306600,5.045306640625,-7.103413105010986,0.854964017868042,1.4364298582077026
1761818086155234600,5.055234619140625,-7.424782752990723,0.582946240901947,1.6203219890594482
1761818086165163500,5.06516357421875,-7.797496318817139,0.3421189785003662,1.6010730266571045
1761818086175091500,5.075091552734375,-8.2140531539917,0.23586444556713104,1.4028202295303345
1761818086185019400,5.085019287109375,-8.378641128540039,0.15374800562858582,1.0999237298965454
1761818086194948400,5.0949482421875,-7.792872905731201,-0.20730169117450714,0.7952532172203064
1761818086204876500,5.10487646484375,-6.167926788330078,-0.8522457480430603,0.4924736022949219
1761818086214804700,5.1148046875,-3.6137096881866455,-1.4103859663009644,0.139316588640213
1761818086224733700,5.124733642578125,-0.41593137383461,-1.290964961051941,-0.10297885537147522
1761818086234661600,5.13466162109375,2.8962883949279785,-0.5553165674209595,-0.2925739288330078
1761818086244589600,5.144589599609375,5.739410877227783,0.23801805078983307,-0.5135180354118347
1761818086254518500,5.1545185546875,7.840465545654297,0.6093977093696594,-0.8148174285888672
1761818086264446500,5.164446533203125,9.230245590209961,0.4213758111000061,-1.0646361112594604
1761818086274374400,5.17437451171875,10.005749702453613,-0.04706278815865517,-1.2507178783416748
1761818086284303400,5.184303466796875,10.368433952331543,-0.4865597188472748,-1.4426966905593872
1761818086294231600,5.1942314453125,10.481241226196289,-0.8199114799499512,-1.7441340684890747
1761818086304159700,5.20415966796875,10.439326286315918,-1.0791985988616943,-2.137800455093384
1761818086314088700,5.214088623046875,10.236867904663086,-1.2467057704925537,-2.3781208992004395
1761818086324016600,5.2240166015625,9.523609161376953,-1.332606315612793,-2.49169921875
1761818086333944600,5.233944580078125,8.328755378723145,-1.3437812328338623,-2.7152068614959717
1761818086343873500,5.24387353515625,6.905130863189697,-0.8172159194946289,-3.0825588703155518
1761818086353801500,5.253801513671875,5.224759578704834,0.4263151288032532,-3.361616849899292
1761818086363729400,5.2637294921875,3.496729612350464,1.848785638809204,-3.1676175594329834
1761818086373658600,5.27365869140625,1.9359633922576904,2.182609796524048,-2.464848756790161
1761818086383586600,5.283586669921875,0.5518749356269836,1.1435405015945435,-1.2249559164047241
1761818086393514800,5.2935146484375,-0.7617068886756897,-0.2501809000968933,0.2889425456523895
1761818086403443500,5.303443359375,-2.027052402496338,-1.0945918560028076,1.608380913734436
1761818086413371600,5.31337158203125,-2.981555700302124,-1.0858628749847412,2.4914283752441406
1761818086423299600,5.323299560546875,-3.584810495376587,-0.6751118302345276,2.9147632122039795
1761818086433228500,5.333228515625,-3.961744785308838,-0.23892126977443695,2.979614019393921
1761818086443156500,5.343156494140625,-4.298968315124512,-0.01244924683123827,2.800145387649536
1761818086453084400,5.35308447265625,-4.718684196472168,0.025973962619900703,2.444338083267212
1761818086463013600,5.363013671875,-5.2277445793151855,0.030754603445529938,1.9433329105377197
1761818086472941600,5.372941650390625,-5.7335662841796875,0.10883663594722748,1.4485834836959839
1761818086482869500,5.382869384765625,-6.177540302276611,0.22866344451904297,1.1035312414169312
1761818086492798500,5.392798583984375,-6.564055442810059,0.2618032395839691,0.9352452754974365
1761818086502726700,5.4027265625,-6.937950611114502,0.32591378688812256,0.918341875076294
1761818086512654600,5.412654541015625,-7.380212783813477,0.5408579707145691,1.0245848894119263
1761818086522583600,5.42258349609375,-7.880079746246338,0.8158208727836609,1.187046766281128
1761818086532511500,5.432511474609375,-8.3064546585083,1.0956296920776367,1.263655424118042
1761818086542439400,5.442439453125,-8.437602996826172,0.8961024284362793,1.2013353109359741
1761818086552368600,5.45236865234375,-7.735123157501221,-0.010605474933981895,0.9307672381401062
1761818086562296600,5.462296630859375,-6.020395755767822,-1.1496498584747314,0.4899198114871979
1761818086572224500,5.472224609375,-3.615659475326538,-1.7752560377120972,0.06169221177697182
1761818086582153500,5.482153564453125,-0.9913690686225891,-1.4323359727859497,-0.2743454575538635
1761818086592081700,5.49208154296875,1.7419136762619019,-0.6563814282417297,-0.5908005237579346
1761818086602009600,5.502009521484375,4.199915885925293,0.05452730134129524,-0.8345154523849487
1761818086611938600,5.5119384765625,6.255893707275391,0.5198178887367249,-1.0032004117965698
1761818086621866500,5.521866455078125,7.909297466278076,0.5945478081703186,-1.0773205757141113
1761818086631794400,5.53179443359375,9.188629150390625,0.38026177883148193,-1.0408315658569336
1761818086641723600,5.5417236328125,10.112988471984863,0.0226607583463192,-1.0029667615890503
1761818086651651600,5.551651611328125,10.71827507019043,-0.1873113214969635,-1.1467331647872925
1761818086661579500,5.56157958984375,11.003336906433105,-0.1927551031112671,-1.5459699630737305
1761818086671508500,5.571508544921875,10.740324974060059,-0.19678063690662384,-2.0468599796295166
1761818086681436400,5.5814365234375,9.674342155456543,-0.23324516415596008,-2.678685188293457
1761818086691364600,5.591364501953125,7.967476844787598,-0.5650721788406372,-3.57440185546875
1761818086701293600,5.60129345703125,6.068925857543945,-0.9901276230812073,-4.241786956787109
1761818086711221500,5.611221435546875,4.122644424438477,-0.7828410863876343,-3.9118056297302246
1761818086721149400,5.6211494140625,2.3739092350006104,-0.09631437808275223,-2.5230939388275146
1761818086731078700,5.63107861328125,1.1504403352737427,0.03209558129310608,-1.081371784210205
1761818086741006600,5.641006591796875,0.47228386998176575,-0.4939224123954773,-0.14398299157619476
1761818086750934500,5.6509345703125,-0.007749394979327917,-0.9052168130874634,0.3542843461036682
1761818086760863500,5.660863525390625,-0.7260668277740479,-1.017311692237854,0.4860130548477173
1761818086770791400,5.67079150390625,-1.8079938888549805,-0.6567156314849854,0.5923293232917786
1761818086780719600,5.6807197265625,-3.0440821647644043,-0.10880511999130249,0.8607967495918274
1761818086790648600,5.690648681640625,-4.0997748374938965,0.26836052536964417,1.1270720958709717
1761818086800576500,5.700576416015625,-4.849625587463379,0.43038272857666016,1.275822401046753
1761818086810504400,5.71050439453125,-5.3434929847717285,0.6323161125183105,1.3781448602676392
1761818086820433700,5.72043359375,-5.695044994354248,0.9254907369613647,1.4640130996704102
1761818086830361600,5.730361572265625,-5.943182468414307,1.2214179039001465,1.5266733169555664
1761818086840289500,5.74028955078125,-6.155599594116211,1.4400972127914429,1.5648044347763062
1761818086850218500,5.750218505859375,-6.406368255615234,1.460160255432129,1.6140446662902832
1761818086860146400,5.760146484375,-6.665482521057129,1.3518016338348389,1.698401927947998
1761818086870074600,5.77007470703125,-6.949606895446777,1.2324509620666504,1.8018752336502075
1761818086880003300,5.78000341796875,-7.277904033660889,1.2298972606658936,1.8761622905731201
1761818086889931500,5.789931640625,-7.685184001922607,1.400797963142395,1.8678497076034546
1761818086899859500,5.799859375,-8.047398567199707,1.6366560459136963,1.831567406654358
1761818086909788700,5.80978857421875,-7.9364447593688965,1.5879745483398438,1.7852137088775635
1761818086919716600,5.819716552734375,-7.007345676422119,1.0691598653793335,1.4891369342803955
1761818086929644500,5.82964453125,-5.194811820983887,0.22301669418811798,0.8200084567070007
1761818086939573500,5.839573486328125,-2.8496387004852295,-0.5348846316337585,0.06870435178279877
1761818086949501400,5.84950146484375,-0.2828836739063263,-0.8635640740394592,-0.6209553480148315
1761818086959429400,5.859429443359375,2.199275493621826,-0.5565233826637268,-1.169337272644043
1761818086969358300,5.8693583984375,4.366278171539307,-0.060346819460392,-1.461386799812317
1761818086979286500,5.87928662109375,6.108807563781738,0.13738755881786346,-1.5804914236068726
1761818086989214500,5.88921435546875,7.438257217407227,-0.023930052295327187,-1.484466791152954
1761818086999143700,5.899143798828125,8.424739837646484,-0.41320672631263733,-1.294094204902649
1761818087009070300,5.9090703125,9.165983200073242,-0.9811936616897583,-1.1003438234329224
1761818087018998300,5.918998291015625,9.74942684173584,-1.470314621925354,-1.103448510169983
1761818087028927200,5.92892724609375,10.249334335327148,-1.7168889045715332,-1.4275054931640625
1761818087038855400,5.93885546875,10.463058471679688,-1.1061309576034546,-2.041860580444336
1761818087048783400,5.948783447265625,10.125066757202148,0.3725598156452179,-3.0818357467651367
1761818087058712300,5.95871240234375,9.051270484924316,1.362609624862671,-4.424010753631592
1761818087068640300,5.96864013671875,7.322820663452148,1.0639350414276123,-5.4279303550720215
1761818087078568200,5.978568115234375,5.289566993713379,0.19304388761520386,-5.363131523132324
1761818087088497400,5.988497314453125,3.3067970275878906,-0.3499436676502228,-3.7853991985321045
1761818087098425300,5.99842529296875,1.4844601154327393,-0.5678887963294983,-1.3635389804840088
1761818087108353300,6.008353271484375,0.045386988669633865,-0.8620791435241699,0.4548207223415375
1761818087118282200,6.0182822265625,-0.8846261501312256,-0.845633327960968,1.4435755014419556
1761818087128210400,6.02821044921875,-1.6621456146240234,-0.6239070892333984,1.7864645719528198
1761818087138138400,6.038138427734375,-2.5424745082855225,-0.3721970319747925,1.786002278327942
1761818087148066300,6.04806640625,-3.4899356365203857,-0.10434293001890182,1.8455054759979248
1761818087157995300,6.057995361328125,-4.3530449867248535,0.012531490996479988,1.8832064867019653
1761818087167923200,6.067923095703125,-5.0914530754089355,0.049402717500925064,1.8366998434066772
1761818087177852400,6.077852294921875,-5.674834251403809,0.18969325721263885,1.799002766609192
1761818087187780400,6.0877802734375,-5.980870246887207,0.4985261857509613,1.808407187461853
1761818087197708300,6.097708251953125,-6.192050933837891,0.9663586020469666,1.831735610961914
1761818087207637200,6.10763720703125,-6.394021034240723,1.274194598197937,1.9025644063949585
1761818087217565200,6.117565185546875,-6.618378639221191,1.3397759199142456,2.02835750579834
1761818087227493400,6.127493408203125,-6.9264936447143555,1.2117708921432495,2.221306085586548
1761818087237422300,6.13742236328125,-7.350489139556885,0.9866708517074585,2.397351026535034
1761818087247350300,6.147350341796875,-7.83637809753418,0.843994140625,2.3946402072906494
1761818087257278200,6.1572783203125,-8.17692756652832,0.7474428415298462,2.102057456970215
1761818087267206100,6.1672060546875,-8.016422271728516,0.666212797164917,1.6055690050125122
1761818087277135400,6.17713525390625,-6.97255802154541,0.25935792922973633,1.0247830152511597
1761818087287063300,6.187063232421875,-5.158660888671875,-0.4429612159729004,0.3232363164424896
1761818087296991200,6.1969912109375,-3.1060967445373535,-0.9017593860626221,-0.2788543403148651
1761818087306920200,6.206920166015625,-1.0318796634674072,-0.8673034310340881,-0.7231742739677429
1761818087316848400,6.216848388671875,1.0893425941467285,-0.398710697889328,-0.9815296530723572
1761818087326777300,6.22677734375,3.051015853881836,0.05509420856833458,-1.0311379432678223
1761818087336705300,6.236705322265625,4.744407653808594,-0.021620012819767,-0.9678718447685242
1761818087346633200,6.24663330078125,6.211892127990723,-0.49471384286880493,-0.8070085048675537
1761818087356562400,6.2565625,7.45281457901001,-1.082411766052246,-0.5910536050796509
1761818087366490400,6.266490478515625,8.491083145141602,-1.3170709609985352,-0.5069459676742554
1761818087376418300,6.276418212890625,9.299483299255371,-0.9713300466537476,-0.7763787508010864
1761818087386346200,6.28634619140625,9.864039421081543,0.10600356757640839,-1.4486076831817627
1761818087396275200,6.296275146484375,10.121637344360352,1.7052451372146606,-2.3512513637542725
1761818087406203400,6.306203369140625,9.822381973266602,3.0112829208374023,-3.304903507232666
1761818087416131300,6.31613134765625,8.642929077148438,2.940605640411377,-4.219212532043457
1761818087426060300,6.326060302734375,6.861337184906006,1.6062488555908203,-4.599124908447266
1761818087435988200,6.33598828125,5.001727104187012,-0.0612923689186573,-4.207444190979004
1761818087445917400,6.34591748046875,3.389411449432373,-1.112971544265747,-3.254819631576538
1761818087455845400,6.355845458984375,2.046865463256836,-0.7802905440330505,-1.9426008462905884
1761818087465773300,6.365773193359375,0.8098165392875671,0.20495541393756866,-0.9668445587158203
1761818087475702300,6.375702392578125,-0.15883345901966095,0.9605490565299988,-0.3978711664676666
1761818087485630200,6.385630126953125,-1.0757795572280884,1.0695654153823853,0.19464042782783508
1761818087495558100,6.39555810546875,-2.2381703853607178,0.7569721341133118,0.9843241572380066
1761818087505486300,6.405486328125,-3.4551949501037598,0.3676517903804779,1.8690450191497803
1761818087515415300,6.415415283203125,-4.5201640129089355,-0.03451455011963844,2.595654010772705
1761818087525343200,6.42534326171875,-5.298086643218994,-0.25773781538009644,2.972348213195801
1761818087535271400,6.435271484375,-5.819558143615723,-0.1697871834039688,3.01943302154541
1761818087545200400,6.445200439453125,-6.1346516609191895,0.18209923803806305,2.891127586364746
1761818087555128300,6.45512841796875,-6.216714382171631,0.5895085334777832,2.6793079376220703
1761818087565057300,6.465057373046875,-6.134715557098389,1.0014941692352295,2.4438345432281494
1761818087574985200,6.474985107421875,-6.030623435974121,1.3551714420318604,2.2353310585021973
1761818087584913200,6.4849130859375,-5.935948848724365,1.6708838939666748,2.182725191116333
1761818087594842000,6.494842041015625,-5.850376129150391,1.8832077980041504,2.136843681335449
1761818087604770300,6.504770263671875,-5.82459020614624,2.1295318603515625,1.94528067111969
1761818087614698200,6.5146982421875,-5.905477046966553,2.4925475120544434,1.6759068965911865
1761818087624627500,6.52462744140625,-6.029430389404297,2.714122772216797,1.3945286273956299
1761818087634555400,6.534555419921875,-5.979739189147949,2.6573688983917236,1.1947071552276611
1761818087644483300,6.5444833984375,-5.348289966583252,1.948281168937683,1.0760923624038696
1761818087654412300,6.554412353515625,-3.9263012409210205,0.4449533224105835,0.6902889609336853
1761818087664340200,6.56434033203125,-1.980248212814331,-1.396928071975708,0.14518895745277405
1761818087674268200,6.57426806640625,0.11509976536035538,-2.574293613433838,-0.11015653610229492
1761818087684197000,6.584197021484375,2.3294436931610107,-2.7539191246032715,-0.3071327805519104
1761818087694125000,6.594125,4.535232067108154,-2.252763032913208,-0.4922823905944824
1761818087704053500,6.604053466796875,6.507833957672119,-1.6322914361953735,-0.7218620181083679
1761818087713982500,6.613982421875,8.153088569641113,-1.1041359901428223,-1.0202710628509521
1761818087723910400,6.623910400390625,9.451131820678711,-0.7856881618499756,-1.41819429397583
1761818087733838300,6.63383837890625,10.337529182434082,-0.5751064419746399,-2.0167603492736816
1761818087743767300,6.643767333984375,10.827661514282227,-0.23537684977054596,-2.896986722946167
1761818087753695200,6.6536953125,10.720970153808594,0.477372407913208,-3.9055864810943604
1761818087763623200,6.663623046875,9.710488319396973,1.1332734823226929,-4.8673930168151855
1761818087773552000,6.67355224609375,8.093193054199219,0.9888976812362671,-5.5803542137146
1761818087783480300,6.683480224609375,6.248782634735107,0.31383442878723145,-5.749731063842773
1761818087793408500,6.693408447265625,4.260807514190674,-0.3357158899307251,-5.143311023712158
1761818087803337200,6.703337158203125,2.46146821975708,0.09449264407157898,-3.57563853263855
1761818087813265400,6.713265380859375,0.8895021080970764,0.5638337731361389,-1.8722131252288818
1761818087823193300,6.723193359375,-0.31006425619125366,0.4591611921787262,-0.4372846782207489
1761818087833122300,6.733122314453125,-1.030785322189331,0.0790700763463974,0.9648773074150085
1761818087843050200,6.74305029296875,-1.7243735790252686,-0.3199821710586548,2.0816328525543213
1761818087852978200,6.752978271484375,-2.7113845348358154,-0.23780657351016998,2.8070716857910156
1761818087862907100,6.7629072265625,-3.6999757289886475,0.2472328543663025,3.250424385070801
1761818087872835300,6.77283544921875,-4.5177812576293945,0.6038581132888794,3.3430685997009277
1761818087882763300,6.78276318359375,-5.09585428237915,0.8399971723556519,3.194279193878174
1761818087892692200,6.792692138671875,-5.470654487609863,1.0606367588043213,3.0117530822753906
1761818087902620400,6.802620361328125,-5.647997856140137,1.294905424118042,2.858797073364258
1761818087912548400,6.81254833984375,-5.659817695617676,1.4838327169418335,2.680738687515259
1761818087922477300,6.822477294921875,-5.572790622711182,1.5769429206848145,2.5839345455169678
1761818087932405200,6.8324052734375,-5.4619855880737305,1.55411696434021,2.633178234100342
1761818087942333200,6.842333251953125,-5.4097442626953125,1.351088523864746,2.694350481033325
1761818087952262400,6.852262451171875,-5.492993354797363,1.133966326713562,2.678156852722168
1761818087962190300,6.8621904296875,-5.712311267852783,0.960614800453186,2.653932809829712
1761818087972118300,6.8721181640625,-5.938804626464844,0.6540852189064026,2.595139980316162
1761818087982047200,6.882047119140625,-5.970669269561768,0.07321258634328842,2.368307590484619
1761818087991975400,6.891975341796875,-5.535948276519775,-0.49160632491111755,1.9661449193954468
1761818088001903400,6.9019033203125,-4.435769081115723,-0.9546568393707275,1.2758727073669434
1761818088011832800,6.911832763671875,-2.7326557636260986,-1.2856712341308594,0.3063696026802063
1761818088021760800,6.9217607421875,-0.7529252171516418,-1.1532446146011353,-0.6500990390777588
1761818088031688700,6.931688720703125,1.2938624620437622,-0.6333861351013184,-1.4051458835601807
1761818088041618000,6.941617919921875,3.1918201446533203,-0.25009843707084656,-1.932178020477295
1761818088051545900,6.9515458984375,4.81505012512207,-0.16061648726463318,-2.184307813644409
1761818088061473800,6.961473876953125,6.126984596252441,-0.4406207501888275,-2.186812162399292
1761818088071402800,6.97140283203125,7.176006317138672,-0.9942695498466492,-2.0475547313690186
1761818088081330700,6.98133056640625,8.000247955322266,-1.697762131690979,-1.929292917251587
1761818088091259000,6.9912587890625,8.636673927307129,-2.250061273574829,-1.9601733684539795
1761818088101187600,7.0011875,9.097437858581543,-2.407482624053955,-2.2192885875701904
1761818088111115800,7.01111572265625,9.317392349243164,-2.0997045040130615,-2.61545729637146
1761818088121043700,7.021043701171875,8.887715339660645,-1.4550509452819824,-3.148510456085205
1761818088130973000,7.030972900390625,7.665023326873779,-1.1126682758331299,-3.8862571716308594
1761818088140900900,7.04090087890625,5.879785537719727,-0.7625643014907837,-4.685450553894043
1761818088150828800,7.050828857421875,4.078588008880615,0.16045163571834564,-5.0227484703063965
1761818088160757800,7.0607578125,2.4561266899108887,1.5794345140457153,-4.357273578643799
1761818088170685700,7.070685791015625,0.9396665096282959,2.011591672897339,-2.9548957347869873
1761818088180613600,7.080613525390625,-0.3498295545578003,0.7311006188392639,-1.0144751071929932
1761818088190542600,7.09054248046875,-1.4207537174224854,-0.935027003288269,1.282415509223938
1761818088200470800,7.100470703125,-2.530043125152588,-1.8625589609146118,3.142759084701538
1761818088210398700,7.110398681640625,-3.581556558609009,-1.7287732362747192,4.060482501983643
1761818088220328000,7.120327880859375,-4.476083278656006,-0.9006892442703247,4.28818941116333
1761818088230255900,7.130255859375,-5.092662811279297,-0.026760123670101166,4.042516708374023
1761818088240183800,7.140183837890625,-5.551164150238037,0.577848494052887,3.5741426944732666
1761818088250112800,7.15011279296875,-5.932492256164551,0.9780675172805786,3.1143529415130615
1761818088260040700,7.160040771484375,-6.147703170776367,1.2676446437835693,2.7906699180603027
1761818088269968600,7.16996875,-6.262638092041016,1.506919026374817,2.609825372695923
1761818088279897600,7.179897705078125,-6.379337310791016,1.6822564601898193,2.5607333183288574
1761818088289825800,7.18982568359375,-6.532472133636475,1.8446022272109985,2.6341378688812256
1761818088299754000,7.19975390625,-6.82429838180542,2.0231735706329346,2.8429620265960693
1761818088309683000,7.209682861328125,-7.348848342895508,2.3422675132751465,3.1039721965789795
1761818088319611000,7.21961083984375,-7.853016376495361,2.7275800704956055,3.240328788757324
1761818088329539800,7.229539794921875,-7.952733516693115,2.7841644287109375,3.291886568069458
1761818088339467800,7.2394677734375,-7.262699604034424,2.069566488265991,3.240952491760254
1761818088349395700,7.249395751953125,-5.87952184677124,0.6351245045661926,2.8490211963653564
1761818088359324700,7.25932470703125,-4.219586372375488,-0.7435782551765442,1.916426420211792
1761818088369252600,7.269252685546875,-2.3306586742401123,-1.7376582622528076,0.8162168264389038
1761818088379180800,7.279180908203125,-0.4722647964954376,-2.1761629581451416,-0.004836373031139374
1761818088389109800,7.28910986328125,1.4034408330917358,-2.0301513671875,-0.727805495262146
1761818088399038000,7.299037841796875,3.3340039253234863,-1.6760308742523193,-1.3676035404205322
1761818088408966000,7.3089658203125,5.148528575897217,-1.3659051656723022,-1.7187800407409668
1761818088418894800,7.318894775390625,6.662574768066406,-1.307155728340149,-1.8386069536209106
1761818088428822800,7.32882275390625,7.816205024719238,-1.4079375267028809,-1.8657498359680176
1761818088438750700,7.338750732421875,8.725781440734863,-1.6370950937271118,-1.954641580581665
1761818088448679700,7.3486796875,9.5553617477417,-1.8433101177215576,-2.2116332054138184
1761818088458607600,7.358607666015625,10.392013549804688,-1.9806183576583862,-2.6183080673217773
1761818088468535800,7.368535888671875,11.011173248291016,-1.9889758825302124,-3.08717679977417
1761818088478464800,7.37846484375,11.184035301208496,-1.9691141843795776,-3.484544277191162
1761818088488392700,7.388392822265625,10.950206756591797,-1.714226245880127,-3.7179036140441895
1761818088498321000,7.39832080078125,9.643330574035645,-1.149719476699829,-4.183811187744141
1761818088508249900,7.408249755859375,7.188005447387695,-0.35606658458709717,-4.6937737464904785
1761818088518177800,7.418177734375,4.378537178039551,1.1449413299560547,-4.505421161651611
1761818088528105700,7.428105712890625,1.7958226203918457,1.9602998495101929,-3.5252525806427
1761818088538034700,7.43803466796875,0.15531210601329803,1.3213154077529907,-1.8578808307647705
1761818088547963000,7.447962890625,-0.7634595632553101,-0.05086151510477066,0.15112508833408356
1761818088557890800,7.457890869140625,-1.659231424331665,-1.0779263973236084,1.8959466218948364
1761818088567819800,7.46781982421875,-2.7765889167785645,-1.161055326461792,2.9391016960144043
1761818088577747700,7.477747802734375,-4.001568794250488,-0.4796762764453888,3.3650825023651123
1761818088587676000,7.487676025390625,-4.963468074798584,0.31006574630737305,3.3878254890441895
1761818088597604900,7.49760498046875,-5.5557332038879395,0.7824508547782898,3.227665901184082
1761818088607532800,7.50753271484375,-5.852749347686768,0.9874452948570251,3.0709893703460693
1761818088617461800,7.517461669921875,-6.050481796264648,1.0893937349319458,2.9149527549743652
1761818088627390000,7.527389892578125,-6.21212100982666,1.1105554103851318,2.732428550720215
1761818088637318000,7.53731787109375,-6.351680755615234,1.1068966388702393,2.568138599395752
1761818088647246800,7.547246826171875,-6.486391544342041,1.112895131111145,2.5010504722595215
1761818088657174800,7.5571748046875,-6.7022576332092285,1.1830406188964844,2.5716030597686768
1761818088667102700,7.567102783203125,-7.053493499755859,1.371429443359375,2.7607715129852295
1761818088677031700,7.57703173828125,-7.358766078948975,1.4630613327026367,2.9748880863189697
1761818088686959600,7.586959716796875,-7.2773542404174805,1.1859241724014282,2.997846841812134
1761818088696887800,7.5968876953125,-6.722048759460449,0.7584524750709534,2.6154019832611084
1761818088706816800,7.606816650390625,-5.716965675354004,0.456134170293808,1.7795069217681885
1761818088716745000,7.616744873046875,-4.466593265533447,0.5543946027755737,0.5526878833770752
1761818088726673000,7.6266728515625,-2.9623522758483887,0.7664855718612671,-0.6353874206542969
1761818088736601900,7.636601806640625,-1.3109363317489624,0.7665317058563232,-1.6266446113586426
1761818088746529800,7.64652978515625,0.44843634963035583,0.44982674717903137,-2.3962159156799316
1761818088756457700,7.656457763671875,2.385530710220337,-0.14414173364639282,-2.7555384635925293
1761818088766386700,7.66638671875,4.368722915649414,-0.8672112822532654,-2.6612753868103027
1761818088776314600,7.676314697265625,6.126528263092041,-1.6403231620788574,-2.2482006549835205
1761818088786242800,7.686242919921875,7.590295791625977,-2.4285452365875244,-1.7184956073760986
1761818088796171800,7.696171875,8.921984672546387,-3.0192208290100098,-1.2863916158676147
1761818088806100000,7.706099853515625,10.251986503601074,-3.1478798389434814,-1.0984797477722168
1761818088816028000,7.71602783203125,11.625164985656738,-2.755297899246216,-1.278841495513916
1761818088825956900,7.725956787109375,12.762572288513184,-1.6944202184677124,-1.8945544958114624
1761818088835884800,7.735884765625,12.958706855773926,-0.4260197877883911,-3.106360673904419
1761818088845813800,7.745813720703125,11.658702850341797,0.2281835973262787,-4.716393947601318
1761818088855741700,7.75574169921875,8.82930850982666,0.6508442759513855,-6.476097583770752
1761818088865669600,7.765669677734375,5.4511566162109375,1.1566861867904663,-7.479948997497559
1761818088875598800,7.775598876953125,2.1354527473449707,2.114611864089966,-6.717779159545898
1761818088885526800,7.78552685546875,-0.32052740454673767,2.414787769317627,-4.349803924560547
1761818088895455000,7.795455078125,-1.4113898277282715,1.0713164806365967,-1.6147512197494507
1761818088905384000,7.805384033203125,-1.6911804676055908,-0.5636938214302063,0.9222000241279602
1761818088915311900,7.815311767578125,-2.289698839187622,-1.2654085159301758,2.8250110149383545
1761818088925239800,7.82523974609375,-3.3515126705169678,-0.7941644787788391,3.7587339878082275
1761818088935168800,7.835168701171875,-4.3755927085876465,0.2341083288192749,3.9440362453460693
1761818088945096700,7.8450966796875,-5.227663993835449,1.1536542177200317,3.6565544605255127
1761818088955024600,7.855024658203125,-5.832078456878662,1.811188817024231,3.262277841567993
1761818088964953900,7.864953857421875,-6.189126968383789,2.161226272583008,3.0099217891693115
1761818088974881800,7.8748818359375,-6.375609397888184,2.340427875518799,2.973053455352783
1761818088984810000,7.88481005859375,-6.404337406158447,2.320521593093872,3.0741562843322754
1761818088994739000,7.894739013671875,-6.3808465003967285,2.130408763885498,3.2266476154327393
1761818089004666600,7.90466650390625,-6.411688327789307,1.836320400238037,3.3626394271850586
1761818089014594600,7.914594482421875,-6.551909923553467,1.4609520435333252,3.5766899585723877
1761818089024523800,7.924523681640625,-6.79289436340332,1.0694137811660767,3.763612985610962
1761818089034451700,7.93445166015625,-6.919313907623291,0.6299293637275696,3.535590171813965
1761818089044380700,7.944380615234375,-6.897758483886719,0.3328406810760498,2.805739402770996
1761818089054308600,7.95430859375,-6.532433986663818,0.46682387590408325,1.7798577547073364
1761818089064236500,7.964236572265625,-5.4627556800842285,1.3521788120269775,0.5754554867744446
1761818089074165500,7.97416552734375,-3.4870214462280273,2.480133295059204,-0.6121474504470825
1761818089084093700,7.98409375,-1.0536707639694214,2.6182663440704346,-1.62527334690094
1761818089094021600,7.994021728515625,1.2608121633529663,1.3876924514770508,-2.353133201599121
1761818089103950800,8.003950927734374,3.3795502185821533,-0.131528839468956,-2.59416127204895
1761818089113878800,8.013878662109375,5.257136344909668,-1.070146083831787,-2.598569869995117
1761818089123806700,8.023806640625,6.830312252044678,-1.4743438959121704,-2.5826189517974854
1761818089133735700,8.033735595703124,8.12031078338623,-1.6743214130401611,-2.639207601547241
1761818089143663600,8.04366357421875,9.159536361694336,-1.9985764026641846,-2.85263991355896
1761818089153591600,8.053591552734375,10.044774055480957,-2.289640426635742,-3.209726572036743
1761818089163520500,8.0635205078125,10.738274574279785,-2.1620569229125977,-3.735823154449463
1761818089173448400,8.073448486328125,10.898416519165039,-1.288403868675232,-4.435503005981445
1761818089183376600,8.083376708984375,10.20131778717041,-0.1491367667913437,-5.131507396697998
1761818089193305900,8.093305908203124,8.88259220123291,0.41940760612487793,-5.700779438018799
1761818089203233800,8.10323388671875,7.000680923461914,0.12762317061424255,-6.011329650878906
1761818089213162800,8.113162841796875,4.841785907745361,-1.0442440509796143,-5.8450517654418945
1761818089223090700,8.123090576171874,3.0334105491638184,-1.6402651071548462,-4.619924545288086
1761818089233018600,8.1330185546875,1.8494120836257935,-1.4923484325408936,-3.004631757736206
1761818089242947600,8.142947509765625,1.0762388706207275,-1.0333459377288818,-1.80537748336792
1761818089252875500,8.15287548828125,0.45945149660110474,-0.4807993471622467,-0.8243141174316406
1761818089262803500,8.162803466796875,-0.2249601185321808,0.061748627573251724,0.19864358007907867
1761818089272732700,8.172732666015625,-1.224820852279663,0.6781033873558044,1.378627061843872
1761818089282660600,8.18266064453125,-2.440650701522827,1.1494849920272827,2.553985595703125
1761818089292588800,8.1925888671875,-3.548562526702881,1.2595787048339844,3.4710922241210938
1761818089302517800,8.202517822265625,-4.43282413482666,1.1170750856399536,4.01633882522583
1761818089312445700,8.21244580078125,-5.071776866912842,1.0489333868026733,4.252564907073975
1761818089322373600,8.22237353515625,-5.5198822021484375,1.3384772539138794,4.318957805633545
1761818089332302600,8.232302490234375,-5.774545669555664,1.8334704637527466,4.324049472808838
1761818089342230500,8.24223046875,-5.885740280151367,2.308234214782715,4.345836639404297
1761818089352158500,8.252158447265625,-5.965356349945068,2.4847235679626465,4.423984050750732
1761818089362087700,8.262087646484375,-6.083082675933838,2.260852098464966,4.498903751373291
1761818089372015600,8.272015625,-6.259918689727783,1.8633983135223389,4.728165149688721
1761818089381944600,8.281944580078125,-6.516740322113037,1.3419928550720215,5.009632110595703
1761818089391872800,8.291872802734375,-6.787439346313477,0.6234251260757446,5.106914520263672
1761818089401800700,8.30180078125,-7.013566017150879,-0.07081063836812973,4.984004974365234
1761818089411729700,8.311729736328125,-6.704165458679199,-0.6674919724464417,4.544829845428467
1761818089421657600,8.32165771484375,-5.6241655349731445,-1.469767689704895,3.666116952896118
1761818089431585500,8.33158544921875,-3.9845457077026367,-2.308856964111328,2.5093321800231934
1761818089441514800,8.3415146484375,-2.176257610321045,-2.5871284008026123,1.3495067358016968
1761818089451442700,8.351442626953125,-0.20113500952720642,-2.4098150730133057,0.15308865904808044
1761818089461370600,8.36137060546875,1.918454885482788,-1.9709587097167969,-1.0915740728378296
1761818089471299600,8.371299560546875,3.968291759490967,-1.163482904434204,-2.1598174571990967
1761818089481227500,8.3812275390625,5.846827507019043,-0.44722166657447815,-2.9113876819610596
1761818089491155700,8.39115576171875,7.457864284515381,-0.34477826952934265,-3.299974203109741
1761818089501084700,8.401084716796875,8.794323921203613,-0.7715328335762024,-3.456589460372925
1761818089511012600,8.4110126953125,9.991988182067871,-1.4062899351119995,-3.558579683303833
1761818089520940800,8.42094091796875,11.004348754882812,-1.7024556398391724,-3.7188291549682617
1761818089530869800,8.430869873046875,11.534242630004883,-1.3247185945510864,-3.983772039413452
1761818089540797700,8.440797607421874,11.08988094329834,-0.1815337836742401,-4.299034595489502
1761818089550726700,8.4507265625,9.39606761932373,1.0634536743164062,-4.909054279327393
1761818089560654600,8.460654541015625,6.733627796173096,1.2721076011657715,-5.661440372467041
1761818089570582500,8.47058251953125,3.9089815616607666,0.7240196466445923,-5.866086959838867
1761818089580511500,8.480511474609376,1.8332089185714722,0.7889677286148071,-4.939126968383789
1761818089590439700,8.490439697265625,0.6771582961082458,1.186706781387329,-3.251591920852661
1761818089600367600,8.50036767578125,0.14389221370220184,1.2240904569625854,-1.7391120195388794
1761818089610296800,8.510296875,-0.13167884945869446,1.1653430461883545,-0.6106173992156982
1761818089620224800,8.520224853515625,-0.5847989320755005,1.544577956199646,0.5013884902000427
1761818089630152700,8.530152587890624,-1.6232359409332275,1.9859544038772583,1.5310840606689453
1761818089640081700,8.54008154296875,-2.9536924362182617,1.951467752456665,2.4870452880859375
1761818089650009600,8.550009521484375,-4.124820709228516,1.258638858795166,3.260542631149292
1761818089659937500,8.5599375,-4.926481246948242,0.6501597762107849,3.7277777194976807
1761818089669866500,8.569866455078126,-5.3587541580200195,0.7203144431114197,3.982253313064575
1761818089679794400,8.57979443359375,-5.447689056396484,1.304046392440796,4.05526065826416
1761818089689723000,8.589722900390624,-5.38682222366333,2.0325140953063965,3.9463627338409424
1761818089699651800,8.59965185546875,-5.2544708251953125,2.53845477104187,3.8154571056365967
1761818089709579800,8.609579833984375,-5.112949848175049,2.733431816101074,3.7941508293151855
1761818089719507700,8.6195078125,-5.032012462615967,2.609687328338623,3.845933437347412
1761818089729436700,8.629436767578126,-5.055607795715332,2.259695291519165,3.8367674350738525
1761818089739364600,8.639364501953125,-5.146100997924805,1.785241723060608,3.783226251602173
1761818089749293600,8.64929345703125,-5.198371887207031,1.2279435396194458,3.6210861206054688
1761818089759221500,8.659221435546876,-5.023331165313721,0.6454619765281677,3.2493278980255127
1761818089769149700,8.669149658203125,-4.395443916320801,0.06251586973667145,2.5522592067718506
1761818089779078700,8.67907861328125,-3.2929322719573975,-0.3402417302131653,1.5667527914047241
1761818089789006600,8.689006591796876,-1.9106816053390503,-0.39348700642585754,0.5510944128036499
1761818089798934800,8.698934814453125,-0.45089855790138245,-0.1526309698820114,-0.3496817648410797
1761818089808863700,8.70886376953125,1.0192945003509521,0.14178356528282166,-1.1347726583480835
1761818089818791700,8.718791748046876,2.3247992992401123,0.24748708307743073,-1.7723267078399658
1761818089828719600,8.7287197265625,3.4404897689819336,0.03273622691631317,-2.280557155609131
1761818089838648600,8.738648681640624,4.424969673156738,-0.46261972188949585,-2.673247814178467
1761818089848576500,8.748576416015625,5.206925392150879,-1.1667932271957397,-2.967042922973633
1761818089858504700,8.758504638671875,5.819736480712891,-2.192256212234497,-3.1040360927581787
1761818089868433700,8.76843359375,6.40204381942749,-3.453651189804077,-2.9295663833618164
1761818089878361600,8.778361572265625,7.010025501251221,-4.342679023742676,-2.458338975906372
1761818089888289800,8.788289794921875,7.430832386016846,-4.423681735992432,-1.9498317241668701
1761818089898218800,8.79821875,7.374462604522705,-3.293266773223877,-1.6887660026550293
1761818089908146700,8.808146728515625,6.684439182281494,-1.0066803693771362,-1.9917885065078735
1761818089918074600,8.81807470703125,5.621854782104492,1.5326898097991943,-2.996518850326538
1761818089928003600,8.828003662109374,4.413810729980469,2.825972318649292,-4.234006881713867
1761818089937931800,8.837931884765625,3.24090313911438,2.4546916484832764,-4.765049457550049
1761818089947860700,8.84786083984375,2.2123143672943115,0.8782685399055481,-4.127603054046631
1761818089957788700,8.85778857421875,1.3484058380126953,-0.6902768611907959,-2.5559065341949463
1761818089967716600,8.867716552734375,0.5536686182022095,-1.218782901763916,-0.7068783044815063
1761818089977645600,8.8776455078125,-0.34084564447402954,-0.7496175765991211,0.7693795561790466
1761818089987573500,8.887573486328124,-1.3737581968307495,0.40879833698272705,1.8958487510681152
1761818089997501700,8.897501708984375,-2.386979103088379,1.3952997922897339,2.7896101474761963
1761818090007431000,8.907430908203125,-3.1466097831726074,1.8663769960403442,3.499039649963379
1761818090017358800,8.91735888671875,-3.6539080142974854,2.04685378074646,3.8775296211242676
1761818090027286800,8.927286865234375,-3.993255376815796,2.2533247470855713,3.8602592945098877
1761818090037215700,8.9372158203125,-4.2127861976623535,2.625434398651123,3.6685640811920166
1761818090047143700,8.947143798828124,-4.276813983917236,3.261239767074585,3.4573886394500732
1761818090057071600,8.957071533203125,-4.115866184234619,4.111832618713379,3.2747414112091064
1761818090067000800,8.967000732421875,-3.8318655490875244,4.969936847686768,3.189093589782715
1761818090076928800,8.9769287109375,-3.4890646934509277,5.290981292724609,3.207778215408325
1761818090086857000,8.98685693359375,-3.0615949630737305,4.879287242889404,3.2824127674102783
1761818090096785700,8.99678564453125,-2.5486836433410645,4.047481536865234,3.2397804260253906
1761818090106713900,9.0067138671875,-2.0420689582824707,3.2293176651000977,2.970228672027588
1761818090116641800,9.016641845703125,-1.4679958820343018,2.817991018295288,2.5200722217559814
1761818090126570800,9.02657080078125,-0.7614190578460693,2.6648428440093994,1.9284855127334595
1761818090136498700,9.036498779296876,0.00551489507779479,2.7612807750701904,1.141758680343628
1761818090146426600,9.046426513671875,0.7309367656707764,3.099625825881958,0.20592862367630005
1761818090156355800,9.05635595703125,1.3192830085754395,3.5497426986694336,-0.7320612072944641
1761818090166283800,9.06628369140625,1.7823837995529175,4.170381546020508,-1.463343620300293
1761818090176212700,9.076212646484375,2.0852394104003906,4.770205497741699,-1.9562466144561768
1761818090186140700,9.086140625,2.1903367042541504,5.033113956451416,-2.263411521911621
1761818090196068900,9.09606884765625,2.161548137664795,4.959840297698975,-2.430140256881714
1761818090205997800,9.105997802734375,2.000664472579956,4.659545421600342,-2.5432066917419434
1761818090215925800,9.11592578125,1.6282325983047485,4.041513919830322,-2.6073930263519287
1761818090225853700,9.125853759765626,1.1191736459732056,3.2300100326538086,-2.6338188648223877
1761818090235783000,9.135782958984375,0.7184275984764099,2.402529001235962,-2.731316328048706
1761818090245710800,9.1457109375,0.5533357858657837,1.7431693077087402,-2.877173662185669
1761818090255638800,9.155638671875,0.6031438112258911,1.2845711708068848,-2.949554443359375
1761818090265567700,9.165567626953125,0.7268712520599365,1.1656785011291504,-3.1963002681732178
1761818090275495700,9.17549560546875,0.7666921615600586,1.252227783203125,-3.56282901763916
1761818090285423900,9.185423828125,0.6866532564163208,1.5503439903259277,-3.9948019981384277
1761818090295352600,9.1953525390625,0.5355393290519714,2.3235976696014404,-4.389959812164307
1761818090305280800,9.20528076171875,0.3883080780506134,3.313210964202881,-4.850701808929443
1761818090315208700,9.215208740234376,0.3150772750377655,3.6754913330078125,-5.429898262023926
1761818090325138000,9.225137939453125,0.2617689073085785,3.40988826751709,-5.933878421783447
1761818090335065900,9.23506591796875,0.27018341422080994,2.2861735820770264,-6.3665618896484375
1761818090344993800,9.244993896484376,0.3057352900505066,0.828170120716095,-6.589879035949707
1761818090354922800,9.2549228515625,0.37772905826568604,-0.006857085041701794,-6.163737773895264
1761818090364850700,9.2648505859375,0.3343457281589508,-0.20490360260009766,-5.082422733306885
1761818090374778600,9.274778564453126,0.2716352045536041,0.16998212039470673,-3.612386703491211
1761818090384707600,9.28470751953125,0.10416902601718903,-0.2571297883987427,-2.3286616802215576
1761818090394635800,9.2946357421875,-0.1419331431388855,-0.16211725771427155,-1.3294811248779297
1761818090404564700,9.304564697265626,-0.13024500012397766,0.20797303318977356,-0.4277340769767761
1761818090414493000,9.314492919921875,0.01128149963915348,0.4513033926486969,0.44303491711616516
1761818090424420900,9.3244208984375,0.09092812240123749,0.5327865481376648,1.1767789125442505
1761818090434349800,9.334349853515626,0.008452956564724445,0.552341878414154,1.6917130947113037
1761818090444277800,9.34427783203125,-0.09262067824602127,0.6595072746276855,2.007166862487793
1761818090454205700,9.354205810546874,-0.09415439516305923,0.768487274646759,2.0742828845977783
1761818090464134700,9.364134765625,0.010521630756556988,0.5916795134544373,1.8825759887695312
1761818090474062600,9.3740625,0.20969438552856445,0.19398729503154755,1.5223205089569092
1761818090483990800,9.38399072265625,0.4323740601539612,-0.33057281374931335,1.0670444965362549
1761818090493919700,9.393919677734376,0.6583288908004761,-0.8191241025924683,0.6844577193260193
1761818090503848000,9.403847900390625,0.8661702871322632,-1.0382657051086426,0.42680782079696655
1761818090513775900,9.41377587890625,1.0094221830368042,-1.0877875089645386,0.29040950536727905
1761818090523704800,9.423704833984376,1.0026342868804932,-1.0186188220977783,0.2632972002029419
1761818090533632800,9.4336328125,0.8806512355804443,-0.7642432451248169,0.35427987575531006
1761818090543560700,9.443560791015624,0.7238526344299316,-0.31614646315574646,0.5661102533340454
1761818090553489700,9.45348974609375,0.5849102139472961,0.21176664531230927,0.8315856456756592
1761818090563417600,9.46341748046875,0.48231425881385803,0.7124162912368774,1.065391182899475
1761818090573345800,9.473345703125,0.4162912964820862,1.02769136428833,1.2174350023269653
1761818090583274800,9.483274658203126,0.3535959720611572,1.0539741516113281,1.207518458366394
1761818090593203000,9.493202880859375,0.25260329246520996,0.864587128162384,1.0519989728927612
1761818090603131600,9.503131591796874,0.13682423532009125,0.5412089824676514,0.8168957829475403
1761818090613059800,9.513059814453126,-0.009505541995167732,0.289102703332901,0.575066089630127
1761818090622987800,9.52298779296875,-0.11871938407421112,0.14177687466144562,0.3235776126384735
1761818090632916700,9.532916748046874,-0.11056584864854813,0.11236200481653214,0.08073382824659348
1761818090642844700,9.5428447265625,-0.02400151640176773,0.17248493432998657,-0.1225423589348793
1761818090652772900,9.55277294921875,0.05422963947057724,0.23489850759506226,-0.29182592034339905
1761818090662701800,9.562701904296874,0.08382720500230789,0.28085628151893616,-0.42733436822891235
1761818090672629800,9.572629638671875,0.08608397096395493,0.37177714705467224,-0.49877896904945374
1761818090682557700,9.5825576171875,0.0920761376619339,0.4988704323768616,-0.4766005277633667
1761818090692486700,9.592486572265624,0.08833013474941254,0.5829898118972778,-0.3677661716938019
1761818090702414800,9.602414794921875,0.09633241593837738,0.5785603523254395,-0.21185021102428436
1761818090712342800,9.6123427734375,0.08032149076461792,0.4379318356513977,-0.03205008804798126
1761818090722271700,9.622271728515624,0.03520854189991951,0.23337754607200623,0.1335383951663971
1761818090732200000,9.632199951171875,-0.007408426608890295,0.04548167437314987,0.26738378405570984
1761818090742127900,9.6421279296875,-0.04303080588579178,-0.08576466888189316,0.3813236653804779
1761818090752056800,9.652056884765624,-0.061120860278606415,-0.1390630453824997,0.45179808139801025
1761818090761984800,9.66198486328125,-0.04746090993285179,-0.11573977768421173,0.461279958486557
1761818090771912700,9.67191259765625,-0.02217579260468483,-0.0439409576356411,0.41524961590766907
1761818090781841700,9.681841552734374,0.007248876616358757,0.05740181356668472,0.31255844235420227
1761818090791769900,9.691769775390625,0.025159168988466263,0.11412873864173889,0.17952048778533936
1761818090801697800,9.70169775390625,0.03060338832437992,0.14179493486881256,0.02629982680082321
1761818090811626800,9.711626708984374,0.04474903643131256,0.16065119206905365,-0.10508802533149719
1761818090821555000,9.721554931640625,0.06552909314632416,0.21489977836608887,-0.2003195732831955
1761818090831484000,9.73148388671875,0.06086296960711479,0.30413803458213806,-0.25319212675094604
1761818090841411800,9.741411865234374,0.04552009329199791,0.3729841709136963,-0.26489517092704773
1761818090851339800,9.75133984375,0.05296842008829117,0.43734824657440186,-0.26079416275024414
1761818090861268700,9.761268798828125,0.05971221998333931,0.4659020006656647,-0.22952288389205933
1761818090871196700,9.77119677734375,0.057514846324920654,0.4042884409427643,-0.1600857675075531
1761818090881124600,9.78112451171875,0.03733433783054352,0.3103834390640259,-0.06790612637996674
1761818090891053600,9.791053466796875,0.01828128471970558,0.2336159646511078,0.01637147180736065
1761818090900982000,9.80098193359375,0.015732912346720695,0.14791499078273773,0.0659031793475151
1761818090910910000,9.810909912109375,0.02405875362455845,0.044930022209882736,0.09195155650377274
1761818090920839000,9.8208388671875,0.029264090582728386,-0.08003536611795425,0.08503542095422745
1761818090930766800,9.830766845703126,0.03397202864289284,-0.1939896196126938,0.06203343719244003
1761818090940694800,9.84069482421875,0.02901623211801052,-0.25696054100990295,0.02999158762395382
1761818090950623700,9.850623779296875,0.04597045108675957,-0.26958924531936646,-0.00426279054954648
1761818090960551700,9.8605517578125,0.08290296047925949,-0.24571949243545532,-0.04196760430932045
1761818090970479600,9.870479736328125,0.1073015108704567,-0.22531701624393463,-0.07242484390735626
1761818090980408800,9.880408935546875,0.12656362354755402,-0.20120905339717865,-0.10094599425792694
1761818090990336800,9.890336669921876,0.13454751670360565,-0.16439244151115417,-0.12814272940158844
1761818091000265000,9.900264892578125,0.11385975033044815,-0.10389667749404907,-0.14906497299671173
1761818091010193200,9.910193115234375,0.08483316004276276,-0.04103968292474747,-0.14965753257274628
1761818091020121000,9.92012109375,0.03905227407813072,0.005595121532678604,-0.12910163402557373
1761818091030049000,9.930049072265625,-0.018880268558859825,-0.0015450797509402037,-0.08927299827337265
1761818091039978200,9.939978271484375,-0.06973898410797119,-0.02336285635828972,-0.05112849548459053
1761818091049906200,9.94990625,-0.08671370893716812,-0.02438471093773842,-0.03163202479481697
1761818091059835100,9.959835205078125,-0.08627521246671677,-0.03166991472244263,-0.04891737923026085
1761818091069763000,9.96976318359375,-0.07755602151155472,-0.036168262362480164,-0.07796500623226166
1761818091079691300,9.979691162109376,-0.057221800088882446,-0.006608814001083374,-0.10297656059265137
1761818091089620200,9.9896201171875,-0.015583540312945843,0.05280524492263794,-0.11777681112289429
1761818091099548200,9.999548095703124,0.04895570129156113,0.1364203542470932,-0.13629725575447083
1761818091109476000,10.00947607421875,0.1027531549334526,0.22558431327342987,-0.15562115609645844
1761818091119405300,10.0194052734375,0.12307719886302948,0.26562702655792236,-0.16359791159629822
1761818091129333200,10.029333251953124,0.11086048185825348,0.24546290934085846,-0.1573440134525299
1761818091139261200,10.03926123046875,0.08777899295091629,0.20645347237586975,-0.1431453377008438
1761818091149190100,10.049190185546875,0.0649849995970726,0.16057680547237396,-0.13808293640613556
1761818091159118000,10.0591181640625,0.03613970801234245,0.13232140243053436,-0.13516190648078918
1761818091169046300,10.06904638671875,-0.005309996660798788,0.12467039376497269,-0.13563808798789978
1761818091178975200,10.078975341796875,-0.040760062634944916,0.13258014619350433,-0.1358250081539154
1761818091188903200,10.088903076171874,-0.05909326300024986,0.13717062771320343,-0.1454366147518158
1761818091198831000,10.0988310546875,-0.06745719164609909,0.1131414920091629,-0.15973562002182007
1761818091208760300,10.10876025390625,-0.06321583688259125,0.08528882265090942,-0.15514139831066132
1761818091218688300,10.118688232421874,-0.049470994621515274,0.06928665190935135,-0.13783381879329681
1761818091228616200,10.1286162109375,-0.02689884416759014,0.05137556418776512,-0.11205922067165375
1761818091238545200,10.138545166015625,-0.026978667825460434,0.04937997832894325,-0.07885699719190598
1761818091248473000,10.14847314453125,-0.04621840640902519,0.07888060808181763,-0.0756598711013794
1761818091258401300,10.1584013671875,-0.06421245634555817,0.17191602289676666,-0.11601579934358597
1761818091268330000,10.168330078125,-0.06499622017145157,0.31536373496055603,-0.18991214036941528
1761818091278258200,10.178258056640624,-0.05702398344874382,0.44069012999534607,-0.2783900201320648
1761818091288187400,10.1881875,-0.04918336868286133,0.562681257724762,-0.33907201886177063
1761818091298115300,10.198115234375,-0.04597831889986992,0.609692394733429,-0.3700530529022217
1761818091308043300,10.208043212890624,-0.04789739474654198,0.5933879613876343,-0.37043362855911255
1761818091317972200,10.21797216796875,-0.038115549832582474,0.5463799238204956,-0.34146320819854736
1761818091327900200,10.227900146484375,-0.022964559495449066,0.5346401929855347,-0.30607670545578003
1761818091337828000,10.237828125,-0.010326867923140526,0.5662628412246704,-0.30203625559806824
1761818091347757000,10.247757080078125,0.007624967955052853,0.6651161909103394,-0.34188196063041687
1761818091357685000,10.25768505859375,0.03282202035188675,0.8045453429222107,-0.41996365785598755
1761818091367613200,10.26761328125,0.05514783039689064,0.9431426525115967,-0.5175407528877258
1761818091377542100,10.277542236328125,0.06859492510557175,1.0161943435668945,-0.6052182912826538
1761818091387470300,10.28747021484375,0.0553068146109581,1.001971960067749,-0.6472978591918945
1761818091397398300,10.297398193359374,0.022925501689314842,0.9393385648727417,-0.639840304851532
1761818091407327200,10.3073271484375,-0.012761388905346394,0.8314741253852844,-0.5972321033477783
1761818091417255200,10.317255126953125,-0.050315678119659424,0.6566100716590881,-0.5312728881835938
1761818091427183000,10.32718310546875,-0.09027960896492004,0.49426931142807007,-0.4525946080684662
1761818091437112000,10.337112060546875,-0.10350147634744644,0.3875042796134949,-0.3829336166381836
1761818091447040000,10.3470400390625,-0.09472928941249847,0.3371846675872803,-0.3382878303527832
1761818091456968200,10.35696826171875,-0.07200314104557037,0.33028772473335266,-0.3276037871837616
1761818091466897200,10.366897216796875,-0.053349029272794724,0.33631259202957153,-0.32020047307014465
1761818091476825300,10.376825439453125,-0.01981009915471077,0.3323127031326294,-0.3199499249458313
1761818091486754300,10.38675439453125,0.0052875312976539135,0.3350807726383209,-0.32811999320983887
1761818091496682200,10.39668212890625,0.026936357840895653,0.32829034328460693,-0.3312225043773651
1761818091506610200,10.406610107421875,0.03182858228683472,0.28632107377052307,-0.311689555644989
1761818091516539100,10.4165390625,0.022901341319084167,0.1970510631799698,-0.26579520106315613
1761818091526467000,10.426467041015625,0.008963952772319317,0.09511057287454605,-0.19676953554153442
1761818091536395000,10.43639501953125,-0.010515686124563217,-0.011663599871098995,-0.12571875751018524
1761818091546324200,10.44632421875,-0.017235906794667244,-0.10114368051290512,-0.05024024099111557
1761818091556252200,10.456252197265625,-0.01809556968510151,-0.15487578511238098,-0.0030531748197972775
1761818091566180400,10.466180419921875,-0.02170148864388466,-0.15221555531024933,0.023050062358379364
1761818091576109000,10.476109130859374,-0.017559070140123367,-0.104141466319561,0.028778046369552612
1761818091586037200,10.486037353515625,-0.00616154121235013,-0.013799318112432957,0.00430359598249197
1761818091595965200,10.495965087890625,0.011567792855203152,0.10500570386648178,-0.042232390493154526
1761818091605894100,10.50589404296875,0.024066807702183723,0.2483372986316681,-0.08982813358306885
1761818091615822000,10.515822021484375,0.022104710340499878,0.3806435167789459,-0.10705500096082687
1761818091625750000,10.52575,-0.00023628055350854993,0.46300601959228516,-0.09020145237445831
1761818091635679200,10.53567919921875,-0.03449557349085808,0.4980323612689972,-0.027084864675998688
1761818091645607200,10.545607177734375,-0.0686548724770546,0.42091041803359985,0.06339763849973679
1761818091655535000,10.55553515625,-0.07743238657712936,0.2211807817220688,0.14446504414081573
1761818091665464000,10.565464111328126,-0.0626252144575119,-0.005739185027778149,0.18732675909996033
1761818091675392300,10.575392333984375,-0.0476057194173336,-0.20800700783729553,0.1882643848657608
1761818091685320200,10.5853203125,-0.036239612847566605,-0.30711787939071655,0.17378851771354675
1761818091695249200,10.595249267578126,-0.024318179115653038,-0.2938193082809448,0.16125105321407318
1761818091705177000,10.605177001953125,-0.010447902604937553,-0.2626936137676239,0.12360301613807678
1761818091715106300,10.615106201171875,0.0015338630182668567,-0.20284606516361237,0.068028524518013
1761818091725034200,10.6250341796875,0.008906291797757149,-0.11557374149560928,0.01596132665872574
1761818091734962200,10.634962158203125,0.01366302277892828,-0.05799456685781479,-0.021380838006734848
