time,seconds_elapsed,z,y,x
1761383370418069000,0.078069091796875,0.054631538689136505,-0.20941445231437683,-0.14239224791526794
1761383370428139000,0.088138916015625,0.04778082296252251,-0.1537429392337799,-0.15663376450538635
1761383370438209000,0.098208984375,0.03935827687382698,-0.06535818427801132,-0.1958381086587906
1761383370448278800,0.10827880859375,0.0417625792324543,0.03717964142560959,-0.2440040409564972
1761383370458348000,0.11834814453125,0.05119318142533302,0.1041344478726387,-0.2869834303855896
1761383370468417800,0.128417724609375,0.05492107570171356,0.09859587252140045,-0.2944085896015167
1761383370478488000,0.138488037109375,0.04956251010298729,0.07972712069749832,-0.2424437403678894
1761383370488556800,0.148556884765625,0.024945847690105438,0.06956928968429565,-0.15204140543937683
1761383370498627000,0.158626953125,0.002684775274246931,0.032976772636175156,-0.03998209163546562
1761383370508697000,0.168697021484375,-0.020031722262501717,0.0035656215623021126,0.08211825042963028
1761383370518766800,0.178766845703125,-0.05528775602579117,-0.010145763866603374,0.2031559944152832
1761383370528836000,0.188836181640625,-0.10645826160907745,0.033268287777900696,0.3069428503513336
1761383370538905900,0.19890576171875,-0.13634519279003143,0.03940870240330696,0.3803090453147888
1761383370548975900,0.208975830078125,-0.1431730091571808,0.02443481609225273,0.41948655247688293
1761383370559044900,0.219044921875,-0.1627473086118698,0.035351768136024475,0.43102389574050903
1761383370569115000,0.229114990234375,-0.18063442409038544,0.0728253722190857,0.4256930351257324
1761383370579185000,0.239184814453125,-0.21077027916908264,0.12095345556735992,0.41491907835006714
1761383370589254000,0.24925390625,-0.24838422238826752,0.1854030191898346,0.39575284719467163
1761383370599324000,0.259323974609375,-0.2619154155254364,0.2836760878562927,0.3767780661582947
1761383370609394000,0.269393798828125,-0.26175668835639954,0.3579860031604767,0.3779676854610443
1761383370619464000,0.2794638671875,-0.2580912411212921,0.35095474123954773,0.4003528952598572
1761383370629533000,0.289532958984375,-0.27274927496910095,0.3089175522327423,0.4499795734882355
1761383370639603000,0.29960302734375,-0.3273300528526306,0.24784474074840546,0.49746885895729065
1761383370649673000,0.3096728515625,-0.37668377161026,0.20944489538669586,0.5073936581611633
1761383370659742000,0.319741943359375,-0.4011513590812683,0.16669674217700958,0.43996918201446533
1761383370669812000,0.32981201171875,-0.3880656659603119,0.14762398600578308,0.28821268677711487
1761383370679882000,0.339882080078125,-0.36997348070144653,0.16032220423221588,0.10957341641187668
1761383370689951000,0.349950927734375,-0.35280168056488037,0.2021135836839676,-0.06900990754365921
1761383370700021000,0.36002099609375,-0.3317492604255676,0.2059437781572342,-0.21430489420890808
1761383370710090800,0.3700908203125,-0.3175942897796631,0.16371110081672668,-0.303756445646286
1761383370720161000,0.3801611328125,-0.28181037306785583,0.10023368149995804,-0.33900171518325806
1761383370730229800,0.390229736328125,-0.24667371809482574,0.030481766909360886,-0.3444681167602539
1761383370740300000,0.400300048828125,-0.19254139065742493,-0.03375774994492531,-0.34273040294647217
1761383370750370000,0.4103701171875,-0.13884221017360687,-0.09020371735095978,-0.32534903287887573
1761383370760439000,0.42043896484375,-0.08442561328411102,-0.12530940771102905,-0.2878839671611786
1761383370770509000,0.430509033203125,-0.04314901679754257,-0.13490770757198334,-0.21801595389842987
1761383370780578800,0.440578857421875,-0.012259445153176785,-0.13262219727039337,-0.11678558588027954
1761383370790648000,0.45064794921875,0.03793901205062866,-0.1794102042913437,0.005476946942508221
1761383370800717800,0.4607177734375,0.06818188726902008,-0.21240106225013733,0.10732437670230865
1761383370810787800,0.470787841796875,0.10776205360889435,-0.23783186078071594,0.19042111933231354
1761383370820858000,0.480858154296875,0.13719558715820312,-0.2794852554798126,0.28830286860466003
1761383370830926800,0.4909267578125,0.13162025809288025,-0.2665630578994751,0.39506420493125916
1761383370840996900,0.500996826171875,0.10478222370147705,-0.17822135984897614,0.4953180253505707
1761383370851067000,0.51106689453125,0.07946168631315231,-0.06327001005411148,0.5859118103981018
1761383370861136000,0.521135986328125,0.07835084944963455,0.07214775681495667,0.6404832601547241
1761383370871206100,0.5312060546875,0.10093125700950623,0.2671169638633728,0.6543292999267578
1761383370881276000,0.54127587890625,0.15307936072349548,0.538206160068512,0.5911760330200195
1761383370891345200,0.55134521484375,0.19733496010303497,0.7674700021743774,0.4675960838794708
1761383370901415000,0.561414794921875,0.22405089437961578,0.911539614200592,0.3578815758228302
1761383370911485000,0.57148486328125,0.21894961595535278,0.9950763583183289,0.24111764132976532
1761383370921555000,0.581554931640625,0.1657124161720276,1.0358760356903076,0.1300911009311676
1761383370931620600,0.59162060546875,0.0765513926744461,0.9913772940635681,0.04253488406538963
1761383370941690600,0.601690673828125,0.0176907479763031,0.8458887338638306,0.0017132707871496677
1761383370951760600,0.6117607421875,-0.008085722103714943,0.620664656162262,-0.00845521129667759
1761383370961829600,0.62182958984375,-0.02002311684191227,0.4490344226360321,-0.012107796967029572
1761383370971899400,0.6318994140625,-0.033953048288822174,0.33439546823501587,-0.029887059703469276
1761383370981969700,0.6419697265625,-0.052647024393081665,0.2412807196378708,-0.07287894189357758
1761383370992038400,0.652038330078125,-0.07394219189882278,0.13692794740200043,-0.12310456484556198
1761383371002108700,0.662108642578125,-0.09853450953960419,0.05253581330180168,-0.16320538520812988
1761383371012178700,0.6721787109375,-0.10933920741081238,0.010572651401162148,-0.1943284124135971
1761383371022248400,0.68224853515625,-0.1021159291267395,0.020381338894367218,-0.22548580169677734
1761383371032317700,0.692317626953125,-0.0739964097738266,0.024753186851739883,-0.2538452744483948
1761383371042387500,0.702387451171875,-0.03207666054368019,0.05203927680850029,-0.2925706207752228
1761383371052457500,0.71245751953125,0.01520457025617361,0.10582979768514633,-0.3345838487148285
1761383371062526500,0.7225263671875,0.052082210779190063,0.17079171538352966,-0.3700733482837677
1761383371072596500,0.732596435546875,0.07889331877231598,0.19563715159893036,-0.38846832513809204
1761383371082666800,0.742666748046875,0.08599859476089478,0.20261666178703308,-0.3892824351787567
1761383371092735500,0.752735595703125,0.08242596685886383,0.23928599059581757,-0.35838523507118225
1761383371102805500,0.762805419921875,0.04415357485413551,0.3019419312477112,-0.2888020873069763
1761383371112875500,0.77287548828125,-0.00972670316696167,0.07287784665822983,-0.22013726830482483
1761383371122945500,0.782945556640625,-0.05028291791677475,-0.0893121212720871,-0.16363270580768585
1761383371133014800,0.793014892578125,-0.091273233294487,-0.15160265564918518,-0.15613670647144318
1761383371143084500,0.80308447265625,-0.13639245927333832,-0.18298253417015076,-0.20068655908107758
1761383371153154600,0.813154541015625,-0.209193155169487,-0.17989325523376465,-0.2800396978855133
1761383371163223600,0.8232236328125,-0.2930084764957428,-0.17952203750610352,-0.3656795918941498
1761383371173293600,0.83329345703125,-0.35333147644996643,-0.16428238153457642,-0.45146745443344116
1761383371183363600,0.843363525390625,-0.37549227476119995,0.026760287582874298,-0.5552908778190613
1761383371193432600,0.8534326171875,-0.326107919216156,0.2013973444700241,-0.6746127605438232
1761383371203502600,0.863502685546875,-0.26431745290756226,0.1757885217666626,-0.773709774017334
1761383371213572600,0.873572509765625,-0.2112550437450409,-0.02305719070136547,-0.7985395193099976
1761383371223641600,0.8836416015625,-0.18464677035808563,-0.178793266415596,-0.7447801828384399
1761383371233711400,0.89371142578125,-0.19171851873397827,-0.19813048839569092,-0.6450685262680054
1761383371243781600,0.90378173828125,-0.23897910118103027,-0.0215317215770483,-0.490805983543396
1761383371253851600,0.9138515625,-0.3122328221797943,0.2487301230430603,-0.30961862206459045
1761383371263920600,0.923920654296875,-0.37361079454421997,0.48778513073921204,-0.12827946245670319
1761383371273990700,0.93399072265625,-0.3959411382675171,0.6247408390045166,0.021306827664375305
1761383371284060400,0.944060302734375,-0.45493409037590027,0.9289669990539551,0.25210028886795044
1761383371294129700,0.954129638671875,-0.5110266804695129,1.0185097455978394,0.42842498421669006
1761383371304199400,0.964199462890625,-0.574253261089325,0.8949186205863953,0.5536744594573975
1761383371314269400,0.97426953125,-0.6365070343017578,0.6647154688835144,0.6558620929718018
1761383371324338700,0.984338623046875,-0.7124918699264526,0.4358554184436798,0.7390909790992737
1761383371334408400,0.994408447265625,-0.7752399444580078,0.22212502360343933,0.8169697523117065
1761383371344478700,1.004478759765625,-0.8184385895729065,-0.06030547246336937,0.8784000873565674
1761383371354548500,1.014548583984375,-0.8358052968978882,-0.36439159512519836,0.9409859776496887
1761383371364617500,1.024617431640625,-0.8323884010314941,-0.6548689603805542,1.0105944871902466
1761383371374687700,1.034687744140625,-0.8193665742874146,-0.8627238869667053,1.0904817581176758
1761383371384757500,1.044757568359375,-0.812218189239502,-0.9884310960769653,1.1489372253417969
1761383371394826800,1.05482666015625,-0.8302869200706482,-1.0942251682281494,1.1626359224319458
1761383371404896500,1.064896484375,-0.840503454208374,-1.1343542337417603,1.1308938264846802
1761383371414966500,1.074966552734375,-0.8579372763633728,-1.1351287364959717,1.0647238492965698
1761383371425035500,1.085035400390625,-0.8803362846374512,-1.1895837783813477,0.9542766809463501
1761383371435105500,1.09510546875,-0.9239362478256226,-1.305895209312439,0.8292423486709595
1761383371445175600,1.105175537109375,-0.9794262051582336,-1.4290368556976318,0.7009739279747009
1761383371455245600,1.11524560546875,-1.0573660135269165,-1.4973315000534058,0.5623174905776978
1761383371465314600,1.125314453125,-1.1559330224990845,-1.4751636981964111,0.40411293506622314
1761383371475384600,1.135384521484375,-1.255816102027893,-1.4246118068695068,0.21323062479496002
1761383371485454600,1.14545458984375,-1.3225477933883667,-1.371815800666809,0.009885813109576702
1761383371495523300,1.1555234375,-1.336409568786621,-1.2854355573654175,-0.17116333544254303
1761383371505593600,1.165593505859375,-1.327965259552002,-1.079886555671692,-0.293335497379303
1761383371515663600,1.17566357421875,-1.3229697942733765,-0.7995418310165405,-0.35658690333366394
1761383371525732600,1.185732666015625,-1.373039960861206,-0.5191267132759094,-0.35284051299095154
1761383371535802600,1.195802734375,-1.4974538087844849,-0.33263593912124634,-0.2824142873287201
1761383371545872400,1.205872314453125,-1.65200674533844,-0.1940068155527115,-0.17032507061958313
1761383371555942700,1.215942626953125,-1.759902000427246,-0.07737873494625092,-0.043759942054748535
1761383371566011600,1.22601171875,-1.7413208484649658,-0.017983105033636093,0.06519274413585663
1761383371576081400,1.236081298828125,-1.5976239442825317,-0.06578018516302109,0.12663666903972626
1761383371586151700,1.246151611328125,-1.399599313735962,-0.2237454503774643,0.15393438935279846
1761383371596220400,1.256220458984375,-1.183797001838684,-0.4100426137447357,0.17891590297222137
1761383371606290700,1.266290771484375,-0.9860622882843018,-0.526141345500946,0.16316789388656616
1761383371616360700,1.276360595703125,-0.8039329648017883,-0.5745384097099304,0.0912550836801529
1761383371626429400,1.286429443359375,-0.6491502523422241,-0.67134690284729,-0.022271692752838135
1761383371636499700,1.296499755859375,-0.5096128582954407,-0.9037042260169983,-0.19350282847881317
1761383371646569500,1.306569580078125,-0.42860475182533264,-1.2154241800308228,-0.41382700204849243
1761383371656639500,1.316639404296875,-0.40819454193115234,-1.440749168395996,-0.6273888349533081
1761383371666708500,1.32670849609375,-0.3982531726360321,-1.3611239194869995,-0.7426585555076599
1761383371676778500,1.336778564453125,-0.38929057121276855,-1.0716947317123413,-0.7270112037658691
1761383371686848800,1.346848876953125,-0.38248005509376526,-0.7733237743377686,-0.5893265008926392
1761383371696917500,1.35691748046875,-0.3729419410228729,-0.5124183893203735,-0.3741113841533661
1761383371706987500,1.366987548828125,-0.397838830947876,-0.32501211762428284,-0.12403640896081924
1761383371717057500,1.3770576171875,-0.4406225383281708,-0.25552013516426086,0.08054336160421371
1761383371727127600,1.38712744140625,-0.49342209100723267,-0.25956493616104126,0.21713608503341675
1761383371737196800,1.39719677734375,-0.5232252478599548,-0.2431018203496933,0.3317984938621521
1761383371747266600,1.4072666015625,-0.50497967004776,-0.1195313036441803,0.4196639060974121
1761383371757336600,1.417336669921875,-0.4638367295265198,-0.11297567188739777,0.4671291410923004
1761383371767405600,1.427405517578125,-0.459178626537323,-0.1502513587474823,0.43882155418395996
1761383371777475600,1.4374755859375,-0.45199528336524963,-0.3499562442302704,0.3867841958999634
1761383371787545600,1.447545654296875,-0.37284055352211,-0.7410178780555725,0.3649570941925049
1761383371797614600,1.457614501953125,-0.23487786948680878,-1.2064484357833862,0.3751242458820343
1761383371807684600,1.4676845703125,-0.13748310506343842,-1.5032992362976074,0.39798635244369507
1761383371817754600,1.477754638671875,-0.09390873461961746,-1.620560646057129,0.4157176911830902
1761383371827823600,1.48782373046875,-0.07924328744411469,-1.6989827156066895,0.39970484375953674
1761383371837893400,1.497893310546875,-0.09566833823919296,-1.6967397928237915,0.3559102416038513
1761383371847963600,1.507963623046875,-0.1814221441745758,-1.5823715925216675,0.26192209124565125
1761383371858033700,1.51803369140625,-0.3332803547382355,-1.264526605606079,0.11607301980257034
1761383371868102700,1.5281025390625,-0.49369117617607117,-0.9059084057807922,-0.020947149023413658
1761383371878172700,1.538172607421875,-0.5291365385055542,-0.39499348402023315,-0.10075915604829788
1761383371888242400,1.548242431640625,-0.3880116045475006,0.20566599071025848,-0.08482732623815536
1761383371898311700,1.558311767578125,-0.14726664125919342,0.6614449620246887,-0.06306051462888718
1761383371908381400,1.56838134765625,0.20709925889968872,0.8590686917304993,-0.07519243657588959
1761383371918451500,1.578451416015625,0.7005854249000549,0.9757729172706604,-0.1778535693883896
1761383371928519700,1.588519775390625,1.0217366218566895,0.9409157037734985,-0.28605303168296814
1761383371938589700,1.598589599609375,1.1778119802474976,0.6037954688072205,-0.3769379258155823
1761383371948660000,1.608659912109375,1.207208275794983,0.14735956490039825,-0.42051947116851807
1761383371958729700,1.618729736328125,1.0918630361557007,-0.15217387676239014,-0.4445744752883911
1761383371968799000,1.628799072265625,0.8953830003738403,-0.20943625271320343,-0.5252082943916321
1761383371978868700,1.63886865234375,0.7603458166122437,0.005284311715513468,-0.6382653713226318
1761383371988938800,1.648938720703125,0.76285719871521,0.4343683123588562,-0.733518123626709
1761383371999007700,1.6590078125,0.8741562962532043,0.9189541339874268,-0.773122251033783
1761383372009077800,1.669077880859375,0.9648144841194153,1.2681944370269775,-0.7952807545661926
1761383372019147800,1.679147705078125,0.9681099057197571,1.3567554950714111,-0.8422034978866577
1761383372029217800,1.6892177734375,0.8590315580368042,1.2035267353057861,-0.9086536765098572
1761383372039286800,1.699286865234375,0.6902268528938293,0.8847135901451111,-0.9740196466445923
1761383372049357000,1.709357177734375,0.5547798275947571,0.5098698139190674,-0.9683650135993958
1761383372059426800,1.7194267578125,0.4859078526496887,0.14661037921905518,-0.8604359030723572
1761383372069495800,1.729495849609375,0.4599495828151703,-0.14125004410743713,-0.6801243424415588
1761383372079565800,1.73956591796875,0.43031150102615356,-0.2971338927745819,-0.4633316099643707
1761383372089635800,1.7496357421875,0.39598771929740906,-0.34416013956069946,-0.23631049692630768
1761383372099704800,1.759704833984375,0.37073642015457153,-0.3334534466266632,-0.023026974871754646
1761383372109774800,1.76977490234375,0.3754015266895294,-0.3050403892993927,0.15784189105033875
1761383372119844900,1.779844970703125,0.3805728554725647,-0.3188592791557312,0.29701468348503113
1761383372129915000,1.789914794921875,0.3589577376842499,-0.3737415671348572,0.40690261125564575
1761383372139984000,1.79998388671875,0.2967284321784973,-0.4016767740249634,0.49912869930267334
1761383372150053600,1.8100537109375,0.20896419882774353,-0.1717863827943802,0.4460020661354065
1761383372160124000,1.8201240234375,0.07826317846775055,-0.16982150077819824,0.42602917551994324
1761383372170192600,1.830192626953125,-0.06974456459283829,-0.2259523570537567,0.3923390507698059
1761383372180263000,1.840262939453125,-0.2697383463382721,-0.3630891442298889,0.2883428931236267
1761383372190333000,1.8503330078125,-0.4868859648704529,-0.6523367166519165,0.2032160609960556
1761383372200401700,1.860401611328125,-0.7263574004173279,-0.9270955920219421,0.19491232931613922
1761383372210472000,1.870471923828125,-0.9519456624984741,-1.0867944955825806,0.284138023853302
1761383372220541700,1.880541748046875,-1.1464855670928955,-1.1235765218734741,0.3987506330013275
1761383372230611700,1.89061181640625,-1.273398995399475,-1.0890271663665771,0.47224512696266174
1761383372240681000,1.900680908203125,-1.311666488647461,-0.9623384475708008,0.49223029613494873
1761383372250750700,1.910750732421875,-1.2868250608444214,-0.7683003544807434,0.44327032566070557
1761383372260821000,1.920821044921875,-1.2048306465148926,-0.5905114412307739,0.348612517118454
1761383372270889700,1.9308896484375,-1.103125810623169,-0.519540548324585,0.22066046297550201
1761383372280959700,1.940959716796875,-0.9749987721443176,-0.5944448709487915,0.11417371034622192
1761383372291030000,1.951030029296875,-0.7998910546302795,-0.79583740234375,0.09028994292020798
1761383372301098800,1.9610986328125,-0.6027745008468628,-1.0851556062698364,0.161350280046463
1761383372311169000,1.9711689453125,-0.4683348536491394,-1.4266198873519897,0.24585279822349548
1761383372321238800,1.98123876953125,-0.4795573949813843,-1.6914523839950562,0.21728560328483582
1761383372331308800,1.991308837890625,-0.5706301331520081,-1.8335169553756714,0.055518701672554016
1761383372341377800,2.001377685546875,-0.6570302248001099,-1.880776047706604,-0.20046620070934296
1761383372351447800,2.01144775390625,-0.7079456448554993,-1.8586970567703247,-0.46278247237205505
1761383372361517800,2.021517822265625,-0.7232287526130676,-1.7445827722549438,-0.6679078936576843
1761383372371586800,2.0315869140625,-0.6986613273620605,-1.4975329637527466,-0.7804340124130249
1761383372381656800,2.04165673828125,-0.6343159079551697,-1.1483877897262573,-0.8196021914482117
1761383372391726800,2.051726806640625,-0.545265793800354,-0.7959147691726685,-0.8235809803009033
1761383372401796900,2.061796875,-0.45756950974464417,-0.4862530529499054,-0.8004083037376404
1761383372411865600,2.071865478515625,-0.38279443979263306,-0.2243328094482422,-0.7497944831848145
1761383372421935900,2.081935791015625,-0.3129916489124298,-0.07835403829813004,-0.6750555038452148
1761383372432006000,2.092005859375,-0.26261764764785767,-0.040533799678087234,-0.5846850275993347
1761383372442075000,2.102074951171875,-0.2358912229537964,-0.036328136920928955,-0.4696427881717682
1761383372452145000,2.112144775390625,-0.24226044118404388,-0.04340814799070358,-0.33749303221702576
1761383372462214700,2.122214599609375,-0.2623443901538849,-0.04955126345157623,-0.195454403758049
1761383372472284000,2.132283935546875,-0.27983802556991577,-0.019503172487020493,-0.04527304321527481
1761383372482354000,2.14235400390625,-0.28800567984580994,0.0697430819272995,0.09742072969675064
1761383372492423700,2.152423583984375,-0.26584556698799133,0.20232613384723663,0.22417058050632477
1761383372502494000,2.162493896484375,-0.23247991502285004,0.32612159848213196,0.31816205382347107
1761383372512562700,2.172562744140625,-0.18546026945114136,0.46297475695610046,0.3673037886619568
1761383372522633000,2.182633056640625,-0.08262975513935089,0.4943861961364746,0.37330710887908936
1761383372532703000,2.192702880859375,0.07897453755140305,0.5529810786247253,0.3360941708087921
1761383372542771700,2.202771728515625,0.20522542297840118,0.7551711797714233,0.3108271658420563
1761383372552842000,2.212842041015625,0.35729315876960754,0.9597446918487549,0.36530134081840515
1761383372562911700,2.222911865234375,0.4877025783061981,1.2638862133026123,0.45574894547462463
1761383372572981000,2.23298095703125,0.6361982822418213,1.6458320617675781,0.5540932416915894
1761383372583050800,2.24305078125,0.783782422542572,2.0202949047088623,0.621202290058136
1761383372593120800,2.253120849609375,0.9195714592933655,2.280165195465088,0.6277532577514648
1761383372603190800,2.263190673828125,1.0186847448349,2.312882900238037,0.5701578855514526
1761383372613259800,2.273259765625,1.1042612791061401,2.062840700149536,0.5075063705444336
1761383372623329800,2.283329833984375,1.203961968421936,1.6761306524276733,0.5130598545074463
1761383372633399800,2.29339990234375,1.317219853401184,1.2549816370010376,0.5898252129554749
1761383372643468800,2.30346875,1.4096827507019043,0.7972981333732605,0.6840161681175232
1761383372653538800,2.313538818359375,1.496477723121643,0.5393608212471008,0.8049975633621216
1761383372663608800,2.32360888671875,1.5759954452514648,0.30774298310279846,0.9792261123657227
1761383372673677800,2.333677734375,1.6065030097961426,0.16609367728233337,1.199277400970459
1761383372683747800,2.343747802734375,1.568425178527832,0.061038363724946976,1.3405948877334595
1761383372693817900,2.35381787109375,1.5145183801651,-0.14037610590457916,1.3680881261825562
1761383372703887600,2.3638876953125,1.5051426887512207,-0.3864037096500397,1.323361873626709
1761383372713956900,2.373956787109375,1.5630922317504883,-0.6352593302726746,1.2600513696670532
1761383372724027000,2.38402685546875,1.7270716428756714,-0.8655924201011658,1.219868779182434
1761383372734096600,2.3940966796875,1.997143030166626,-1.027610421180725,1.233590006828308
1761383372744166000,2.404165771484375,2.2934346199035645,-1.1362953186035156,1.2967218160629272
1761383372754235600,2.414235595703125,2.5449724197387695,-1.2219345569610596,1.361974835395813
1761383372764306000,2.424305908203125,2.7047603130340576,-1.2418465614318848,1.404948115348816
1761383372774374700,2.434374755859375,2.7559263706207275,-1.1347520351409912,1.3796958923339844
1761383372784445000,2.44444482421875,2.7033865451812744,-0.891088604927063,1.2731624841690063
1761383372794515000,2.454514892578125,2.5757439136505127,-0.5154911875724792,1.1330643892288208
1761383372804584700,2.464584716796875,2.3891794681549072,-0.051203932613134384,0.9831641316413879
1761383372814654000,2.474654052734375,2.179931402206421,0.41927602887153625,0.8523309826850891
1761383372824723700,2.4847236328125,1.9715843200683594,0.8563393354415894,0.7584343552589417
1761383372834793700,2.494793701171875,1.7786563634872437,1.2593998908996582,0.6766617894172668
1761383372844862700,2.50486279296875,1.6207263469696045,1.6015721559524536,0.5898107886314392
1761383372854932700,2.5149326171875,1.5098975896835327,1.8821648359298706,0.48528072237968445
1761383372865002800,2.525002685546875,1.4325900077819824,2.033745050430298,0.3437289297580719
1761383372875072800,2.53507275390625,1.4162880182266235,1.9399828910827637,0.16228988766670227
1761383372885141800,2.545141845703125,1.4030169248580933,1.7356475591659546,0.011195444501936436
1761383372895212000,2.5552119140625,1.3872820138931274,1.4831342697143555,-0.046233758330345154
1761383372905281800,2.56528173828125,1.3342043161392212,1.2326773405075073,0.01555983442813158
1761383372915351000,2.57535107421875,1.2541611194610596,1.0006965398788452,0.159270778298378
1761383372925420800,2.5854208984375,1.1370309591293335,0.8618534207344055,0.35132887959480286
1761383372935491600,2.59549169921875,0.9963023066520691,0.8904107809066772,0.53355473279953
1761383372945560600,2.605560546875,0.8270653486251831,1.0331088304519653,0.6591718196868896
1761383372955630600,2.615630615234375,0.7173316478729248,1.1256974935531616,0.6849013566970825
1761383372965700400,2.625700439453125,0.6832841634750366,1.100482702255249,0.599844753742218
1761383372975770400,2.635770263671875,0.6862183213233948,1.0301604270935059,0.4419161081314087
1761383372985839400,2.64583935546875,0.7350380420684814,0.9327060580253601,0.2631639242172241
1761383372995909400,2.655909423828125,0.8474606275558472,0.8224896192550659,0.10271694511175156
1761383373005979600,2.665979736328125,0.9907583594322205,0.6641702651977539,-0.06794800609350204
1761383373016048400,2.67604833984375,1.1322972774505615,0.48853495717048645,-0.28221315145492554
1761383373026118400,2.686118408203125,1.256065011024475,0.35364556312561035,-0.4988863468170166
1761383373036188700,2.696188720703125,1.3219724893569946,0.2686128616333008,-0.6694151163101196
1761383373046257400,2.70625732421875,1.3302769660949707,0.30764758586883545,-0.7230626344680786
1761383373056327700,2.71632763671875,1.2819114923477173,0.48216402530670166,-0.6217743158340454
1761383373066397400,2.7263974609375,1.1842666864395142,0.7658931612968445,-0.38091108202934265
1761383373076467500,2.736467529296875,1.0509135723114014,1.0670067071914673,-0.07657589763402939
1761383373086536400,2.746536376953125,0.9229205250740051,1.2112551927566528,0.20621931552886963
1761383373096606500,2.7566064453125,0.8518084287643433,1.1012215614318848,0.3752831220626831
1761383373106676500,2.766676513671875,0.8458485007286072,0.8573830127716064,0.4128824472427368
1761383373116745500,2.776745361328125,0.8774169087409973,0.6525328159332275,0.3512193262577057
1761383373126815500,2.7868154296875,0.939082145690918,0.5269533395767212,0.20866882801055908
1761383373136885500,2.796885498046875,1.043629765510559,0.5008856654167175,0.031967464834451675
1761383373146954500,2.80695458984375,1.152741551399231,0.557276725769043,-0.14252711832523346
1761383373157024300,2.817024169921875,1.216913104057312,0.6835697889328003,-0.30013102293014526
1761383373167094500,2.827094482421875,1.2370754480361938,0.8654490113258362,-0.41618892550468445
1761383373177164500,2.83716455078125,1.2343765497207642,1.0500025749206543,-0.5002990365028381
1761383373187233500,2.847233642578125,1.2125258445739746,1.199816346168518,-0.5512506365776062
1761383373197303600,2.857303466796875,1.1892882585525513,1.2932871580123901,-0.5596364736557007
1761383373207373300,2.867373291015625,1.175916314125061,1.3387302160263062,-0.5151001811027527
1761383373217442600,2.877442626953125,1.1845816373825073,1.341196060180664,-0.4005703628063202
1761383373227512600,2.8875126953125,1.269626498222351,1.2265980243682861,-0.231421560049057
1761383373237582300,2.897582275390625,1.4447928667068481,0.910905122756958,-0.005344914272427559
1761383373247651600,2.907651611328125,1.6731473207473755,0.42337700724601746,0.27099108695983887
1761383373257721300,2.917721435546875,1.8760658502578735,-0.071036197245121,0.5826051235198975
1761383373267791600,2.92779150390625,2.048154592514038,-0.5059642195701599,0.8983071446418762
1761383373277861600,2.937861572265625,2.177708148956299,-0.8598631620407104,1.1636345386505127
1761383373287930400,2.947930419921875,2.235536813735962,-1.0407516956329346,1.327913522720337
1761383373298000600,2.958000732421875,2.2329282760620117,-0.9854879975318909,1.3466755151748657
1761383373308070400,2.9680703125,2.2241060733795166,-0.7378805875778198,1.2169063091278076
1761383373318139600,2.9781396484375,2.244509696960449,-0.4148910343647003,0.9890647530555725
1761383373328209400,2.98820947265625,2.285581588745117,-0.04405410960316658,0.7095212340354919
1761383373338279400,2.998279541015625,2.3250811100006104,0.4242714047431946,0.4284692704677582
1761383373348348400,3.008348388671875,2.3173272609710693,0.9305233955383301,0.20541247725486755
1761383373358418400,3.01841845703125,2.2741494178771973,1.310046672821045,0.05106882378458977
1761383373368488400,3.028488525390625,2.243015766143799,1.5174366235733032,-0.00445915013551712
1761383373378558500,3.038558349609375,2.247572660446167,1.734440565109253,0.06196983531117439
1761383373388627500,3.04862744140625,2.2589709758758545,1.9907357692718506,0.2108203023672104
1761383373398697500,3.058697509765625,2.215416431427002,2.209580421447754,0.3295368254184723
1761383373408767500,3.068767578125,2.1558327674865723,2.259143352508545,0.3199518322944641
1761383373418836500,3.07883642578125,2.2013602256774902,1.9133126735687256,0.241696298122406
1761383373428906500,3.088906494140625,2.2859511375427246,1.6332151889801025,0.11325124651193619
1761383373438976500,3.0989765625,2.349497079849243,1.4877307415008545,-0.12489686906337738
1761383373449045500,3.10904541015625,2.3751535415649414,1.4150394201278687,-0.3795619010925293
1761383373459115500,3.119115478515625,2.3411481380462646,1.5761010646820068,-0.6115002632141113
1761383373469185500,3.129185546875,2.307401180267334,1.8671529293060303,-0.7540254592895508
1761383373479255600,3.139255615234375,2.3439319133758545,2.1538197994232178,-0.6956915855407715
1761383373489324500,3.149324462890625,2.4746458530426025,2.3409671783447266,-0.47170722484588623
1761383373499394300,3.159394287109375,2.6575825214385986,2.4269115924835205,-0.1429196149110794
1761383373509464600,3.169464599609375,2.862035036087036,2.3786778450012207,0.19062693417072296
1761383373519533300,3.179533203125,3.0765013694763184,2.234143018722534,0.4863254725933075
1761383373529603600,3.189603515625,3.2646851539611816,2.1263487339019775,0.7911099195480347
1761383373539673600,3.199673583984375,3.432697057723999,2.0499961376190186,1.1013376712799072
1761383373549742300,3.209742431640625,3.6075620651245117,1.9003914594650269,1.3234494924545288
1761383373559812600,3.2198125,3.771171808242798,1.683431625366211,1.409518837928772
1761383373569882400,3.22988232421875,3.870335340499878,1.5324463844299316,1.3519681692123413
1761383373579952400,3.239952392578125,3.881981134414673,1.4933412075042725,1.220420479774475
1761383373590021400,3.250021484375,3.8253118991851807,1.5619120597839355,1.067566990852356
1761383373600091400,3.26009130859375,3.711181640625,1.7265862226486206,0.9073838591575623
1761383373610161700,3.27016162109375,3.5767335891723633,1.9662518501281738,0.765143871307373
1761383373620230400,3.28023046875,3.4493329524993896,2.2075064182281494,0.6199484467506409
1761383373630300400,3.290300537109375,3.31196665763855,2.3963778018951416,0.4767822325229645
1761383373640370400,3.300370361328125,3.21413254737854,2.5455057621002197,0.4153239130973816
1761383373650439400,3.310439453125,3.1754417419433594,2.6721503734588623,0.4541485607624054
1761383373660509700,3.320509765625,3.241837739944458,2.6994874477386475,0.5945973992347717
1761383373670579500,3.330579345703125,3.3540968894958496,2.6447317600250244,0.7785714864730835
1761383373680649500,3.3406494140625,3.4233107566833496,2.5344884395599365,0.9474628567695618
1761383373690718500,3.350718505859375,3.434253215789795,2.3327548503875732,1.0682798624038696
1761383373700788500,3.36078857421875,3.3839099407196045,2.048039436340332,1.1526509523391724
1761383373710858500,3.3708583984375,3.3050711154937744,1.785231590270996,1.269108533859253
1761383373720927500,3.380927490234375,3.2399840354919434,1.5193243026733398,1.4245104789733887
1761383373730997500,3.39099755859375,3.1830625534057617,1.252264142036438,1.5848469734191895
1761383373741067500,3.401067626953125,3.115971803665161,1.0245722532272339,1.7001737356185913
1761383373751136500,3.411136474609375,3.0303826332092285,0.85954350233078,1.7605690956115723
1761383373761206300,3.421206298828125,2.897928237915039,0.7307842373847961,1.7886090278625488
1761383373771276500,3.431276611328125,2.714590072631836,0.6489477157592773,1.8064942359924316
1761383373781346600,3.4413466796875,2.503981828689575,0.6247059106826782,1.8079042434692383
1761383373791415600,3.45141552734375,2.285510301589966,0.6807763576507568,1.7977800369262695
1761383373801485600,3.461485595703125,2.0587317943573,0.8526679277420044,1.7819349765777588
1761383373811555300,3.471555419921875,1.8891932964324951,1.0379258394241333,1.7343240976333618
1761383373821624600,3.48162451171875,1.7537693977355957,1.1387063264846802,1.6041488647460938
1761383373831694600,3.491694580078125,1.569492220878601,1.0363458395004272,1.3444488048553467
1761383373841764400,3.501764404296875,1.279711365699768,0.7360954880714417,1.0043846368789673
1761383373851833600,3.51183349609375,0.9314863085746765,0.42808789014816284,0.676704466342926
1761383373861903400,3.5219033203125,0.6179051995277405,0.14017237722873688,0.36897221207618713
1761383373871973600,3.5319736328125,0.4397866129875183,-0.10483390837907791,0.09137152135372162
1761383373882043600,3.542043701171875,0.4376499056816101,-0.13263948261737823,-0.09137577563524246
1761383373892112400,3.5521123046875,0.5794389843940735,0.1179964691400528,-0.18772147595882416
1761383373902182700,3.5621826171875,0.8213778138160706,0.4909108281135559,-0.28058794140815735
1761383373912252400,3.57225244140625,1.0945035219192505,0.7564186453819275,-0.5005775690078735
1761383373922321700,3.58232177734375,1.3108878135681152,0.8777385354042053,-0.9066542983055115
1761383373932394200,3.592394287109375,1.431423544883728,0.9622470140457153,-1.4554474353790283
1761383373942464300,3.60246435546875,1.4725375175476074,1.0685515403747559,-2.0736842155456543
1761383373952533200,3.612533203125,1.4474472999572754,1.1455589532852173,-2.691631555557251
1761383373962603300,3.622603271484375,1.369267463684082,1.1878843307495117,-3.193711280822754
1761383373972673500,3.632673583984375,1.2463983297348022,1.1986949443817139,-3.4786012172698975
1761383373982743300,3.642743408203125,1.0990628004074097,1.2375414371490479,-3.533493757247925
1761383373992812300,3.652812255859375,0.9524725675582886,1.325484037399292,-3.4269020557403564
1761383374002882300,3.66288232421875,0.8700580596923828,1.1927980184555054,-3.285259485244751
1761383374012952300,3.672952392578125,0.9570497274398804,0.691383957862854,-3.057680130004883
1761383374023021300,3.683021240234375,1.1979234218597412,-0.0760723426938057,-2.5645580291748047
1761383374033091300,3.69309130859375,1.544838547706604,-0.8791366219520569,-1.772796869277954
1761383374043161300,3.703161376953125,1.8465206623077393,-1.4703021049499512,-0.8739068508148193
1761383374053230300,3.713230224609375,1.863576889038086,-1.7518898248672485,-0.12203312665224075
1761383374063300400,3.72330029296875,1.569342851638794,-1.6071053743362427,0.3775593340396881
1761383374073370000,3.7333701171875,1.1747630834579468,-1.441886305809021,0.40840965509414673
1761383374083440400,3.7434404296875,0.7883450984954834,-1.1862602233886719,0.06734293699264526
1761383374093509400,3.75350927734375,0.5276656150817871,-0.7246730923652649,-0.40986117720603943
1761383374103579400,3.763579345703125,0.42477867007255554,-0.22185033559799194,-0.8742431402206421
1761383374113649400,3.7736494140625,0.4667668640613556,0.25827738642692566,-1.1861330270767212
1761383374123718100,3.78371826171875,0.5889672636985779,0.5984824299812317,-1.2896711826324463
1761383374133788400,3.793788330078125,0.7299012541770935,0.8162344098091125,-1.1566486358642578
1761383374143858400,3.8038583984375,0.8618446588516235,0.9033997654914856,-0.8461145758628845
1761383374153927400,3.813927490234375,1.0573811531066895,0.8969144821166992,-0.4429601728916168
1761383374163997400,3.82399755859375,1.111661434173584,0.9648863077163696,0.061065804213285446
1761383374174067200,3.834067138671875,1.0946904420852661,1.2633460760116577,0.6157087683677673
1761383374184136400,3.844136474609375,1.0317020416259766,1.4832483530044556,1.22139310836792
1761383374194206200,3.854206298828125,0.968012273311615,1.3914715051651,1.7106860876083374
1761383374204276200,3.864276123046875,0.8656761646270752,1.190447211265564,2.019782781600952
1761383374214346500,3.874346435546875,0.7266693115234375,1.025968074798584,2.095655679702759
1761383374224415200,3.884415283203125,0.5992586016654968,0.8383170962333679,2.033029794692993
1761383374234485500,3.894485595703125,0.5379398465156555,0.7010819911956787,1.9401841163635254
1761383374244555300,3.90455517578125,0.5686545372009277,0.7665150165557861,1.9009023904800415
1761383374254624300,3.914624267578125,0.6992759108543396,1.031096339225769,1.8923418521881104
1761383374264694300,3.9246943359375,0.903923511505127,1.3255122900009155,1.793041706085205
1761383374274764300,3.934764404296875,1.1238003969192505,1.5402600765228271,1.5403281450271606
1761383374284833500,3.94483349609375,1.3102898597717285,1.6817302703857422,1.1618902683258057
1761383374294903300,3.9549033203125,1.3796579837799072,1.686735987663269,0.6358576416969299
1761383374304973300,3.964973388671875,1.3032537698745728,1.571979284286499,-0.058747947216033936
1761383374315043300,3.975043212890625,1.0582327842712402,1.4019769430160522,-0.8395766615867615
1761383374325112300,3.9851123046875,0.6711965203285217,1.172669768333435,-1.5583943128585815
1761383374335182300,3.995182373046875,0.305393785238266,0.9066359400749207,-2.0430686473846436
1761383374345252400,4.00525244140625,0.16576240956783295,0.877159595489502,-2.0645902156829834
1761383374355321300,4.0153212890625,0.26801395416259766,1.0466388463974,-1.656856656074524
1761383374365391400,4.025391357421875,0.5190019607543945,1.117646336555481,-1.0407016277313232
1761383374375461400,4.03546142578125,0.7677300572395325,0.8497989177703857,-0.4502018690109253
1761383374385530000,4.045530029296875,0.914475679397583,0.2900943160057068,-0.041768062859773636
1761383374395600400,4.055600341796875,0.9570434093475342,-0.23848402500152588,0.11579333245754242
1761383374405670400,4.06567041015625,0.9965087175369263,-0.5156620740890503,0.15263716876506805
1761383374415740200,4.075740234375,1.1343004703521729,-0.6129579544067383,0.24226026237010956
1761383374425809400,4.085809326171875,1.2995634078979492,-0.562227189540863,0.34321802854537964
1761383374435879200,4.095879150390625,1.3969736099243164,-0.42088204622268677,0.3336855173110962
1761383374445949400,4.105949462890625,1.3737109899520874,-0.22222468256950378,0.1730945110321045
1761383374456018200,4.11601806640625,1.2472267150878906,-0.04230951517820358,-0.06967099756002426
1761383374466088200,4.126088134765625,1.0984922647476196,0.11031951755285263,-0.2931877672672272
1761383374476158500,4.136158447265625,0.9666367769241333,0.32968834042549133,-0.3896416127681732
1761383374486227200,4.146227294921875,0.886289119720459,0.5502581000328064,-0.34422895312309265
1761383374496297500,4.15629736328125,0.8646078109741211,0.6609894633293152,-0.22433717548847198
1761383374506367200,4.1663671875,0.8492572903633118,0.6442433595657349,-0.09625840932130814
1761383374516436200,4.176436279296875,0.8030376434326172,0.585440456867218,0.02869044616818428
1761383374526506500,4.186506591796875,0.7214756608009338,0.5243949890136719,0.15636521577835083
1761383374536576300,4.196576171875,0.5969099998474121,0.5139197111129761,0.28996989130973816
1761383374546646300,4.206646240234375,0.44759801030158997,0.5265117883682251,0.41800954937934875
1761383374556715300,4.21671533203125,0.2879447042942047,0.5460439324378967,0.5076918005943298
1761383374566785300,4.226785400390625,0.11623171716928482,0.5416942834854126,0.5515021681785583
1761383374576855300,4.236855224609375,-0.056736599653959274,0.508198082447052,0.5643002390861511
1761383374586924300,4.24692431640625,-0.220523402094841,0.45928630232810974,0.5694756507873535
1761383374596994300,4.256994384765625,-0.37133288383483887,0.43571120500564575,0.5700021982192993
1761383374607064300,4.267064208984375,-0.5141299962997437,0.4322313964366913,0.5713651776313782
1761383374617133300,4.27713330078125,-0.6274512410163879,0.416704386472702,0.5603599548339844
1761383374627203300,4.287203369140625,-0.6837966442108154,0.36080166697502136,0.5635638236999512
1761383374637273300,4.2972734375,-0.6857380867004395,0.23276780545711517,0.595845639705658
1761383374647342000,4.307342041015625,-0.657037615776062,0.13430717587471008,0.6774578094482422
1761383374657412400,4.317412353515625,-0.6147559285163879,0.15014418959617615,0.7624627351760864
1761383374667482400,4.327482421875,-0.5881993174552917,0.24129684269428253,0.7853817343711853
1761383374677552000,4.33755224609375,-0.6498094201087952,0.30936646461486816,0.6633144021034241
1761383374687621400,4.347621337890625,-0.8690178990364075,0.17873653769493103,0.3321633040904999
1761383374697691100,4.357691162109375,-1.1831151247024536,-0.23577143251895905,-0.13718581199645996
1761383374707761400,4.367761474609375,-1.434775948524475,-0.7482160925865173,-0.5538274049758911
1761383374717830400,4.377830322265625,-1.5353353023529053,-1.1390019655227661,-0.7708579897880554
1761383374727900200,4.387900146484375,-1.5011082887649536,-1.5554133653640747,-0.8176715970039368
1761383374737970400,4.397970458984375,-1.3851779699325562,-2.0836093425750732,-0.7535679936408997
1761383374748039200,4.4080390625,-1.275992751121521,-2.5245230197906494,-0.5987013578414917
1761383374758109400,4.418109375,-1.2018994092941284,-2.7450037002563477,-0.3714490234851837
1761383374768179500,4.428179443359375,-1.1110270023345947,-2.768612861633301,-0.09986849129199982
1761383374778249200,4.438249267578125,-1.0674244165420532,-2.5460774898529053,0.13271760940551758
1761383374788318500,4.448318359375,-1.098039984703064,-2.2463762760162354,0.20522819459438324
1761383374798388200,4.45838818359375,-1.1368571519851685,-2.1441497802734375,-0.006654758006334305
1761383374808458200,4.468458251953125,-1.2210742235183716,-2.2089641094207764,-0.4954862594604492
1761383374818527200,4.47852734375,-1.2783677577972412,-2.2665772438049316,-1.08209228515625
1761383374828597200,4.48859716796875,-1.2585556507110596,-2.2624051570892334,-1.6285632848739624
1761383374838667500,4.49866748046875,-1.2441420555114746,-2.295513153076172,-2.0986814498901367
1761383374848736300,4.508736328125,-1.299781084060669,-2.3809783458709717,-2.4506118297576904
1761383374858806300,4.51880615234375,-1.4269592761993408,-2.4276325702667236,-2.619809150695801
1761383374868876300,4.528876220703125,-1.556132197380066,-2.381168842315674,-2.559939384460449
1761383374878945300,4.5389453125,-1.6362411975860596,-2.275036096572876,-2.3465747833251953
1761383374889015600,4.549015625,-1.697807788848877,-1.9274264574050903,-1.9914543628692627
1761383374899085300,4.559085205078125,-1.7236084938049316,-1.3080073595046997,-1.46929931640625
1761383374909155300,4.5691552734375,-1.6725319623947144,-0.6158698201179504,-0.8412889838218689
1761383374919224300,4.579224365234375,-1.4991655349731445,-0.05252040922641754,-0.22619542479515076
1761383374929294300,4.58929443359375,-1.2310969829559326,0.27766579389572144,0.22300027310848236
1761383374939361000,4.599361083984375,-0.9964141249656677,0.43604424595832825,0.46912136673927307
1761383374949430300,4.60943017578125,-0.8284492492675781,0.5564820766448975,0.5464887022972107
1761383374959500000,4.6195,-0.7393965721130371,0.6785608530044556,0.49103212356567383
1761383374969570000,4.629570068359375,-0.7365840673446655,0.786605179309845,0.38231557607650757
1761383374979639300,4.639639404296875,-0.7931746244430542,0.8772805333137512,0.252646803855896
1761383374989709000,4.649708984375,-0.8707525134086609,0.9365558624267578,0.153932586312294
1761383374999779300,4.659779296875,-0.9476949572563171,0.9505390524864197,0.09345538914203644
1761383375009848000,4.66984814453125,-0.9840092658996582,0.8954622745513916,0.08733789622783661
1761383375019918000,4.67991796875,-0.9805207848548889,0.763024091720581,0.1788313239812851
1761383375029988400,4.68998828125,-0.991830050945282,0.5939295887947083,0.34542855620384216
1761383375040057000,4.70005712890625,-1.0561672449111938,0.3972359895706177,0.5487606525421143
1761383375050127400,4.71012744140625,-1.161399006843567,0.15581272542476654,0.725328803062439
1761383375060197000,4.720197021484375,-1.2072757482528687,-0.11576739698648453,0.8779934644699097
1761383375070267100,4.73026708984375,-1.1297105550765991,-0.30652308464050293,1.0907797813415527
1761383375080336100,4.740336181640625,-0.8823732137680054,-0.23298121988773346,1.3987113237380981
1761383375090406100,4.75040625,-0.4551704525947571,-0.03533061966300011,1.6983447074890137
1761383375100476200,4.76047607421875,0.06525144726037979,0.07271063327789307,1.8057875633239746
1761383375110545200,4.770545166015625,0.5659366846084595,0.056034352630376816,1.6536132097244263
1761383375120615200,4.780615234375,1.0137158632278442,0.03603854030370712,1.2898437976837158
1761383375130685200,4.790685302734375,1.376151442527771,0.19281786680221558,0.8147302865982056
1761383375140754200,4.800754150390625,1.5374701023101807,0.49723318219184875,0.34463146328926086
1761383375150824200,4.81082421875,1.4974297285079956,0.9544141888618469,-0.0167049840092659
1761383375160894200,4.820894287109375,1.4223932027816772,1.4510400295257568,-0.19557859003543854
1761383375170963200,4.830963134765625,1.4723708629608154,1.91714346408844,-0.21593141555786133
1761383375181033200,4.841033203125,1.6456209421157837,2.1799001693725586,-0.19042658805847168
1761383375191103200,4.851103271484375,1.8806711435317993,2.0785176753997803,-0.15768107771873474
1761383375201173200,4.86117333984375,2.098120927810669,1.7094448804855347,-0.05964745581150055
1761383375211242200,4.8712421875,2.235715627670288,1.2710669040679932,0.13570468127727509
1761383375221312300,4.881312255859375,2.267904758453369,0.9728190302848816,0.3418906033039093
1761383375231382000,4.891382080078125,2.208881139755249,0.8499767184257507,0.5051537752151489
1761383375241451300,4.901451171875,2.100972890853882,0.8207021951675415,0.6090703010559082
1761383375251521000,4.91152099609375,1.9479793310165405,0.8158429265022278,0.6442939639091492
1761383375261591300,4.92159130859375,1.7246514558792114,0.8878787755966187,0.6074435710906982
1761383375271660000,4.931659912109375,1.4812006950378418,1.0005924701690674,0.5219534039497375
1761383375281730000,4.94172998046875,1.2632981538772583,1.0536476373672485,0.3812415301799774
1761383375291800300,4.95180029296875,1.1018645763397217,1.0239107608795166,0.21053019165992737
1761383375301869000,4.961869140625,1.0163103342056274,1.0000886917114258,0.020377561450004578
1761383375311939300,4.971939208984375,0.9995129704475403,1.0256110429763794,-0.16684618592262268
1761383375322009000,4.982009033203125,1.0502774715423584,1.1020076274871826,-0.3436489403247833
1761383375332079000,4.9920791015625,1.1215310096740723,1.227624535560608,-0.46652883291244507
1761383375342148400,5.0021484375,1.1548264026641846,1.3998231887817383,-0.5000569224357605
1761383375352218000,5.012218017578125,1.123455286026001,1.5444035530090332,-0.4481709897518158
1761383375362288000,5.0222880859375,1.0342180728912354,1.5892665386199951,-0.2984677851200104
1761383375372357000,5.032357177734375,0.9110426306724548,1.5702111721038818,-0.042582184076309204
1761383375382427100,5.04242724609375,0.7649708986282349,1.5074883699417114,0.287541925907135
1761383375392497400,5.052497314453125,0.6023181676864624,1.4303675889968872,0.6520699858665466
1761383375402566100,5.062566162109375,0.4276145398616791,1.3128763437271118,0.9799022078514099
1761383375412636200,5.07263623046875,0.22004364430904388,1.1367990970611572,1.2143058776855469
1761383375422706200,5.0827060546875,-0.02078307420015335,0.9239569306373596,1.3321901559829712
1761383375432775200,5.092775146484375,-0.2843240797519684,0.700971245765686,1.3549870252609253
1761383375442845200,5.10284521484375,-0.5386229157447815,0.5101208686828613,1.285357117652893
1761383375452915200,5.112915283203125,-0.7857599854469299,0.3806373178958893,1.1638563871383667
1761383375462985200,5.122985107421875,-0.9959774017333984,0.3119314908981323,1.051896572113037
1761383375473054200,5.13305419921875,-1.1228259801864624,0.2054937183856964,0.9997817873954773
1761383375483124200,5.143124267578125,-1.1386682987213135,0.08096136897802353,1.0349819660186768
1761383375493194000,5.153194091796875,-1.0496516227722168,-0.062012381851673126,1.1410094499588013
1761383375503263200,5.16326318359375,-0.9255507588386536,-0.2719174027442932,1.2436269521713257
1761383375513333000,5.1733330078125,-0.835433304309845,-0.5550522208213806,1.2519643306732178
1761383375523403300,5.1834033203125,-0.8225122094154358,-0.8675253987312317,1.1190868616104126
1761383375533472300,5.19347216796875,-0.9592723250389099,-1.124070644378662,0.8235413432121277
1761383375543542300,5.203542236328125,-1.3091381788253784,-1.2457683086395264,0.42121759057044983
1761383375553612300,5.2136123046875,-1.74443519115448,-1.3105158805847168,-0.012887027114629745
1761383375563681000,5.223680908203125,-1.9162551164627075,-1.2049822807312012,-0.40631288290023804
1761383375573751300,5.233751220703125,-1.709526538848877,-1.1020970344543457,-0.6321578025817871
1761383375583821300,5.2438212890625,-1.1127073764801025,-0.9677272439002991,-0.4441644549369812
1761383375593891000,5.25389111328125,-0.2812020182609558,-0.841001033782959,0.12554094195365906
1761383375603960300,5.263960205078125,0.4501246511936188,-1.0285354852676392,0.7702752351760864
1761383375614030000,5.274030029296875,0.8277714252471924,-1.2704116106033325,1.2665205001831055
1761383375624100000,5.28410009765625,0.6473070979118347,-1.4445589780807495,1.24497652053833
1761383375634169000,5.294169189453125,0.189827561378479,-1.7146837711334229,0.7923758625984192
1761383375644239000,5.304239013671875,-0.2622956931591034,-2.01094126701355,0.10264032334089279
1761383375654309400,5.314309326171875,-0.6312412619590759,-2.2447664737701416,-0.6931392550468445
1761383375664378000,5.324378173828125,-0.9005981683731079,-2.4068896770477295,-1.4694246053695679
1761383375674448100,5.3344482421875,-1.1044516563415527,-2.4974842071533203,-2.115697145462036
1761383375684518100,5.34451806640625,-1.2274385690689087,-2.5080032348632812,-2.5558502674102783
1761383375694587100,5.354587158203125,-1.275328516960144,-2.364898920059204,-2.7147908210754395
1761383375704657200,5.3646572265625,-1.18984055519104,-2.0357680320739746,-2.6048221588134766
1761383375714727200,5.37472705078125,-1.0556432008743286,-1.4688146114349365,-2.308915615081787
1761383375724796400,5.38479638671875,-0.9125317931175232,-0.7790593504905701,-1.9122138023376465
1761383375734866200,5.3948662109375,-0.7370846271514893,-0.16190706193447113,-1.5153663158416748
1761383375744936200,5.404936279296875,-0.5589665770530701,0.30344676971435547,-1.211547613143921
1761383375755006000,5.415005859375,-0.4811522662639618,0.7668712735176086,-1.0204644203186035
1761383375765075200,5.4250751953125,-0.5258283615112305,1.3054836988449097,-0.8922925591468811
1761383375775145200,5.435145263671875,-0.681442141532898,1.8460644483566284,-0.7878636717796326
1761383375785215200,5.44521533203125,-0.9252630472183228,2.212451457977295,-0.7142762541770935
1761383375795284200,5.4552841796875,-1.2205705642700195,2.2743194103240967,-0.6620042324066162
1761383375805354200,5.465354248046875,-1.5363434553146362,1.9848748445510864,-0.5850481986999512
1761383375815424300,5.47542431640625,-1.8211684226989746,1.5324071645736694,-0.4263552725315094
1761383375825496300,5.485496337890625,-2.0019023418426514,1.0200355052947998,-0.13636843860149384
1761383375835565000,5.49556494140625,-2.056095600128174,0.5341441631317139,0.21338263154029846
1761383375845635000,5.505635009765625,-2.0141453742980957,0.13433682918548584,0.5175998210906982
1761383375855705300,5.515705322265625,-1.864840030670166,-0.211819589138031,0.8089324831962585
1761383375865774000,5.525774169921875,-1.6475156545639038,-0.5290595889091492,1.0661650896072388
1761383375875844400,5.53584423828125,-1.423195481300354,-0.7173010110855103,1.2557933330535889
1761383375885914000,5.5459140625,-1.206940770149231,-0.669803261756897,1.4458580017089844
1761383375895983000,5.555983154296875,-0.9891321063041687,-0.4015354812145233,1.6431536674499512
1761383375906053400,5.566053466796875,-0.7592355012893677,-0.0814213901758194,1.7953344583511353
1761383375916123100,5.576123046875,-0.5305149555206299,0.16098472476005554,1.8792893886566162
1761383375926192400,5.5861923828125,-0.31126782298088074,0.18098986148834229,1.8452962636947632
1761383375936262100,5.59626220703125,-0.10129392892122269,-0.15250657498836517,1.592637300491333
1761383375946332000,5.606331787109375,0.08864085376262665,-0.5704846978187561,1.1646937131881714
1761383375956401200,5.616401123046875,0.2917413115501404,-0.7789227962493896,0.6888613700866699
1761383375966471000,5.626470947265625,0.49522867798805237,-0.8446693420410156,0.21772871911525726
1761383375976541000,5.636541015625,0.654532790184021,-0.8348416686058044,-0.13146263360977173
1761383375986610200,5.646610107421875,0.7553238868713379,-0.6730343699455261,-0.2248695343732834
1761383375996680000,5.656679931640625,0.827430784702301,-0.42632806301116943,-0.05994413048028946
1761383376006750200,5.666750244140625,0.8746798038482666,-0.17771852016448975,0.23777571320533752
1761383376016820000,5.676820068359375,0.9150981307029724,0.04440564662218094,0.5079736709594727
1761383376026889000,5.686888916015625,0.9972289800643921,0.18989945948123932,0.63243567943573
1761383376036959200,5.696959228515625,1.1004128456115723,0.34023264050483704,0.5639857053756714
1761383376047029000,5.707029052734375,1.174026370048523,0.5276051759719849,0.3478677272796631
1761383376057098200,5.71709814453125,1.2215174436569214,0.7416574954986572,0.10604932904243469
1761383376067168000,5.72716796875,1.237438678741455,0.9646362066268921,-0.05850499868392944
1761383376077238000,5.737238037109375,1.1985822916030884,1.1610819101333618,-0.1396469920873642
1761383376087307000,5.74730712890625,1.107450246810913,1.2927722930908203,-0.20300652086734772
1761383376097377000,5.757376953125,0.9725883603096008,1.375578761100769,-0.27555587887763977
1761383376107447000,5.767447021484375,0.826576292514801,1.3938045501708984,-0.3690069913864136
1761383376117516000,5.77751611328125,0.6838310360908508,1.3840522766113281,-0.4555616080760956
1761383376127586000,5.7875859375,0.552839457988739,1.3741471767425537,-0.5251164436340332
1761383376137656000,5.797656005859375,0.43828627467155457,1.357031226158142,-0.553494930267334
1761383376147725000,5.80772509765625,0.367715448141098,1.3116650581359863,-0.5313089489936829
1761383376157795000,5.817795166015625,0.34087491035461426,1.224318027496338,-0.4699581265449524
1761383376167865000,5.827864990234375,0.34071698784828186,1.0961552858352661,-0.3947429955005646
1761383376177935000,5.83793505859375,0.3466919958591461,0.9315729141235352,-0.3046398460865021
1761383376188004000,5.848004150390625,0.32597261667251587,0.7747257351875305,-0.20107856392860413
1761383376198074000,5.85807421875,0.27021366357803345,0.6203194856643677,-0.0780063346028328
1761383376208144000,5.868143798828125,0.16229546070098877,0.42019549012184143,0.03841695189476013
1761383376218213000,5.878213134765625,-0.015592490322887897,0.17472052574157715,0.14158649742603302
1761383376228283100,5.888283203125,-0.2526037096977234,-0.002800467424094677,0.2856326103210449
1761383376238353000,5.898352783203125,-0.519906759262085,-0.07932531833648682,0.47020477056503296
1761383376248422100,5.908422119140625,-0.8085960745811462,-0.102269247174263,0.6783598065376282
1761383376258492000,5.918491943359375,-1.0461152791976929,-0.14235879480838776,0.8882042765617371
1761383376268562200,5.928562255859375,-1.2005549669265747,-0.19669073820114136,1.0727589130401611
1761383376278631000,5.938630859375,-1.283095121383667,-0.24288147687911987,1.2475299835205078
1761383376288701200,5.948701171875,-1.3054007291793823,-0.26199471950531006,1.408556342124939
1761383376298771200,5.958771240234375,-1.2845427989959717,-0.20617727935314178,1.5589721202850342
1761383376308840000,5.96883984375,-1.2253388166427612,-0.0815272256731987,1.6798430681228638
1761383376318910200,5.97891015625,-1.1573177576065063,0.06894375383853912,1.7135769128799438
1761383376328980000,5.98897998046875,-1.1557995080947876,0.09413432329893112,1.6025546789169312
1761383376339050000,5.999050048828125,-1.2580580711364746,-0.1308002471923828,1.350897192955017
1761383376349119200,6.009119140625,-1.423377513885498,-0.5472384691238403,1.0446499586105347
1761383376359189000,6.01918896484375,-1.5815391540527344,-0.9803754687309265,0.7913864254951477
1761383376369259000,6.029259033203125,-1.7004538774490356,-1.37887704372406,0.6202636957168579
1761383376379328000,6.039327880859375,-1.7255371809005737,-1.7206981182098389,0.5633944869041443
1761383376389398000,6.04939794921875,-1.6245554685592651,-2.0423882007598877,0.6103169918060303
1761383376399468300,6.05946826171875,-1.3559678792953491,-2.285280704498291,0.7599447965621948
1761383376409537000,6.069537109375,-1.0169357061386108,-2.402153491973877,0.9857028126716614
1761383376419607000,6.07960693359375,-0.7469647526741028,-2.299795627593994,1.3091799020767212
1761383376429677000,6.089677001953125,-0.6082936525344849,-2.0302278995513916,1.6395833492279053
1761383376439746000,6.09974609375,-0.6082388758659363,-1.8785216808319092,1.7586085796356201
1761383376449816000,6.109816162109375,-0.7047587633132935,-1.8993773460388184,1.5839656591415405
1761383376459886000,6.119885986328125,-0.8229243755340576,-1.9461030960083008,1.1833062171936035
1761383376469955000,6.129955078125,-0.8943485021591187,-1.9255356788635254,0.6557014584541321
1761383376480025000,6.140025146484375,-0.8909295201301575,-1.8786203861236572,0.10295234620571136
1761383376490095000,6.15009521484375,-0.8613429069519043,-1.7653406858444214,-0.40190818905830383
1761383376500164000,6.1601640625,-0.8265464305877686,-1.5839248895645142,-0.8227378129959106
1761383376510234000,6.170234130859375,-0.8032608032226562,-1.3905683755874634,-1.179022192955017
1761383376520303900,6.180303955078125,-0.7945292592048645,-1.2172876596450806,-1.471617579460144
1761383376530374100,6.1903740234375,-0.8308577537536621,-1.0650320053100586,-1.6753251552581787
1761383376540443100,6.200443115234375,-0.9281904697418213,-0.9399195909500122,-1.751165747642517
1761383376550513200,6.21051318359375,-1.0654703378677368,-0.8728289604187012,-1.6734768152236938
1761383376560583200,6.220583251953125,-1.2251293659210205,-0.8726718425750732,-1.4713363647460938
1761383376570652000,6.23065185546875,-1.384325623512268,-0.8440508842468262,-1.1728386878967285
1761383376580722200,6.24072216796875,-1.5392783880233765,-0.6600042581558228,-0.8203686475753784
1761383376590792200,6.250792236328125,-1.650043249130249,-0.7168946862220764,-0.5062533020973206
1761383376600861200,6.260861083984375,-1.7498952150344849,-0.7613539695739746,-0.24143172800540924
1761383376610931200,6.27093115234375,-1.8375054597854614,-0.6496722102165222,-0.038326021283864975
1761383376621001000,6.2810009765625,-1.8919854164123535,-0.5273999571800232,0.07327747344970703
1761383376631070200,6.2910703125,-1.89509916305542,-0.4547715187072754,0.10872707515954971
1761383376641140000,6.301139892578125,-1.8496302366256714,-0.3802223205566406,0.11755891144275665
1761383376651210000,6.3112099609375,-1.7713799476623535,-0.3002049922943115,0.11883138120174408
1761383376661279000,6.321279052734375,-1.6762449741363525,-0.24804803729057312,0.11242019385099411
1761383376671349000,6.331348876953125,-1.5962276458740234,-0.26592209935188293,0.08752469718456268
1761383376681419000,6.3414189453125,-1.5491023063659668,-0.25548121333122253,0.05156828463077545
1761383376691488000,6.351488037109375,-1.50327467918396,-0.1377340853214264,0.04928595572710037
1761383376701558000,6.36155810546875,-1.435978651046753,0.03361789882183075,0.10484951734542847
1761383376711628000,6.3716279296875,-1.3615036010742188,0.1152041032910347,0.19494585692882538
1761383376721698000,6.381697998046875,-1.304992437362671,0.04501231387257576,0.30351582169532776
1761383376731767300,6.391767333984375,-1.281651496887207,-0.12065814435482025,0.3977043926715851
1761383376741837000,6.401837158203125,-1.2816475629806519,-0.3648616075515747,0.47658658027648926
1761383376751907000,6.411906982421875,-1.291190266609192,-0.6670897006988525,0.539580225944519
1761383376761976000,6.42197607421875,-1.296401023864746,-0.9876085519790649,0.5989933609962463
1761383376772046000,6.432046142578125,-1.3148623704910278,-1.2778435945510864,0.672770619392395
1761383376782116000,6.4421162109375,-1.371469259262085,-1.4901372194290161,0.7540479302406311
1761383376792185000,6.45218505859375,-1.4594957828521729,-1.6150072813034058,0.827961266040802
1761383376802255000,6.462255126953125,-1.5479463338851929,-1.637166142463684,0.8438495397567749
1761383376812325000,6.4723251953125,-1.621669054031372,-1.5927175283432007,0.755445659160614
1761383376822394000,6.48239404296875,-1.681638479232788,-1.5677481889724731,0.5341550707817078
1761383376832464000,6.4924638671875,-1.7493432760238647,-1.5926202535629272,0.1805565357208252
1761383376842534100,6.5025341796875,-1.8319268226623535,-1.6460964679718018,-0.24672630429267883
1761383376852603000,6.512602783203125,-1.8855903148651123,-1.6316062211990356,-0.6547156572341919
1761383376862673200,6.522673095703125,-1.8827133178710938,-1.4979984760284424,-0.9626631736755371
1761383376872743200,6.5327431640625,-1.8366832733154297,-1.25996732711792,-1.1342599391937256
1761383376882812000,6.54281201171875,-1.797165036201477,-0.9833470582962036,-1.1949340105056763
1761383376892882200,6.552882080078125,-1.7783747911453247,-0.707155168056488,-1.172913908958435
1761383376902952000,6.562951904296875,-1.7575254440307617,-0.5007851123809814,-1.0827664136886597
1761383376913022000,6.57302197265625,-1.7222845554351807,-0.3586529791355133,-0.9319289326667786
1761383376923091200,6.58309130859375,-1.7027727365493774,-0.18890409171581268,-0.7087016701698303
1761383376933162000,6.593161865234375,-1.739930272102356,0.012288139201700687,-0.45799991488456726
1761383376943232000,6.60323193359375,-1.863287329673767,0.155931755900383,-0.25208160281181335
1761383376953301000,6.613301025390625,-2.058802366256714,0.20464949309825897,-0.1148609071969986
1761383376963371000,6.62337109375,-2.26029372215271,0.16014429926872253,-0.007501887623220682
1761383376973441000,6.63344091796875,-2.4607796669006348,0.002276115119457245,0.08620916306972504
1761383376983510000,6.643510009765625,-2.704408884048462,-0.07338075339794159,0.21470916271209717
1761383376993580000,6.653580078125,-2.789795160293579,-0.22918179631233215,0.4057773947715759
1761383377003650000,6.663650146484375,-2.7877869606018066,-0.5661785006523132,0.5241112112998962
1761383377013719000,6.673718994140625,-2.7255585193634033,-1.0048342943191528,0.5494871735572815
1761383377023789000,6.6837890625,-2.6381406784057617,-1.3043054342269897,0.5335135459899902
1761383377033859000,6.693859130859375,-2.554849624633789,-1.3232508897781372,0.5428153872489929
1761383377043928000,6.703927978515625,-2.4902381896972656,-1.1784557104110718,0.5532081127166748
1761383377053998000,6.713998046875,-2.4368479251861572,-1.0172673463821411,0.5569842457771301
1761383377064068000,6.724068115234375,-2.408358335494995,-0.908959686756134,0.5439485907554626
1761383377074137000,6.73413720703125,-2.4113404750823975,-0.8398178815841675,0.5148373246192932
1761383377084207000,6.74420703125,-2.3949503898620605,-0.6399019956588745,0.5499521493911743
1761383377094277000,6.754277099609375,-2.3593835830688477,-0.44764888286590576,0.6157005429267883
1761383377104346000,6.76434619140625,-2.409357786178589,-0.7608960866928101,0.46358105540275574
1761383377114416000,6.774416015625,-2.581097364425659,-1.768333077430725,-0.028657682240009308
1761383377124486000,6.78448583984375,-2.7858328819274902,-2.7910780906677246,-0.6255396008491516
1761383377134556200,6.79455615234375,-2.8798904418945312,-3.4382169246673584,-1.0777409076690674
1761383377144625200,6.804625244140625,-2.8107826709747314,-3.617737054824829,-1.300194501876831
1761383377154695000,6.81469482421875,-2.6286144256591797,-3.185767412185669,-1.2083090543746948
1761383377164765200,6.82476513671875,-2.457345962524414,-2.3664817810058594,-0.8579755425453186
1761383377174834000,6.834833984375,-2.4624884128570557,-1.6942025423049927,-0.20203925669193268
1761383377184904200,6.844904296875,-2.4803848266601562,-1.1605952978134155,0.23523686826229095
1761383377194974200,6.85497412109375,-2.63835072517395,-0.8172992467880249,0.6417715549468994
1761383377205043200,6.865043212890625,-2.8556790351867676,-0.8153958916664124,0.8940019607543945
1761383377215113200,6.87511328125,-3.0230634212493896,-1.0249147415161133,1.0419938564300537
1761383377225183000,6.885182861328125,-3.0334084033966064,-1.2680846452713013,1.154824137687683
1761383377235252200,6.895252197265625,-2.9032206535339355,-1.4575669765472412,1.2273105382919312
1761383377245322000,6.905322021484375,-2.712876558303833,-1.5415595769882202,1.210626244544983
1761383377255392000,6.91539208984375,-2.5749223232269287,-1.6376606225967407,1.0336096286773682
1761383377265461000,6.9254609375,-2.515782117843628,-1.7531591653823853,0.732521653175354
1761383377275531000,6.935531005859375,-2.497248649597168,-1.9246073961257935,0.32044169306755066
1761383377285601000,6.94560107421875,-2.46671724319458,-2.120203733444214,-0.16130967438220978
1761383377295670000,6.955669921875,-2.3709781169891357,-2.2660396099090576,-0.6090168356895447
1761383377305740000,6.965739990234375,-2.232762336730957,-2.3047096729278564,-0.9450042843818665
1761383377315810000,6.97581005859375,-2.070455312728882,-2.1768956184387207,-1.0984548330307007
1761383377325879000,6.985879150390625,-1.8689649105072021,-1.9425990581512451,-1.045092225074768
1761383377335949000,6.995948974609375,-1.6664869785308838,-1.6389119625091553,-0.8276025652885437
1761383377346019000,7.00601904296875,-1.5293562412261963,-1.383497953414917,-0.5544050931930542
1761383377356088000,7.016088134765625,-1.4729281663894653,-1.1047784090042114,-0.25087371468544006
1761383377366158000,7.026157958984375,-1.4750372171401978,-0.8671647906303406,0.01594632677733898
1761383377376228000,7.03622802734375,-1.5134365558624268,-0.7259871959686279,0.21106016635894775
1761383377386298000,7.046298095703125,-1.5888053178787231,-0.6733430624008179,0.31223398447036743
1761383377396367000,7.0563671875,-1.6941970586776733,-0.7490400075912476,0.2998545467853546
1761383377406437000,7.06643701171875,-1.7848570346832275,-0.8778063654899597,0.2159218192100525
1761383377416507000,7.0765068359375,-1.8458442687988281,-0.9647564888000488,0.12815068662166595
1761383377426576100,7.086576171875,-1.8764322996139526,-0.9423965215682983,0.07845738530158997
1761383377436646000,7.09664599609375,-1.8678468465805054,-0.8522759675979614,0.06488591432571411
1761383377446716200,7.106716064453125,-1.8176651000976562,-0.7141590118408203,0.08025815337896347
1761383377456785000,7.116784912109375,-1.7276585102081299,-0.58229660987854,0.12246685475111008
1761383377466855200,7.126855224609375,-1.6227302551269531,-0.5422061085700989,0.17427369952201843
1761383377476925200,7.13692529296875,-1.5354784727096558,-0.5954456329345703,0.23740847408771515
1761383377486994000,7.146993896484375,-1.473101258277893,-0.6709503531455994,0.31641608476638794
1761383377497064200,7.157064208984375,-1.4321695566177368,-0.6806378364562988,0.40112030506134033
1761383377507134000,7.167134033203125,-1.400251030921936,-0.6468815803527832,0.47183725237846375
1761383377517203200,7.177203125,-1.3783680200576782,-0.6379714608192444,0.5148465037345886
1761383377527273200,7.187273193359375,-1.372180700302124,-0.6835746169090271,0.5094514489173889
1761383377537343000,7.197343017578125,-1.3962194919586182,-0.7904738783836365,0.4226717948913574
1761383377547412200,7.207412109375,-1.4572210311889648,-0.9107080698013306,0.27100256085395813
1761383377557482000,7.21748193359375,-1.5628678798675537,-1.0094900131225586,0.07249051332473755
1761383377567552000,7.227552001953125,-1.6769331693649292,-1.0381776094436646,-0.13679000735282898
1761383377577621000,7.23762109375,-1.7763301134109497,-1.1017062664031982,-0.35587599873542786
1761383377587691000,7.24769091796875,-1.8174980878829956,-1.2251359224319458,-0.5612240433692932
1761383377597761300,7.25776123046875,-1.7765167951583862,-1.3363767862319946,-0.6999012231826782
1761383377607830000,7.267830078125,-1.6619808673858643,-1.3957353830337524,-0.7498543858528137
1761383377617900000,7.277900146484375,-1.4883675575256348,-1.3538422584533691,-0.6967014074325562
1761383377627970000,7.287969970703125,-1.2787840366363525,-1.2348911762237549,-0.5425494909286499
1761383377638040000,7.2980400390625,-1.1351616382598877,-1.0687404870986938,-0.3925677239894867
1761383377648109000,7.308109130859375,-0.9706308841705322,-1.0138423442840576,-0.27033597230911255
1761383377658179000,7.318178955078125,-0.7974937558174133,-1.0846470594406128,-0.19965754449367523
1761383377668249000,7.3282490234375,-0.7146992087364197,-1.2110366821289062,-0.17351733148097992
1761383377678318000,7.338318115234375,-0.7538924217224121,-1.2788437604904175,-0.15712636709213257
1761383377688388000,7.34838818359375,-0.8387996554374695,-1.1220495700836182,-0.13479769229888916
1761383377698457900,7.358457763671875,-0.8350461721420288,-0.7760040163993835,-0.10885824263095856
1761383377708527000,7.368527099609375,-0.6470750570297241,-0.317837119102478,-0.0749579593539238
1761383377718597000,7.37859716796875,-0.3113343119621277,0.2018476128578186,-0.12410073727369308
1761383377728667100,7.388667236328125,0.08656896650791168,0.5665671825408936,-0.312896192073822
1761383377738736000,7.398736083984375,0.38657617568969727,0.7644048929214478,-0.6305687427520752
1761383377748806000,7.408805908203125,0.5174928903579712,0.8275855183601379,-1.006529450416565
1761383377758876200,7.418876220703125,0.5551859140396118,0.7967272400856018,-1.3133219480514526
1761383377768945000,7.42894482421875,0.5833778977394104,0.7304974794387817,-1.4816012382507324
1761383377779015200,7.43901513671875,0.6093253493309021,0.7075442671775818,-1.4770177602767944
1761383377789085200,7.449085205078125,0.6052376627922058,0.7216802835464478,-1.3265177011489868
1761383377799154000,7.45915380859375,0.5514455437660217,0.7081543207168579,-1.1051931381225586
1761383377809224200,7.46922412109375,0.45214441418647766,0.6901705861091614,-0.8439403772354126
1761383377819294000,7.4792939453125,0.3588980734348297,0.7083967328071594,-0.5555477142333984
1761383377829363200,7.48936328125,0.2778092622756958,0.738836407661438,-0.260088711977005
1761383377839433000,7.499432861328125,0.22134359180927277,0.7354201078414917,0.01714289002120495
1761383377849503000,7.5095029296875,0.1950857788324356,0.7027925252914429,0.2560900151729584
1761383377859572200,7.519572265625,0.16669727861881256,0.6647082567214966,0.45148345828056335
1761383377869642000,7.52964208984375,0.10186466574668884,0.6196770071983337,0.583891749382019
1761383377879712000,7.5397119140625,-0.00952657125890255,0.5677288770675659,0.6362689137458801
1761383377889781000,7.549781005859375,-0.14490419626235962,0.5095612406730652,0.6152639985084534
1761383377899851000,7.55985107421875,-0.28694629669189453,0.4607490003108978,0.5334117412567139
1761383377909921300,7.56992138671875,-0.40672364830970764,0.4333537220954895,0.4205857217311859
1761383377919991000,7.579990966796875,-0.4992256164550781,0.42128533124923706,0.30878621339797974
1761383377930058500,7.59005859375,-0.5624533295631409,0.4208812713623047,0.22745521366596222
1761383377940128500,7.60012841796875,-0.6207009553909302,0.40072914958000183,0.18596822023391724
1761383377950198500,7.610198486328125,-0.6852862238883972,0.3119990825653076,0.20338286459445953
1761383377960267500,7.620267578125,-0.7561020851135254,0.183008074760437,0.2747398912906647
1761383377970337300,7.630337158203125,-0.8123782277107239,0.07233480364084244,0.4040933847427368
1761383377980407600,7.640407470703125,-0.8275275826454163,-0.009299339726567268,0.5722458958625793
1761383377990476300,7.650476318359375,-0.8180240392684937,-0.06761828809976578,0.7051311731338501
1761383378000546600,7.660546630859375,-0.8254180550575256,-0.2075527459383011,0.729274332523346
1761383378010616600,7.670616455078125,-0.8822394013404846,-0.45072445273399353,0.6278969049453735
1761383378020685300,7.680685302734375,-1.022068738937378,-0.6795403361320496,0.4509596824645996
1761383378030755600,7.690755615234375,-1.2259432077407837,-0.8472094535827637,0.25109443068504333
1761383378040825300,7.700825439453125,-1.4246715307235718,-1.0263936519622803,0.07438838481903076
1761383378050894600,7.71089453125,-1.579520583152771,-1.2664942741394043,-0.06533195823431015
1761383378060964600,7.720964599609375,-1.684356451034546,-1.4857454299926758,-0.16802212595939636
1761383378071034400,7.731034423828125,-1.7285202741622925,-1.611097812652588,-0.24593791365623474
1761383378081103600,7.741103515625,-1.7105962038040161,-1.5875812768936157,-0.2773869037628174
1761383378091173400,7.75117333984375,-1.6142994165420532,-1.4234721660614014,-0.2170465886592865
1761383378101243400,7.761243408203125,-1.4547251462936401,-1.1771459579467773,-0.019003555178642273
1761383378111312400,7.7713125,-1.2174328565597534,-0.9595934748649597,0.3041655123233795
1761383378121382400,7.78138232421875,-0.9379498362541199,-0.8752349019050598,0.7409148812294006
1761383378131452700,7.79145263671875,-0.7156398892402649,-0.9779841899871826,1.162337303161621
1761383378141521400,7.801521484375,-0.6217237710952759,-1.2603328227996826,1.4049174785614014
1761383378151591400,7.81159130859375,-0.6263977885246277,-1.6287330389022827,1.4514439105987549
1761383378161661400,7.821661376953125,-0.6849769353866577,-1.9236359596252441,1.3515375852584839
1761383378171730400,7.83173046875,-0.7584800124168396,-2.0622246265411377,1.139390230178833
1761383378181800700,7.84180078125,-0.8289179801940918,-2.0219695568084717,0.8593136668205261
1761383378191870500,7.851870361328125,-0.8709934949874878,-1.845420241355896,0.5194817185401917
1761383378201939500,7.861939453125,-0.8820144534111023,-1.5883466005325317,0.14665886759757996
1761383378212009500,7.872009521484375,-0.880915105342865,-1.2533437013626099,-0.23818272352218628
1761383378222079500,7.88207958984375,-0.8684523105621338,-0.9122169613838196,-0.5992010831832886
1761383378232148500,7.8921484375,-0.8338249921798706,-0.5937837958335876,-0.886379063129425
1761383378242218500,7.902218505859375,-0.7499879002571106,-0.2698100209236145,-1.0352965593338013
1761383378252288500,7.91228857421875,-0.630881130695343,0.055234380066394806,-0.997231662273407
1761383378262357500,7.922357421875,-0.4915120005607605,0.2793854773044586,-0.7837103009223938
1761383378272427500,7.932427490234375,-0.36168596148490906,0.4017658531665802,-0.4638558030128479
1761383378282497300,7.942497314453125,-0.26267948746681213,0.4212929606437683,-0.10817811638116837
1761383378292566500,7.95256640625,-0.22822615504264832,0.37013721466064453,0.2159390151500702
1761383378302636300,7.96263623046875,-0.23449470102787018,0.2889651358127594,0.44489046931266785
1761383378312706600,7.97270654296875,-0.27078336477279663,0.2686009705066681,0.5444050431251526
1761383378322776600,7.982776611328125,-0.2922918498516083,0.2986672520637512,0.5594367384910583
1761383378332845600,7.992845458984375,-0.28946247696876526,0.36821550130844116,0.5486118197441101
1761383378342915600,8.00291552734375,-0.2750542163848877,0.4513348639011383,0.5368837714195251
1761383378352985300,8.0129853515625,-0.20935748517513275,0.496520072221756,0.5210986137390137
1761383378363054600,8.0230546875,-0.10768971592187881,0.47718897461891174,0.5232248306274414
1761383378373124600,8.03312451171875,-0.01240457408130169,0.4317205548286438,0.5282686948776245
1761383378383194400,8.0431943359375,0.06969695538282394,0.4005762040615082,0.5537282228469849
1761383378393263600,8.053263671875,0.15239974856376648,0.4200633764266968,0.5960546135902405
1761383378403333400,8.06333349609375,0.24674035608768463,0.5518506765365601,0.6612123250961304
1761383378413403400,8.0734033203125,0.345237135887146,0.7757592797279358,0.7202610373497009
1761383378423472400,8.083472412109375,0.4638229012489319,0.9945281147956848,0.7146944999694824
1761383378433542400,8.09354248046875,0.60466068983078,1.1090153455734253,0.6263073682785034
1761383378443612700,8.10361279296875,0.7219052910804749,1.089690923690796,0.4714927673339844
1761383378453681400,8.113681396484376,0.7975918650627136,0.9266923666000366,0.2781553864479065
1761383378463751700,8.123751708984376,0.8484196066856384,0.6243636608123779,0.06028030812740326
1761383378473821400,8.133821533203125,0.9074783325195312,0.23643533885478973,-0.1603699028491974
1761383378483890400,8.143890380859375,0.9944102764129639,-0.10345645248889923,-0.35401979088783264
1761383378493960400,8.15396044921875,1.1039378643035889,-0.2912444770336151,-0.4984874725341797
1761383378504030500,8.164030517578125,1.2178634405136108,-0.40905526280403137,-0.5726408362388611
1761383378514099700,8.174099609375,1.2986499071121216,-0.42453089356422424,-0.5756233334541321
1761383378524169500,8.18416943359375,1.3331228494644165,-0.286435604095459,-0.5082424283027649
1761383378534239500,8.194239501953126,1.319632649421692,-0.021652694791555405,-0.4000464081764221
1761383378544308500,8.20430859375,1.2602101564407349,0.2524467706680298,-0.28387826681137085
1761383378554378500,8.21437841796875,1.186503529548645,0.41115784645080566,-0.20760974287986755
1761383378564448500,8.224448486328125,1.1455055475234985,0.3586041033267975,-0.21257680654525757
1761383378574517500,8.234517578125,1.1563050746917725,0.15690948069095612,-0.279136061668396
1761383378584587500,8.24458740234375,1.150802493095398,-0.06064973026514053,-0.3593531548976898
1761383378594657500,8.254657470703124,1.0832463502883911,-0.2712058126926422,-0.4418898820877075
1761383378604726500,8.2647265625,0.9524068236351013,-0.494927316904068,-0.5355402231216431
1761383378614796300,8.27479638671875,0.779059886932373,-0.7176399827003479,-0.6320525407791138
1761383378624866600,8.284866455078125,0.5986579060554504,-0.865497350692749,-0.7063877582550049
1761383378634935300,8.294935302734375,0.45388469099998474,-0.8528623580932617,-0.733065128326416
1761383378645005600,8.305005615234375,0.3594745695590973,-0.6771864891052246,-0.6846520304679871
1761383378655075600,8.31507568359375,0.325415700674057,-0.37585482001304626,-0.5889564752578735
1761383378665144300,8.325144287109374,0.3477729558944702,0.010220183990895748,-0.48084887862205505
1761383378675214600,8.335214599609374,0.41757887601852417,0.4451419413089752,-0.40059933066368103
1761383378685284400,8.345284423828126,0.5092813372612,0.8933636546134949,-0.3656772971153259
1761383378695353600,8.355353515625,0.5932360887527466,1.2938486337661743,-0.37197497487068176
1761383378705423600,8.365423583984375,0.6405868530273438,1.575039267539978,-0.40788504481315613
1761383378715493400,8.375493408203125,0.637937605381012,1.7129970788955688,-0.4406895637512207
1761383378725562600,8.385562744140625,0.5999582409858704,1.6848714351654053,-0.45769837498664856
1761383378735632400,8.39563232421875,0.5623292326927185,1.5171765089035034,-0.4312855899333954
1761383378745702400,8.405702392578124,0.517316460609436,1.2731939554214478,-0.3588806390762329
1761383378755772700,8.415772705078124,0.46379441022872925,1.0053731203079224,-0.2442004680633545
1761383378765841400,8.42584130859375,0.3909425735473633,0.8053931593894958,-0.08890753984451294
1761383378775911700,8.43591162109375,0.29495927691459656,0.6663054823875427,0.08864398300647736
1761383378785981400,8.4459814453125,0.16741861402988434,0.5682843923568726,0.27267587184906006
1761383378796050400,8.456050537109375,0.008087104186415672,0.48954659700393677,0.4283505380153656
1761383378806120400,8.466120361328125,-0.14716292917728424,0.4318382740020752,0.5543848872184753
1761383378816190500,8.4761904296875,-0.2441575676202774,0.3975958824157715,0.6741556525230408
1761383378826259500,8.486259521484374,-0.2544648051261902,0.345074862241745,0.7683194279670715
1761383378836329500,8.49632958984375,-0.2157411426305771,0.3382551074028015,0.8184083700180054
1761383378846399500,8.5063994140625,-0.19044457376003265,0.3578573167324066,0.7717892527580261
1761383378856468500,8.516468505859375,-0.25190669298171997,0.16859476268291473,0.5672736167907715
1761383378866538500,8.52653857421875,-0.4149046838283539,-0.31876611709594727,0.21345534920692444
1761383378876608300,8.536608154296875,-0.6169572472572327,-0.8566272258758545,-0.14145904779434204
1761383378886677500,8.546677490234375,-0.7678692936897278,-1.269330382347107,-0.3649619221687317
1761383378896747500,8.55674755859375,-0.8506948351860046,-1.5115197896957397,-0.41077888011932373
1761383378906817500,8.566817626953124,-0.9115281105041504,-1.5620973110198975,-0.3062495291233063
1761383378916886500,8.576886474609376,-0.9507506489753723,-1.46986985206604,-0.11422903835773468
1761383378926956300,8.586956298828126,-0.9017255902290344,-1.3138480186462402,0.133276104927063
1761383378937031000,8.597031005859375,-0.7341244220733643,-1.1159615516662598,0.4340022802352905
1761383378947099600,8.607099609375,-0.47102510929107666,-0.8974241614341736,0.7726916074752808
1761383378957169700,8.617169677734376,-0.24227149784564972,-0.71702641248703,1.0075020790100098
1761383378967239700,8.62723974609375,-0.11281415820121765,-0.6894333958625793,1.0170183181762695
1761383378977308700,8.63730859375,-0.08485966920852661,-0.800524115562439,0.7766628861427307
1761383378987378700,8.647378662109375,-0.1432870328426361,-0.987915575504303,0.34309276938438416
1761383378997448700,8.65744873046875,-0.2732662260532379,-1.2061853408813477,-0.2003432959318161
1761383379007517700,8.667517578125,-0.4250027537345886,-1.4203261137008667,-0.7711801528930664
1761383379017587700,8.677587646484374,-0.5651987791061401,-1.5743305683135986,-1.2907860279083252
1761383379027657700,8.68765771484375,-0.6693616509437561,-1.6354997158050537,-1.7050843238830566
1761383379037726700,8.697726806640626,-0.7070827484130859,-1.677202582359314,-1.9630000591278076
1761383379047796700,8.707796630859375,-0.6507331728935242,-1.7079546451568604,-2.0305566787719727
1761383379057866800,8.71786669921875,-0.5013855695724487,-1.6372880935668945,-1.9021086692810059
1761383379067935700,8.727935791015625,-0.29228609800338745,-1.4498718976974487,-1.615501880645752
1761383379078005800,8.738005859375,-0.11259957402944565,-1.2055867910385132,-1.2535200119018555
1761383379088075500,8.748075439453125,-0.040069449692964554,-0.9293085932731628,-0.865467369556427
1761383379098144800,8.758144775390624,-0.10966968536376953,-0.593235433101654,-0.5038223266601562
1761383379108214500,8.768214599609376,-0.26464539766311646,-0.2585536241531372,-0.21423126757144928
1761383379118284800,8.778284912109376,-0.44632869958877563,0.032036032527685165,-0.009248809888958931
1761383379128353500,8.788353515625,-0.610817551612854,0.28910696506500244,0.12006976455450058
1761383379138423800,8.798423828125,-0.7376574873924255,0.5084640979766846,0.18871822953224182
1761383379148493800,8.808493896484375,-0.7990527153015137,0.6668585538864136,0.21695253252983093
1761383379158562600,8.8185625,-0.7937240600585938,0.7658522129058838,0.2304154485464096
1761383379168632800,8.8286328125,-0.7379436492919922,0.8147667646408081,0.24370567500591278
1761383379178702600,8.83870263671875,-0.6493692398071289,0.8160750269889832,0.2539754807949066
1761383379188771800,8.848771728515626,-0.5140407085418701,0.8165599703788757,0.2681853175163269
1761383379198839600,8.858839599609375,-0.33062848448753357,0.8152031302452087,0.3088400363922119
1761383379208909800,8.868909912109375,-0.12490728497505188,0.8260518312454224,0.37012550234794617
1761383379218978600,8.878978515625,0.10855639725923538,0.9302078485488892,0.4491102695465088
1761383379229048800,8.889048828125,0.37916553020477295,1.0992001295089722,0.5401126146316528
1761383379239118600,8.89911865234375,0.635996401309967,1.236915946006775,0.6007189750671387
1761383379249187600,8.9091875,0.814357340335846,1.2886701822280884,0.5870806574821472
1761383379259257900,8.9192578125,0.8883677124977112,1.1814755201339722,0.47336477041244507
1761383379269327600,8.92932763671875,0.859921932220459,0.8722587823867798,0.28605133295059204
1761383379279396900,8.93939697265625,0.7520337104797363,0.4938827157020569,0.07361847162246704
1761383379289466600,8.949466552734375,0.6644080281257629,0.21860213577747345,-0.06657325476408005
1761383379299536600,8.95953662109375,0.6545751690864563,0.017694376409053802,-0.10999219864606857
1761383379309605600,8.969605712890624,0.6895480751991272,-0.13228446245193481,-0.0679163783788681
1761383379319675600,8.979675537109374,0.7470227479934692,-0.18477535247802734,0.06748965382575989
1761383379329745700,8.98974560546875,0.8134763240814209,-0.055099114775657654,0.29634785652160645
1761383379339814700,8.999814697265625,0.8970744013786316,0.15043678879737854,0.5571012496948242
1761383379349884700,9.009884765625,0.948369562625885,0.23361264169216156,0.745857834815979
1761383379359954700,9.01995458984375,0.9333103895187378,0.17600291967391968,0.7986096739768982
1761383379370023700,9.030023681640625,0.8690954446792603,0.02147245779633522,0.6705214977264404
1761383379380093700,9.04009375,0.8044278025627136,-0.2156677544116974,0.366902619600296
1761383379390163700,9.050163818359374,0.7663366198539734,-0.48831605911254883,-0.020135648548603058
1761383379400232700,9.060232666015626,0.7497748136520386,-0.6726722717285156,-0.3464169204235077
1761383379410302700,9.070302734375,0.7042648196220398,-0.6239665150642395,-0.52687668800354
1761383379420372700,9.080372802734376,0.6598450541496277,-0.3108178377151489,-0.526511549949646
1761383379430441700,9.090441650390625,0.6642246246337891,0.19142691791057587,-0.4074256420135498
1761383379440511700,9.10051171875,0.724664032459259,0.6769717335700989,-0.2618398368358612
1761383379450581800,9.110581787109375,0.7956846952438354,1.0016169548034668,-0.16802838444709778
1761383379460650800,9.120650634765624,0.8655203580856323,1.2148041725158691,-0.1325884908437729
1761383379470720800,9.130720703125,0.9382720589637756,1.314649224281311,-0.12472496181726456
1761383379480790500,9.14079052734375,1.0161631107330322,1.3211218118667603,-0.13333065807819366
1761383379490859800,9.15085986328125,1.087773323059082,1.2754794359207153,-0.12777237594127655
1761383379500929500,9.160929443359375,1.1222670078277588,1.205459475517273,-0.12419025599956512
1761383379510999600,9.17099951171875,1.1034080982208252,1.1289578676223755,-0.11370725929737091
1761383379521068800,9.18106884765625,1.0238676071166992,1.037286639213562,-0.10124839842319489
1761383379531138600,9.191138671875,0.912834644317627,0.9676620364189148,-0.08136364072561264
1761383379541208800,9.201208740234375,0.793714165687561,0.9319949150085449,-0.03745924308896065
1761383379551277600,9.211277587890624,0.7082014083862305,0.9379745125770569,0.04485107585787773
1761383379561347800,9.221347900390626,0.6484938263893127,0.942719042301178,0.14048156142234802
1761383379571417900,9.23141796875,0.6088212132453918,0.9143773913383484,0.21828687191009521
1761383379581486600,9.241486572265625,0.6014055609703064,0.8206899166107178,0.2764390707015991
1761383379591556900,9.251556884765625,0.6083670258522034,0.6436086297035217,0.3149915337562561
1761383379601626600,9.261626708984375,0.5877290964126587,0.3995295763015747,0.3450712263584137
1761383379611695900,9.27169580078125,0.5092335343360901,0.14164823293685913,0.40193289518356323
1761383379621765600,9.281765625,0.38262495398521423,-0.09373510628938675,0.49131909012794495
1761383379631835600,9.291835693359374,0.2563977539539337,-0.2402837872505188,0.6317657232284546
1761383379641904600,9.301904541015626,0.17154455184936523,-0.21978488564491272,0.8264526128768921
1761383379651974700,9.311974609375,0.1673751026391983,-0.022741060703992844,1.0478672981262207
1761383379662044700,9.322044677734375,0.1763937771320343,0.22334477305412292,1.2231088876724243
1761383379672113700,9.33211376953125,0.14944951236248016,0.4186285138130188,1.2830896377563477
1761383379682183700,9.34218359375,0.02555091306567192,0.42838621139526367,1.1911449432373047
1761383379692253700,9.352253662109375,-0.19886541366577148,0.2521888017654419,0.9735617637634277
1761383379702322700,9.36232275390625,-0.4599054157733917,-0.01769689843058586,0.6965429782867432
1761383379712392700,9.372392822265626,-0.6399531960487366,-0.3459376096725464,0.4467770755290985
1761383379722462700,9.382462646484376,-0.6792707443237305,-0.5863012671470642,0.31289616227149963
1761383379732531700,9.39253173828125,-0.6239771246910095,-0.6785387992858887,0.3048888146877289
1761383379742601700,9.402601806640625,-0.5016120672225952,-0.6778380870819092,0.3741506040096283
1761383379752671700,9.412671630859375,-0.3487396836280823,-0.6222432255744934,0.4847404956817627
1761383379762740700,9.42274072265625,-0.21573065221309662,-0.5068868398666382,0.5972006320953369
1761383379772810800,9.432810791015624,-0.1629132330417633,-0.3719002604484558,0.648813784122467
1761383379782880800,9.442880859375,-0.19501766562461853,-0.29479625821113586,0.6080672740936279
1761383379792951600,9.45295166015625,-0.2907106280326843,-0.2366298884153366,0.49244609475135803
1761383379803020800,9.463020751953126,-0.4259468913078308,-0.18225352466106415,0.3283284902572632
1761383379813090800,9.4730908203125,-0.5286871194839478,-0.09202882647514343,0.1588534265756607
1761383379823160600,9.48316064453125,-0.5608195066452026,0.003947725519537926,0.0020608515478670597
1761383379833229800,9.493229736328125,-0.5200691819190979,0.044266652315855026,-0.15068528056144714
1761383379843299600,9.503299560546875,-0.4522232711315155,0.023875612765550613,-0.32005608081817627
1761383379853369600,9.51336962890625,-0.3816998302936554,-0.06601246446371078,-0.5259053707122803
1761383379863438600,9.5234384765625,-0.3179933428764343,-0.24028655886650085,-0.7311531901359558
1761383379873508600,9.533508544921874,-0.27112066745758057,-0.4306352138519287,-0.9031571745872498
1761383379883579000,9.543578857421876,-0.2179291844367981,-0.5266174077987671,-0.9898062348365784
1761383379893647600,9.553647705078125,-0.13512004911899567,-0.5328142642974854,-0.978709876537323
1761383379903717600,9.563717529296875,-0.029254455119371414,-0.446137934923172,-0.8687770366668701
1761383379913787600,9.57378759765625,0.08161294460296631,-0.2840350568294525,-0.7108765840530396
1761383379923856600,9.583856689453125,0.18083438277244568,-0.12419912219047546,-0.5345726013183594
1761383379933922600,9.593922607421876,0.2774072587490082,-0.0012726662680506706,-0.3779888451099396
1761383379943992300,9.603992431640625,0.35511472821235657,0.09325478971004486,-0.2554810047149658
1761383379954061600,9.6140615234375,0.38396579027175903,0.17417865991592407,-0.1576140820980072
1761383379964131300,9.62413134765625,0.35538771748542786,0.25402089953422546,-0.06820320338010788
1761383379974201300,9.634201416015625,0.28160059452056885,0.31369486451148987,0.005622015800327063
1761383379984270300,9.644270263671874,0.17746520042419434,0.3540028929710388,0.05688925087451935
1761383379994340400,9.65434033203125,0.06631603837013245,0.3946608603000641,0.09462624043226242
1761383380004410600,9.66441064453125,-0.02726477012038231,0.4268609881401062,0.107080839574337
1761383380014479400,9.674479248046875,-0.0726034864783287,0.4417493939399719,0.12037187069654465
1761383380024549400,9.68454931640625,-0.076531782746315,0.40876978635787964,0.11466164141893387
1761383380034619400,9.694619384765625,-0.05457668751478195,0.30287396907806396,0.09676387161016464
1761383380044688400,9.7046884765625,-0.01976725459098816,0.1579437553882599,0.09704013168811798
1761383380054758700,9.714758544921875,0.016904737800359726,0.11227187514305115,0.169475719332695
1761383380064828400,9.724828369140624,0.07266679406166077,0.20645764470100403,0.3055424094200134
1761383380074897400,9.7348974609375,0.13707028329372406,0.3387072682380676,0.4499046504497528
1761383380084967400,9.744967529296876,0.1746848076581955,0.4355970621109009,0.5359470844268799
1761383380095037400,9.755037353515625,0.17234840989112854,0.4271726608276367,0.5248425006866455
1761383380105106400,9.7651064453125,0.12442399561405182,0.32862454652786255,0.45475345849990845
1761383380115176400,9.775176513671875,0.042340584099292755,0.25511837005615234,0.3752541244029999
1761383380125246500,9.78524658203125,-0.016646046191453934,0.24812506139278412,0.3169329762458801
1761383380135315500,9.7953154296875,-0.030271045863628387,0.3126009702682495,0.27309441566467285
1761383380145385500,9.805385498046874,0.025865226984024048,0.43529120087623596,0.24829767644405365
1761383380155455200,9.815455322265626,0.12419445812702179,0.6002204418182373,0.24722759425640106
1761383380165524500,9.8255244140625,0.2421160340309143,0.762121856212616,0.2570302486419678
1761383380175594200,9.83559423828125,0.3183988332748413,0.8590105772018433,0.2580853998661041
1761383380185664500,9.84566455078125,0.34152570366859436,0.8960481286048889,0.23697565495967865
1761383380195733500,9.8557333984375,0.3351146876811981,0.8752787113189697,0.16991540789604187
1761383380205803500,9.865803466796875,0.31060388684272766,0.7989538908004761,0.06189616024494171
1761383380215873500,9.87587353515625,0.26924899220466614,0.7225565910339355,-0.06553290039300919
1761383380225942300,9.8859423828125,0.21985052525997162,0.6537084579467773,-0.19290076196193695
1761383380236012500,9.896012451171876,0.1921592354774475,0.602108895778656,-0.29218846559524536
1761383380246082600,9.90608251953125,0.205430269241333,0.5876452922821045,-0.33329352736473083
1761383380256151600,9.916151611328125,0.25793102383613586,0.599632740020752,-0.31300342082977295
1761383380266221600,9.9262216796875,0.3379940986633301,0.6609514355659485,-0.22968728840351105
1761383380276291300,9.936291259765625,0.4032638967037201,0.7791612148284912,-0.10172585397958755
1761383380286360600,9.946360595703124,0.4022902548313141,0.8413490056991577,0.07338105142116547
1761383380296430300,9.956430419921874,0.34602487087249756,0.675595223903656,0.16052235662937164
1761383380306500400,9.966500244140626,0.3241852819919586,0.45129549503326416,0.173680379986763
1761383380316569300,9.9765693359375,0.30755412578582764,0.18975019454956055,0.10886995494365692
1761383380326639400,9.986639404296875,0.24554848670959473,-0.09817244857549667,-0.01719248853623867
1761383380336709400,9.99670947265625,0.17818889021873474,-0.31778284907341003,-0.18586380779743195
1761383380346778400,10.0067783203125,0.15604344010353088,-0.4118407666683197,-0.35312870144844055
1761383380356848400,10.016848388671875,0.16961385309696198,-0.3836706280708313,-0.5121635794639587
1761383380366918400,10.02691845703125,0.16364865005016327,-0.23460766673088074,-0.5942218899726868
