time,seconds_elapsed,z,y,x
1761383526109241000,0.070240966796875,-0.7337188720703125,-0.5974578857421875,0.26446533203125
1761383526119309800,0.080309814453125,-0.74462890625,-0.61181640625,0.2598114013671875
1761383526129380000,0.090380126953125,-0.7543487548828125,-0.6086883544921875,0.2563934326171875
1761383526139449000,0.100448974609375,-0.76641845703125,-0.5972747802734375,0.2485198974609375
1761383526149518800,0.110518798828125,-0.77197265625,-0.5800628662109375,0.240814208984375
1761383526159588000,0.120588134765625,-0.7780609130859375,-0.572509765625,0.233642578125
1761383526169657900,0.130657958984375,-0.7789764404296875,-0.575042724609375,0.2285003662109375
1761383526179727000,0.14072705078125,-0.779632568359375,-0.571136474609375,0.2226715087890625
1761383526189796900,0.150796875,-0.780059814453125,-0.563323974609375,0.20977783203125
1761383526199866000,0.1608662109375,-0.7789764404296875,-0.5672149658203125,0.2000579833984375
1761383526209936000,0.170935791015625,-0.7882232666015625,-0.5660552978515625,0.1961212158203125
1761383526220005000,0.181005126953125,-0.8035736083984375,-0.56085205078125,0.191741943359375
1761383526230075100,0.1910751953125,-0.8084716796875,-0.56610107421875,0.197052001953125
1761383526240144100,0.20114404296875,-0.81414794921875,-0.5697784423828125,0.2014923095703125
1761383526250214100,0.211214111328125,-0.80584716796875,-0.5648651123046875,0.1981353759765625
1761383526260283000,0.221282958984375,-0.795013427734375,-0.5647430419921875,0.1929931640625
1761383526270353200,0.231353271484375,-0.79644775390625,-0.5679168701171875,0.186187744140625
1761383526280422000,0.241421875,-0.7936248779296875,-0.570587158203125,0.1758575439453125
1761383526290492200,0.2514921875,-0.791046142578125,-0.5782470703125,0.172119140625
1761383526300561000,0.261560791015625,-0.812347412109375,-0.5854034423828125,0.17578125
1761383526310631000,0.271630859375,-0.8234710693359375,-0.589569091796875,0.17132568359375
1761383526320700000,0.281699951171875,-0.81878662109375,-0.5902557373046875,0.158172607421875
1761383526330770000,0.29177001953125,-0.813018798828125,-0.5821685791015625,0.14630126953125
1761383526340839000,0.3018388671875,-0.8169708251953125,-0.5725555419921875,0.1341094970703125
1761383526350909000,0.311908935546875,-0.81512451171875,-0.56512451171875,0.1243896484375
1761383526360978200,0.321978271484375,-0.8210296630859375,-0.560211181640625,0.129852294921875
1761383526371048000,0.3320478515625,-0.8282318115234375,-0.5607147216796875,0.1400604248046875
1761383526381117200,0.3421171875,-0.8232879638671875,-0.5605316162109375,0.147369384765625
1761383526391187000,0.35218701171875,-0.8203582763671875,-0.5545654296875,0.1510162353515625
1761383526401256200,0.362256103515625,-0.81512451171875,-0.5479888916015625,0.1500396728515625
1761383526411326000,0.372325927734375,-0.811187744140625,-0.5455474853515625,0.149993896484375
1761383526421395000,0.38239501953125,-0.813720703125,-0.547637939453125,0.1514129638671875
1761383526431465000,0.39246484375,-0.8175201416015625,-0.553680419921875,0.1475372314453125
1761383526441534000,0.402533935546875,-0.819580078125,-0.5572662353515625,0.14154052734375
1761383526451604200,0.412604248046875,-0.8156890869140625,-0.5586395263671875,0.1317901611328125
1761383526461673000,0.4226728515625,-0.8098297119140625,-0.5560302734375,0.11920166015625
1761383526471742000,0.432741943359375,-0.803985595703125,-0.549835205078125,0.1138763427734375
1761383526481812000,0.44281201171875,-0.8006439208984375,-0.5502166748046875,0.119293212890625
1761383526491881000,0.452880859375,-0.8019866943359375,-0.5585174560546875,0.1306610107421875
1761383526501951000,0.462950927734375,-0.807525634765625,-0.568603515625,0.140045166015625
1761383526512020200,0.473020263671875,-0.805755615234375,-0.573944091796875,0.141204833984375
1761383526522090000,0.483090087890625,-0.7995758056640625,-0.5746612548828125,0.13970947265625
1761383526532159000,0.493158935546875,-0.797332763671875,-0.573638916015625,0.14044189453125
1761383526542229000,0.50322900390625,-0.7965087890625,-0.576080322265625,0.143646240234375
1761383526552298000,0.513298095703125,-0.7946929931640625,-0.5837249755859375,0.1415863037109375
1761383526562368000,0.523367919921875,-0.7927398681640625,-0.585968017578125,0.138641357421875
1761383526572437000,0.53343701171875,-0.7867889404296875,-0.587554931640625,0.1385345458984375
1761383526582507000,0.543507080078125,-0.7784881591796875,-0.587799072265625,0.1362762451171875
1761383526592576000,0.553575927734375,-0.7678985595703125,-0.58734130859375,0.12847900390625
1761383526602646000,0.56364599609375,-0.751800537109375,-0.5849456787109375,0.120208740234375
1761383526612715000,0.573715087890625,-0.7532806396484375,-0.585205078125,0.1139678955078125
1761383526622785000,0.583784912109375,-0.746551513671875,-0.585601806640625,0.1243896484375
1761383526632854000,0.59385400390625,-0.7599334716796875,-0.598541259765625,0.1676788330078125
1761383526642924000,0.603924072265625,-0.85150146484375,-0.61724853515625,0.1962738037109375
1761383526652993000,0.613992919921875,-0.784881591796875,-0.625,0.169281005859375
1761383526663063000,0.62406298828125,-0.7752838134765625,-0.6026153564453125,0.121337890625
1761383526673132000,0.634132080078125,-0.79327392578125,-0.5943450927734375,0.0989990234375
1761383526683202000,0.6442021484375,-0.8055877685546875,-0.60760498046875,0.102142333984375
1761383526693271000,0.65427099609375,-0.8158416748046875,-0.594573974609375,0.093719482421875
1761383526703341000,0.664341064453125,-0.8123016357421875,-0.5596771240234375,0.0810089111328125
1761383526713409800,0.674409912109375,-0.8100738525390625,-0.5352325439453125,0.0673370361328125
1761383526723480000,0.68447998046875,-0.8350677490234375,-0.53448486328125,0.0793914794921875
1761383526733549000,0.694549072265625,-0.8656463623046875,-0.5535888671875,0.1081085205078125
1761383526743619000,0.704619140625,-0.8786773681640625,-0.5765380859375,0.1234588623046875
1761383526753688000,0.71468798828125,-0.8823699951171875,-0.577423095703125,0.1236572265625
1761383526763757800,0.7247578125,-0.888397216796875,-0.5751495361328125,0.1075286865234375
1761383526773827000,0.7348271484375,-0.88494873046875,-0.5668182373046875,0.089813232421875
1761383526783893200,0.744893310546875,-0.8720245361328125,-0.551422119140625,0.0682830810546875
1761383526793962500,0.75496240234375,-0.8744659423828125,-0.539764404296875,0.056640625
1761383526804032300,0.7650322265625,-0.8775787353515625,-0.5360565185546875,0.0507659912109375
1761383526814101500,0.7751015625,-0.863677978515625,-0.538177490234375,0.0484161376953125
1761383526824171300,0.785171142578125,-0.8568572998046875,-0.533355712890625,0.045562744140625
1761383526834240500,0.795240478515625,-0.84564208984375,-0.5249481201171875,0.041290283203125
1761383526844310300,0.805310302734375,-0.8364410400390625,-0.5238037109375,0.04132080078125
1761383526854379500,0.815379638671875,-0.834930419921875,-0.5263214111328125,0.044281005859375
1761383526864449500,0.825449462890625,-0.8396759033203125,-0.52545166015625,0.0494384765625
1761383526874518300,0.835518310546875,-0.8463287353515625,-0.52044677734375,0.05633544921875
1761383526884588500,0.845588623046875,-0.842742919921875,-0.51708984375,0.061553955078125
1761383526894657300,0.8556572265625,-0.839935302734375,-0.5122222900390625,0.0659027099609375
1761383526904726300,0.865726318359375,-0.830963134765625,-0.5088043212890625,0.067352294921875
1761383526914796300,0.87579638671875,-0.8264923095703125,-0.5127410888671875,0.0686798095703125
1761383526924865500,0.885865478515625,-0.831634521484375,-0.5130767822265625,0.0689697265625
1761383526934935300,0.895935302734375,-0.8324127197265625,-0.514556884765625,0.0653533935546875
1761383526945004500,0.906004638671875,-0.839569091796875,-0.513671875,0.067413330078125
1761383526955074300,0.91607421875,-0.82958984375,-0.5094757080078125,0.0681915283203125
1761383526965143600,0.9261435546875,-0.819244384765625,-0.507080078125,0.0551910400390625
1761383526975213300,0.93621337890625,-0.822296142578125,-0.50079345703125,0.04571533203125
1761383526985282300,0.9462822265625,-0.8407440185546875,-0.5086669921875,0.0331878662109375
1761383526995352300,0.956352294921875,-0.862030029296875,-0.53125,0.021636962890625
1761383527005421300,0.96642138671875,-0.85955810546875,-0.542633056640625,0.0127410888671875
1761383527015491600,0.97649169921875,-0.839508056640625,-0.548553466796875,0.0089569091796875
1761383527025560300,0.986560302734375,-0.82061767578125,-0.568511962890625,0.0185546875
1761383527035630600,0.996630615234375,-0.82843017578125,-0.5873870849609375,0.038482666015625
1761383527045699300,1.00669921875,-0.8324127197265625,-0.56378173828125,0.0935821533203125
1761383527055769300,1.016769287109375,-0.696075439453125,-0.6894073486328125,0.138336181640625
1761383527065838300,1.02683837890625,-0.7870941162109375,-0.7464599609375,0.0702362060546875
1761383527075908400,1.036908447265625,-0.8900146484375,-0.5773468017578125,0.0344390869140625
1761383527085977300,1.046977294921875,-0.7720184326171875,-0.505157470703125,0.0167083740234375
1761383527096047400,1.05704736328125,-0.7798919677734375,-0.5273284912109375,-0.005279541015625
1761383527106116400,1.067116455078125,-0.8137664794921875,-0.5320892333984375,-0.02740478515625
1761383527116186400,1.077186279296875,-0.8307952880859375,-0.5122528076171875,-0.04095458984375
1761383527126255400,1.08725537109375,-0.8401641845703125,-0.505889892578125,-0.051300048828125
1761383527136325400,1.097325439453125,-0.8214569091796875,-0.51220703125,-0.052886962890625
1761383527146394400,1.107394287109375,-0.7977142333984375,-0.5065765380859375,-0.0525360107421875
1761383527156464400,1.11746435546875,-0.8125762939453125,-0.4864654541015625,-0.054473876953125
1761383527166533400,1.127533447265625,-0.8309173583984375,-0.4821929931640625,-0.0494842529296875
1761383527176603400,1.137603271484375,-0.83502197265625,-0.4993133544921875,-0.0338287353515625
1761383527186672400,1.14767236328125,-0.8336181640625,-0.5225830078125,-0.0248870849609375
1761383527196742400,1.157742431640625,-0.8198394775390625,-0.5391387939453125,-0.0229949951171875
1761383527206811400,1.167811279296875,-0.793304443359375,-0.5470428466796875,-0.0227813720703125
1761383527216881200,1.177881103515625,-0.7839202880859375,-0.54840087890625,-0.0223846435546875
1761383527226950400,1.187950439453125,-0.793487548828125,-0.545257568359375,-0.0176239013671875
1761383527237020400,1.1980205078125,-0.8089447021484375,-0.54364013671875,-0.0149078369140625
1761383527247089400,1.20808935546875,-0.8101959228515625,-0.545989990234375,-0.009033203125
1761383527257159400,1.218159423828125,-0.807769775390625,-0.542755126953125,-0.005767822265625
1761383527267228400,1.228228515625,-0.8118896484375,-0.5333251953125,-0.0089263916015625
1761383527277298400,1.23829833984375,-0.827606201171875,-0.5279998779296875,-0.01556396484375
1761383527287367400,1.248367431640625,-0.8537445068359375,-0.5247802734375,-0.027374267578125
1761383527297437400,1.2584375,-0.8662261962890625,-0.52301025390625,-0.032379150390625
1761383527307506400,1.26850634765625,-0.8878326416015625,-0.512298583984375,-0.032470703125
1761383527317576400,1.278576416015625,-0.906463623046875,-0.499969482421875,-0.0331573486328125
1761383527327645200,1.288645263671875,-0.9049224853515625,-0.4866943359375,-0.023651123046875
1761383527337715500,1.298715576171875,-0.8920135498046875,-0.467620849609375,-0.0185699462890625
1761383527347784200,1.3087841796875,-0.8865509033203125,-0.4591064453125,-0.0215606689453125
1761383527357854500,1.3188544921875,-0.88958740234375,-0.459228515625,-0.0199737548828125
1761383527367923500,1.32892333984375,-0.89837646484375,-0.4737701416015625,-0.0416107177734375
1761383527377993500,1.338993408203125,-0.8894805908203125,-0.5047149658203125,-0.0423431396484375
1761383527388062500,1.3490625,-0.8619384765625,-0.50604248046875,-0.0113372802734375
1761383527398132200,1.35913232421875,-0.8569183349609375,-0.4871826171875,-0.0253753662109375
1761383527408201500,1.369201416015625,-0.84552001953125,-0.47607421875,-0.0211639404296875
1761383527418271200,1.379271240234375,-0.8415985107421875,-0.4741363525390625,-0.015167236328125
1761383527428340500,1.389340576171875,-0.8343048095703125,-0.4864349365234375,-0.0094757080078125
1761383527438410200,1.39941015625,-0.83428955078125,-0.4945526123046875,-0.007781982421875
1761383527448479500,1.4094794921875,-0.8260650634765625,-0.5024261474609375,-0.014404296875
1761383527458549500,1.419549560546875,-0.8048858642578125,-0.5155029296875,-0.0197601318359375
1761383527468618500,1.429618408203125,-0.7944183349609375,-0.5174407958984375,-0.0226287841796875
1761383527478688500,1.4396884765625,-0.79254150390625,-0.5136260986328125,-0.020843505859375
1761383527488757200,1.44975732421875,-0.79583740234375,-0.510040283203125,-0.0153350830078125
1761383527498827500,1.45982763671875,-0.7955780029296875,-0.5077056884765625,-0.009857177734375
1761383527508896300,1.469896240234375,-0.7978057861328125,-0.5034027099609375,-0.0078887939453125
1761383527518966500,1.479966552734375,-0.8122711181640625,-0.49725341796875,-0.007904052734375
1761383527529035300,1.49003515625,-0.8209991455078125,-0.495574951171875,-0.0077972412109375
1761383527539105500,1.50010546875,-0.8313446044921875,-0.495758056640625,-0.0088348388671875
1761383527549174300,1.51017431640625,-0.8495330810546875,-0.4918365478515625,-0.0092010498046875
1761383527559244300,1.520244384765625,-0.8703765869140625,-0.487457275390625,-0.006195068359375
1761383527569313300,1.530313232421875,-0.8828125,-0.4791717529296875,-0.0063323974609375
1761383527579383300,1.54038330078125,-0.8870086669921875,-0.46771240234375,-0.0113983154296875
1761383527589452300,1.550452392578125,-0.8881072998046875,-0.461700439453125,-0.0148773193359375
1761383527599522300,1.560522216796875,-0.8913421630859375,-0.460662841796875,-0.0180511474609375
1761383527609591600,1.570591552734375,-0.8976898193359375,-0.457305908203125,-0.0168914794921875
1761383527619661300,1.580661376953125,-0.900543212890625,-0.4601898193359375,-0.0132598876953125
1761383527629730600,1.59073046875,-0.912445068359375,-0.4668731689453125,-0.0100860595703125
1761383527639800300,1.60080029296875,-0.9236602783203125,-0.471038818359375,-0.0109100341796875
1761383527649869600,1.61086962890625,-0.922607421875,-0.47491455078125,-0.0122528076171875
1761383527659939300,1.620939208984375,-0.9196624755859375,-0.478759765625,-0.0102996826171875
1761383527670008300,1.63100830078125,-0.9346771240234375,-0.48626708984375,-0.000244140625
1761383527680078300,1.641078369140625,-0.961822509765625,-0.4957275390625,0.01611328125
1761383527690147300,1.651147216796875,-0.972412109375,-0.504913330078125,0.0264739990234375
1761383527700217600,1.661217529296875,-0.97308349609375,-0.506683349609375,0.025634765625
1761383527710286300,1.671286376953125,-0.9882965087890625,-0.5023651123046875,0.0214080810546875
1761383527720356400,1.6813564453125,-1.0257415771484375,-0.495361328125,0.019927978515625
1761383527730425300,1.69142529296875,-1.0532989501953125,-0.482696533203125,0.016571044921875
1761383527740495400,1.701495361328125,-1.0701904296875,-0.457061767578125,0.0142822265625
1761383527750564400,1.711564453125,-1.076751708984375,-0.435821533203125,0.0155029296875
1761383527760634400,1.72163427734375,-1.0783843994140625,-0.428680419921875,0.0141754150390625
1761383527770703400,1.731703369140625,-1.0792236328125,-0.4093017578125,0.006988525390625
1761383527780772900,1.74177294921875,-1.0632781982421875,-0.388519287109375,0.000762939453125
1761383527790841900,1.751841796875,-1.037872314453125,-0.3778839111328125,0.0014190673828125
1761383527800912000,1.761911865234375,-1.0159912109375,-0.370849609375,0.004638671875
1761383527810981000,1.771981201171875,-1.0001983642578125,-0.364044189453125,0.0161285400390625
1761383527821051000,1.78205078125,-0.99444580078125,-0.362335205078125,0.0342254638671875
1761383527831120100,1.7921201171875,-0.991119384765625,-0.3631439208984375,0.0618896484375
1761383527841190000,1.80218994140625,-0.9772796630859375,-0.363861083984375,0.086578369140625
1761383527851259000,1.8122587890625,-0.9604034423828125,-0.3680267333984375,0.103240966796875
1761383527861329000,1.822328857421875,-0.95428466796875,-0.378875732421875,0.1155853271484375
1761383527871398000,1.83239794921875,-0.95263671875,-0.392059326171875,0.1227569580078125
1761383527881468000,1.842468017578125,-0.9578857421875,-0.3967742919921875,0.1219329833984375
1761383527891537000,1.852536865234375,-0.9608306884765625,-0.3973388671875,0.1133880615234375
1761383527901607000,1.86260693359375,-0.950927734375,-0.3852691650390625,0.1083984375
1761383527911676000,1.872676025390625,-0.9322967529296875,-0.3564453125,0.106292724609375
1761383527921746000,1.882745849609375,-0.9147796630859375,-0.330078125,0.1077880859375
1761383527931815000,1.89281494140625,-0.9000701904296875,-0.3178558349609375,0.114044189453125
1761383527941885000,1.902885009765625,-0.8932037353515625,-0.3222198486328125,0.1216278076171875
1761383527951954000,1.912953857421875,-0.889617919921875,-0.336822509765625,0.1314697265625
1761383527962024000,1.92302392578125,-0.8868408203125,-0.35491943359375,0.1416015625
1761383527972093000,1.933093017578125,-0.893890380859375,-0.3749847412109375,0.14752197265625
1761383527982163000,1.943162841796875,-0.904876708984375,-0.3916473388671875,0.1513214111328125
1761383527992232000,1.95323193359375,-0.9098968505859375,-0.4036865234375,0.1538848876953125
1761383528002302000,1.963302001953125,-0.911773681640625,-0.4080047607421875,0.1504974365234375
1761383528012371000,1.973370849609375,-0.9194183349609375,-0.4050445556640625,0.1419219970703125
1761383528022441000,1.98344091796875,-0.9257965087890625,-0.4068145751953125,0.13006591796875
1761383528032510000,1.993510009765625,-0.92828369140625,-0.41217041015625,0.1158447265625
1761383528042580000,2.003580078125,-0.934173583984375,-0.4105072021484375,0.1010284423828125
1761383528052649000,2.01364892578125,-0.9326171875,-0.4029693603515625,0.0900421142578125
1761383528062719000,2.023718994140625,-0.925384521484375,-0.39312744140625,0.083526611328125
1761383528072788000,2.0337880859375,-0.921112060546875,-0.3798065185546875,0.07647705078125
1761383528082857700,2.043857666015625,-0.9131927490234375,-0.3648223876953125,0.0662384033203125
1761383528092927000,2.053927001953125,-0.8962554931640625,-0.3560791015625,0.0596923828125
1761383528102996700,2.063996826171875,-0.87554931640625,-0.3477630615234375,0.0527801513671875
1761383528113066000,2.07406591796875,-0.858795166015625,-0.339019775390625,0.0480194091796875
1761383528123136000,2.084135986328125,-0.8444366455078125,-0.3399505615234375,0.0491485595703125
1761383528133205000,2.094205078125,-0.82843017578125,-0.347808837890625,0.0495452880859375
1761383528143275000,2.10427490234375,-0.814666748046875,-0.353851318359375,0.0490875244140625
1761383528153344000,2.114343994140625,-0.802093505859375,-0.361236572265625,0.0514678955078125
1761383528163414000,2.1244140625,-0.7924652099609375,-0.3748321533203125,0.0503387451171875
1761383528173483000,2.13448291015625,-0.787933349609375,-0.3870849609375,0.0499725341796875
1761383528183553000,2.144552978515625,-0.7876129150390625,-0.3975372314453125,0.049835205078125
1761383528193621800,2.154621826171875,-0.7877197265625,-0.4054718017578125,0.0535888671875
1761383528203692000,2.164692138671875,-0.7965545654296875,-0.411224365234375,0.0610504150390625
1761383528213760800,2.1747607421875,-0.8123016357421875,-0.411590576171875,0.0651702880859375
1761383528223831000,2.1848310546875,-0.821929931640625,-0.409027099609375,0.066375732421875
1761383528233899800,2.194899658203125,-0.8357391357421875,-0.4073638916015625,0.067169189453125
1761383528243969800,2.2049697265625,-0.8556060791015625,-0.4075469970703125,0.061920166015625
1761383528254040000,2.2150400390625,-0.8685150146484375,-0.4145050048828125,0.05828857421875
1761383528264108800,2.22510888671875,-0.87799072265625,-0.4231719970703125,0.0538330078125
1761383528274178000,2.235177978515625,-0.8939361572265625,-0.429779052734375,0.047821044921875
1761383528284247800,2.245247802734375,-0.90460205078125,-0.4345703125,0.0439910888671875
1761383528294318000,2.255318115234375,-0.9071197509765625,-0.4383544921875,0.0411376953125
1761383528304386800,2.26538671875,-0.9110565185546875,-0.440216064453125,0.03839111328125
1761383528314456800,2.275456787109375,-0.91925048828125,-0.444091796875,0.037841796875
1761383528324525800,2.28552587890625,-0.9342803955078125,-0.4431610107421875,0.038299560546875
1761383528334595800,2.295595947265625,-0.9391937255859375,-0.44183349609375,0.034942626953125
1761383528344664800,2.305664794921875,-0.942596435546875,-0.441070556640625,0.0319671630859375
1761383528354734800,2.31573486328125,-0.9445037841796875,-0.4367828369140625,0.02874755859375
1761383528364804000,2.32580419921875,-0.9430999755859375,-0.4354400634765625,0.0276031494140625
1761383528374873900,2.335873779296875,-0.9543304443359375,-0.442108154296875,0.02734375
1761383528384943000,2.345943115234375,-0.9680938720703125,-0.452911376953125,0.02752685546875
1761383528395012900,2.356012939453125,-0.9799346923828125,-0.4634246826171875,0.0240631103515625
1761383528405082000,2.36608203125,-0.987457275390625,-0.4658966064453125,0.0146484375
1761383528415151900,2.37615185546875,-0.98406982421875,-0.4640960693359375,0.00079345703125
1761383528425220900,2.386220947265625,-0.980377197265625,-0.461761474609375,-0.015625
1761383528435291000,2.396290771484375,-0.9677276611328125,-0.45623779296875,-0.0329132080078125
1761383528445359900,2.40635986328125,-0.9502716064453125,-0.4577178955078125,-0.0424652099609375
1761383528455430100,2.41643017578125,-0.941680908203125,-0.4643707275390625,-0.048553466796875
1761383528465499000,2.426498779296875,-0.9483642578125,-0.470489501953125,-0.05169677734375
1761383528475569000,2.43656884765625,-0.9506683349609375,-0.477813720703125,-0.047088623046875
1761383528485638000,2.446637939453125,-0.9451446533203125,-0.4852294921875,-0.04083251953125
1761383528495708000,2.4567080078125,-0.9436798095703125,-0.4891815185546875,-0.0330810546875
1761383528505777000,2.46677685546875,-0.9489288330078125,-0.4880218505859375,-0.023712158203125
1761383528515847000,2.476846923828125,-0.95208740234375,-0.481048583984375,-0.010650634765625
1761383528525916000,2.486916015625,-0.9554901123046875,-0.4666290283203125,-0.0029144287109375
1761383528535986000,2.49698583984375,-0.9601287841796875,-0.4445953369140625,0.000640869140625
1761383528546055000,2.507054931640625,-0.959716796875,-0.4180908203125,0.0030059814453125
1761383528556125000,2.517125,-0.951446533203125,-0.3968963623046875,0.0040130615234375
1761383528566194000,2.52719384765625,-0.9417724609375,-0.3863067626953125,0.0041656494140625
1761383528576264000,2.537263916015625,-0.9355010986328125,-0.3798065185546875,0.008575439453125
1761383528586333000,2.5473330078125,-0.934967041015625,-0.378204345703125,0.0160675048828125
1761383528596403000,2.55740283203125,-0.9267578125,-0.378326416015625,0.0254974365234375
1761383528606472000,2.567471923828125,-0.920379638671875,-0.384368896484375,0.0296783447265625
1761383528616542000,2.5775419921875,-0.9095306396484375,-0.3887176513671875,0.0321044921875
1761383528626611000,2.58761083984375,-0.8964691162109375,-0.392486572265625,0.034332275390625
1761383528636681000,2.597680908203125,-0.8793487548828125,-0.3985595703125,0.034271240234375
1761383528646750000,2.60775,-0.8624267578125,-0.4053955078125,0.0340118408203125
1761383528656819700,2.61781982421875,-0.8547821044921875,-0.406524658203125,0.032684326171875
1761383528666889000,2.627888916015625,-0.8479766845703125,-0.402191162109375,0.0316314697265625
1761383528676959000,2.637958984375,-0.845062255859375,-0.394683837890625,0.030975341796875
1761383528687028000,2.648028076171875,-0.853515625,-0.388397216796875,0.0328369140625
1761383528697098000,2.658097900390625,-0.8681488037109375,-0.3863677978515625,0.0320587158203125
1761383528707167000,2.6681669921875,-0.8755950927734375,-0.37890625,0.0260772705078125
1761383528717237000,2.678237060546875,-0.8876953125,-0.36920166015625,0.0191497802734375
1761383528727306000,2.688305908203125,-0.9074859619140625,-0.362030029296875,0.00946044921875
1761383528737376000,2.6983759765625,-0.91656494140625,-0.3572235107421875,-0.0048980712890625
1761383528747445000,2.708445068359375,-0.916748046875,-0.350982666015625,-0.02435302734375
1761383528757515000,2.718514892578125,-0.9090118408203125,-0.3426361083984375,-0.0432586669921875
1761383528767583700,2.728583740234375,-0.897369384765625,-0.335205078125,-0.058624267578125
1761383528777654300,2.738654296875,-0.8869781494140625,-0.332733154296875,-0.0623779296875
1761383528787723000,2.748722900390625,-0.8809967041015625,-0.3382415771484375,-0.058319091796875
1761383528797793000,2.75879296875,-0.87982177734375,-0.34698486328125,-0.0488739013671875
1761383528807863300,2.76886328125,-0.8763885498046875,-0.3553009033203125,-0.039337158203125
1761383528817932000,2.77893212890625,-0.87109375,-0.3622894287109375,-0.0294189453125
1761383528828002300,2.789002197265625,-0.8779144287109375,-0.36895751953125,-0.0179443359375
1761383528838071000,2.799071044921875,-0.88348388671875,-0.3837738037109375,-0.01336669921875
1761383528848141300,2.809141357421875,-0.8863677978515625,-0.395355224609375,-0.0166015625
1761383528858210000,2.8192099609375,-0.8987884521484375,-0.39581298828125,-0.0209808349609375
1761383528868280000,2.829280029296875,-0.909759521484375,-0.3972625732421875,-0.025726318359375
1761383528878349000,2.83934912109375,-0.92205810546875,-0.3963775634765625,-0.0307769775390625
1761383528888419000,2.849419189453125,-0.92962646484375,-0.394622802734375,-0.0362548828125
1761383528898488300,2.85948828125,-0.9256439208984375,-0.39263916015625,-0.0427093505859375
1761383528908558000,2.86955810546875,-0.922454833984375,-0.3970947265625,-0.04803466796875
1761383528918627300,2.87962744140625,-0.92523193359375,-0.4045257568359375,-0.048004150390625
1761383528928697000,2.889697021484375,-0.9249114990234375,-0.4101104736328125,-0.04351806640625
1761383528938766300,2.899766357421875,-0.923675537109375,-0.4144287109375,-0.0387725830078125
1761383528948836000,2.909836181640625,-0.9186248779296875,-0.42120361328125,-0.0341644287109375
1761383528958905300,2.9199052734375,-0.9107513427734375,-0.4324493408203125,-0.032318115234375
1761383528968975000,2.92997509765625,-0.9034271240234375,-0.44183349609375,-0.032440185546875
1761383528979044000,2.940044189453125,-0.8949127197265625,-0.4491424560546875,-0.03289794921875
1761383528989114400,2.9501142578125,-0.8837127685546875,-0.4538116455078125,-0.032562255859375
1761383528999183000,2.96018310546875,-0.874664306640625,-0.4563140869140625,-0.0310211181640625
1761383529009253400,2.97025341796875,-0.870574951171875,-0.4612884521484375,-0.028228759765625
1761383529019322000,2.980322021484375,-0.8697052001953125,-0.469207763671875,-0.023956298828125
1761383529029392100,2.99039208984375,-0.8641204833984375,-0.470855712890625,-0.0236358642578125
1761383529039461000,3.000461181640625,-0.8555145263671875,-0.46368408203125,-0.0278167724609375
1761383529049531100,3.01053125,-0.8419952392578125,-0.4579315185546875,-0.0277557373046875
1761383529059600100,3.02060009765625,-0.8371124267578125,-0.4559173583984375,-0.0254974365234375
1761383529069670100,3.030670166015625,-0.8357391357421875,-0.4554290771484375,-0.021636962890625
1761383529079739100,3.0407392578125,-0.82818603515625,-0.460357666015625,-0.0160980224609375
1761383529089809200,3.05080908203125,-0.8264617919921875,-0.46636962890625,-0.009002685546875
1761383529099878100,3.060878173828125,-0.8296966552734375,-0.4791717529296875,-0.000030517578125
1761383529109948200,3.0709482421875,-0.8359375,-0.4912872314453125,0.0047149658203125
1761383529120017400,3.081017333984375,-0.838775634765625,-0.494842529296875,0.0060882568359375
1761383529130087200,3.091087158203125,-0.84130859375,-0.497314453125,0.0054473876953125
1761383529140156200,3.10115625,-0.843994140625,-0.502349853515625,0.0041351318359375
1761383529150226200,3.11122607421875,-0.8467559814453125,-0.5057830810546875,0.0040283203125
1761383529160295200,3.121295166015625,-0.8501739501953125,-0.50933837890625,0.0021514892578125
1761383529170365200,3.131365234375,-0.858612060546875,-0.512420654296875,0.001373291015625
1761383529180434200,3.14143408203125,-0.8594818115234375,-0.5106201171875,0.0030517578125
1761383529190504200,3.151504150390625,-0.865020751953125,-0.5058135986328125,0.005706787109375
1761383529200574200,3.16157421875,-0.8683319091796875,-0.5027008056640625,0.011810302734375
1761383529210643200,3.171643310546875,-0.873443603515625,-0.5001068115234375,0.017181396484375
1761383529220713200,3.181713134765625,-0.8786773681640625,-0.496124267578125,0.021575927734375
1761383529230782200,3.1917822265625,-0.88226318359375,-0.4930572509765625,0.026519775390625
1761383529240852200,3.201852294921875,-0.892059326171875,-0.4913482666015625,0.0317535400390625
1761383529250921200,3.211921142578125,-0.9044952392578125,-0.4901275634765625,0.036346435546875
1761383529260991000,3.221990966796875,-0.9100341796875,-0.486083984375,0.03582763671875
1761383529271060200,3.232060302734375,-0.9157257080078125,-0.4853973388671875,0.035858154296875
1761383529281130000,3.2421298828125,-0.9154510498046875,-0.49774169921875,0.0465087890625
1761383529291199200,3.25219921875,-0.9188690185546875,-0.519805908203125,0.0578460693359375
1761383529301269200,3.262269287109375,-0.930267333984375,-0.5353851318359375,0.064544677734375
1761383529311338200,3.272338134765625,-0.9384002685546875,-0.5452117919921875,0.0643157958984375
1761383529321408300,3.282408203125,-0.947601318359375,-0.555450439453125,0.06134033203125
1761383529331477200,3.292477294921875,-0.957489013671875,-0.5612335205078125,0.055938720703125
1761383529341547300,3.30254736328125,-0.971405029296875,-0.554473876953125,0.0463409423828125
1761383529351616300,3.3126162109375,-0.98516845703125,-0.5421905517578125,0.03802490234375
1761383529361686300,3.322686279296875,-1.0020904541015625,-0.523590087890625,0.0273284912109375
1761383529371755000,3.332755126953125,-1.012725830078125,-0.49786376953125,0.012908935546875
1761383529381825300,3.3428251953125,-1.020843505859375,-0.473602294921875,0.0013275146484375
1761383529391894000,3.35289404296875,-1.0255584716796875,-0.455902099609375,-0.0023040771484375
1761383529401964300,3.36296435546875,-1.0275421142578125,-0.435882568359375,-0.009521484375
1761383529412033000,3.373032958984375,-1.0118865966796875,-0.4089202880859375,-0.0217132568359375
1761383529422103000,3.38310302734375,-0.9891204833984375,-0.382568359375,-0.03790283203125
1761383529432172000,3.393172119140625,-0.9692535400390625,-0.36279296875,-0.0452423095703125
1761383529442242000,3.403241943359375,-0.955047607421875,-0.3575897216796875,-0.0403289794921875
1761383529452311300,3.413311279296875,-0.936737060546875,-0.3671875,-0.02777099609375
1761383529462381000,3.423381103515625,-0.924407958984375,-0.376861572265625,-0.0115203857421875
1761383529472450300,3.4334501953125,-0.9095306396484375,-0.379913330078125,0.00054931640625
1761383529482520000,3.44352001953125,-0.882080078125,-0.3769073486328125,0.0102386474609375
1761383529492589300,3.45358935546875,-0.8651275634765625,-0.3733673095703125,0.0189971923828125
1761383529502659000,3.4636591796875,-0.8564300537109375,-0.373291015625,0.0277557373046875
1761383529512728300,3.473728271484375,-0.8451385498046875,-0.374755859375,0.037689208984375
1761383529522798000,3.483798095703125,-0.83544921875,-0.3749542236328125,0.0449676513671875
1761383529532867000,3.4938671875,-0.829010009765625,-0.376953125,0.0506439208984375
1761383529542937300,3.503937255859375,-0.8314208984375,-0.3789215087890625,0.0585784912109375
1761383529553006000,3.514006103515625,-0.841033935546875,-0.3815460205078125,0.0629119873046875
1761383529563076400,3.524076416015625,-0.8451995849609375,-0.3828277587890625,0.062469482421875
1761383529573145000,3.53414501953125,-0.8427886962890625,-0.3817138671875,0.0605010986328125
1761383529583215400,3.54421533203125,-0.846832275390625,-0.379364013671875,0.0594635009765625
1761383529593285000,3.55428515625,-0.8519287109375,-0.376007080078125,0.0642852783203125
1761383529603354000,3.56435400390625,-0.8565521240234375,-0.3764801025390625,0.0753936767578125
1761383529613424000,3.574424072265625,-0.8542938232421875,-0.3808441162109375,0.0927581787109375
1761383529623493000,3.5844931640625,-0.8578338623046875,-0.383331298828125,0.1128082275390625
1761383529633563400,3.5945634765625,-0.871185302734375,-0.3846588134765625,0.1363983154296875
1761383529643632000,3.604632080078125,-0.88226318359375,-0.3893890380859375,0.16534423828125
1761383529653702100,3.6147021484375,-0.8892059326171875,-0.3885650634765625,0.187530517578125
1761383529663771100,3.624771240234375,-0.8863983154296875,-0.377685546875,0.2045135498046875
1761383529673841200,3.634841064453125,-0.8891754150390625,-0.370513916015625,0.2172088623046875
1761383529683910100,3.64491015625,-0.8955841064453125,-0.375640869140625,0.2284393310546875
1761383529693980200,3.654980224609375,-0.9022979736328125,-0.3885955810546875,0.2332305908203125
1761383529704049200,3.665049072265625,-0.9134368896484375,-0.40374755859375,0.228851318359375
1761383529714119200,3.675119140625,-0.9254608154296875,-0.4128265380859375,0.216461181640625
1761383529724188200,3.685188232421875,-0.9388885498046875,-0.412506103515625,0.2010955810546875
1761383529734258200,3.695258056640625,-0.949371337890625,-0.401397705078125,0.1805419921875
1761383529744327200,3.7053271484375,-0.9572601318359375,-0.3871307373046875,0.157073974609375
1761383529754397200,3.715397216796875,-0.95947265625,-0.382598876953125,0.1360931396484375
1761383529764466200,3.725466064453125,-0.956939697265625,-0.3798980712890625,0.1185302734375
1761383529774536200,3.7355361328125,-0.95806884765625,-0.373321533203125,0.105194091796875
1761383529784605000,3.74560498046875,-0.961517333984375,-0.363311767578125,0.0973663330078125
1761383529794675200,3.75567529296875,-0.9633941650390625,-0.352569580078125,0.09588623046875
1761383529804744000,3.765743896484375,-0.9660797119140625,-0.34356689453125,0.0997314453125
1761383529814814200,3.775814208984375,-0.961151123046875,-0.3347625732421875,0.1018524169921875
1761383529824883000,3.785883056640625,-0.9456329345703125,-0.3282623291015625,0.1031494140625
1761383529834953000,3.795952880859375,-0.9275054931640625,-0.3213653564453125,0.1043701171875
1761383529845022000,3.80602197265625,-0.90509033203125,-0.3285064697265625,0.1079254150390625
1761383529855092000,3.816092041015625,-0.8978118896484375,-0.3447265625,0.1131439208984375
1761383529865161000,3.826160888671875,-0.8891143798828125,-0.3657073974609375,0.1177520751953125
1761383529875231000,3.83623095703125,-0.87640380859375,-0.386260986328125,0.1227264404296875
1761383529885300000,3.846300048828125,-0.8699798583984375,-0.4002838134765625,0.1255645751953125
1761383529895370000,3.856369873046875,-0.8687286376953125,-0.4108734130859375,0.1226654052734375
1761383529905439000,3.86643896484375,-0.8639373779296875,-0.4213104248046875,0.117462158203125
1761383529915509000,3.876509033203125,-0.860198974609375,-0.4286346435546875,0.113983154296875
1761383529925578200,3.886578125,-0.86151123046875,-0.434326171875,0.1082000732421875
1761383529935648000,3.89664794921875,-0.8651123046875,-0.43890380859375,0.1025238037109375
1761383529945717000,3.906717041015625,-0.868621826171875,-0.434539794921875,0.094390869140625
1761383529955787000,3.916787109375,-0.8708648681640625,-0.4276885986328125,0.08599853515625
1761383529965857000,3.92685693359375,-0.8758087158203125,-0.4271240234375,0.077392578125
1761383529975926000,3.936926025390625,-0.8812408447265625,-0.431732177734375,0.0729827880859375
1761383529985996000,3.94699609375,-0.8807373046875,-0.4368438720703125,0.07208251953125
1761383529996065000,3.95706494140625,-0.8817138671875,-0.4365692138671875,0.068115234375
1761383530006135000,3.967135009765625,-0.881378173828125,-0.4391937255859375,0.0638580322265625
1761383530016204000,3.9772041015625,-0.8883819580078125,-0.446197509765625,0.061859130859375
1761383530026274000,3.987274169921875,-0.902008056640625,-0.458740234375,0.0626068115234375
1761383530036343000,3.997343017578125,-0.913604736328125,-0.466400146484375,0.0597381591796875
1761383530046413000,4.0074130859375,-0.922607421875,-0.4635162353515625,0.053192138671875
1761383530056482000,4.01748193359375,-0.9242095947265625,-0.4608612060546875,0.0454254150390625
1761383530066551800,4.0275517578125,-0.919586181640625,-0.4589385986328125,0.0370025634765625
1761383530076621000,4.03762109375,-0.9121551513671875,-0.460723876953125,0.03167724609375
1761383530086690800,4.04769091796875,-0.91412353515625,-0.4645233154296875,0.029937744140625
1761383530096760000,4.057760009765625,-0.92138671875,-0.471649169921875,0.0328216552734375
1761383530106830000,4.067830078125,-0.9217376708984375,-0.4823455810546875,0.040985107421875
1761383530116899000,4.077899169921875,-0.9249420166015625,-0.490081787109375,0.050079345703125
1761383530126969000,4.087968994140625,-0.93115234375,-0.4959564208984375,0.0570068359375
1761383530137038000,4.0980380859375,-0.917144775390625,-0.5120697021484375,0.0738983154296875
1761383530147108000,4.108108154296875,-0.9195098876953125,-0.5358428955078125,0.0942840576171875
1761383530157177000,4.118177001953125,-0.946197509765625,-0.5495758056640625,0.10888671875
1761383530167247000,4.1282470703125,-0.970733642578125,-0.548675537109375,0.1096343994140625
1761383530177315800,4.13831591796875,-0.989044189453125,-0.5415191650390625,0.0971832275390625
1761383530187386000,4.14838623046875,-1.010223388671875,-0.5356292724609375,0.0751953125
1761383530197454800,4.158454833984375,-1.03692626953125,-0.52777099609375,0.05364990234375
1761383530207525000,4.168525146484375,-1.055511474609375,-0.508392333984375,0.0261688232421875
1761383530217593900,4.17859375,-1.055938720703125,-0.4712677001953125,-0.0056304931640625
1761383530227664000,4.188663818359375,-1.035186767578125,-0.427886962890625,-0.0380859375
1761383530237733000,4.198733154296875,-0.998016357421875,-0.390380859375,-0.05853271484375
1761383530247803000,4.208802978515625,-0.954559326171875,-0.362884521484375,-0.0666656494140625
1761383530257872100,4.2188720703125,-0.91943359375,-0.35382080078125,-0.064483642578125
1761383530267942000,4.22894189453125,-0.892547607421875,-0.36834716796875,-0.0521087646484375
1761383530278011100,4.23901123046875,-0.8754425048828125,-0.394287109375,-0.037841796875
1761383530288081000,4.249080810546875,-0.868438720703125,-0.4171905517578125,-0.0249786376953125
1761383530298150100,4.259150146484375,-0.859710693359375,-0.4368896484375,-0.0159149169921875
1761383530308220000,4.269219970703125,-0.855621337890625,-0.4433135986328125,-0.0146026611328125
1761383530318289200,4.2792890625,-0.843292236328125,-0.453521728515625,-0.0181121826171875
1761383530328359200,4.289359130859375,-0.834930419921875,-0.4663848876953125,-0.0194854736328125
1761383530338428000,4.299427978515625,-0.83984375,-0.4764556884765625,-0.018646240234375
1761383530348498200,4.309498291015625,-0.8451995849609375,-0.4746551513671875,-0.017730712890625
1761383530358568000,4.31956787109375,-0.8406524658203125,-0.4547882080078125,-0.0207977294921875
1761383530368637200,4.32963720703125,-0.833465576171875,-0.4314727783203125,-0.023590087890625
1761383530378707000,4.33970703125,-0.8365478515625,-0.41400146484375,-0.022674560546875
1761383530388776000,4.34977587890625,-0.84661865234375,-0.404815673828125,-0.023529052734375
1761383530398846000,4.359845947265625,-0.85589599609375,-0.390655517578125,-0.027984619140625
1761383530408915000,4.3699150390625,-0.862457275390625,-0.3784942626953125,-0.03314208984375
1761383530418985000,4.37998486328125,-0.8726654052734375,-0.3733673095703125,-0.0360870361328125
1761383530429054000,4.390053955078125,-0.8832244873046875,-0.3632354736328125,-0.042388916015625
1761383530439124200,4.400124267578125,-0.8908843994140625,-0.3536224365234375,-0.0518035888671875
1761383530449193000,4.41019287109375,-0.8934173583984375,-0.344390869140625,-0.061187744140625
1761383530459263000,4.420262939453125,-0.8881683349609375,-0.3366241455078125,-0.0686492919921875
1761383530469332000,4.43033203125,-0.878173828125,-0.33734130859375,-0.071258544921875
1761383530479402000,4.440402099609375,-0.876495361328125,-0.3441162109375,-0.0692291259765625
1761383530489471000,4.450470947265625,-0.870635986328125,-0.351318359375,-0.0659942626953125
1761383530499541000,4.460541015625,-0.864654541015625,-0.3551788330078125,-0.0625152587890625
1761383530509610000,4.47060986328125,-0.8630828857421875,-0.3586273193359375,-0.0578765869140625
1761383530519680000,4.480679931640625,-0.857940673828125,-0.3593292236328125,-0.050201416015625
1761383530529749000,4.4907490234375,-0.860504150390625,-0.3616485595703125,-0.0420379638671875
1761383530539819000,4.500819091796875,-0.8674774169921875,-0.364410400390625,-0.0370330810546875
1761383530549888000,4.510887939453125,-0.8717041015625,-0.3671417236328125,-0.0339508056640625
1761383530559958000,4.5209580078125,-0.8801727294921875,-0.3670806884765625,-0.03729248046875
1761383530570027000,4.531027099609375,-0.8831939697265625,-0.3722991943359375,-0.040771484375
1761383530580097000,4.541096923828125,-0.88934326171875,-0.3885040283203125,-0.0455474853515625
1761383530590166000,4.551166015625,-0.9021148681640625,-0.406829833984375,-0.0460968017578125
1761383530600236000,4.561236083984375,-0.906280517578125,-0.416748046875,-0.046295166015625
1761383530610305000,4.571304931640625,-0.9068603515625,-0.4215087890625,-0.0463714599609375
1761383530620375000,4.581375,-0.906036376953125,-0.431396484375,-0.0432891845703125
1761383530630444000,4.591444091796875,-0.908203125,-0.4447784423828125,-0.0377349853515625
1761383530640513800,4.601513671875,-0.9093170166015625,-0.458770751953125,-0.0311279296875
1761383530650583000,4.6115830078125,-0.9107666015625,-0.470611572265625,-0.0188751220703125
1761383530660653000,4.621653076171875,-0.9093475341796875,-0.479339599609375,-0.0084991455078125
1761383530670722000,4.63172216796875,-0.9034576416015625,-0.4857635498046875,-0.0018310546875
1761383530680792000,4.6417919921875,-0.901580810546875,-0.490203857421875,0.0066070556640625
1761383530690861000,4.651861083984375,-0.9013671875,-0.49908447265625,0.0150146484375
1761383530700931000,4.66193115234375,-0.8984832763671875,-0.5045166015625,0.01959228515625
1761383530711000000,4.672,-0.8938446044921875,-0.502899169921875,0.0168304443359375
1761383530721070000,4.682070068359375,-0.8912353515625,-0.5016021728515625,0.011749267578125
1761383530731137000,4.692136962890625,-0.8868255615234375,-0.501953125,0.004913330078125
1761383530741207000,4.70220703125,-0.8836212158203125,-0.5017852783203125,-0.0030364990234375
1761383530751276000,4.712276123046875,-0.88177490234375,-0.4990997314453125,-0.009429931640625
1761383530761346000,4.722345947265625,-0.8746490478515625,-0.493499755859375,-0.019073486328125
1761383530771415000,4.7324150390625,-0.8651123046875,-0.487274169921875,-0.0290374755859375
1761383530781485000,4.742485107421875,-0.855438232421875,-0.482940673828125,-0.03350830078125
1761383530791554000,4.752553955078125,-0.853668212890625,-0.4843902587890625,-0.0323944091796875
1761383530801623800,4.762623779296875,-0.8514862060546875,-0.4879150390625,-0.025665283203125
1761383530811693000,4.772693115234375,-0.8526763916015625,-0.4916534423828125,-0.0175323486328125
1761383530821763000,4.78276318359375,-0.85089111328125,-0.49151611328125,-0.0104827880859375
1761383530831831800,4.792831787109375,-0.844573974609375,-0.4889678955078125,0.000518798828125
1761383530841902000,4.802902099609375,-0.841156005859375,-0.4903411865234375,0.0109405517578125
1761383530851971800,4.812971923828125,-0.84259033203125,-0.495849609375,0.0221099853515625
1761383530862041000,4.823041015625,-0.839141845703125,-0.50091552734375,0.0299072265625
1761383530872110800,4.83311083984375,-0.8408966064453125,-0.5059356689453125,0.03668212890625
1761383530882180000,4.84318017578125,-0.849700927734375,-0.5093536376953125,0.047393798828125
1761383530892249900,4.853249755859375,-0.853271484375,-0.5066375732421875,0.05340576171875
1761383530902318800,4.86331884765625,-0.858306884765625,-0.4986419677734375,0.0562286376953125
1761383530912389000,4.87338916015625,-0.86236572265625,-0.495086669921875,0.0594940185546875
1761383530922457900,4.883457763671875,-0.8647918701171875,-0.4942474365234375,0.06304931640625
1761383530932528000,4.893528076171875,-0.8746795654296875,-0.496307373046875,0.06689453125
1761383530942596900,4.903596923828125,-0.882232666015625,-0.502044677734375,0.0734100341796875
1761383530952667000,4.9136669921875,-0.8804931640625,-0.503326416015625,0.0751953125
1761383530962735900,4.92373583984375,-0.8808441162109375,-0.501953125,0.0748291015625
1761383530972806000,4.933805908203125,-0.8794708251953125,-0.50201416015625,0.0780792236328125
1761383530982875000,4.943875,-0.8815765380859375,-0.4974365234375,0.083160400390625
1761383530992945000,4.95394482421875,-0.8835601806640625,-0.49114990234375,0.08905029296875
1761383531003014000,4.964013916015625,-0.8818817138671875,-0.4857177734375,0.089599609375
1761383531013084000,4.974083984375,-0.8893280029296875,-0.4836578369140625,0.095245361328125
1761383531023153000,4.98415283203125,-0.896759033203125,-0.4900054931640625,0.10516357421875
1761383531033223000,4.994222900390625,-0.9046478271484375,-0.4899139404296875,0.1119232177734375
1761383531043292000,5.0042919921875,-0.9122314453125,-0.4780731201171875,0.1119384765625
1761383531053362000,5.01436181640625,-0.9195709228515625,-0.459625244140625,0.1034698486328125
1761383531063431000,5.024430908203125,-0.9302825927734375,-0.4442901611328125,0.0927734375
1761383531073501000,5.0345009765625,-0.9443206787109375,-0.42529296875,0.0804443359375
1761383531083570000,5.04456982421875,-0.9567108154296875,-0.4026336669921875,0.07366943359375
1761383531093640000,5.054639892578125,-0.9716339111328125,-0.3793792724609375,0.0747528076171875
1761383531103709000,5.064708984375,-0.98504638671875,-0.355316162109375,0.079864501953125
1761383531113779000,5.074779052734375,-0.9852294921875,-0.331817626953125,0.082611083984375
1761383531123848000,5.084847900390625,-0.9732513427734375,-0.3159027099609375,0.0841217041015625
1761383531133917700,5.094917724609375,-0.9694976806640625,-0.30914306640625,0.0876922607421875
1761383531143987000,5.104987060546875,-0.9760894775390625,-0.3094024658203125,0.0919036865234375
1761383531154057000,5.115056884765625,-0.97955322265625,-0.312042236328125,0.095367431640625
1761383531164126000,5.1251259765625,-0.9783935546875,-0.31951904296875,0.09423828125
1761383531174196000,5.135196044921875,-0.9713592529296875,-0.3276824951171875,0.089019775390625
1761383531184265000,5.145264892578125,-0.9630889892578125,-0.3291168212890625,0.0815277099609375
1761383531194335000,5.1553349609375,-0.95477294921875,-0.3279876708984375,0.0723724365234375
1761383531204404000,5.165404052734375,-0.9449920654296875,-0.333465576171875,0.0626220703125
1761383531214474000,5.175473876953125,-0.943756103515625,-0.338043212890625,0.0543060302734375
1761383531224543000,5.18554296875,-0.944580078125,-0.3361968994140625,0.047882080078125
1761383531234613000,5.195613037109375,-0.944732666015625,-0.32745361328125,0.040435791015625
1761383531244681700,5.205681640625,-0.9387969970703125,-0.3158416748046875,0.0349578857421875
1761383531254752000,5.215751953125,-0.9334259033203125,-0.3116912841796875,0.032867431640625
1761383531264820700,5.22582080078125,-0.9306488037109375,-0.3118896484375,0.0337371826171875
1761383531274891000,5.23589111328125,-0.915496826171875,-0.31585693359375,0.0378570556640625
1761383531284960000,5.2459599609375,-0.907989501953125,-0.3174896240234375,0.044830322265625
1761383531295029800,5.25602978515625,-0.905029296875,-0.3205108642578125,0.0553436279296875
1761383531305099000,5.26609912109375,-0.8999176025390625,-0.32281494140625,0.0651092529296875
1761383531315168800,5.276168701171875,-0.8921356201171875,-0.3234710693359375,0.0732879638671875
1761383531325239000,5.286239013671875,-0.8801422119140625,-0.32562255859375,0.0819854736328125
1761383531335309000,5.29630908203125,-0.8715667724609375,-0.3236083984375,0.0894622802734375
1761383531345378000,5.3063779296875,-0.8625335693359375,-0.313507080078125,0.0980987548828125
1761383531355448000,5.316447998046875,-0.85357666015625,-0.301483154296875,0.1097259521484375
1761383531365516800,5.326516845703125,-0.8537750244140625,-0.29144287109375,0.124298095703125
1761383531375587000,5.336587158203125,-0.8582305908203125,-0.27935791015625,0.140380859375
1761383531385655800,5.34665576171875,-0.8638153076171875,-0.27337646484375,0.1573944091796875
1761383531395726000,5.35672607421875,-0.87261962890625,-0.27001953125,0.174835205078125
1761383531405794800,5.366794921875,-0.8753662109375,-0.261993408203125,0.1867218017578125
1761383531415864800,5.37686474609375,-0.873748779296875,-0.2491912841796875,0.195159912109375
1761383531425933800,5.386933837890625,-0.8681488037109375,-0.2386322021484375,0.208038330078125
1761383531436003800,5.39700390625,-0.86053466796875,-0.2339935302734375,0.2206268310546875
1761383531446072800,5.40707275390625,-0.866363525390625,-0.228546142578125,0.238067626953125
1761383531456142800,5.417142822265625,-0.864837646484375,-0.223785400390625,0.2518310546875
1761383531466212000,5.427212158203125,-0.858612060546875,-0.2182464599609375,0.2579345703125
1761383531476281900,5.43728173828125,-0.866485595703125,-0.2086639404296875,0.258026123046875
1761383531486351000,5.44735107421875,-0.868743896484375,-0.2024078369140625,0.2559051513671875
1761383531496420900,5.4574208984375,-0.8706207275390625,-0.20953369140625,0.2623291015625
1761383531506490000,5.467489990234375,-0.8878021240234375,-0.21923828125,0.27325439453125
1761383531516560000,5.477559814453125,-0.90069580078125,-0.23236083984375,0.2788543701171875
1761383531526628900,5.48762890625,-0.9207916259765625,-0.2476043701171875,0.2814178466796875
1761383531536699000,5.497698974609375,-0.94390869140625,-0.26318359375,0.2801361083984375
1761383531546768000,5.507767822265625,-0.95782470703125,-0.2706756591796875,0.270538330078125
1761383531556838100,5.517838134765625,-0.971160888671875,-0.263702392578125,0.2618255615234375
1761383531566907000,5.527906982421875,-0.989227294921875,-0.253997802734375,0.25811767578125
1761383531576977000,5.537976806640625,-1.0113983154296875,-0.2425537109375,0.252227783203125
1761383531587046000,5.5480458984375,-1.0315704345703125,-0.230377197265625,0.2468109130859375
1761383531597116000,5.558115966796875,-1.0525665283203125,-0.2202911376953125,0.241943359375
1761383531607185000,5.568184814453125,-1.065338134765625,-0.2081756591796875,0.2350616455078125
1761383531617255000,5.5782548828125,-1.0742034912109375,-0.1965484619140625,0.2281494140625
1761383531627324000,5.588323974609375,-1.080413818359375,-0.187255859375,0.225372314453125
1761383531637394000,5.598393798828125,-1.084686279296875,-0.1785125732421875,0.2187042236328125
1761383531647463000,5.608462890625,-1.0882720947265625,-0.1697998046875,0.20941162109375
1761383531657533000,5.618532958984375,-1.0909576416015625,-0.161407470703125,0.209625244140625
1761383531667602000,5.628601806640625,-1.09844970703125,-0.1553802490234375,0.21331787109375
1761383531677672000,5.638671875,-1.10400390625,-0.149688720703125,0.209442138671875
1761383531687741000,5.648740966796875,-1.10235595703125,-0.1506805419921875,0.20220947265625
1761383531697811000,5.65881103515625,-1.089813232421875,-0.1523590087890625,0.1891021728515625
1761383531707880000,5.6688798828125,-1.0608673095703125,-0.1547088623046875,0.1759033203125
1761383531717950000,5.678949951171875,-1.024871826171875,-0.1626434326171875,0.161041259765625
1761383531728019000,5.68901904296875,-1.00140380859375,-0.169952392578125,0.137237548828125
1761383531738089000,5.6990888671875,-0.9798126220703125,-0.1754302978515625,0.1239013671875
1761383531748158000,5.709157958984375,-0.9676513671875,-0.1865081787109375,0.12591552734375
1761383531758227700,5.719227783203125,-0.97613525390625,-0.1927032470703125,0.136566162109375
1761383531768297000,5.729296875,-0.996673583984375,-0.2058563232421875,0.1517181396484375
1761383531778367000,5.739366943359375,-1.019073486328125,-0.228118896484375,0.17132568359375
1761383531788435700,5.749435791015625,-1.0439453125,-0.2433013916015625,0.1823577880859375
1761383531798505700,5.759505615234375,-1.059661865234375,-0.2470550537109375,0.1927947998046875
1761383531808575700,5.76957568359375,-1.0625,-0.2409820556640625,0.2008514404296875
1761383531818644700,5.779644775390625,-1.066864013671875,-0.2240447998046875,0.207305908203125
1761383531828714800,5.78971484375,-1.070709228515625,-0.2058258056640625,0.2073822021484375
1761383531838783700,5.79978369140625,-1.0701446533203125,-0.19287109375,0.199554443359375
1761383531848853800,5.809853759765625,-1.0596466064453125,-0.1910400390625,0.18658447265625
1761383531858922800,5.8199228515625,-1.0487213134765625,-0.1935577392578125,0.174896240234375
1761383531868992800,5.82999267578125,-1.0504608154296875,-0.1933441162109375,0.1666107177734375
1761383531879061800,5.840061767578125,-1.0626983642578125,-0.192962646484375,0.1673431396484375
1761383531889131800,5.8501318359375,-1.08203125,-0.1898040771484375,0.167755126953125
1761383531899200800,5.86020068359375,-1.1099853515625,-0.15179443359375,0.1670989990234375
1761383531909270800,5.870270751953125,-1.080810546875,-0.1403961181640625,0.148162841796875
1761383531919339800,5.88033984375,-1.04248046875,-0.1439208984375,0.141082763671875
1761383531929409800,5.890409912109375,-1.0262451171875,-0.147918701171875,0.1381378173828125
1761383531939478800,5.900478759765625,-1.0138092041015625,-0.177703857421875,0.138031005859375
1761383531949548800,5.910548828125,-1.020721435546875,-0.2023162841796875,0.1413726806640625
1761383531959617800,5.92061767578125,-1.0252685546875,-0.2177276611328125,0.1415557861328125
1761383531969687800,5.930687744140625,-1.0076904296875,-0.23211669921875,0.1402435302734375
1761383531979756800,5.9407568359375,-0.997772216796875,-0.23651123046875,0.1378173828125
1761383531989826600,5.95082666015625,-0.9976806640625,-0.2393951416015625,0.13909912109375
1761383531999895800,5.960895751953125,-0.9925384521484375,-0.246734619140625,0.1391143798828125
1761383532009965600,5.970965576171875,-0.9893035888671875,-0.2553253173828125,0.137481689453125
1761383532020034800,5.981034912109375,-0.9851837158203125,-0.2592620849609375,0.1377410888671875
1761383532030104800,5.991104736328125,-0.984771728515625,-0.2578887939453125,0.139984130859375
1761383532040173800,6.001173828125,-0.9762725830078125,-0.2570343017578125,0.1374664306640625
1761383532050243800,6.011243896484375,-0.95574951171875,-0.266265869140625,0.131866455078125
1761383532060312800,6.021312744140625,-0.9441070556640625,-0.27764892578125,0.1241302490234375
1761383532070382800,6.0313828125,-0.9543914794921875,-0.291168212890625,0.123992919921875
1761383532080451800,6.041451904296875,-0.9623870849609375,-0.2992706298828125,0.1220703125
1761383532090521900,6.05152197265625,-0.958953857421875,-0.29638671875,0.116241455078125
1761383532100590600,6.061590576171875,-0.9605865478515625,-0.2929840087890625,0.1115875244140625
1761383532110660900,6.071660888671875,-0.9637908935546875,-0.30279541015625,0.109222412109375
1761383532120729600,6.0817294921875,-0.9610443115234375,-0.3181304931640625,0.11444091796875
1761383532130799900,6.0917998046875,-0.9516448974609375,-0.32879638671875,0.1218109130859375
1761383532140868600,6.10186865234375,-0.940643310546875,-0.338775634765625,0.1375274658203125
1761383532150938600,6.111938720703125,-0.9376678466796875,-0.355743408203125,0.158172607421875
1761383532161007600,6.122007568359375,-0.9445343017578125,-0.37554931640625,0.175628662109375
1761383532171077600,6.13207763671875,-0.95135498046875,-0.389923095703125,0.18115234375
1761383532181147000,6.14214697265625,-0.9566192626953125,-0.3928985595703125,0.1722259521484375
1761383532191216600,6.152216552734375,-0.9654998779296875,-0.3894195556640625,0.1533203125
1761383532201286000,6.162285888671875,-0.97882080078125,-0.363739013671875,0.139007568359375
1761383532211355600,6.172355712890625,-0.980743408203125,-0.3270263671875,0.12677001953125
1761383532221425000,6.1824248046875,-0.9609832763671875,-0.3126983642578125,0.11260986328125
1761383532231494700,6.19249462890625,-0.948394775390625,-0.3057403564453125,0.0985870361328125
1761383532241564000,6.20256396484375,-0.9530792236328125,-0.2993927001953125,0.096282958984375
1761383532251633700,6.212633544921875,-0.9503936767578125,-0.3101654052734375,0.09307861328125
1761383532261702700,6.22270263671875,-0.9036712646484375,-0.3267974853515625,0.0827789306640625
1761383532271773000,6.23277294921875,-0.8523406982421875,-0.3411865234375,0.0629425048828125
1761383532281841700,6.242841552734375,-0.820526123046875,-0.362945556640625,0.0363006591796875
1761383532291912000,6.252911865234375,-0.7993621826171875,-0.39996337890625,0.020233154296875
1761383532301980700,6.262980712890625,-0.797393798828125,-0.44647216796875,0.0166015625
1761383532312051000,6.273051025390625,-0.7777862548828125,-0.4778289794921875,0.0091552734375
1761383532322119700,6.28311962890625,-0.72998046875,-0.4980926513671875,-0.001190185546875
1761383532332189700,6.293189697265625,-0.7156982421875,-0.4984283447265625,-0.007598876953125
1761383532342258700,6.3032587890625,-0.7270050048828125,-0.4964752197265625,-0.007598876953125
1761383532352328700,6.31332861328125,-0.7442474365234375,-0.5042877197265625,0.0008697509765625
1761383532362397700,6.323397705078125,-0.770660400390625,-0.5061187744140625,0.00390625
1761383532372467700,6.3334677734375,-0.7919158935546875,-0.4927520751953125,-0.00244140625
1761383532382536700,6.34353662109375,-0.81201171875,-0.480010986328125,-0.006500244140625
1761383532392606700,6.353606689453125,-0.8445587158203125,-0.4676513671875,-0.0096435546875
1761383532402676000,6.363676025390625,-0.8837738037109375,-0.453033447265625,-0.0138397216796875
1761383532412745700,6.373745849609375,-0.922515869140625,-0.442047119140625,-0.0164642333984375
1761383532422814700,6.383814697265625,-0.949371337890625,-0.4323577880859375,-0.0272216796875
1761383532432884700,6.393884765625,-0.956329345703125,-0.4148712158203125,-0.04254150390625
1761383532442953700,6.40395361328125,-0.957763671875,-0.3948211669921875,-0.051666259765625
1761383532453023700,6.414023681640625,-0.9588623046875,-0.378448486328125,-0.0548553466796875
1761383532463092700,6.4240927734375,-0.959869384765625,-0.375152587890625,-0.058685302734375
1761383532473162800,6.434162841796875,-0.959564208984375,-0.37957763671875,-0.061004638671875
1761383532483231700,6.444231689453125,-0.951141357421875,-0.381103515625,-0.0602569580078125
1761383532493301800,6.4543017578125,-0.9446258544921875,-0.3770294189453125,-0.0628814697265625
1761383532503370800,6.464370849609375,-0.9409942626953125,-0.368194580078125,-0.0625762939453125
1761383532513440800,6.474440673828125,-0.9392242431640625,-0.360931396484375,-0.0601348876953125
1761383532523509800,6.484509765625,-0.9335784912109375,-0.3543548583984375,-0.0626983642578125
1761383532533579800,6.494579833984375,-0.9283294677734375,-0.3478546142578125,-0.063873291015625
1761383532543648800,6.504648681640625,-0.929473876953125,-0.346405029296875,-0.06414794921875
1761383532553718800,6.51471875,-0.9265289306640625,-0.3420867919921875,-0.0609130859375
1761383532563787800,6.524787841796875,-0.917022705078125,-0.340179443359375,-0.0543670654296875
1761383532573857800,6.53485791015625,-0.9090423583984375,-0.33935546875,-0.05029296875
1761383532583926800,6.5449267578125,-0.9020538330078125,-0.34674072265625,-0.04510498046875
1761383532593996800,6.554996826171875,-0.9060516357421875,-0.36212158203125,-0.0424957275390625
1761383532604065500,6.5650654296875,-0.917938232421875,-0.37469482421875,-0.039154052734375
1761383532614135800,6.5751357421875,-0.92022705078125,-0.382781982421875,-0.0404052734375
1761383532624204800,6.585204833984375,-0.9139862060546875,-0.387054443359375,-0.04638671875
1761383532634274800,6.59527490234375,-0.9078826904296875,-0.3909149169921875,-0.055328369140625
1761383532644343800,6.60534375,-0.901947021484375,-0.392242431640625,-0.0654296875
1761383532654413800,6.615413818359375,-0.894683837890625,-0.395172119140625,-0.075775146484375
1761383532664482800,6.62548291015625,-0.891510009765625,-0.39385986328125,-0.084503173828125
1761383532674552600,6.635552490234375,-0.8939971923828125,-0.3918609619140625,-0.0895538330078125
1761383532684621800,6.645621826171875,-0.896697998046875,-0.39239501953125,-0.089111328125
1761383532694691600,6.655691650390625,-0.8945159912109375,-0.3944549560546875,-0.0832061767578125
1761383532704760800,6.6657607421875,-0.8955078125,-0.3993988037109375,-0.0792999267578125
1761383532714830800,6.675830810546875,-0.889984130859375,-0.4037933349609375,-0.076751708984375
1761383532724899800,6.68589990234375,-0.8820648193359375,-0.4101715087890625,-0.0733489990234375
1761383532734969900,6.695969970703125,-0.8748626708984375,-0.4147491455078125,-0.071197509765625
1761383532745038800,6.706038818359375,-0.876617431640625,-0.4183349609375,-0.0732574462890625
1761383532755108900,6.71610888671875,-0.8773345947265625,-0.421234130859375,-0.06591796875
1761383532765177600,6.726177490234375,-0.8775787353515625,-0.4262237548828125,-0.0585784912109375
1761383532775248000,6.736247802734375,-0.8721771240234375,-0.4328765869140625,-0.05609130859375
1761383532785317400,6.7463173828125,-0.8648681640625,-0.440948486328125,-0.0530242919921875
1761383532795387400,6.756387451171875,-0.8583526611328125,-0.4515838623046875,-0.0440826416015625
1761383532805457400,6.76645751953125,-0.852081298828125,-0.4608612060546875,-0.03680419921875
1761383532815526400,6.7765263671875,-0.8432769775390625,-0.462432861328125,-0.0337677001953125
1761383532825595400,6.786595458984375,-0.8379669189453125,-0.461029052734375,-0.023895263671875
1761383532835665400,6.79666552734375,-0.8374786376953125,-0.46307373046875,-0.0149993896484375
1761383532845735400,6.8067353515625,-0.8372802734375,-0.46551513671875,-0.009307861328125
1761383532855804400,6.816804443359375,-0.8414306640625,-0.4688873291015625,-0.008148193359375
1761383532865873400,6.826873291015625,-0.850860595703125,-0.469482421875,-0.0120849609375
1761383532875943400,6.836943359375,-0.8599090576171875,-0.4671783447265625,-0.0272369384765625
1761383532886012400,6.847012451171875,-0.864227294921875,-0.4632720947265625,-0.0423736572265625
1761383532896082400,6.85708251953125,-0.8732147216796875,-0.4561920166015625,-0.05364990234375
1761383532906151200,6.867151123046875,-0.888336181640625,-0.4491119384765625,-0.0667724609375
1761383532916221400,6.877221435546875,-0.9062957763671875,-0.4422607421875,-0.076873779296875
1761383532926291500,6.88729150390625,-0.9203033447265625,-0.4348907470703125,-0.0804595947265625
1761383532936360400,6.8973603515625,-0.9267578125,-0.42852783203125,-0.083892822265625
1761383532946430500,6.907430419921875,-0.9326171875,-0.4225311279296875,-0.0828857421875
1761383532956499500,6.91749951171875,-0.937286376953125,-0.4231414794921875,-0.08154296875
1761383532966569500,6.927569580078125,-0.94091796875,-0.4249267578125,-0.0797882080078125
1761383532976638200,6.93763818359375,-0.9409942626953125,-0.4278106689453125,-0.07568359375
1761383532986708500,6.94770849609375,-0.9385223388671875,-0.4390869140625,-0.06719970703125
1761383532996777200,6.957777099609375,-0.940704345703125,-0.45831298828125,-0.0460052490234375
1761383533006847500,6.967847412109375,-0.939605712890625,-0.4799957275390625,-0.025360107421875
1761383533016916200,6.977916259765625,-0.9412841796875,-0.498779296875,-0.0085296630859375
1761383533026986200,6.987986328125,-0.9520263671875,-0.5099945068359375,0.0003509521484375
1761383533037055500,6.998055419921875,-0.9804534912109375,-0.5129547119140625,-0.000396728515625
1761383533047125200,7.008125244140625,-1.0092315673828125,-0.5096435546875,-0.0046234130859375
1761383533057194500,7.018194580078125,-1.0344390869140625,-0.4960174560546875,-0.0028076171875
1761383533067264300,7.02826416015625,-1.0479736328125,-0.47064208984375,-0.0035552978515625
1761383533077333500,7.03833349609375,-1.0447540283203125,-0.444793701171875,-0.0135345458984375
1761383533087403300,7.0484033203125,-1.0360260009765625,-0.41607666015625,-0.0192413330078125
1761383533097472500,7.058472412109375,-1.02178955078125,-0.386474609375,-0.020751953125
1761383533107542300,7.068542236328125,-0.995361328125,-0.3574066162109375,-0.0231781005859375
1761383533117611500,7.078611572265625,-0.983062744140625,-0.3323211669921875,-0.02069091796875
1761383533127681500,7.088681640625,-0.9754638671875,-0.3204803466796875,-0.0093231201171875
1761383533137750300,7.098750244140625,-0.9610748291015625,-0.3223419189453125,0.00787353515625
1761383533147820500,7.108820556640625,-0.9338836669921875,-0.3326568603515625,0.0192413330078125
1761383533157889300,7.11888916015625,-0.897552490234375,-0.3433990478515625,0.02166748046875
1761383533167959600,7.12895947265625,-0.881622314453125,-0.3507232666015625,0.02947998046875
1761383533178028300,7.1390283203125,-0.9036407470703125,-0.360595703125,0.04510498046875
1761383533188098300,7.149098388671875,-0.9283294677734375,-0.3597869873046875,0.051177978515625
1761383533198167300,7.159167236328125,-0.9211883544921875,-0.32232666015625,0.0309906005859375
1761383533208237300,7.1692373046875,-0.9038543701171875,-0.26947021484375,0.0136871337890625
1761383533218306300,7.179306396484375,-0.8975982666015625,-0.24224853515625,0.016021728515625
1761383533228376300,7.189376220703125,-0.9076690673828125,-0.240142822265625,0.03131103515625
1761383533238445300,7.1994453125,-0.9310455322265625,-0.2462158203125,0.0505828857421875
1761383533248515300,7.209515380859375,-0.9385986328125,-0.2501678466796875,0.054962158203125
1761383533258584600,7.21958447265625,-0.932769775390625,-0.2460784912109375,0.0496063232421875
1761383533268654300,7.229654296875,-0.9297637939453125,-0.25042724609375,0.050537109375
1761383533278723600,7.2397236328125,-0.93133544921875,-0.2703399658203125,0.0577392578125
1761383533288793300,7.24979345703125,-0.933746337890625,-0.290863037109375,0.0642852783203125
1761383533298862300,7.2598623046875,-0.928985595703125,-0.3098602294921875,0.07293701171875
1761383533308932400,7.269932373046875,-0.922637939453125,-0.3282623291015625,0.083465576171875
1761383533319001300,7.28000146484375,-0.928436279296875,-0.346405029296875,0.09722900390625
1761383533329071400,7.2900712890625,-0.935546875,-0.362274169921875,0.1125640869140625
1761383533339140400,7.300140380859375,-0.935760498046875,-0.37255859375,0.1251983642578125
1761383533349210600,7.310210693359375,-0.939239501953125,-0.38104248046875,0.1366424560546875
1761383533359279400,7.320279296875,-0.9499053955078125,-0.3912811279296875,0.145721435546875
1761383533369349400,7.330349365234375,-0.9579315185546875,-0.399078369140625,0.14483642578125
1761383533379418400,7.34041845703125,-0.961395263671875,-0.398406982421875,0.133026123046875
1761383533389488400,7.35048828125,-0.9646148681640625,-0.3901214599609375,0.1132659912109375
1761383533399557400,7.360557373046875,-0.971893310546875,-0.376190185546875,0.0951690673828125
1761383533409627400,7.37062744140625,-0.9824981689453125,-0.3687591552734375,0.0847625732421875
1761383533419696400,7.3806962890625,-0.989227294921875,-0.3603057861328125,0.074493408203125
1761383533429765400,7.390765380859375,-0.9859466552734375,-0.347900390625,0.0620574951171875
1761383533439835400,7.40083544921875,-0.973663330078125,-0.3319549560546875,0.0531463623046875
1761383533449905400,7.410905517578125,-0.95733642578125,-0.3179168701171875,0.043182373046875
1761383533459974400,7.420974365234375,-0.944183349609375,-0.311126708984375,0.033721923828125
1761383533470044400,7.43104443359375,-0.9248199462890625,-0.3115997314453125,0.0232696533203125
1761383533480113200,7.441113037109375,-0.9042510986328125,-0.3167266845703125,0.020050048828125
1761383533490183400,7.451183349609375,-0.8924713134765625,-0.333709716796875,0.022796630859375
1761383533500252400,7.46125244140625,-0.8828887939453125,-0.35748291015625,0.032257080078125
1761383533510322400,7.471322509765625,-0.876953125,-0.379547119140625,0.0418243408203125
1761383533520391400,7.481391357421875,-0.870086669921875,-0.3962554931640625,0.051788330078125
1761383533530461200,7.491461181640625,-0.8575897216796875,-0.4081878662109375,0.0644989013671875
1761383533540530400,7.501530517578125,-0.857940673828125,-0.4177703857421875,0.074615478515625
1761383533550600200,7.51160009765625,-0.8603668212890625,-0.42352294921875,0.085784912109375
1761383533560669400,7.52166943359375,-0.857269287109375,-0.4246673583984375,0.094818115234375
1761383533570739200,7.5317392578125,-0.857452392578125,-0.4217987060546875,0.101837158203125
1761383533580808400,7.541808349609375,-0.8603973388671875,-0.417694091796875,0.1074371337890625
1761383533590877200,7.551877197265625,-0.8611907958984375,-0.413330078125,0.1089630126953125
1761383533600947500,7.561947509765625,-0.859100341796875,-0.4095306396484375,0.109619140625
1761383533611017500,7.572017578125,-0.854827880859375,-0.4102935791015625,0.1116485595703125
1761383533621086500,7.58208642578125,-0.8545074462890625,-0.418060302734375,0.1220245361328125
1761383533631155500,7.592155517578125,-0.8579254150390625,-0.4308013916015625,0.130950927734375
1761383533641225200,7.60222509765625,-0.860198974609375,-0.4395751953125,0.139556884765625
1761383533651295500,7.61229541015625,-0.8636016845703125,-0.44903564453125,0.14434814453125
1761383533661364200,7.6223642578125,-0.87677001953125,-0.45440673828125,0.14910888671875
1761383533671433500,7.63243359375,-0.89093017578125,-0.454376220703125,0.1512298583984375
1761383533681503200,7.642503173828125,-0.90301513671875,-0.446197509765625,0.14703369140625
1761383533691572500,7.652572509765625,-0.9163970947265625,-0.4348297119140625,0.140228271484375
1761383533701642200,7.662642333984375,-0.9279937744140625,-0.424102783203125,0.13153076171875
1761383533711711500,7.67271142578125,-0.9300079345703125,-0.413726806640625,0.121063232421875
1761383533721781500,7.682781494140625,-0.93310546875,-0.398468017578125,0.1109161376953125
1761383533731850500,7.6928505859375,-0.9357452392578125,-0.3888702392578125,0.1039276123046875
1761383533741920500,7.70292041015625,-0.937286376953125,-0.389556884765625,0.10076904296875
1761383533751989200,7.7129892578125,-0.93646240234375,-0.395477294921875,0.09619140625
1761383533762059500,7.7230595703125,-0.9354705810546875,-0.401763916015625,0.0924835205078125
1761383533772128300,7.733128173828125,-0.9298553466796875,-0.410491943359375,0.088592529296875
1761383533782198500,7.743198486328125,-0.9229583740234375,-0.420166015625,0.08001708984375
1761383533792271400,7.753271240234375,-0.9127349853515625,-0.4309844970703125,0.0738372802734375
1761383533802341000,7.763341064453125,-0.9080657958984375,-0.44256591796875,0.0702972412109375
1761383533812410400,7.773410400390625,-0.9021759033203125,-0.44891357421875,0.0662689208984375
1761383533822480100,7.783480224609375,-0.89617919921875,-0.456298828125,0.0634002685546875
1761383533832549400,7.79354931640625,-0.898773193359375,-0.467498779296875,0.0648956298828125
1761383533842619100,7.803619140625,-0.902313232421875,-0.4742584228515625,0.070465087890625
1761383533852688400,7.8136884765625,-0.9039306640625,-0.4762115478515625,0.074951171875
1761383533862758100,7.823758056640625,-0.9040985107421875,-0.4769134521484375,0.076507568359375
1761383533872827400,7.833827392578125,-0.908477783203125,-0.4807281494140625,0.0762176513671875
1761383533882897400,7.8438974609375,-0.91082763671875,-0.489898681640625,0.0747528076171875
1761383533892966100,7.853966064453125,-0.9124603271484375,-0.5106353759765625,0.079132080078125
1761383533903036400,7.864036376953125,-0.9274749755859375,-0.53515625,0.0789337158203125
1761383533913105200,7.874105224609375,-0.9481658935546875,-0.54486083984375,0.0713043212890625
1761383533923175400,7.884175537109375,-0.9597015380859375,-0.5516510009765625,0.0587005615234375
1761383533933244200,7.894244140625,-0.970733642578125,-0.5587310791015625,0.050445556640625
1761383533943314400,7.904314453125,-0.9857177734375,-0.5643463134765625,0.046966552734375
1761383533953383200,7.914383056640625,-0.9978485107421875,-0.562042236328125,0.036102294921875
1761383533963453200,7.924453125,-1.0019073486328125,-0.54730224609375,0.018218994140625
1761383533973522200,7.934522216796875,-0.9994049072265625,-0.5252685546875,0.002044677734375
1761383533983592200,7.94459228515625,-0.98486328125,-0.5017547607421875,-0.0099945068359375
1761383533993661200,7.9546611328125,-0.9679412841796875,-0.4799652099609375,-0.0143890380859375
1761383534003731200,7.964731201171875,-0.9496307373046875,-0.4615478515625,-0.01165771484375
1761383534013800200,7.97480029296875,-0.9316253662109375,-0.4488067626953125,-0.0055084228515625
1761383534023870200,7.9848701171875,-0.9176788330078125,-0.433258056640625,-0.0014190673828125
1761383534033939500,7.994939453125,-0.903961181640625,-0.420654296875,-0.0022430419921875
1761383534044009200,8.00500927734375,-0.882720947265625,-0.418609619140625,-0.005584716796875
1761383534054078500,8.015078369140625,-0.8617706298828125,-0.417266845703125,-0.0074005126953125
1761383534064148200,8.025148193359374,-0.85308837890625,-0.4132537841796875,-0.010650634765625
1761383534074217200,8.03521728515625,-0.838134765625,-0.4115753173828125,-0.0096893310546875
1761383534084287200,8.045287353515626,-0.826446533203125,-0.4133758544921875,-0.00701904296875
1761383534094356200,8.055356201171875,-0.81640625,-0.41558837890625,-0.0023345947265625
1761383534104426200,8.06542626953125,-0.80450439453125,-0.413970947265625,0.0030670166015625
1761383534114495200,8.0754951171875,-0.808380126953125,-0.4090118408203125,0.0068359375
1761383534124565200,8.085565185546875,-0.818359375,-0.4087677001953125,0.0098724365234375
1761383534134634200,8.09563427734375,-0.822418212890625,-0.4147796630859375,0.0059356689453125
1761383534144704300,8.105704345703124,-0.8231353759765625,-0.41119384765625,-0.000579833984375
1761383534154773200,8.115773193359376,-0.82080078125,-0.3979644775390625,-0.015899658203125
1761383534164843300,8.12584326171875,-0.826812744140625,-0.390106201171875,-0.0282135009765625
1761383534174912300,8.135912353515625,-0.8326873779296875,-0.3923492431640625,-0.0373077392578125
1761383534184982300,8.145982177734375,-0.8397216796875,-0.3908233642578125,-0.0460052490234375
1761383534195051300,8.15605126953125,-0.845703125,-0.3868408203125,-0.0507965087890625
1761383534205121300,8.166121337890624,-0.8495635986328125,-0.3840789794921875,-0.0545654296875
1761383534215190300,8.176190185546876,-0.8482666015625,-0.3851318359375,-0.0641021728515625
1761383534225260300,8.18626025390625,-0.8447265625,-0.38970947265625,-0.0676116943359375
1761383534235329000,8.1963291015625,-0.8442230224609375,-0.39227294921875,-0.071075439453125
1761383534245399300,8.2063994140625,-0.8486785888671875,-0.3929595947265625,-0.06951904296875
1761383534255468300,8.21646826171875,-0.85284423828125,-0.3972320556640625,-0.066162109375
1761383534265538300,8.226538330078125,-0.859100341796875,-0.40106201171875,-0.064239501953125
1761383534275607300,8.236607177734374,-0.8696746826171875,-0.4022674560546875,-0.0648651123046875
1761383534285677300,8.24667724609375,-0.877655029296875,-0.403228759765625,-0.0668182373046875
1761383534295746300,8.256746337890625,-0.8801116943359375,-0.4036407470703125,-0.0669708251953125
1761383534305816000,8.266816162109375,-0.8829345703125,-0.40911865234375,-0.069580078125
1761383534315885300,8.27688525390625,-0.8854217529296875,-0.41900634765625,-0.0692596435546875
1761383534325955000,8.286955078125,-0.88629150390625,-0.4350738525390625,-0.064300537109375
1761383534336024300,8.2970244140625,-0.8853912353515625,-0.4517364501953125,-0.06201171875
1761383534346094300,8.30709423828125,-0.8873443603515625,-0.46185302734375,-0.0592041015625
1761383534356163300,8.317163330078126,-0.8858795166015625,-0.468902587890625,-0.0558624267578125
1761383534366233300,8.3272333984375,-0.8878021240234375,-0.477203369140625,-0.0532989501953125
1761383534376302300,8.33730224609375,-0.8879852294921875,-0.478973388671875,-0.058929443359375
1761383534386372400,8.347372314453125,-0.8797454833984375,-0.4824371337890625,-0.067474365234375
1761383534396441300,8.35744140625,-0.8730926513671875,-0.4890289306640625,-0.0762786865234375
1761383534406511400,8.367511474609374,-0.864471435546875,-0.497222900390625,-0.084136962890625
1761383534416580000,8.377580078125,-0.8501739501953125,-0.5030975341796875,-0.0912322998046875
1761383534426650400,8.387650390625,-0.830413818359375,-0.509979248046875,-0.0949859619140625
1761383534436719000,8.397718994140625,-0.8173065185546875,-0.51458740234375,-0.0915069580078125
1761383534446789400,8.407789306640625,-0.8155059814453125,-0.5173187255859375,-0.0868682861328125
1761383534456858000,8.417858154296875,-0.81640625,-0.5196685791015625,-0.0806121826171875
1761383534466928000,8.42792822265625,-0.81793212890625,-0.52056884765625,-0.07415771484375
1761383534476997400,8.437997314453124,-0.8189849853515625,-0.5188751220703125,-0.0677337646484375
1761383534487067100,8.448067138671876,-0.816497802734375,-0.5182952880859375,-0.0613861083984375
1761383534497136400,8.458136474609375,-0.8203125,-0.5223846435546875,-0.0556182861328125
1761383534507206100,8.4682060546875,-0.8263397216796875,-0.5244140625,-0.0515289306640625
1761383534517275400,8.478275390625,-0.834259033203125,-0.51934814453125,-0.0499114990234375
1761383534527345200,8.48834521484375,-0.8475341796875,-0.512664794921875,-0.0501861572265625
1761383534537414400,8.498414306640624,-0.8543243408203125,-0.509002685546875,-0.051116943359375
1761383534547484200,8.508484130859374,-0.859161376953125,-0.5006866455078125,-0.053924560546875
1761383534557553400,8.518553466796876,-0.8668212890625,-0.4914398193359375,-0.0558013916015625
1761383534567623400,8.52862353515625,-0.875274658203125,-0.4928131103515625,-0.0568084716796875
1761383534577692200,8.538692138671875,-0.8803863525390625,-0.4935150146484375,-0.0564422607421875
1761383534587762400,8.548762451171875,-0.8824462890625,-0.4935302734375,-0.058349609375
1761383534597831200,8.5588310546875,-0.8924102783203125,-0.492034912109375,-0.06109619140625
1761383534607901400,8.5689013671875,-0.90338134765625,-0.49407958984375,-0.0598602294921875
1761383534617970200,8.57897021484375,-0.91522216796875,-0.500274658203125,-0.058868408203125
1761383534628040200,8.589040283203126,-0.9250640869140625,-0.5045623779296875,-0.0607757568359375
1761383534638109200,8.599109130859375,-0.9299468994140625,-0.503662109375,-0.0633087158203125
1761383534648179200,8.60917919921875,-0.93231201171875,-0.5038909912109375,-0.06646728515625
1761383534658248200,8.619248291015625,-0.9257659912109375,-0.5137786865234375,-0.0617828369140625
1761383534668318200,8.629318115234375,-0.9148101806640625,-0.535430908203125,-0.0455474853515625
1761383534678387200,8.63938720703125,-0.917938232421875,-0.5429534912109375,-0.03253173828125
1761383534688457200,8.649457275390626,-0.918487548828125,-0.5363006591796875,-0.0242919921875
1761383534698526200,8.659526123046875,-0.9111328125,-0.5486602783203125,-0.009674072265625
1761383534708596200,8.66959619140625,-0.9158782958984375,-0.567718505859375,0.007781982421875
1761383534718665500,8.67966552734375,-0.9336395263671875,-0.56573486328125,0.0183563232421875
1761383534728735200,8.6897353515625,-0.9392852783203125,-0.553192138671875,0.0133819580078125
1761383534738803200,8.69980322265625,-0.93731689453125,-0.5267333984375,0.005279541015625
1761383534748873200,8.709873291015626,-0.945343017578125,-0.49102783203125,0.001007080078125
1761383534758942500,8.7199423828125,-0.95538330078125,-0.457794189453125,0.008697509765625
1761383534769012200,8.73001220703125,-0.9594879150390625,-0.4264373779296875,0.0190887451171875
1761383534779081500,8.74008154296875,-0.9611968994140625,-0.400146484375,0.0265960693359375
1761383534789150700,8.750150634765625,-0.95556640625,-0.38787841796875,0.028656005859375
1761383534799219700,8.7602197265625,-0.948883056640625,-0.3865966796875,0.0230560302734375
1761383534809289700,8.770289794921876,-0.9503631591796875,-0.396636962890625,0.0189666748046875
1761383534819358500,8.7803583984375,-0.958343505859375,-0.4185791015625,0.0206756591796875
1761383534829428700,8.7904287109375,-0.9582672119140625,-0.435882568359375,0.0156707763671875
1761383534839497500,8.80049755859375,-0.9479522705078125,-0.4367828369140625,-0.0000457763671875
1761383534849567700,8.810567626953125,-0.942657470703125,-0.441619873046875,-0.0223236083984375
1761383534859636500,8.820636474609374,-0.9307708740234375,-0.4511871337890625,-0.0366058349609375
1761383534869706800,8.830706787109374,-0.9194488525390625,-0.4552459716796875,-0.0456085205078125
1761383534879775500,8.840775390625,-0.9097900390625,-0.4431610107421875,-0.0474700927734375
1761383534889845500,8.850845458984375,-0.901580810546875,-0.42254638671875,-0.0395965576171875
1761383534899914800,8.860914794921875,-0.8959503173828125,-0.3968963623046875,-0.033477783203125
1761383534909984500,8.870984619140625,-0.8945465087890625,-0.3742218017578125,-0.02764892578125
1761383534920053800,8.8810537109375,-0.888397216796875,-0.3568572998046875,-0.024749755859375
1761383534930123500,8.89112353515625,-0.877685546875,-0.33917236328125,-0.0207366943359375
1761383534940192800,8.90119287109375,-0.8677215576171875,-0.33843994140625,-0.0098419189453125
1761383534950262500,8.911262451171876,-0.8580322265625,-0.3475189208984375,0.0027923583984375
1761383534960331800,8.921331787109375,-0.841644287109375,-0.3540191650390625,0.0190887451171875
1761383534970401500,8.931401611328125,-0.8300323486328125,-0.3603515625,0.0384674072265625
1761383534980470800,8.941470703125,-0.8225555419921875,-0.37451171875,0.0633392333984375
1761383534990540800,8.951540771484375,-0.804901123046875,-0.393524169921875,0.0866241455078125
1761383535000609500,8.961609619140624,-0.8068389892578125,-0.404449462890625,0.1147613525390625
1761383535010679800,8.9716796875,-0.8034820556640625,-0.4095916748046875,0.1377410888671875
1761383535020748500,8.98174853515625,-0.80621337890625,-0.424102783203125,0.1556549072265625
1761383535030818800,8.99181884765625,-0.8159637451171875,-0.4364013671875,0.1733551025390625
1761383535040887600,9.001887451171875,-0.8309326171875,-0.4447021484375,0.18609619140625
1761383535050957600,9.01195751953125,-0.8477325439453125,-0.455352783203125,0.187255859375
1761383535061026600,9.022026611328124,-0.8557281494140625,-0.4583892822265625,0.1765594482421875
1761383535071096600,9.0320966796875,-0.8576507568359375,-0.45947265625,0.1564178466796875
1761383535081165600,9.04216552734375,-0.86480712890625,-0.4652557373046875,0.1312103271484375
1761383535091235600,9.052235595703126,-0.8738555908203125,-0.4699859619140625,0.1040802001953125
1761383535101304600,9.0623046875,-0.8792266845703125,-0.464630126953125,0.0760040283203125
1761383535111374600,9.07237451171875,-0.8855743408203125,-0.4537353515625,0.056640625
1761383535121443800,9.08244384765625,-0.8938140869140625,-0.4498291015625,0.0477142333984375
1761383535131513600,9.092513671875,-0.89801025390625,-0.44610595703125,0.0429534912109375
1761383535141582800,9.102582763671874,-0.8965301513671875,-0.4376678466796875,0.0408172607421875
1761383535151652600,9.112652587890626,-0.8945465087890625,-0.434814453125,0.0435333251953125
1761383535161721600,9.1227216796875,-0.896820068359375,-0.43695068359375,0.0478363037109375
1761383535171791600,9.13279150390625,-0.8940887451171875,-0.4390716552734375,0.047332763671875
1761383535181860600,9.142860595703125,-0.8914642333984375,-0.4402923583984375,0.0476531982421875
1761383535191930600,9.1529306640625,-0.89202880859375,-0.4450836181640625,0.0515289306640625
1761383535201999600,9.16299951171875,-0.8899078369140625,-0.4468994140625,0.0564727783203125
1761383535212069600,9.173069580078124,-0.888427734375,-0.44952392578125,0.0594635009765625
1761383535222138600,9.183138671875,-0.8887786865234375,-0.457794189453125,0.0618896484375
1761383535232208600,9.193208740234375,-0.893402099609375,-0.4639739990234375,0.0609283447265625
1761383535242277600,9.203277587890625,-0.890625,-0.466339111328125,0.05621337890625
1761383535252347600,9.21334765625,-0.882965087890625,-0.466888427734375,0.0489044189453125
1761383535262416600,9.223416748046875,-0.8774566650390625,-0.4655914306640625,0.0411376953125
1761383535272486700,9.233486572265624,-0.870086669921875,-0.4693756103515625,0.03546142578125
1761383535282555600,9.2435556640625,-0.8657073974609375,-0.47344970703125,0.0346832275390625
1761383535292625700,9.253625732421876,-0.86309814453125,-0.481475830078125,0.035614013671875
1761383535302694700,9.263694580078125,-0.8573455810546875,-0.4823760986328125,0.0341949462890625
1761383535312763600,9.273763671875,-0.8583221435546875,-0.479736328125,0.03662109375
1761383535322833700,9.283833740234375,-0.8597412109375,-0.48492431640625,0.0450592041015625
1761383535332902700,9.293902587890624,-0.864471435546875,-0.48828125,0.0500030517578125
1761383535342972400,9.303972412109376,-0.8696746826171875,-0.4890289306640625,0.0543365478515625
1761383535353041700,9.314041748046876,-0.884033203125,-0.49542236328125,0.05828857421875
1761383535363111700,9.324111572265625,-0.903106689453125,-0.49896240234375,0.060394287109375
1761383535373180700,9.3341806640625,-0.914703369140625,-0.4941558837890625,0.057464599609375
1761383535383250700,9.344250732421875,-0.9241180419921875,-0.4837799072265625,0.053680419921875
1761383535393319700,9.354319580078124,-0.9343109130859375,-0.476226806640625,0.0487060546875
1761383535403389700,9.3643896484375,-0.9365692138671875,-0.4725189208984375,0.0437164306640625
1761383535413458700,9.374458740234376,-0.939056396484375,-0.4693603515625,0.04229736328125
1761383535423528700,9.38452880859375,-0.9417724609375,-0.4729461669921875,0.0450439453125
1761383535433597400,9.394597412109375,-0.94049072265625,-0.4796142578125,0.049102783203125
1761383535443667700,9.404667724609375,-0.9326019287109375,-0.4863128662109375,0.0496063232421875
1761383535453736400,9.414736328125,-0.9219970703125,-0.4891815185546875,0.047576904296875
1761383535463806700,9.424806640625,-0.908538818359375,-0.49176025390625,0.046539306640625
1761383535473875500,9.43487548828125,-0.90228271484375,-0.494354248046875,0.049102783203125
1761383535483945700,9.44494580078125,-0.8940277099609375,-0.496063232421875,0.05230712890625
1761383535494014700,9.4550146484375,-0.8839111328125,-0.4964752197265625,0.056365966796875
1761383535504084500,9.46508447265625,-0.8756866455078125,-0.50286865234375,0.0662078857421875
1761383535514153700,9.47515380859375,-0.869903564453125,-0.5206756591796875,0.081756591796875
1761383535524223500,9.485223388671875,-0.888427734375,-0.52972412109375,0.0868682861328125
1761383535534292700,9.495292724609374,-0.898773193359375,-0.524200439453125,0.07940673828125
1761383535544362500,9.505362548828124,-0.8927001953125,-0.5276031494140625,0.0708770751953125
1761383535554431700,9.515431640625,-0.9017181396484375,-0.5341949462890625,0.06640625
1761383535564501500,9.52550146484375,-0.91644287109375,-0.53369140625,0.0587615966796875
1761383535574570800,9.53557080078125,-0.9303741455078125,-0.5284423828125,0.0432891845703125
1761383535584640800,9.545640869140625,-0.935882568359375,-0.516204833984375,0.0206298828125
1761383535594709800,9.555709716796875,-0.9372100830078125,-0.5008392333984375,0.0027618408203125
1761383535604779800,9.56577978515625,-0.940582275390625,-0.48333740234375,-0.0048675537109375
1761383535614848500,9.5758486328125,-0.942657470703125,-0.4617462158203125,-0.0065765380859375
1761383535624918800,9.585918701171876,-0.943878173828125,-0.4328765869140625,-0.0136566162109375
1761383535634987500,9.595987548828125,-0.9398345947265625,-0.406341552734375,-0.021148681640625
1761383535645057800,9.606057861328125,-0.9347381591796875,-0.386505126953125,-0.027496337890625
1761383535655126500,9.61612646484375,-0.923126220703125,-0.370391845703125,-0.033538818359375
1761383535665196500,9.626196533203125,-0.9064788818359375,-0.359100341796875,-0.0406646728515625
1761383535675265500,9.636265625,-0.8882598876953125,-0.352203369140625,-0.0492706298828125
1761383535685335600,9.64633544921875,-0.8669281005859375,-0.3532867431640625,-0.055206298828125
1761383535695404500,9.656404541015625,-0.8435516357421875,-0.3603057861328125,-0.06207275390625
1761383535705474600,9.666474609375,-0.8253021240234375,-0.373565673828125,-0.0602874755859375
1761383535715543800,9.676543701171875,-0.811248779296875,-0.394073486328125,-0.0511016845703125
1761383535725613600,9.686613525390625,-0.802825927734375,-0.4152069091796875,-0.0405426025390625
1761383535735682800,9.696682861328124,-0.8061981201171875,-0.42926025390625,-0.032928466796875
1761383535745752600,9.706752685546874,-0.808319091796875,-0.4357147216796875,-0.030364990234375
1761383535755821800,9.71682177734375,-0.813323974609375,-0.4366455078125,-0.0287017822265625
1761383535765891600,9.7268916015625,-0.82586669921875,-0.436798095703125,-0.0252838134765625
1761383535775960600,9.736960693359375,-0.84307861328125,-0.440216064453125,-0.0217742919921875
1761383535786030600,9.747030517578125,-0.854278564453125,-0.444000244140625,-0.0212860107421875
1761383535796095700,9.757095703125,-0.8640594482421875,-0.439849853515625,-0.0300750732421875
1761383535806165800,9.767165771484375,-0.8764495849609375,-0.4300079345703125,-0.0467071533203125
1761383535816234800,9.77723486328125,-0.89111328125,-0.4206085205078125,-0.06524658203125
1761383535826305000,9.787304931640625,-0.90875244140625,-0.4142913818359375,-0.0872344970703125
1761383535836373800,9.797373779296874,-0.921173095703125,-0.4057769775390625,-0.108123779296875
1761383535846443800,9.80744384765625,-0.93463134765625,-0.3990325927734375,-0.1217498779296875
1761383535856512800,9.8175126953125,-0.9511260986328125,-0.4004669189453125,-0.1285858154296875
1761383535866582800,9.827582763671876,-0.9530487060546875,-0.4014892578125,-0.13623046875
1761383535876651800,9.83765185546875,-0.9534912109375,-0.394622802734375,-0.147186279296875
1761383535886721800,9.8477216796875,-0.95050048828125,-0.391693115234375,-0.1478118896484375
1761383535896790800,9.857790771484375,-0.9428863525390625,-0.3889617919921875,-0.147796630859375
1761383535906860800,9.86786083984375,-0.9395294189453125,-0.392303466796875,-0.1449432373046875
1761383535916929800,9.8779296875,-0.9371337890625,-0.40777587890625,-0.1356964111328125
1761383535926999800,9.887999755859376,-0.9434356689453125,-0.4267730712890625,-0.123626708984375
1761383535937068800,9.89806884765625,-0.95196533203125,-0.4374847412109375,-0.1160430908203125
1761383535947138800,9.908138916015625,-0.9404449462890625,-0.4381561279296875,-0.1149139404296875
1761383535957207800,9.918207763671875,-0.9233551025390625,-0.4326019287109375,-0.1159820556640625
1761383535967276800,9.92827685546875,-0.913543701171875,-0.429412841796875,-0.1109466552734375
1761383535977346800,9.938346923828124,-0.9017181396484375,-0.4370880126953125,-0.1011962890625
1761383535987416800,9.948416748046874,-0.89093017578125,-0.44537353515625,-0.093231201171875
1761383535997485800,9.95848583984375,-0.8803558349609375,-0.4490203857421875,-0.0849151611328125
1761383536007554800,9.968554931640625,-0.868408203125,-0.450408935546875,-0.0752105712890625
1761383536017624800,9.978624755859375,-0.86236572265625,-0.4501800537109375,-0.0680999755859375
1761383536027693800,9.98869384765625,-0.854888916015625,-0.4496307373046875,-0.0633087158203125
1761383536037763800,9.998763916015625,-0.8470306396484375,-0.4520111083984375,-0.0548095703125
1761383536047832800,10.008832763671874,-0.8437652587890625,-0.456634521484375,-0.045135498046875
1761383536057902800,10.01890283203125,-0.8419647216796875,-0.4609222412109375,-0.037872314453125
1761383536067971600,10.0289716796875,-0.83587646484375,-0.459197998046875,-0.0345001220703125
1761383536078041900,10.039041748046875,-0.8329315185546875,-0.458343505859375,-0.0333099365234375
1761383536088110600,10.049110595703125,-0.8308563232421875,-0.4611358642578125,-0.030181884765625
1761383536098180900,10.059180908203125,-0.830291748046875,-0.467437744140625,-0.0272369384765625
1761383536108249900,10.069249755859374,-0.828277587890625,-0.47821044921875,-0.0234375
1761383536118319900,10.07931982421875,-0.8271026611328125,-0.487762451171875,-0.0177154541015625
1761383536128388900,10.089388916015626,-0.8284759521484375,-0.4929046630859375,-0.013916015625
1761383536138458600,10.099458740234375,-0.8307342529296875,-0.491058349609375,-0.013763427734375
1761383536148527900,10.10952783203125,-0.827362060546875,-0.490234375,-0.01214599609375
1761383536158597600,10.11959765625,-0.82513427734375,-0.4914093017578125,-0.01123046875
1761383536168667000,10.1296669921875,-0.823455810546875,-0.491455078125,-0.01116943359375
1761383536178736600,10.139736572265624,-0.8288421630859375,-0.49249267578125,-0.011566162109375
1761383536188806000,10.149805908203126,-0.83734130859375,-0.49346923828125,-0.016265869140625
1761383536198876000,10.1598759765625,-0.8428802490234375,-0.4954376220703125,-0.0206146240234375
1761383536208945000,10.16994482421875,-0.8531646728515625,-0.496124267578125,-0.0252685546875
1761383536219015000,10.180014892578125,-0.857666015625,-0.4964447021484375,-0.0347137451171875
1761383536229084000,10.190083984375,-0.85498046875,-0.493255615234375,-0.0435333251953125
1761383536239154000,10.20015380859375,-0.864837646484375,-0.4977874755859375,-0.0400238037109375
1761383536249222700,10.21022265625,-0.885711669921875,-0.5101776123046875,-0.0346527099609375
1761383536259293000,10.22029296875,-0.8970947265625,-0.5110626220703125,-0.029693603515625
1761383536269361700,10.230361572265625,-0.9075164794921875,-0.5069427490234375,-0.029388427734375
1761383536279432000,10.240431884765625,-0.9051971435546875,-0.5003509521484375,-0.0319671630859375
1761383536289500700,10.250500732421875,-0.9029541015625,-0.4995574951171875,-0.0302734375
1761383536299570700,10.26057080078125,-0.9212799072265625,-0.5026702880859375,-0.022857666015625
1761383536309639700,10.2706396484375,-0.9242401123046875,-0.5033111572265625,-0.0192108154296875
1761383536319709700,10.280709716796874,-0.9327545166015625,-0.503204345703125,-0.02197265625
1761383536329779000,10.290779052734376,-0.9385223388671875,-0.501556396484375,-0.0265350341796875
1761383536339848700,10.3008486328125,-0.93896484375,-0.5007476806640625,-0.0312042236328125
1761383536349918000,10.31091796875,-0.9422454833984375,-0.497406005859375,-0.0334014892578125
1761383536359987700,10.32098779296875,-0.9394378662109375,-0.4996185302734375,-0.0297088623046875
1761383536370057000,10.331056884765625,-0.9254913330078125,-0.5093841552734375,-0.0223236083984375
1761383536380126700,10.341126708984374,-0.9211883544921875,-0.5247650146484375,-0.0163726806640625
1761383536390196000,10.351196044921876,-0.9376068115234375,-0.5309600830078125,-0.0075225830078125
1761383536400265700,10.361265625,-0.9453125,-0.527374267578125,-0.0029754638671875
1761383536410334700,10.371334716796875,-0.9486236572265625,-0.5174560546875,0.0013275146484375
1761383536420405000,10.381405029296875,-0.9601593017578125,-0.5049591064453125,-0.00250244140625
1761383536430473700,10.3914736328125,-0.9654541015625,-0.490081787109375,-0.00457763671875
1761383536440544000,10.4015439453125,-0.967437744140625,-0.472900390625,-0.0052337646484375
1761383536450612700,10.41161279296875,-0.968597412109375,-0.4518890380859375,-0.0068511962890625
1761383536460682800,10.421682861328126,-0.96014404296875,-0.431732177734375,-0.0032501220703125
1761383536470751700,10.431751708984375,-0.9568328857421875,-0.410919189453125,-0.0012969970703125
1761383536480821800,10.44182177734375,-0.947113037109375,-0.3857879638671875,-0.0019989013671875
1761383536490890800,10.451890869140625,-0.9430999755859375,-0.367950439453125,0.0004119873046875
1761383536500960000,10.4619599609375,-0.9390716552734375,-0.367645263671875,0.008056640625
1761383536511029800,10.47202978515625,-0.933685302734375,-0.373809814453125,0.0127410888671875
1761383536521099800,10.482099853515624,-0.9376373291015625,-0.38232421875,0.01934814453125
1761383536531168800,10.492168701171876,-0.9470672607421875,-0.38568115234375,0.0302581787109375
1761383536541237800,10.50223779296875,-0.9542236328125,-0.3792724609375,0.046295166015625
1761383536551308000,10.51230810546875,-0.9560699462890625,-0.36431884765625,0.059051513671875
1761383536561376800,10.522376708984375,-0.9546661376953125,-0.355010986328125,0.0697174072265625
1761383536571446800,10.53244677734375,-0.9475250244140625,-0.3542938232421875,0.07977294921875
1761383536581515800,10.542515869140624,-0.9491729736328125,-0.35797119140625,0.082763671875
1761383536591585800,10.552585693359376,-0.945831298828125,-0.362030029296875,0.07000732421875
1761383536601654800,10.56265478515625,-0.931793212890625,-0.352935791015625,0.05609130859375
1761383536611724800,10.572724853515625,-0.9278564453125,-0.3386383056640625,0.042083740234375
1761383536621793800,10.582793701171875,-0.9236907958984375,-0.3330230712890625,0.0275726318359375
1761383536631863800,10.59286376953125,-0.92138671875,-0.33917236328125,0.0187530517578125
1761383536641932800,10.602932861328124,-0.923187255859375,-0.345184326171875,0.022308349609375
1761383536652002800,10.6130029296875,-0.9208984375,-0.336669921875,0.0299530029296875
1761383536662071800,10.62307177734375,-0.9053497314453125,-0.32366943359375,0.0375518798828125
1761383536672141800,10.633141845703125,-0.8874359130859375,-0.3306884765625,0.0445404052734375
1761383536682210600,10.64321044921875,-0.8775482177734375,-0.3492279052734375,0.056732177734375
1761383536692280800,10.65328076171875,-0.87799072265625,-0.36602783203125,0.0705108642578125
1761383536702349800,10.663349853515625,-0.8791961669921875,-0.376068115234375,0.07830810546875
1761383536712419800,10.673419921875,-0.8714752197265625,-0.3775634765625,0.084808349609375
1761383536722488800,10.68348876953125,-0.8564605712890625,-0.372100830078125,0.0873870849609375
1761383536732558800,10.693558837890626,-0.8428497314453125,-0.356842041015625,0.0922088623046875
1761383536742627800,10.7036279296875,-0.833740234375,-0.3354339599609375,0.097625732421875
1761383536752697600,10.713697509765625,-0.8254852294921875,-0.2993316650390625,0.1249847412109375
1761383536762766800,10.723766845703125,-0.926483154296875,-0.2959136962890625,0.1605377197265625
1761383536772836600,10.733836669921875,-0.9233856201171875,-0.3328094482421875,0.16058349609375
1761383536782905900,10.74390576171875,-0.9051666259765625,-0.3477020263671875,0.1590576171875
1761383536792976600,10.7539765625,-0.9053802490234375,-0.342498779296875,0.1472015380859375
1761383536803045600,10.764045654296876,-0.9021759033203125,-0.3557586669921875,0.132110595703125
1761383536813115600,10.77411572265625,-0.8939208984375,-0.355926513671875,0.1215667724609375
1761383536823184400,10.784184326171875,-0.8882904052734375,-0.332733154296875,0.1109619140625
