time,seconds_elapsed,z,y,x
1761384872728845600,0.105845458984375,0.00784311471581459,0.009448431020602584,-0.00014123510159552098
1761384872738914600,0.11591455078125,-0.0026297639816999434,0.011911569731123745,-0.011523063603881745
1761384872748983600,0.125983642578125,0.0012613982379436493,-0.005608323134761303,-0.013606610145978628
1761384872759052500,0.136052490234375,0.0048538697719573975,-0.0028688517008908093,-0.0015478139638900755
1761384872769121500,0.14612158203125,-0.006962240228056907,-0.0027057518273591995,0.0005122603710740805
1761384872779190500,0.1561904296875,-0.0032259763091802597,0.0008656951849348842,0.01209468947937712
1761384872789259800,0.166259765625,-0.006969254490733146,0.010508735462184995,0.009794084386806935
1761384872799328500,0.17632861328125,-0.0006797989577054977,0.011979684797581285,0.007731854627374559
1761384872809397800,0.186397705078125,-0.005018120422959327,0.0025455928295850753,-0.001339450176525861
1761384872819466500,0.196466552734375,-0.0027718028008937834,-0.0023483897570520636,-0.004980729288328439
1761384872829535500,0.206535400390625,0.002616319978237152,-0.0031463900006376204,-0.001546480523329228
1761384872839604700,0.216604736328125,-0.003066401833295822,-0.006388714656420051,0.0000421403749845922
1761384872849673500,0.226673583984375,-0.0018716390907764435,0.00026546426946297285,0.011376768734678626
1761384872859742700,0.23674267578125,-0.003965396499633789,0.0018406411643140017,0.003162756613548845
1761384872869811500,0.2468115234375,0.002765373060107231,0.0017634477422572672,0.00011003624573349952
1761384872879880700,0.256880615234375,-0.0032218846559524533,-0.00004124532584100961,-0.002123257497977465
1761384872889949400,0.266949462890625,-0.004718845215439796,0.0038095483507961034,-0.014162782724015414
1761384872900018700,0.277018798828125,-0.009361702585220337,0.005404014468006789,-0.00964864803412929
1761384872910087700,0.287087646484375,-0.009514847320318221,-0.0023007877556607127,0.002376939998101443
1761384872920156400,0.297156494140625,0.005896072301268577,-0.0017926190378144383,0.003234378811344504
1761384872930224600,0.307224609375,-0.00936287162899971,0.00824924783129245,-0.0013439071559347212
1761384872940293600,0.317293701171875,-0.006667056673765182,0.006466291670966893,0.0007552388140931725
1761384872950362600,0.327362548828125,-0.007118892094492912,-0.0006448189758695662,-0.0048503078416921195
1761384872960431600,0.337431640625,-0.000987257471680641,-0.0035513723386451598,-0.007305372843611985
1761384872970500400,0.347500244140625,-0.004131400716304779,0.0003208111858926713,0.003927347777877003
1761384872980569600,0.357569580078125,0.0012578911066055297,0.0013008351991884409,0.003493486405257135
1761384872990638600,0.367638671875,0.0017044658303260803,0.00477605529539287,0.0010169219575822354
1761384873000707600,0.37770751953125,-0.008169277930259703,0.00003490691659972071,0.0028124636048451066
1761384873010776600,0.387776611328125,-0.006668225717544555,0.009124551094789057,-0.0033305874611251054
1761384873020845600,0.397845458984375,-0.011606266641616821,0.0063774260774254795,-0.006093476303201169
1761384873030914600,0.40791455078125,-0.007120645660161971,-0.0014074556451290844,-0.0014730864935554562
1761384873040983600,0.417983642578125,0.00005786766707897186,-0.00815554166585207,0.003288282689359039
1761384873051052500,0.428052490234375,-0.005476970106363296,-0.0013415873346850275,0.0028337621212005614
1761384873061121500,0.43812158203125,-0.0014367548048496246,0.005577635735552758,-0.0007063581710681319
1761384873071190500,0.4481904296875,-0.0024836335092782973,0.004287541126087308,-0.004678549737669528
1761384873081259500,0.458259521484375,-0.010265373426675797,0.004921984838414937,-0.00005187631770968437
1761384873091328500,0.46832861328125,-0.006223989081382751,0.004375055012758821,-0.0019272600018419325
1761384873101397500,0.4783974609375,-0.009965513697266578,-0.001627181076724082,-0.001817095891945064
1761384873111466800,0.488466796875,-0.00861468361020088,0.0024509550823830066,-0.003966985668521374
1761384873121535500,0.498535400390625,-0.00442892235815525,-0.0022013277028687297,0.0031498058004304766
1761384873131604700,0.508604736328125,-0.0008405424773693085,0.002851663104072213,-0.0037426023281179367
1761384873141673500,0.518673583984375,0.0015513210952281952,0.005084755918383598,-0.0041916612698696554
1761384873151742700,0.52874267578125,-0.006826046627759933,-0.006529109507799148,-0.0022596154950559138
1761384873161811700,0.538811767578125,-0.0015898995399475098,-0.0033691476395353672,-0.0012311309638433157
1761384873171880400,0.54888037109375,-0.0003916296660900116,0.002882971557788551,0.006266567847784608
1761384873181948700,0.55894873046875,0.00020575170516967773,0.0018804434517398477,-0.004079232137650251
1761384873192017700,0.569017578125,-0.006079027652740478,0.00766874452959746,-0.005036003139521926
1761384873202086700,0.579086669921875,-0.0009907646030187607,-0.002006882843002677,-0.0031304435128346082
1761384873212155600,0.58915576171875,-0.0011398176848888397,-0.0018453356057405472,0.006207604202162474
1761384873222224400,0.599224365234375,-0.0011357260316610335,0.004788786912802607,-0.0035601036343723535
1761384873232293600,0.609293701171875,-0.006670563805103302,0.001591178181581199,-0.005554528854601085
1761384873242362600,0.619362548828125,-0.0030792613148689267,0.0011708704102784395,0.0013481814722530543
1761384873252431600,0.629431640625,-0.008165186277031899,0.006356036229524761,-0.005629475520644337
1761384873262500600,0.63950048828125,-0.013104396244883536,0.0019160444880835712,-0.003549180381558835
1761384873272569600,0.649569580078125,-0.00637304216325283,0.0031442163098603483,0.0033921083900146183
1761384873282638600,0.659638671875,-0.008313654837012291,-0.0006416589044034481,-0.005666373464930802
1761384873292707600,0.66970751953125,-0.010411503899097441,0.003108140349481255,0.0034295360572636126
1761384873302776600,0.679776611328125,-0.010710779106616974,0.004033785560727119,-0.005030632844660431
1761384873312845600,0.689845458984375,-0.005174772289395332,-0.0008408347383141517,-0.003169149821717292
1761384873322914600,0.69991455078125,-0.0057709846168756485,0.0017018902807496487,-0.0005822933999821544
1761384873332983600,0.709983642578125,-0.009361702585220337,-0.0034256088008172807,-0.0010396452460438013
1761384873343052500,0.720052490234375,-0.016843582773208618,0.006325878553278744,0.00011743410089984535
1761384873353121500,0.73012158203125,-0.013401333364844321,-0.00003545490587130189,-0.00324711042875424
1761384873363190500,0.7401904296875,-0.003524666994810104,-0.001334171213209629,-0.008553637605346739
1761384873373259500,0.750259521484375,-0.00831716196835041,0.0013712700868956744,-0.0003247384423390031
1761384873383328800,0.760328857421875,-0.006971008056402206,0.0032085502503439783,-0.00297835822366178
1761384873393397500,0.7703974609375,-0.0060737669557332985,-0.0014594050280749796,-0.005762435984238982
1761384873403466800,0.780466796875,-0.010858078622817992,0.004095215158071369,0.004467318139784038
1761384873413535500,0.790535400390625,-0.00412438645362854,-0.002196523663587868,-0.002283946218714118
1761384873423604500,0.8006044921875,-0.005615501794219017,0.00894121215082705,-0.0026869923279620707
1761384873433673700,0.810673828125,-0.003219546568393707,0.002362893206439912,-0.003605769407004118
1761384873443742500,0.820742431640625,0.000671031129360199,0.004014898197166622,-0.004027027026377618
1761384873453811700,0.830811767578125,-0.013840309303998946,0.006142009886354207,0.0009231244605965911
1761384873463880400,0.84088037109375,0.015045008918642997,-0.004117025131080299,-0.001087649106234312
1761384873473949700,0.85094970703125,-0.05183890830874443,-0.005487034842651337,-0.0002833469860255718
1761384873484017700,0.861017578125,0.020289339312911034,0.004146306024491787,-0.006058441522438078
1761384873494086400,0.87108642578125,-0.007993336841464043,0.0027907084307633337,0.004074574228841811
1761384873504155600,0.88115576171875,-0.011283610558509826,0.005936824436765163,0.0033203217954374848
1761384873514224600,0.891224609375,0.011909048980474471,0.004657415618095547,-0.0004124167257919907
1761384873524293600,0.901293701171875,-0.004703063124418258,-0.002923760225903243,-0.004522902518231422
1761384873534362600,0.911362548828125,-0.0011123451560735701,-0.0059408247584477065,0.0004907791916280985
1761384873544431600,0.921431640625,0.01893617113828659,-0.0049824645876884455,-0.004069879787415266
1761384873554500600,0.93150048828125,-0.01623041931092739,-0.0009265037277713417,-0.0004947064480744302
1761384873564569600,0.941569580078125,-0.006949965268373489,0.017098434317111968,-0.000584485357068479
1761384873574638600,0.951638671875,0.0029278701454401013,0.008225318966433406,0.0012354966117069125
1761384873584707600,0.96170751953125,-0.002759527841210365,-0.00014870602199807762,-0.0000047492403537034985
1761384873594776600,0.971776611328125,-0.02176116543114185,0.00799426842322573,-0.0016251169838011263
1761384873604844800,0.9818447265625,-0.005899579432606696,-0.002264072474464774,-0.0012445567009970544
1761384873614914000,0.9919140625,0.005468786799907684,-0.002642714794818312,-0.005414152269531041
1761384873624982800,1.001982666015625,-0.004854454293847084,-0.006163472799491137,0.00023537965845316647
1761384873635051800,1.0120517578125,-0.0003635726153850555,-0.006713288701977581,0.0028796470895409584
1761384873645120800,1.022120849609375,-0.002009001734852791,0.0008792853188700974,0.004506864698883146
1761384873655189800,1.032189697265625,-0.002011339822411537,-0.0013524740548804402,-0.001587762381788343
1761384873665259000,1.042259033203125,-0.010544774889945983,-0.003069251377508044,-0.006804309719987213
1761384873675327700,1.05232763671875,-0.014136077380180358,-0.003225081260036677,-0.006692337245494127
1761384873685397000,1.06239697265625,-0.009946808996796607,-0.001858122022077441,0.004243756783287972
1761384873695465700,1.0724658203125,0.004717091649770736,0.00203154236022383,0.0016701069029979407
1761384873705535000,1.082534912109375,0.0026227497190237045,0.004623842142056673,0.002802618064265698
1761384873715603700,1.092603759765625,-0.0024660978525876997,0.005502725602127612,0.0018144472771324217
1761384873725672700,1.102672607421875,-0.0020171850413084028,0.007921787708904594,0.0005139043388888239
1761384873735742000,1.112741943359375,-0.007553191858530044,-0.006961820102948695,0.005068608501181006
1761384873745810700,1.122810791015625,-0.0032137013494968414,-0.003458926548529416,0.005470686496049165
1761384873755880000,1.1328798828125,-0.010396890851855278,0.003190978061035275,-0.005694631445035338
1761384873765948700,1.14294873046875,-0.004713584518432617,0.0025030505958013234,-0.00041433468824252485
1761384873776018000,1.153017822265625,-0.013089198675751685,0.0010096519665792583,-0.00394751378307119
1761384873786087000,1.1630869140625,-0.011737784066796302,0.008135430459585041,-0.0017312259730882943
1761384873796156000,1.173156005859375,-0.0024590835899114608,0.001377571963518858,-0.0015489830076694487
1761384873806225000,1.183224853515625,-0.005451835665106773,0.0026185302016325292,-0.006698803518898785
1761384873816293600,1.193293701171875,-0.0015595044016838073,0.004157430206704884,-0.0036375162521377204
1761384873826361900,1.20336181640625,-0.0006599252134561538,-0.0024530009089969097,-0.002823606053367257
1761384873836430800,1.213430908203125,-0.012478957822918892,-0.003273888837825507,-0.0039617615041323
1761384873846499800,1.223499755859375,-0.0072486559540033335,0.008242745025269687,0.005304864942468702
1761384873856568800,1.23356884765625,-0.010841712009906768,0.0004977934543043375,-0.0016133900133892894
1761384873866637800,1.243637939453125,-0.0012637363255023955,0.005886153695452958,0.005793379111774266
1761384873876706800,1.253706787109375,-0.011747136417031288,0.008128525794763117,0.0010500205095857382
1761384873886775800,1.26377587890625,-0.0006757073044776916,-0.0006257672155275941,0.0010583682128228248
1761384873896844800,1.2738447265625,-0.007705752071738243,-0.006139635266177356,0.0022483999812975526
1761384873906913800,1.283913818359375,-0.006060322952270507,-0.009701054074801504,-0.004178472994733602
1761384873916982800,1.293982666015625,0.0003758475750684738,-0.0007644085012376308,-0.009972911552432923
1761384873927051800,1.3040517578125,0.009205635240674019,-0.0025767186202108857,0.0026557569394819436
1761384873937121000,1.31412109375,-0.006502806022763252,-0.0007132080369628965,-0.0013183160569518804
1761384873947189800,1.324189697265625,-0.0017097265273332595,0.00349452758487314,-0.01183505216250196
1761384873957259000,1.334259033203125,-0.004555179086327552,0.0018979973747394977,-0.006967044267337769
1761384873967327700,1.34432763671875,-0.000817161601781845,0.0030576705375686287,-0.0011269582033157349
1761384873977396700,1.354396728515625,-0.01353518887758255,-0.006461451099067926,-0.0016454473857767879
1761384873987466000,1.364466064453125,-0.005007014507055282,0.005824906761199236,0.0039786578400060535
1761384873997534700,1.37453466796875,-0.003361585387587547,0.003966693407576531,0.00016938348384574055
1761384874007604000,1.38460400390625,-0.0015676877081394194,-0.0029221710570156573,-0.008626976836193352
1761384874017672700,1.394672607421875,0.0009790741652250289,0.0018075791449286042,-0.007319017776474356
1761384874027742000,1.404741943359375,-0.0008183306455612182,0.0042458026099018754,-0.0033325602225027975
1761384874037810700,1.414810791015625,-0.0050075990289449685,0.0037969993964768944,-0.001774681522324681
1761384874047880000,1.4248798828125,-0.00889583863914013,0.0011394158260896801,-0.006605060820840299
1761384874057949000,1.434948974609375,0.0024789573341608044,0.005410407676175236,0.0032969226535409686
1761384874068017700,1.445017578125,0.0021837737798690794,0.006428188150282949,-0.002555913294199854
1761384874078087000,1.4550869140625,-0.010384615892171859,0.0003404109355062246,-0.003979370226059108
1761384874088155600,1.46515576171875,-0.008587795603275298,0.00278926539234817,-0.008834810900595038
1761384874098225000,1.475224853515625,-0.006937690308690071,0.0025571188705973327,0.0007269808339886367
1761384874108294000,1.4852939453125,0.0029401451051235196,-0.0014064875307492912,0.0037091384499333795
1761384874118363000,1.49536279296875,-0.0033434652090072628,0.005353142797295003,0.00950733986729756
1761384874128431900,1.505431884765625,0.0009954407781362533,0.0011835289624519646,0.005937244561873376
1761384874138500900,1.5155009765625,0.006086041915416717,0.0029319069997407496,0.00467485994324088
1761384874148569900,1.52556982421875,-0.010675707793235779,0.0007088241227902472,-0.001398486887384206
1761384874158638600,1.535638671875,-0.002745499315857887,0.004118102843314409,-0.0016600056340917945
1761384874168707800,1.545707763671875,-0.002146364378929138,0.0015321232044138012,-0.004827000031340867
1761384874178776800,1.55577685546875,-0.002742576706409454,0.009606361528672277,-0.0025118366904556748
1761384874188845800,1.565845703125,-0.010965630650520324,-0.000757814363669604,-0.002513078799471259
1761384874198914800,1.575914794921875,-0.007524550285935402,-0.007163754149526357,-0.0016072890661656856
1761384874208983800,1.58598388671875,-0.004531213688850402,0.004889690004009753,-0.007784625994227826
1761384874219052800,1.596052734375,-0.005723053821921348,0.0036933563589118417,-0.002742649771645665
1761384874229122000,1.6061220703125,-0.006320435193181037,0.0038727315138094125,0.0004902860012836754
1761384874239189800,1.616189697265625,-0.015447159978747366,0.002349942393321544,0.005609291249141096
1761384874249258800,1.6262587890625,-0.0052712184011936185,0.004265457158442587,0.006052705901395529
1761384874259328000,1.636327880859375,-0.0006312836408615112,0.003638721828535199,-0.0015489647413603961
1761384874269396700,1.646396728515625,-0.005865677163004875,0.00855606702445075,0.000254467951413244
1761384874279466000,1.656466064453125,-0.004967851540446281,0.009073040103260427,-0.0038878742840141056
1761384874289534700,1.66653466796875,-0.0013765490502119064,0.0027675832835026082,-0.00482195853004232
1761384874299604000,1.67660400390625,0.008652093011140822,-0.006014072657749056,0.004485529649909586
1761384874309673000,1.6866728515625,-0.018427052572369575,-0.009887370427139103,-0.00758232662146911
1761384874319741700,1.69674169921875,-0.015882044264674187,-0.00004831438744440674,-0.00563928452860564
1761384874329811000,1.70681103515625,0.0047691140979528425,0.005589435771200806,0.00410710652526468
1761384874339879700,1.716879638671875,-0.004657470417022705,-0.0011241451917216182,-0.009145319888181984
1761384874349949000,1.726948974609375,-0.004207973083853721,0.00445619395757094,0.0041395109575241805
1761384874360017700,1.737017578125,-0.005703764599561691,0.006275646203383803,-0.0020854462382383643
1761384874370087000,1.7470869140625,-0.007049333989620208,0.006650361267291009,0.005804521560296416
1761384874380156000,1.757156005859375,-0.002712181568145752,-0.005680182794574648,0.0022014007681049404
1761384874390225000,1.767224853515625,-0.0024129063606262205,-0.0020494250767864285,-0.006734970810823142
1761384874400294000,1.7772939453125,-0.005105798706412315,0.0003026179420761764,0.00463860131977126
1761384874410362600,1.787362548828125,-0.009143091398477554,-0.0034324951993301507,0.007135952827148139
1761384874420432000,1.797431884765625,-0.005403904870152473,-0.001012538043409586,-0.0067147682730108495
1761384874430500900,1.8075009765625,-0.006752396869659423,-0.0033222032252699135,-0.004605959425494075
1761384874440569900,1.81756982421875,-0.008843231669068335,0.0029882037642411886,-0.00241350914882496
1761384874450638800,1.827638916015625,-0.0024041385322809217,-0.0019863515116274356,0.004481017871573567
1761384874460707800,1.837707763671875,-0.0062982233613729476,-0.0003793364400975406,0.0026354630701243874
1761384874470776800,1.84777685546875,-0.00929272900223732,-0.00017539309952408074,-0.004123144344612956
1761384874480845800,1.857845703125,0.0004366378515958786,-0.0024583164049312473,-0.0016219386460259557
1761384874490914800,1.867914794921875,0.0005856909334659576,-0.004022259519714862,0.0018455182688310741
1761384874500983800,1.87798388671875,0.0008837970972061156,-0.0014864939644001424,0.002485460140183568
1761384874511052800,1.888052734375,-0.0070446578145027154,-0.0025475473246537148,-0.0017177271706983446
1761384874521121800,1.898121826171875,0.00043780689537525175,0.0017452910310588776,0.0073635327716358
1761384874531190800,1.908190673828125,-0.01018763201534748,0.0005319514522328972,-0.002985774345137179
1761384874541259800,1.918259765625,-0.0031529110729694365,0.008755754315014928,-0.00004241436962038278
1761384874551329000,1.9283291015625,-0.011382979279756546,-0.0019837576957419515,0.0014497786832042038
1761384874561397800,1.938397705078125,-0.002697568520903587,-0.002271397264394909,0.0035870829728431998
1761384874571467000,1.948467041015625,-0.0019493805021047592,0.00204997306605801,-0.0010919051562435925
1761384874581535700,1.95853564453125,-0.003299626067280769,-0.008058090907055884,0.004353171974513679
1761384874591605000,1.96860498046875,-0.004348258337378502,0.002309080659970641,0.004167823736555874
1761384874601674800,1.9786748046875,-0.0006108253747224808,0.0026141280211508275,-0.0065912149585783475
1761384874611744000,1.988743896484375,-0.005251344656944275,0.0037296149823814627,0.0035746070837602015
1761384874621812700,1.998812744140625,-0.007345686587691307,0.002726465821824968,-0.001331686995178461
1761384874631881700,2.0088818359375,-0.009593173253536223,0.0015962196828797459,-0.0029182438005693257
1761384874641950700,2.01895068359375,-0.008697685718536376,0.0017685257761739194,-0.003782002756744623
1761384874652019700,2.029019775390625,-0.01108954929113388,0.005597874805983155,0.0022759090427309273
1761384874662089000,2.0390888671875,-0.00884264714717865,0.005318053217604756,-0.002352974600624293
1761384874672157700,2.04915771484375,-0.013633388555049895,-0.00274173645619303,-0.0029035576880909503
1761384874682227000,2.05922705078125,-0.001364274090528488,0.005055164497718215,0.001701305758859962
1761384874692295700,2.069295654296875,-0.004054828348755837,0.0010721410098485649,0.004578559961915016
1761384874702365000,2.079364990234375,-0.007490648016333579,-0.0022018391595222055,-0.0027994397264905274
1761384874712433000,2.089432861328125,-0.001201192483305931,-0.0002658661282621324,-0.0026006840176880357
1761384874722501600,2.099501708984375,-0.000004091653227806091,-0.0024686551358550786,-0.0020992373015731574
1761384874732571000,2.10957080078125,-0.002697568520903587,0.0009282390271313488,0.0015828304783441125
1761384874742639900,2.119639892578125,-0.005837035590410232,0.0006031535249203443,0.002634367091581225
1761384874752708900,2.129708984375,-0.004186345773935318,0.0007213913434185087,-0.0033394466210156675
1761384874762777900,2.13977783203125,-0.004936287358403206,-0.004699062802735716,0.0003035677901469171
1761384874772846800,2.149846923828125,-0.010472878697514534,0.003990348277799785,0.0015056187899783252
1761384874782915800,2.159915771484375,-0.008972995528578758,0.0004920213006436824,-0.012266246654000133
1761384874792984800,2.16998486328125,-0.008822773402929305,0.00795976336542517,-0.006555741786397993
1761384874803053800,2.1800537109375,-0.009866729497909545,0.001671275946777314,-0.003490417665336281
1761384874813122800,2.190122802734375,-0.008066986599564552,-0.0025267054660245776,-0.0015226247237063943
1761384874823191800,2.20019189453125,-0.013003273957967758,-0.004086776123289019,0.0028375980461016297
1761384874833260800,2.2102607421875,-0.011954057165980338,-0.0030493776332587,-0.0035183285855688155
1761384874843329800,2.220329833984375,-0.007764204260706901,0.00022034648610278962,0.0021400625023059545
1761384874853398800,2.230398681640625,-0.006562427255511283,-0.0028870997436344623,0.0025713848579674956
1761384874863468000,2.240468017578125,-0.004166472029685974,-0.0008089052300900221,0.0038546661341562864
1761384874873536800,2.250536865234375,-0.003867196822166443,0.00023954437691718337,0.009847020150441676
1761384874883605800,2.260605712890625,-0.004013911816477775,-0.002520458388328552,-0.0005534143653698265
1761384874893674800,2.2706748046875,-0.001021159741282463,0.0005032550807110965,-0.0008148417805321515
1761384874903743700,2.28074365234375,-0.004312017980217933,0.004693601176328957,0.00001737125990912318
1761384874913813000,2.29081298828125,-0.010747603985667228,0.0023202961737290024,-0.002578874044679105
1761384874923881700,2.3008818359375,-0.009701309803128243,0.003696406832523644,-0.0005233845532871782
1761384874933951000,2.310950927734375,-0.012993337085843085,0.0010770363806746899,0.008287022558413445
1761384874944019700,2.321019775390625,-0.006864040550589561,0.007340663352701813,-0.0016153810410760342
1761384874954089000,2.3310888671875,-0.017785832059383392,-0.0022456783012486992,-0.0049754320587031544
1761384874964157700,2.34115771484375,-0.004768529576063156,-0.0009736308051273226,0.006882306859642267
1761384874974227000,2.35122705078125,-0.013749708411097525,-0.0041493199654854835,0.0023926855565048755
1761384874984296000,2.3612958984375,-0.011802665996551514,0.003717942810896784,-0.004312383306398987
1761384874994364700,2.37136474609375,-0.01808569178879261,0.0006677249274216592,0.0004814451077021658
1761384875004434000,2.381433837890625,-0.011800327908992766,-0.00018975041843950747,-0.0023945121874101457
1761384875014502700,2.391502685546875,-0.0020750527083873748,0.0035931473874486982,-0.00406355964448303
1761384875024572000,2.401572021484375,-0.001177227085828781,-0.004634655797015876,0.0011648973272182046
1761384875034641000,2.411640869140625,-0.008952537262439728,-0.0027133323456160724,-0.005754197878856212
1761384875044710000,2.4217099609375,-0.007607552394270896,-0.00004329115245491266,-0.006790683053433895
1761384875054779000,2.43177880859375,-0.008502455407381057,-0.004132094836048782,0.0026050131329335272
1761384875064848000,2.441847900390625,-0.00012567220628261565,-0.002925349394790828,0.0006982479298487305
1761384875074916900,2.451916748046875,-0.00940729529261589,-0.0031167437810450793,0.007940437610447406
1761384875084985900,2.46198583984375,-0.01030570543706417,-0.0033550460489466783,-0.0011217157726176083
1761384875095054800,2.472054931640625,-0.011505728876590729,-0.003171761903911829,0.003845880039501935
1761384875105123800,2.482123779296875,-0.004320201286673545,-0.0056124695869162675,0.007980586957745254
1761384875115192800,2.49219287109375,-0.011804419562220572,0.0036159072085283693,-0.006067574676964432
1761384875125261800,2.50226171875,-0.012400047367811202,0.001975757052376866,0.00024266791576519608
1761384875135330800,2.512330810546875,-0.004021510601043701,-0.00008124854266643523,-0.0004976838564500212
1761384875145399800,2.52239990234375,-0.005822422543168068,0.0015819719618186353,-0.0028352234259247776
1761384875155469000,2.532468994140625,-0.0062754270076751705,0.0009874401347711682,-0.004816241175308824
1761384875165537800,2.542537841796875,0.000009352350234985351,-0.004420044931955636,0.005653367852885276
1761384875175606800,2.552606689453125,-0.009122633132338524,0.0010089578468352556,0.005954579289164394
1761384875185675800,2.56267578125,-0.005981997019052505,-0.0014910970742814241,0.008002543061226606
1761384875195744800,2.572744873046875,-0.0038899931758642195,0.004896503337286412,-0.004880191523302346
1761384875205813800,2.582813720703125,0.00029985972940921784,-0.0006811323982663452,-0.002156319517362863
1761384875215882800,2.5928828125,-0.00897591813802719,0.0020601656665094194,-0.003407525154855102
1761384875225952000,2.602951904296875,-0.009572714987397193,0.0002464855743572116,-0.008246325221844018
1761384875236020000,2.61302001953125,-0.005827683240175247,-0.004844901014212519,-0.005227872449811548
1761384875246088700,2.623088623046875,-0.009721768069267273,0.0016852131405845283,0.00037597543923184276
1761384875256158000,2.633157958984375,-0.008968903875350952,0.007971033678110688,0.0001527428762987256
1761384875266226700,2.643226806640625,-0.004629997888207435,0.004076419126056135,0.007435684692393988
1761384875276296000,2.6532958984375,-0.00822130037844181,0.003940937911812215,0.0034109957535751164
1761384875286364700,2.66336474609375,-0.02094166574180126,-0.0011069748612120747,0.0005526837130077183
1761384875296434000,2.673433837890625,-0.011665303352475166,0.004063066454138607,0.005313504906650632
1761384875306503000,2.6835029296875,-0.0025385785669088364,-0.0019561207701452076,-0.001022584513388574
1761384875316572000,2.693572021484375,-0.01061725560426712,-0.000527001282479614,0.00034740693187341093
1761384875326641000,2.703640869140625,-0.014953238981962203,-0.0055218869603238995,0.001832494390476495
1761384875336709600,2.713709716796875,-0.00672375529706478,0.004130377802997827,0.00774610234843567
1761384875346779000,2.72377880859375,-0.00433306076824665,0.003935257089696824,0.0003370864672586322
1761384875356847900,2.733847900390625,-0.015258943930268287,-0.008271751924045383,-0.006745528737455606
1761384875366916900,2.743916748046875,-0.0014940379500389099,-0.008371997428126632,0.0023541436444036662
1761384875376985900,2.75398583984375,-0.00897591813802719,-0.001853482379578054,-0.006951170844770967
1761384875387054800,2.764054931640625,-0.0028396073400974273,0.0029641105026006697,0.007678261276613921
1761384875397123800,2.774123779296875,-0.00942775355875492,0.0036969365554861723,0.00462780593112111
1761384875407192800,2.78419287109375,-0.00419452908039093,0.003328450302965939,-0.004476159033365548
1761384875417261800,2.79426171875,-0.011824877828359602,-0.0012117321436293422,0.004777407002262771
1761384875427330800,2.804330810546875,-0.0071843585461378095,0.008985928075388073,-0.002703961729072034
1761384875437399800,2.81439990234375,-0.00928220760822296,-0.000410663160122931,-0.004332001322321593
1761384875447468800,2.82446875,-0.01227554420530796,0.003092906247731298,-0.003817622059397399
1761384875457537800,2.834537841796875,-0.015866846695542336,0.004266279142349958,0.002878496312070638
1761384875467606800,2.844606689453125,-0.0037409400939941405,0.002786963837407529,0.00047011999608948825
1761384875477676000,2.854676025390625,0.00135024556517601,-0.0001885083094239235,0.0020452238257043062
1761384875487744800,2.864744873046875,-0.004484451937675476,0.00010813654959201812,0.0006287994228303432
1761384875497814000,2.87481396484375,0.0009089315384626388,-0.006804145323205739,-0.002219219552585855
1761384875507882800,2.8848828125,0.0016571195572614669,0.0008528722359798848,-0.0018928919413592664
1761384875517951700,2.89495166015625,-0.0044815293282270425,0.003875307063385844,0.00894962378614582
1761384875528020700,2.905020751953125,-0.010167758271098136,0.002684179316367954,-0.0022792061115149407
1761384875538089700,2.91508984375,-0.009420739296078682,0.0009381393666379153,-0.000038971170363947745
1761384875548159000,2.925158935546875,-0.01525660584270954,-0.0000659596419893205,0.004529925914062187
1761384875558227700,2.935227783203125,0.0001537292569875717,0.004986702371388673,0.0006753693777602165
1761384875568297000,2.945296875,-0.008821019837260245,-0.0032312552724964917,-0.006672965824743733
1761384875578365700,2.95536572265625,-0.0031377135038375852,-0.002531509505305439,0.0008087043006904423
1761384875588435000,2.96543505859375,-0.005231470912694931,-0.002489423929248005,-0.0011631802941672502
1761384875598504000,2.97550390625,-0.013161094868183135,0.007388137489929795,-0.006031690512830391
1761384875608572200,2.985572265625,-0.006278349617123604,0.0032268896246328946,0.004621102195698767
1761384875618641400,2.995641357421875,-0.004331891724467277,0.0009935228156857192,0.0035180728572420774
1761384875628710100,3.005710205078125,-0.005826514196395874,0.005769961703568697,0.005545961955655366
1761384875638779400,3.015779296875,-0.0064268181771039955,0.011635511002410202,0.002197656174749136
1761384875648848400,3.025848388671875,-0.012413491371273993,0.0037592794682830568,0.00696884349877946
1761384875658917000,3.035917236328125,-0.015560557225346563,0.001634578931890428,0.0029862858017906547
1761384875668986400,3.045986328125,-0.013017302483320236,-0.002870860994886607,-0.0035303843495436012
1761384875679055000,3.05605517578125,-0.007481880187988281,0.003870576089341193,-0.003265331072034314
1761384875689124400,3.066124267578125,0.0008960720568895339,0.0038215858484618366,0.0066347527062054715
1761384875699193300,3.076193359375,0.004335983377695083,0.003934088045917451,0.006385198391927406
1761384875709262300,3.086262451171875,-0.013770751199126243,0.0034676213116385042,0.01083414062480442
1761384875719331300,3.096331298828125,-0.008829203143715858,-0.0019385485808365046,-0.007750321865826844
1761384875729400300,3.106400390625,-0.006733692169189453,-0.0032407537532038984,-0.006258640269655734
1761384875739469300,3.11646923828125,-0.00912672478556633,0.0025547990493476388,0.007369524121005088
1761384875749537300,3.126537353515625,-0.006880407163500786,-0.000958214040286839,-0.00023813787112012504
1761384875759606300,3.136606201171875,-0.0022474866658449173,0.0007563713252544403,0.002102242109412327
1761384875769676300,3.14667626953125,-0.0032990415453910825,-0.0024472287553362546,0.00319006474558264
1761384875779744500,3.15674462890625,-0.0049468087524175645,0.0034793848146684467,0.0015574768413789569
1761384875789813200,3.166813232421875,0.0001397007316350937,0.007227302638720721,0.005393694003392011
1761384875799882200,3.17688232421875,-0.010776830080151557,0.0034796953419223425,-0.0020363281331956386
1761384875809951200,3.186951171875,-0.015866846695542336,0.006109952513966709,-0.0014704926776699721
1761384875820020200,3.197020263671875,-0.003295534414052963,0.0008501688222400844,0.0007035177600104362
1761384875830089200,3.207089111328125,-0.00898468596637249,-0.001332983903121203,0.005883011890295892
1761384875840158200,3.217158203125,-0.012421674677729606,0.0033487807049416003,0.006589644055999815
1761384875850227500,3.2272275390625,-0.005085924962162971,0.00664489964088425,0.010649815300153567
1761384875860296200,3.237296142578125,-0.005981997019052505,0.0028365568664856255,-0.0011859857810195536
1761384875870365400,3.247365478515625,-0.020193477723002434,0.004206840572692453,-0.010072280273679643
1761384875880434200,3.25743408203125,-0.007926701346039771,-0.006757347039412707,-0.0013259605072904377
1761384875890503400,3.26750341796875,-0.017352701339125632,-0.0006612769203260541,0.0026006200856063515
1761384875900572400,3.277572509765625,-0.00867138223350048,0.003320248730201274,0.001001075934479013
1761384875910641200,3.28764111328125,-0.006428571742773056,-0.006374887060467153,-0.008640292975492774
1761384875920710400,3.29771044921875,-0.00971709189414978,0.0013916918204165995,0.008545417766273022
1761384875930779100,3.307779052734375,-0.000741173756122589,0.008876074492745101,0.006155874014925212
1761384875940848400,3.317848388671875,-0.007329319974780082,0.00011052943607792258,-0.00013192841713316738
1761384875950917000,3.327917236328125,-0.005084171396493912,0.00008059095554053783,0.0019298720840364694
1761384875960986400,3.337986328125,-0.006579962912201881,-0.0041073074546642595,-0.005219543012883514
1761384875971055400,3.348055419921875,-0.011215806019306182,0.00036273236516863106,0.005262879831111058
1761384875981124400,3.358124267578125,-0.017056933262944222,0.006342500894516706,-0.003678250121325254
1761384875991193300,3.368193359375,-0.0019406126737594603,0.002829268609173596,0.00029354871963150795
1761384876001262000,3.378261962890625,-0.00044482115805149076,0.0016422873143106698,0.014050161795550957
1761384876011331300,3.388331298828125,-0.00703355189859867,0.0026248503445647654,0.0019266663467977195
1761384876021400300,3.398400390625,-0.00523673160970211,0.0012448124293237923,-0.0033116544317919757
1761384876031469300,3.40846923828125,-0.009579729250073433,0.0074761628332547835,0.006795697155268863
1761384876041538300,3.418538330078125,-0.010029226583242417,0.011403638475295156,0.005915142327919602
1761384876051607300,3.428607177734375,-0.006141571494936942,0.0035039712666533884,-0.003355703636072576
1761384876061676300,3.43867626953125,0.0031336218506097793,0.004845357671938836,-0.0008659783127252012
1761384876071745300,3.448745361328125,-0.00988134254515171,0.002458426002785563,-0.0023812782465014604
1761384876081814300,3.458814208984375,-0.021257892084121703,0.003621953356824815,0.006220025292318314
1761384876091883300,3.46888330078125,-0.01033317796587944,-0.0033386429034173485,-0.002110443682176992
1761384876101952300,3.4789521484375,-0.0035989012748003004,0.0004371127756312489,0.0019936397689394652
1761384876112021200,3.489021240234375,-0.009585574468970298,-0.0010986271579749881,0.0007609013698995113
1761384876122090200,3.49909033203125,-0.004200374299287796,0.0038935916387476026,-0.0014979378070216626
1761384876132159200,3.5091591796875,-0.004503741160035133,-0.0022765848961658775,-0.004590305198635906
1761384876142228500,3.519228515625,-0.005252513700723648,0.008073215410951524,-0.00788077984508127
1761384876152297200,3.529297119140625,-0.0028588965624570845,0.004021875927224755,-0.0034632556637749076
1761384876162366500,3.539366455078125,-0.01288636958003044,0.0018291151233017443,-0.0064574507773853835
1761384876172435200,3.549435302734375,-0.004058920001983642,0.0005546930070035159,-0.0007380958830472082
1761384876182504200,3.559504150390625,-0.014977204379439352,0.003429627388808876,-0.0045011656104587015
1761384876192573200,3.5695732421875,-0.007795768442749976,0.005547313662525266,-0.006185438036127016
1761384876202642200,3.57964208984375,-0.010495090529322624,0.0025288974231109022,0.0057568373605143275
1761384876212711400,3.58971142578125,-0.008400748598575591,0.0034781427056528626,-0.0022660635021515187
1761384876222780200,3.5997802734375,-0.005254267266392707,-0.007124773846007883,0.0015201496388297527
1761384876232849400,3.609849365234375,-0.007944821524620055,0.005018723211158067,0.0033363687479402867
1761384876242918100,3.619918212890625,-0.005845803418755531,0.0072423723436892025,0.0028780761869624254
1761384876252987400,3.6299873046875,0.003728665134310722,-0.002038282628264278,-0.001776279824366793
1761384876263056400,3.640056396484375,-0.012727379626035689,0.0014332659398205577,-0.004535862464504316
1761384876273124000,3.6501240234375,-0.010776830080151557,0.0038017669031396506,-0.0019295158910099415
1761384876283193300,3.660193359375,-0.013920388802886008,0.004248999213986099,-0.0024438312218524514
1761384876293262300,3.670262451171875,-0.0026999066084623337,0.007067216706182807,0.005952378198923543
1761384876303331300,3.680331298828125,-0.004200374299287796,0.006632697746437042,0.008946308451052754
1761384876313400300,3.690400390625,-0.0018061726391315459,-0.0006933160264044999,0.002814235436823219
1761384876323469300,3.70046923828125,0.0014887772530317305,0.0020069924408569932,-0.004709136672178283
1761384876333538300,3.710538330078125,-0.006893851166963577,0.004941895115282386,0.0003375613912940025
1761384876343607300,3.720607177734375,-0.018270985227823257,-0.0013464279065839946,0.002527363053150475
1761384876353676300,3.73067626953125,-0.0062993924051523206,-0.00034583602929487824,0.005177183442190289
1761384876363745300,3.740745361328125,-0.005097615399956703,0.003984009868558496,0.0035895671908743676
1761384876373814300,3.750814208984375,-0.008093290084600448,-0.002795932595152408,-0.0019895298494026063
1761384876383883300,3.76088330078125,-0.018269231662154196,-0.002755143927037716,0.0016510368763469159
1761384876393952300,3.7709521484375,-0.0003156418204307556,0.006852003052923828,0.004496398103795945
1761384876404021200,3.781021240234375,-0.011540800189971924,0.0013517251362092791,0.004387311706133186
1761384876414090500,3.791090576171875,-0.00540624295771122,0.009129062873125076,-0.00015124503895640372
1761384876424159200,3.8011591796875,-0.01004383963048458,0.002449877370148897,-0.0008031148101203143
1761384876434228200,3.811228271484375,-0.001662380254268646,0.006659604019671678,-0.004621942445915192
1761384876444297200,3.821297119140625,-0.006297638839483261,-0.0026386779405176636,-0.004508727862406522
1761384876454366200,3.8313662109375,-0.007794599398970603,0.00013612053506076335,-0.00040956718157976864
1761384876464435500,3.841435546875,-0.000014028525352478027,0.003934398573171347,0.0007080386715009808
1761384876474504200,3.851504150390625,-0.008398410511016845,0.005514507371466607,0.003088138741068542
1761384876484573400,3.861573486328125,-0.008249357429146766,0.00304046367444098,0.0004465564574114978
1761384876494642200,3.87164208984375,-0.013190320962667465,-0.00002402019640430808,-0.0009586706980131566
1761384876504711400,3.88171142578125,-0.003163432466983795,0.005402242636028677,0.0017197912636213004
1761384876514780200,3.8917802734375,-0.009001637101173401,0.008688150705210864,0.0017849289217032492
1761384876524849200,3.90184912109375,-0.010052022936940193,0.000697225016541779,-0.0026068032312206923
1761384876534918400,3.91191845703125,-0.01005085389316082,0.0025651925791986287,-0.005166607249248773
1761384876544987100,3.921987060546875,-0.016788637715578078,0.0020863595536909996,0.0023595322055742145
1761384876555056400,3.932056396484375,-0.010652326917648315,0.004892137689422816,0.0027011121848598122
1761384876565125000,3.942125,-0.013045944055914879,0.00489047545529902,-0.0014838453495875
1761384876575194400,3.9521943359375,-0.009306173005700111,0.004327087685186416,0.006458565022237598
1761384876585263400,3.962263427734375,-0.011850012269616126,-0.0011719115898944437,-0.0000855593916028738
1761384876595332400,3.972332275390625,-0.008857260194420813,-0.0013172383447177707,-0.005615757522545755
1761384876605400600,3.982400634765625,-0.0030190555602312087,0.006125953800696879,0.003922050548251718
1761384876615469600,3.992469482421875,-0.011099486163258551,0.006313694925140589,0.009658329177927225
1761384876625538600,4.00253857421875,-0.011400514936447143,-0.0022990341899916528,-0.0017171791814267635
1761384876635607800,4.01260791015625,-0.009756254860758781,0.010505429260246455,-0.010402389010880142
1761384876645676500,4.022676513671875,-0.008256371691823005,0.004373009186144918,-0.0033463512858375906
1761384876655745800,4.032745849609375,-0.006613280659914017,0.00543979816744104,0.005549377755448222
1761384876665814500,4.042814453125,-0.004223755174875259,0.005395685031078756,0.0009302665874361991
1761384876675883800,4.0528837890625,-0.007517536023259163,0.0061892100289464,0.003560450694244355
1761384876685952800,4.062952880859375,0.0022089082211256025,0.00018489158023148774,-0.002141779535356909
1761384876696021500,4.073021484375,-0.010358312407135964,-0.0011307027966715394,-0.0030650135938078164
1761384876706090800,4.0830908203125,-0.01903495533764362,0.007621763582713902,0.007269589144177735
1761384876716159500,4.093159423828125,-0.0118511813133955,0.010533961234986781,0.00137576359892264
1761384876726228700,4.103228759765625,-0.011697452056407927,0.0038479623987339433,0.0046439350820146495
1761384876736297700,4.113297607421875,-0.007205985856056213,0.004921856974251568,0.0003971460914239287
1761384876746365400,4.123365478515625,-0.01288987671136856,0.004823072774894535,0.004013857017550617
1761384876756434700,4.1334345703125,-0.010043255108594894,0.00044929640376940367,0.004335143127478659
1761384876766503700,4.143503662109375,-0.005104629662632942,-0.003481321043428033,-0.0008817421374376863
1761384876776572700,4.15357275390625,-0.005997194588184356,-0.0014574870656244457,0.0032374384181108324
1761384876786641700,4.1636416015625,0.0007359130591154098,0.000408799996599555,0.006623409328283742
1761384876796710700,4.173710693359375,-0.005547697255015373,-0.0027472894141450524,0.004578295100433752
1761384876806779600,4.183779541015625,-0.011088380247354507,-0.0005503821580670774,0.00717784660696052
1761384876816848600,4.1938486328125,0.00043079263269901275,0.004859751523472369,0.0022223522245883942
1761384876826917600,4.203917724609375,-0.0149795424669981,0.0073224153099581595,0.004197817016020417
1761384876836987000,4.21398681640625,-0.014530045133829116,0.0012144903562963008,0.0038365002898033706
1761384876847055600,4.2240556640625,-0.0065963295251131055,0.008607285755034536,0.0004361263949424028
1761384876857124600,4.23412451171875,-0.002706336349248886,0.007881236502807587,-0.005091286123869941
1761384876867193600,4.244193603515625,-0.002559621354937553,0.003306220204848796,-0.005775176734803244
1761384876877262600,4.2542626953125,-0.014529460611939429,-0.004011171870119869,-0.004054399090493098
1761384876887331800,4.264331787109375,-0.002410568273067474,0.0020789982311427593,0.0016731573766097425
1761384876897400600,4.274400634765625,-0.01109480998814106,0.0009207863730378448,-0.0014981478695757686
1761384876907469800,4.2844697265625,-0.007352700850367546,0.0028006635691970585,0.002514119979087263
1761384876917538600,4.29453857421875,-0.010645897176861763,-0.0013674706946127115,0.0002376264144666493
1761384876927607800,4.30460791015625,-0.011243863070011139,0.0020803499380126593,-0.007516440044716
1761384876937676500,4.314676513671875,-0.010196984365582466,0.003479348282050341,0.006741281820600852
1761384876947745500,4.32474560546875,-0.012590601503849028,0.0030204072671011087,0.003026599545869976
1761384876957814800,4.334814697265625,-0.0028659108251333234,0.0011108838513493537,-0.0004655899514444172
1761384876967883500,4.344883544921875,-0.007359130591154098,0.006147124452888965,-0.004309880822058767
1761384876977952800,4.354952880859375,-0.0072153382062911985,0.0014491576286964117,-0.0017902900834102183
1761384876988021500,4.365021484375,0.005203413861989975,0.006359287632536142,0.0033574572017416354
1761384876998090800,4.3750908203125,-0.011109423035383224,0.005337780831381678,0.001390933768590912
1761384877008159700,4.38515966796875,-0.013499533042311667,0.004747687717434019,-0.003226095040189102
1761384877018228700,4.395228759765625,0.0026624972075223923,0.009499503620713948,-0.0034943083891645073
1761384877028297700,4.405297607421875,-0.008707622590661048,0.0062997577313333745,0.0086684778903611
1761384877038366500,4.415366455078125,-0.009459902262687683,0.0035726343223825095,0.005317404763633385
1761384877048435700,4.425435791015625,-0.008265724042057991,0.005624105225782841,0.001258959685685113
1761384877058504700,4.435504638671875,-0.005121580797433853,0.005591463331505656,-0.0011010474439244716
1761384877068573700,4.44557373046875,-0.011858195576071739,0.005443341831397265,-0.000995769571699202
1761384877078642700,4.455642578125,-0.005125087928771972,-0.002441602732148021,-0.001261681365733966
1761384877088711700,4.465711669921875,-0.00034019173979759216,0.003322130160033703,-0.0008987206717021763
1761384877098780700,4.47578076171875,-0.013510054436326026,-0.0008091609584167599,0.005502086281310767
1761384877108849700,4.485849609375,-0.009618892216682433,-0.003260463100671768,0.0024671024995855987
1761384877118918700,4.495918701171875,-0.0016834230422973632,0.0012256693374365568,-0.00810700808269903
1761384877128987600,4.505987548828125,-0.013200842356681824,-0.00038545565363019705,0.0017390530865173785
1761384877139056600,4.516056640625,0.0055050271570682525,0.0032817433507181704,0.0002025551010854542
1761384877149125600,4.526125732421875,-0.001975099465250969,0.0045478725627064705,-0.0008552925219293683
1761384877159194600,4.536194580078125,-0.010051438415050505,-0.002404120265971869,0.002958740207739174
1761384877169263600,4.546263671875,-0.007353285372257232,0.0030010632458142934,-0.005743210693961009
1761384877179332600,4.55633251953125,-0.010194646278023719,0.0013221519818529485,-0.0070259074482601136
1761384877189401600,4.566401611328125,-0.002715104177594185,-0.00080139777706936,-0.004153274621395394
1761384877199469600,4.576469482421875,-0.0063040685802698134,0.0033302769338712096,0.00024190986393950878
1761384877209538800,4.586538818359375,-0.011985036826133727,0.0013524740548804402,0.0005831245170440524
1761384877219607600,4.596607666015625,-0.004501403072476387,0.006834083803743124,0.005109305837750435
1761384877229676800,4.6066767578125,-0.007791676789522171,0.006808419639524072,0.0036750991830136626
1761384877239745500,4.61674560546875,-0.0010603227078914642,-0.0022466646819375453,0.0024427535096183416
1761384877249814800,4.626814697265625,-0.0006084872871637344,0.0026252156707458198,-0.0008952226735185831
1761384877259883500,4.636883544921875,-0.007496493235230445,0.0015140212921425698,-0.0003262088802177459
1761384877269952800,4.646952880859375,-0.002858312040567398,0.009193908270262181,0.006737747289799153
1761384877280021800,4.657021728515625,-0.003007365122437477,0.0020801307423040268,0.007122919815639034
1761384877290090500,4.667090576171875,-0.007798106530308723,-0.000569835777208209,0.0007308806909713894
1761384877300159700,4.67715966796875,-0.007503507497906684,0.0048694874661974604,-0.001184497076831758
1761384877310228500,4.687228515625,-0.008851999497413634,0.00822440565098077,0.004475373582076281
1761384877320297700,4.697297607421875,-0.009302081352472305,0.004699117601662874,-0.0013137860123068094
1761384877330366700,4.70736669921875,0.006406944432854652,-0.0004564202642999589,0.0030952534684445705
1761384877340435700,4.717435791015625,-0.005561725780367851,0.001012592842336744,0.0014051175575703382
1761384877350504700,4.727504638671875,0.0053571431189775465,0.00538781225187704,-0.005479025066131725
1761384877360573700,4.73757373046875,-0.0037701661884784695,0.0005808868941850959,-0.008761727398075164
1761384877370642700,4.747642578125,0.00027004911303520204,0.0008500592243857681,-0.0008778879462275653
1761384877380711700,4.757711669921875,-0.007357377025485039,0.013280191203206776,0.0021432682395447046
1761384877390780700,4.76778076171875,0.00042553193569183347,0.0050256096096709365,-0.00015661533381789922
1761384877400849700,4.777849609375,-0.008400164076685906,0.0005520626584999263,-0.0022775438773911445
1761384877410918700,4.787918701171875,-0.0148357500821352,0.002475833795312792,0.0004619732222519815
1761384877420987600,4.797987548828125,-0.015582184535264968,-0.0007275470895692706,-0.008210459324019028
1761384877431056600,4.808056640625,-0.006603343787789344,0.004334394208807498,-0.0029748419591691345
1761384877441125600,4.818125732421875,0.0035708442240953444,0.0073726293935440475,0.0006327632118947803
1761384877451195000,4.82819482421875,-0.012285481077432632,-7.306523621082305e-8,0.008283387562911956
1761384877461263600,4.838263671875,-0.006299976927042007,-0.008343319322913885,-0.00391615966358222
1761384877471332600,4.84833251953125,-0.0178203188508749,0.007757226530648768,0.01464700431069359
1761384877481401600,4.858401611328125,-0.004054243826866149,0.008468699268251657,0.006627007791167125
1761384877491470600,4.868470703125,0.0034247137516736983,0.00508517604349181,0.008175579806882887
1761384877501539600,4.87853955078125,0.003876549172401428,0.0033224772199057042,-0.0003345383171457797
1761384877511608600,4.888608642578125,-0.0036047464936971663,0.009304912630375474,0.002241805843729526
1761384877521677800,4.898677734375,-0.01602349856197834,-0.0014025054753758013,-0.00038393954997882244
1761384877531746600,4.90874658203125,-0.011385901889204979,0.0005464001026935875,0.0073467369004618375
1761384877541815800,4.91881591796875,-0.009434183299541472,0.005133600028790534,0.007149862621491775
1761384877551884500,4.928884521484375,0.0016395839005708694,0.0017973682781681417,-0.004547151043498889
1761384877561953800,4.938953857421875,-0.008237666991353034,0.0005692512553185224,-0.0027308314696885645
1761384877572020700,4.949020751953125,-0.01466974586546421,-0.001453979934286326,0.003438760543335229
1761384877582089700,4.95908984375,-0.01407411805987358,0.0005344174039550125,0.005864252390898763
1761384877592158500,4.969158447265625,-0.003000350859761238,-0.0018218816649168729,0.003236625567357987
1761384877602227700,4.979227783203125,-0.010932897424697875,0.005167794559337199,-0.002379268952505663
1761384877612301000,4.989301025390625,-0.014973697248101233,0.002845196830667555,0.004708826144924387
1761384877622370000,4.9993701171875,-0.00689502021074295,0.0022422077025286854,-0.002129358445201069
1761384877632439000,5.00943896484375,-0.008099135303497314,-0.0021995924035087227,-0.0013646211504004895
1761384877642508000,5.019508056640625,-0.014077625191211699,0.0014037110517732799,0.0023079481488093734
1761384877652577000,5.029576904296875,-0.010936404556035995,0.0020003252380527553,0.004169997427333146
1761384877662646000,5.03964599609375,-0.0031587562918663024,0.0014579437233507631,-0.005977266045007854
1761384877672715000,5.049715087890625,-0.00031388825476169586,0.007227576633356511,-0.002094579392764717
1761384877682784000,5.059783935546875,-0.003750292444229126,0.0006387545612640678,-0.002734192470554262
1761384877692853000,5.06985302734375,-0.00599134936928749,-0.0005680822115391493,0.004118011511769146
1761384877702922000,5.079921875,-0.0019505495458841324,-0.003908387349080294,0.005596797093749046
1761384877712991000,5.089990966796875,-0.004490881678462028,0.004365775727760046,0.013111319176014512
1761384877723060200,5.100060302734375,-0.007779401829838752,0.0023693412135355175,0.004054463022574782
1761384877733129000,5.11012890625,-0.013610007679462433,0.0007757884117774665,-0.004427707648603245
1761384877743198200,5.1201982421875,-0.010466448956727981,0.0011649703924544155,-0.0011448865856509656
1761384877753267000,5.130266845703125,-0.004630582410097122,0.003261339883506298,0.00035739860292524097
1761384877763336000,5.1403359375,0.0052460839599370954,0.0007330269822850823,0.005479207729222253
1761384877773405200,5.1504052734375,-0.010321487528085708,0.009394746338296681,0.005968553015589714
1761384877783474000,5.160473876953125,-0.011064414849877358,0.005427979865483939,0.012441813283460215
1761384877793543200,5.170543212890625,-0.008519406542181968,0.0026926366174593566,0.0014133921955712138
1761384877803612000,5.18061181640625,-0.012855974441766739,0.003947842576634139,0.0018899236661382018
1761384877813681200,5.19068115234375,-0.007615151178836822,0.004053019984159618,-0.0012420359503477812
1761384877823750100,5.200750244140625,-0.007018938851356506,-0.004163439822383225,-0.008547052600933238
1761384877833819100,5.210819091796875,-0.004922258833050728,-0.0050514929695986205,0.0011674637436401099
1761384877843888000,5.22088818359375,-0.005371756166219711,0.005103442352544516,-0.0011552618491929023
1761384877853956900,5.230956787109375,-0.007169160977005958,-0.0006109897715039551,0.0003334697380661964
1761384877864026000,5.241026123046875,-0.00267827929854393,0.00806095871757716,0.001307255806820467
1761384877874094800,5.2510947265625,-0.010758709901571272,0.0029819384202361106,-0.0047871429449878634
1761384877884164000,5.2611640625,-0.008215455159544945,0.0015144962161779403,-0.007178951718658209
1761384877894233000,5.271233154296875,-0.006120528706908226,0.004532181803230196,0.006787248987331986
1761384877904301000,5.281301025390625,-0.01330547177493572,0.002307162697520107,-0.004177577945590019
1761384877914370000,5.2913701171875,-0.020782675787806508,0.0045811903104186055,0.0008712481428869068
1761384877924439000,5.30143896484375,-0.01404839909672737,0.00987951591424644,0.001224071035394445
1761384877934508000,5.311508056640625,-0.010459434694051742,-0.0030278599211946127,0.0010707345040515065
1761384877944577000,5.321576904296875,-0.01539689109623432,-0.00422693351265043,0.004128304576920345
1761384877954646000,5.33164599609375,-0.006119944185018539,-0.0031544637092389164,-0.0033736594178713857
1761384877964715000,5.341715087890625,0.0003156418204307556,0.0035738764313980936,0.0026928832126315683
1761384877974784300,5.3517841796875,0.0033037177205085754,0.0063789604473859065,0.0028570333989337087
1761384877984853000,5.36185302734375,0.007494739669561386,-0.0026325404606759545,0.007960557949868961
1761384877994922000,5.371921875,-0.0035801965743303297,0.00311351064434275,0.0028600290736183523
1761384878004991000,5.381990966796875,-0.009418985730409621,-0.002027432440686971,0.0013082604538183658
1761384878015060000,5.39206005859375,-0.009420739296078682,-0.0011304470683448015,0.00044571620719507335
1761384878025129000,5.40212890625,-0.013610007679462433,-0.003649754679203033,0.009501366784237325
1761384878035198000,5.412197998046875,-0.003583703705668449,-0.001188278202805668,0.0021804949773941186
1761384878045267200,5.42226708984375,0.0009048398852348328,0.00014377411855384707,-0.0025341033211909235
1761384878055336000,5.4323359375,-0.0019411971956491468,-0.002604465143661946,0.005227333593694493
1761384878065405200,5.4424052734375,-0.010472294175624846,0.001324307406321168,0.0033741434750612824
1761384878075474000,5.452473876953125,-0.005387538257241249,0.00039946591267362233,-0.0011314699816517531
1761384878085543200,5.462543212890625,-0.012870002967119216,0.00025967384949326515,-0.002697568520903587
1761384878095612200,5.472612060546875,-0.015414426752924919,0.0034488070133142173,0.0009080182230100035
1761384878105681000,5.482680908203125,-0.005690905117988586,-0.0001311520989984274,0.0018632274554576723
1761384878115750100,5.492750244140625,-0.004794833061099052,0.0056172005609609185,-0.0002493899174965918
1761384878125819000,5.50281884765625,0.0017886369824409484,0.006881192614790052,0.004038105542818084
1761384878135888100,5.51288818359375,-0.011532616883516311,0.004495612652506679,0.004173924683779478
1761384878145957000,5.52295703125,-0.01153787758052349,0.0019942973560653624,0.01057843969753012
1761384878156026000,5.533026123046875,-0.01991641434729099,0.005361819294095039,0.007775949497427791
1761384878166095000,5.54309521484375,-0.004205634996294975,0.00768602445796132,0.0018351795379072428
1761384878176164000,5.5531640625,-0.009295651611685753,-0.0008673026201315223,0.0006847582606133073
1761384878186233000,5.563233154296875,0.0017787001103162765,0.001788289922568947,0.0019078155158553272
1761384878196301800,5.5733017578125,-0.008692425021529197,-0.0008960537905804812,0.0063974094195291395
1761384878206372000,5.5833720703125,-0.004049567651748657,-0.0009496106087230145,-0.00021244630743749439
1761384878216441000,5.593441162109375,-0.0113806411921978,0.005487838560249656,0.00015570201836526392
1761384878226510000,5.603510009765625,-0.0018014964640140532,0.006901614348310977,0.006899860782641917
1761384878236578800,5.613578857421875,-0.01362403620481491,0.0030600634240545333,0.0025697774227708575
1761384878246648000,5.62364794921875,-0.011083119550347327,-0.003643434536270797,0.005335342279123142
1761384878256717000,5.633717041015625,-0.004048983129858971,0.0053336161129176616,0.0031908958626445383
1761384878266786000,5.6437861328125,-0.004796002104878425,0.0013966785227879882,0.00497999863596633
1761384878276855000,5.65385498046875,0.00014379238486289978,0.0004932816759683191,0.01838549671927467
1761384878286924000,5.663924072265625,-0.01122983454465866,-0.0006854249808937311,0.0012887794352136551
1761384878296993000,5.673992919921875,-0.0037491234004497524,0.0008970949701964855,-0.0023861918836366384
1761384878307062300,5.684062255859375,-0.0022486557096242903,0.004962718707602471,-0.0024458039832301434
1761384878317131000,5.694131103515625,-0.006291793620586395,0.0009972674090415238,0.002544031060161069
1761384878327200000,5.704199951171875,-0.01078150625526905,0.011844075719173997,0.005921197609370574
1761384878337269000,5.71426904296875,-0.0025502690047025677,-0.00031076471591368315,0.0040111810032743955
1761384878347338000,5.724337890625,-0.006736614778637886,0.0026616752236150202,0.009213014829531312
1761384878357407000,5.734406982421875,-0.006883329772949218,0.0015137290311977266,0.007724237576499581
1761384878367476000,5.74447607421875,-0.005534837773442268,-0.0016404424170963466,-0.0018976229154039172
1761384878377545200,5.754545166015625,-0.013314239603281021,0.007633746281452476,-0.009442932861577718
1761384878387613200,5.76461328125,-0.002688216170668602,0.002326835512369871,0.006728595868963748
1761384878397682000,5.774681884765625,-0.00763093326985836,0.0033416751107200977,0.0037664124619681385
1761384878407751200,5.784751220703125,-0.004487959069013595,0.014565079914592206,-0.0027850550081115213
1761384878417820000,5.79481982421875,-0.008532266023755073,0.0020279256310313937,0.003911273425910622
1761384878427889200,5.80488916015625,-0.0026958149552345273,-0.0024562888446263966,0.00020516718327999114
1761384878437958000,5.8149580078125,-0.009729366853833198,0.0075722984177991745,-0.00043809002316556867
1761384878448027100,5.825027099609375,-0.014216741400957108,0.004479520034231245,-0.002544862177222967
1761384878458096000,5.83509619140625,-0.012269114464521407,0.0037205731594003736,-0.007502329320972785
1761384878468165000,5.8451650390625,-0.010922960552573203,0.004940616473648697,-0.0013990988087374716
1761384878478234000,5.855234130859375,-0.013766659545898436,0.0023164419825188816,0.007366026122821495
1761384878488302800,5.865302734375,-0.018702946904301642,0.000861676596943289,0.0016964651869609952
1761384878498372000,5.8753720703125,-0.005534253251552581,0.0038955826664343472,0.0019775288843549787
1761384878508441000,5.885441162109375,-0.009872574716806411,0.0030537798137404023,0.008992330416711047
1761384878518510000,5.895510009765625,-0.005984335106611251,0.002243577675707638,0.005686155877634882
1761384878528579000,5.9055791015625,0.0008966565787792205,-0.0025185769584961234,0.004635167253669351
1761384878538648000,5.91564794921875,-0.013617606464028358,-0.00045112303467467426,0.004008751584170386
1761384878548717000,5.925717041015625,-0.00418926838338375,0.0020720753000117837,-0.003401542938640341
1761384878558786000,5.9357861328125,-0.00613514175415039,0.0017797047573141754,-0.0047729774223174894
1761384878568855000,5.94585498046875,-0.010323241093754768,0.0009832388836890458,-0.007428661296563222
1761384878578924000,5.955924072265625,-0.005533084207773208,0.0078816566279158,-0.000716815633000806
1761384878588993000,5.965992919921875,-0.005535422295331955,-0.00246987897856161,0.0031422983474098144
1761384878599062000,5.97606201171875,-0.004636427628993987,-0.0005240056077949702,0.00530093768602237
1761384878609127000,5.986126953125,-0.001793313157558441,0.004269146952871233,0.011294058887287973
1761384878619195600,5.996195556640625,-0.020049100816249846,0.007238646016642451,0.009603548517078161
1761384878629265000,6.006264892578125,-0.0059808279752731315,0.0028876659992150963,-0.0004356240714434534
1761384878639333600,6.016333740234375,-0.009131400960683822,-0.001873958912026137,-0.004886685196170583
1761384878649403000,6.02640283203125,-0.012429273462295531,0.004289386023301631,0.0018953030941542238
1761384878659472000,6.036471923828125,-0.01318272217810154,0.007582417953014373,-0.004171988455019891
1761384878669540900,6.046540771484375,-0.002709258958697319,0.0082900912983343,0.0038260428278706965
1761384878679609900,6.05660986328125,-0.01707622248530388,0.00699709234572947,0.005602231320692226
1761384878689678800,6.066678955078125,-0.0043611178189516065,0.004954900727327913,0.004074930421868339
1761384878699747800,6.076747802734375,-0.01932955437004566,0.005011946410499513,0.0009642145228106528
1761384878709816600,6.086816650390625,-0.020679215413331984,0.003178684835042804,0.00019150398410856722
1761384878719885800,6.0968857421875,-0.02038403185904026,0.0036069201844744383,-0.00000681333327665925
1761384878729954800,6.106954833984375,-0.01125555350780487,0.0045388307397253806,0.0009702606711070984
1761384878740023800,6.11702392578125,-0.008567337337136268,-0.0000839702227152884,0.003745305741857737
1761384878750091800,6.127091796875,-0.005870353338122368,0.011846139812096953,-0.0007408906283322721
1761384878760160800,6.137160888671875,-0.006321019715070724,-0.0017828648287802934,0.004952343444060534
1761384878770229800,6.147229736328125,0.009088730862736701,0.0012699468705803156,0.010125334768323228
1761384878780298800,6.157298828125,-0.013501871129870413,0.007484273074474185,-0.0006142868402879685
1761384878790367700,6.16736767578125,-0.013802315381169319,0.00136577192787081,0.0053214233516249805
1761384878800436700,6.177436767578125,-0.0001876315265893936,0.0005334858221933245,-0.002060695389471948
1761384878810506000,6.187506103515625,-0.008716974940896034,0.002573686412908137,-0.001104344512708485
1761384878820574700,6.19757470703125,-0.019489128845930098,0.00027874387614428996,-0.0004766045358031988
1761384878830644000,6.20764404296875,-0.009913491249084472,0.0033945926080457866,-0.00402366602551192
1761384878840712700,6.217712646484375,0.0029535891085863113,0.002378931025788188,0.0054697001153603195
1761384878850781700,6.22778173828125,-0.004232523003220558,0.001016940223891288,-0.0027616923988331107
1761384878860850700,6.2378505859375,-0.02099018105864525,0.0005999569208361208,-0.005675707548856735
1761384878870919700,6.247919677734375,-0.013058219015598296,0.0032796609914861616,0.014430822543054818
1761384878880989000,6.257989013671875,-0.0048334115058183665,0.008203600324969739,0.0035341654755175114
1761384878891057700,6.2680576171875,-0.008873626807332039,0.00871302941814065,0.007212826588796451
1761384878901127000,6.278126953125,-0.005729483562707901,0.007111055847909301,0.005811645420826971
1761384878911195600,6.288195556640625,-0.004233107525110244,0.00823973108427599,-0.0025283585669938474
1761384878921265000,6.298264892578125,-0.012760112851858138,0.0003498911499045789,0.008230506598204373
1761384878931334000,6.308333984375,-0.01710194144845009,0.006973455741815269,0.004415213493211194
1761384878941402600,6.318402587890625,-0.0015396306574344634,0.0015796521405689417,0.0033446707854047414
1761384878951471900,6.328471923828125,-0.004385667738318443,0.010710432046744971,0.00197962950989604
1761384878961540600,6.33854052734375,-0.009321955096721648,-0.0002624685947783291,0.0033598135556094345
1761384878971609900,6.34860986328125,-0.005132686713337898,0.0014250643670558928,0.004132752423174679
1761384878981678800,6.358678955078125,0.005339022940397262,0.004851275956071913,0.00010400836374610662
1761384878991747800,6.368747802734375,-0.009625321957468985,0.002179901322349906,0.0005661551159340888
1761384879001816800,6.37881689453125,-0.007530980026721954,0.008600417622830718,0.00752653218046762
1761384879011885800,6.3888857421875,-0.006031096857786179,0.011800200044829397,0.0058188240802846845
1761384879021954800,6.398954833984375,-0.013516484177112579,0.008153075714129954,0.0042336555143818256
1761384879032023800,6.40902392578125,-0.014569208100438116,-0.001236263796687126,-0.005041884891036898
1761384879042092800,6.4190927734375,-0.010526070189476013,0.0009165485893376171,0.006234163415525108
1761384879052161800,6.429161865234375,-0.008281506133079528,0.004813208968006074,0.0029577903596684336
1761384879062230800,6.439230712890625,-0.002592354580760002,0.0013323445823043584,0.0043018801786936815
1761384879072299800,6.4492998046875,-0.015014029258489608,0.0021737273098900913,0.007455932895978912
1761384879082368000,6.459367919921875,-0.005891980648040771,0.0025621055729687214,-0.00042327604652382433
1761384879092436700,6.469436767578125,-0.013374445357918738,0.010505758053809404,-0.0034150508741848168
1761384879102505700,6.479505615234375,-0.0026028759747743603,0.017241989239957182,0.006896883374266326
1761384879112574700,6.48957470703125,-0.0040951603591442105,0.007541172627173364,0.004874684231122956
1761384879122643700,6.499643798828125,-0.011133972954750061,0.0005269647498615086,-0.0018012955346144734
1761384879132713000,6.509712890625,-0.0027560207098722457,0.002140281698014587,0.00408229174441658
1761384879142781700,6.51978173828125,0.003976502415537834,-0.003708992319460958,-0.0005541176182683557
1761384879152851000,6.529850830078125,-0.00066401686668396,0.0028285744894295927,0.008772531919879839
1761384879162919700,6.539919677734375,-0.0014081132322549819,-0.0034238187025301156,0.00016992233996279536
1761384879172989000,6.549989013671875,-0.010240238985419273,0.010899068220332264,0.0002508603553753346
1761384879183057700,6.5600576171875,-0.008295534658432007,-0.0012191117324866353,0.0023134189083706585
1761384879193126700,6.570126708984375,-0.00994447090923786,0.0007995894124731421,-0.00013154482464306056
1761384879203196000,6.58019580078125,-0.007255085694789886,0.004119217088166624,0.006448938677366823
1761384879213264600,6.5902646484375,-0.007106617134809493,0.005109725962858647,-0.005599418309098109
1761384879223334000,6.600333984375,-0.011148586001992224,0.0009539762565866113,0.0009454367571044713
1761384879233402600,6.610402587890625,-0.018029577687382697,0.004278207042161375,0.0012099329121876507
1761384879243472000,6.620471923828125,-0.00949614261984825,0.005497099578939378,0.0020141437008511275
1761384879253540900,6.630540771484375,-0.006059738430380821,0.008500866238493473,-0.0015182408095337449
1761384879263609900,6.64060986328125,-0.005910685348510742,0.003929302272945643,-0.00263791075553745
1761384879273678800,6.650678955078125,-0.003817512461543083,0.006995302247442305,0.0003463657522574067
1761384879283747600,6.66074755859375,-0.008754384341835975,0.007538889338541775,-0.004154343200474977
1761384879293816800,6.67081689453125,-0.008006780844926833,0.01130551186306402,0.004660365627007558
1761384879303885800,6.6808857421875,-0.007256254738569259,-0.0009190510736778377,0.0006320599589962511
1761384879313954800,6.690954833984375,-0.0109971948325634,0.0001438654500991106,0.0006566464109811932
1761384879324023800,6.70102392578125,-0.000671031129360199,0.0031462621364742515,-0.005843081738706677
1761384879334092800,6.7110927734375,-0.006505144110321998,0.0031450382937677204,-0.0030610498047433793
1761384879344161800,6.721161865234375,-0.00350830038189888,-0.003400090767070651,0.006914601694047451
1761384879354230800,6.731230712890625,-0.003654430854320526,0.0005556976540014147,0.0019104915301315485
1761384879364299800,6.7412998046875,-0.014130232161283493,-0.004181286006327718,0.006111331620300188
1761384879374369000,6.751369140625,-0.007995674929022789,0.0029893180090934035,0.003225656648771837
1761384879384437800,6.761437744140625,-0.00005611410140991211,0.003050948535837233,0.007910261667892337
1761384879394506800,6.7715068359375,-0.01382277364730835,0.004571509166620672,0.0046384460561443115
1761384879404575000,6.781574951171875,-0.0103828623265028,0.007540478507429361,-0.0021608404288534075
1761384879414643700,6.791643798828125,-0.012478957822918892,-0.004411806826572865,0.004077853031316771
1761384879424713000,6.801712890625,-0.0011094225466251372,0.007848832070548087,0.0021693981946446
1761384879434781700,6.81178173828125,-0.017722119173407554,0.002544734313059598,0.003758220022358
1761384879444850700,6.8218505859375,-0.014576222363114356,0.0044756475767120715,0.010760353869386017
1761384879454920000,6.831919921875,-0.004998246678709984,0.0035480296040885147,-0.004771406519738957
1761384879464988700,6.84198876953125,-0.006193593943119049,0.0031828495535068213,0.003906359788775444
1761384879475058000,6.852057861328125,-0.0026046295404434203,0.0039806306013837455,0.005947793355351313
1761384879485126700,6.862126708984375,-0.008294365614652632,-0.0016232903528958559,0.00466857633292675
1761384879495196000,6.87219580078125,-0.010991349613666533,0.007561977953184395,-0.004157685935031623
1761384879505264600,6.8822646484375,-0.004257072922587394,0.005485080347582698,0.008783793099410832
1761384879515334000,6.892333984375,-0.006501052457094192,0.007246500529535114,0.005472412662254646
1761384879525403000,6.90240283203125,-0.009644611179828642,0.0067571826426312325,0.00040266251675784585
1761384879535471600,6.9124716796875,-0.00246259072124958,0.004817081425525248,-0.005167073040129617
1761384879545540900,6.922540771484375,-0.0012637363255023955,0.0028895474290475246,-0.004962280316185206
1761384879555609600,6.932609619140625,-0.006357844594120979,0.005536171214003116,0.001491736395098269
1761384879565678800,6.942678955078125,-0.007854220631718634,0.0013724939296022058,0.010987312759365885
1761384879575747800,6.952747802734375,-0.0175806648761034,0.005428016398102045,0.0009890293036587535
1761384879585816800,6.96281689453125,-0.01159457620382309,0.0005258505050092935,0.002258482983894646
1761384879595885800,6.9728857421875,-0.013090367719531058,-0.0018886267581954598,0.004817638547951355
1761384879605955600,6.98295556640625,-0.003968903630971909,0.004605447968840598,0.008027111246902495
1761384879616024600,6.993024658203125,-0.0098076927870512,0.0027117066441103813,-0.0007819715573918074
1761384879626093600,7.003093505859375,-0.011903203761577606,0.005928896858636289,0.0038030272784642873
1761384879636162600,7.01316259765625,-0.008760229560732842,0.010677698820922524,0.002568827574700117
1761384879646231600,7.0232314453125,0.004554010042548179,0.006267828223109245,0.0018816855607554316
1761384879656300500,7.033300537109375,-0.002927285623550415,0.008683967720437795,0.0068810647506266824
1761384879666369500,7.04336962890625,-0.003829787421226501,0.00932520649973303,0.010321250066068023
1761384879676438500,7.0534384765625,-0.00488251134455204,0.005005206142459064,-0.0026166213723365214
1761384879686507500,7.063507568359375,-0.008773089042305946,-0.0032863647269085047,-0.0059890295480377964
1761384879696576500,7.073576416015625,-0.013107903376221657,0.008450341627653688,-0.0019334522806107996
1761384879706645500,7.0836455078125,-0.009061842855811119,-0.000662646893505007,0.007060786965396255
1761384879716714500,7.093714599609375,-0.009359949019551277,0.0033092158795334395,0.004476533492701128
1761384879726782500,7.103782470703125,-0.004869651862978935,0.006550207094755023,0.002239696085033938
1761384879736851500,7.1138515625,-0.01624269427061081,0.004180208294093608,0.0038925504591315985
1761384879746920700,7.123920654296875,-0.013401333364844321,0.00683196491189301,0.002891392326261848
1761384879756989400,7.133989501953125,-0.009363456150889396,0.008016370657179504,0.0017596848825924098
1761384879767058700,7.14405859375,-0.01489712488055229,-0.001206087854132056,0.006137927366280928
1761384879777127400,7.15412744140625,-0.007712181812524795,0.002440506753604859,0.005375628623738885
1761384879787196700,7.16419677734375,-0.0035223289072513577,0.007987619486730546,0.008377815247559919
1761384879797265400,7.174265380859375,-0.013698270484805106,0.007868322222307324,0.0025826095048803836
1761384879807334400,7.18433447265625,-0.004417816442251205,0.011891294128075242,0.002874952648114413
1761384879817403600,7.194403564453125,-0.010554127240180969,0.0010589344684034585,0.004511175547819584
1761384879827472400,7.204472412109375,-0.0036684593796730038,0.01117967525999993,0.004563819050509482
1761384879837541600,7.214541748046875,0.0024660978525876997,0.008630757962167262,-0.0026711737043224274
1761384879847610400,7.2246103515625,-0.013546294793486595,0.0043277635386213655,-0.0026669998527038843
1761384879857679600,7.2346796875,-0.018186814075708387,0.0021324819840490817,-0.0038951716744806616
1761384879867748600,7.24474853515625,-0.005319733718037605,0.003813092014752328,0.0015595774669200182
1761384879877817600,7.254817626953125,-0.010411503899097441,0.0012457805437035858,-0.0004526300051715225
1761384879887886600,7.264886474609375,-0.016695114213228224,0.0013020225092768669,0.0013052008470520377
1761384879897955600,7.27495556640625,-0.009812368962168694,0.011697050197608768,0.007506119580101222
1761384879908024600,7.285024658203125,-0.008612345522642135,0.00594294365029782,0.005480376773001626
1761384879918093600,7.295093505859375,-0.01280278294980526,0.0050656858917325735,0.011629601851431652
1761384879928162600,7.30516259765625,-0.002926116579771042,-0.0012498356643132864,0.004570394921768456
1761384879938231600,7.3152314453125,-0.009358779975771904,0.006804090524278581,0.00644416203754954
1761384879948300500,7.325300537109375,-0.0009784896433353424,0.005923142971284687,-0.000977521528955549
1761384879958369500,7.33536962890625,-0.016395254483819007,-0.0012315328226424752,0.004268096640100702
1761384879968438500,7.3454384765625,-0.009669161099195479,0.008118187063839287,0.0015695782711263745
1761384879978507500,7.355507568359375,-0.003537526476383209,0.0027450974570587274,0.005655139684863388
1761384879988576800,7.36557666015625,0.0004974281281232833,0.009864099149405956,0.008668158229952677
1761384879998645500,7.3756455078125,-0.01147474921643734,0.008260536410287022,0.006436462788283825
1761384880008714500,7.385714599609375,-0.013269231417775154,0.00074347531106323,0.009158161103446036
1761384880018782700,7.39578271484375,-0.007285480833053588,0.0006825571703724562,-0.002489222999848425
1761384880028851500,7.4058515625,-0.009527706801891326,0.005272697972226887,-0.004801080138795077
1761384880038920700,7.415920654296875,-0.004438274708390235,0.008461794603429735,0.010399101075250656
1761384880048989400,7.425989501953125,0.0015478139638900755,0.0011077785788103937,0.002931094148987904
1761384880059058400,7.436058349609375,-0.0023427637338638303,0.005230082673206925,0.0008832308416254818
1761384880069127700,7.446127685546875,-0.015213351222872732,0.008259458698052913,0.004096219805069267
1761384880079196400,7.456196533203125,-0.012521043398976325,0.0022545009285211562,0.004899973936006426
1761384880089265700,7.466265625,-0.006233341431617736,0.007490282690152525,-0.0012772716605104505
1761384880099334400,7.47633447265625,-0.002339256602525711,0.0017233349275775252,0.001184113484341651
1761384880109403600,7.486403564453125,-0.010568740287423134,0.011552107035275549,0.0008763718425761908
1761384880119472400,7.496472412109375,0.0016968670457601547,0.009643076809868216,-0.0031168351125903425
1761384880129541600,7.506541748046875,-0.00518880081474781,0.0019314247203059494,0.0034215628133621064
1761384880139610600,7.516610595703125,-0.005490998631715774,-0.0009465966677293181,-0.001981310010328889
1761384880149679400,7.526679443359375,-0.002051671832799911,0.0052622131108306346,-0.00006916537922807038
1761384880159748600,7.53674853515625,-0.004898877957463264,0.009781316236779093,0.005709682883694767
1761384880169817300,7.5468173828125,-0.013723989447951316,-0.003029832682572305,-0.003937293783156201
1761384880179886600,7.556886474609375,0.0000415010541677475,0.004715593812428414,-0.0006059482702054083
1761384880189955600,7.56695556640625,-0.01222936697602272,0.011888956040516496,-0.00006298223361372948
1761384880200024600,7.577024658203125,-0.008638649007678032,0.003718509066477418,-0.007783931874483823
1761384880210093600,7.587093505859375,-0.0025046762973070145,0.00032154183825477956,-0.0036253326239995658
1761384880220162600,7.59716259765625,-0.0002589431971311569,0.0048518787442706525,0.004734097583498805
1761384880230231600,7.6072314453125,-0.012829086434841156,0.007688636540155857,-0.004439900409895926
1761384880240300500,7.617300537109375,-0.008932078996300696,0.00476849304344505,0.0031218492144253103
1761384880250369500,7.62736962890625,-0.008186813586950302,0.006920355581399053,0.0003179068427532911
1761384880260438500,7.6374384765625,-0.01955751790702343,0.003226031108107418,-0.0054053844411857425
1761384880270507500,7.647507568359375,-0.011624386820197105,0.005270780009776353,-0.0005489299864973872
1761384880280576500,7.657576416015625,-0.002345686343312263,0.006995649307314306,0.0074817340575158596
1761384880290645500,7.6676455078125,-0.003243511965870857,0.006400459893140941,-0.0013172566110268235
1761384880300714500,7.677714599609375,-0.013715806141495705,0.0062055766418576234,0.006074808135349303
1761384880310782500,7.687782470703125,-0.005191138902306556,-0.001827215427160263,-0.00702281130887568
1761384880320851500,7.6978515625,-0.011776362511515617,0.0030055932904593644,0.0040567097785882645
1761384880330920400,7.70792041015625,-0.007888122901320457,0.010233937108796089,0.00021824586056172845
1761384880340989700,7.71798974609375,-0.01028174003958702,0.0013756722673773764,0.008915913312789053
1761384880351058400,7.728058349609375,-0.023150573962926864,0.005703636735398322,0.0021365188383497295
1761384880361127700,7.738127685546875,-0.007585925084352493,0.008932992311753332,-0.005139974970649928
1761384880371196400,7.748196533203125,-0.0072808046579360955,0.004705675206612795,-0.003996394426096231
1761384880381265700,7.758265625,-0.013570844712853431,0.005743694751150906,-0.007125248770043254
1761384880391334700,7.768334716796875,-0.006240355694293975,0.0025857969758100808,-0.00019638108862563965
1761384880401403400,7.7784033203125,-0.005791442883014679,0.003152509214170277,0.0030126075531356033
1761384880411472600,7.78847265625,-0.0140209265679121,0.0014838088169693946,-0.0008563063020817935
1761384880421541400,7.798541259765625,-0.009825228443741799,0.004760145340207964,0.0035905535715632137
1761384880431610600,7.808610595703125,-0.010720715978741645,0.0012210662275552748,-0.0034391624021343887
1761384880441679400,7.818679443359375,-0.00757774177789688,0.00553295634360984,0.0031561990085989234
1761384880451748600,7.82874853515625,-0.012514613658189773,0.011478073684684932,-0.0016470913535915313
1761384880461817600,7.838817626953125,-0.007431611305475235,0.006421922806277871,-0.004423351133894175
1761384880471886600,7.848886474609375,0.0008007949888706207,0.005809654393140226,0.00010165200987830757
1761384880481955600,7.85895556640625,-0.0030938743621110915,0.00023503259858116506,0.0026959245530888435
1761384880492024300,7.8690244140625,-0.004440612795948982,0.0022380247177556157,0.005802110407501459
1761384880502093600,7.879093505859375,-0.0026467151165008545,0.006561513940058648,-0.007278557901922613
1761384880512162600,7.88916259765625,-0.007583586996793746,0.005982691138796508,0.0015012896747328341
1761384880522231600,7.8992314453125,-0.005787351229786872,0.0035658575217239557,0.004954937259946018
1761384880532300500,7.909300537109375,-0.0020434885263442993,0.011326883444655687,-0.00007138473577797413
1761384880542369500,7.91936962890625,-0.006233925953507423,0.0058039005057886235,-0.004270462127123027
1761384880552438500,7.9294384765625,-0.014165303474664687,0.0036745055279694496,0.0093877868745476
1761384880562507500,7.939507568359375,-0.009675006318092346,0.001805971709731966,0.0006901559549383819
1761384880572576500,7.949576416015625,-0.001149170035123825,0.006576638443954288,0.001693359914422035
1761384880582644500,7.95964453125,-0.0014496142864227294,0.00838690273631364,0.0033028774702921508
1761384880592713500,7.96971337890625,-0.008028992676734924,0.005954780218563973,0.0037559002011083066
1761384880602782500,7.979782470703125,-0.018799977537989614,0.01153510110154748,0.005583535753376782
1761384880612851500,7.9898515625,-0.008175707671046256,0.003933320860937238,0.005633201847691088
1761384880622920200,7.999920166015625,0.0002034136176109314,-0.0005342895397916436,0.007277370591834187
1761384880632989400,8.009989501953125,-0.002041150438785553,-0.0008348068563267589,0.0021591873278841373
1761384880643058200,8.02005810546875,-0.005032733470201492,0.004341262341011315,-0.0005476239454001188
1761384880653127400,8.03012744140625,-0.0104220252931118,0.004377484431862831,-0.0025862353672273454
1761384880663196400,8.040196533203124,-0.01445756441950798,0.00371251771710813,0.003611614625900984
1761384880673265200,8.05026513671875,-0.001893266400694847,0.00563780495757237,0.0030360066950321195
1761384880683334400,8.06033447265625,-0.014165887996554374,0.005522581080067902,-0.0008066584740765392
1761384880693403100,8.070403076171875,-0.012221768191456794,-0.0008534019589424133,-0.0054308842086233195
1761384880703472400,8.080472412109375,-0.015813655203580856,0.0031452209568582474,0.002524056851211935
1761384880713541400,8.090541259765626,-0.01102291379570961,0.0028298896636813876,0.005202792807482183
1761384880723610400,8.1006103515625,-0.020598551392555235,0.0039931612893939015,-0.0025335370656102895
1761384880733679400,8.110679443359375,-0.007580079865455627,0.011539978206064552,-0.005429075844027102
1761384880743748400,8.120748291015625,-0.0021913725644350053,0.0004188829991966486,0.01286260511195287
1761384880753817300,8.1308173828125,-0.023292028260231017,0.0035116613827645775,0.01048703508703038
1761384880763886300,8.14088623046875,-0.02059972043633461,0.005574366066232323,0.005960387975443154
1761384880773955300,8.150955322265625,-0.014167057040333747,0.004150141949392855,-0.0018007292790338397
1761384880784024300,8.1610244140625,-0.0036953473865985868,-0.0026380751523189245,0.0027947270187549294
1761384880794093300,8.17109326171875,-0.013123685467243193,0.003552431784570217,-0.0016902911745011804
1761384880804162300,8.181162353515624,-0.008189151674509048,0.012846457694750279,-0.004344879070203751
1761384880814231300,8.191231201171876,-0.002800444373488426,0.007718556754384189,-0.00009133154526352882
1761384880824300300,8.20130029296875,-0.0032487726628780363,0.008180274248309433,-0.006349478624574839
1761384880834369500,8.21136962890625,-0.0034001638323068618,0.0052190315562300384,0.0003445756539702415
1761384880844438300,8.221438232421875,-0.012827917391061781,0.013490783480275421,-0.000830824800953269
1761384880854506200,8.23150634765625,-0.012827332869172096,0.007479085442703217,0.0033623708388768134
1761384880864575500,8.241575439453126,-0.00684182871878147,0.005273045032098889,0.006994845589715987
1761384880874644200,8.251644287109375,-0.003551555001735687,0.005725282311625778,0.010778565379511565
1761384880884713500,8.26171337890625,-0.011931260812282561,0.01165122002819553,0.0006651493778452277
1761384880894782200,8.2717822265625,-0.002503507253527641,0.008166172657720744,-0.0020491693484596908
1761384880904851500,8.2818515625,-0.006845920372009277,0.002600190827343613,0.0006617335780523717
1761384880914920400,8.29192041015625,-0.006845920372009277,0.0031608386510983107,-0.006229468974098563
1761384880924989200,8.3019892578125,-0.0044528877556324,-0.002682571881171316,0.002096077230107039
1761384880935058400,8.312058349609375,-0.012986322823166847,-0.0028669154721312224,-0.0003917575302533805
1761384880945127200,8.322127197265624,-0.005506780722737312,0.00792377873659134,0.0011316161121241747
1761384880955196400,8.332196533203126,-0.0011684592574834824,0.0013528028484433889,-0.004152699232660234
1761384880965265200,8.34226513671875,-0.0029641105026006697,0.0136189033719711,0.0031522900184616444
1761384880975334400,8.35233447265625,-0.004610124143958091,0.009033000353816895,0.002188340357132256
1761384880985403400,8.3624033203125,-0.011937106031179428,0.00725895815230906,0.0006900098244659602
1761384880995472400,8.372472412109374,-0.012988660910725593,0.0036923882445320487,0.0000027582126669585704
1761384881005541400,8.382541259765626,-0.006100654962658882,0.0017360300123691558,0.008896240497939288
1761384881015610000,8.392610107421875,-0.006100654962658882,0.010610533602535725,-0.0014318411677144466
1761384881025679400,8.402679443359375,-0.006249123522639274,0.008034984026104211,-0.004418821089249104
1761384881035748400,8.412748291015625,-0.010583937856554985,0.01688484636535868,-0.0026746443030424413
1761384881045817300,8.4228173828125,-0.011933598899841307,0.014253803742025046,0.004855732935480773
1761384881055886300,8.43288623046875,-0.0059451721400022505,0.005128521994873881,-0.004313515817560255
1761384881065955300,8.442955322265625,-0.01013268695771694,0.008632712457235903,0.003942819341644644
1761384881076024300,8.4530244140625,-0.011326865178346633,0.003641388709656894,-0.0010492350582964717
1761384881086093300,8.46309326171875,-0.012975801429152488,0.0039050080819055437,-0.0007567731840535998
1761384881096162300,8.473162353515624,-0.0036953473865985868,0.0010013407959602772,0.003366170231159776
1761384881106230300,8.483230224609375,-0.01656710391938686,0.00846135621201247,-0.002901840655039996
1761384881116299300,8.49329931640625,-0.010287585258483885,0.003065451985225081,-0.005240457936748862
1761384881126368300,8.5033681640625,0.0031768764704465866,0.005266396095603704,0.00040684550153091546
1761384881136437500,8.5134375,-0.0023638065218925474,0.0037443376274779437,0.007994852945115417
1761384881146506200,8.52350634765625,-0.008648001357913018,-0.0019754282588139173,-0.0061032305122353135
1761384881156575500,8.533575439453125,-0.007446808874607086,0.005247106873244047,-0.003602079612575471
1761384881166644200,8.543644287109375,-0.017920856615900992,0.003971424381621182,-0.011028868612460791
1761384881176713200,8.553713134765625,-0.003553893089294433,0.004736307806894183,0.0031712321809493
1761384881186782500,8.563782470703124,-0.004597849184274673,0.006549494708701968,0.004987140762805938
1761384881196851200,8.573851318359376,-0.0016045125871896743,0.006326499607786536,0.004905344230867922
1761384881206920400,8.58392041015625,-0.009237199422717094,0.005285374790709466,0.0021522461304441095
1761384881216989200,8.5939892578125,-0.015522563302516936,0.003600673106778413,0.006975318905338645
1761384881227058400,8.604058349609375,-0.011930676290392874,0.006584182429593056,0.011515245623607187
1761384881237127400,8.61412744140625,-0.015521978780627249,0.009286262728832661,0.0034253348061814904
1761384881247196400,8.624196533203126,-0.017764789271354674,0.004103562861308455,0.004306099696084857
1761384881257265400,8.634265380859375,-0.009085808253288268,0.006117058108188212,0.0015591756081208587
1761384881267334100,8.644334228515625,-0.008790040177106856,0.010460822933539747,0.011976232465170324
1761384881277403400,8.6544033203125,-0.007144611057639121,0.010928750972542912,0.001037983011920005
1761384881287472000,8.66447216796875,-0.011036942321062088,0.005911909191217273,-0.006605700141657143
1761384881297541400,8.674541259765626,-0.010737667113542557,0.006948339566867798,0.003252754718251526
1761384881307610400,8.6846103515625,-0.012833762609958648,0.004267283789347857,0.009802541687898337
1761384881317679400,8.694679443359375,-0.005049684605002403,0.003504665386397391,0.0067120465929619965
1761384881327748400,8.704748291015624,-0.0016045125871896743,0.00804786177398637,0.0008303316106088459
1761384881337817300,8.7148173828125,-0.003847907599806785,0.008858758031763135,0.005403283815644681
1761384881347886300,8.72488623046875,-0.0019037877947092054,0.003413059846498072,-0.0005157675024121999
1761384881357954300,8.734954345703125,-0.010133271479606628,0.012138528621103614,-0.009261712809465824
1761384881368023300,8.745023193359375,-0.008040098592638968,0.00983854458304122,0.0022452764424495397
1761384881378092300,8.75509228515625,-0.005044423907995223,0.007452946354448795,0.0002377177460119128
1761384881388161500,8.76516162109375,-0.005942249530553817,0.00859705662196502,-0.0002696655205450952
1761384881398230300,8.775230224609375,-0.004743395134806633,-0.002744001478515565,0.005255710304807871
1761384881408299500,8.785299560546875,-0.0044470425367355345,0.005548701902013272,0.0006724741677753627
1761384881418368300,8.7953681640625,-0.0007072714865207671,0.006118373282440006,0.0002599661104381084
1761384881428437200,8.805437255859376,-0.00848491975069046,0.005499291536025703,0.0000947290787473321
1761384881438506200,8.81550634765625,-0.0008475567400455475,0.0028301636583171782,0.003549710104521364
1761384881448575200,8.8255751953125,0.005741758522391319,0.010776702215988188,0.000838149590883404
1761384881458644500,8.83564453125,-0.00009586158990859984,0.003956701736524701,-0.000992426837142557
1761384881468713200,8.845713134765624,-0.0054833998471498484,0.007740275395847857,-0.006791870363522321
1761384881478782500,8.855782470703126,-0.015061960053443908,0.00386737948525697,-0.0029803675176575777
1761384881488851200,8.865851318359375,-0.01656067417860031,0.009452139081340282,0.0023241320986300707
1761384881498920400,8.87592041015625,-0.00997720413506031,-0.005615173000656068,0.0029637451764196157
1761384881508989400,8.885989501953125,-0.0068336454123258585,-0.0059694297984242434,-0.0052790181151591235
1761384881519058200,8.89605810546875,-0.011926000115275382,-0.00583458790499717,-0.0013071370758116244
1761384881529127400,8.90612744140625,-0.015963292807340622,-0.00021431860411539672,0.003982110172417014
1761384881539196200,8.916196044921875,-0.007583586996793746,0.006351816712133586,-0.0014252104975283144
1761384881549265400,8.926265380859375,-0.0048871875196695325,0.005493190588802099,0.005022687000222504
1761384881559334400,8.93633447265625,-0.013563830450177191,0.005045318957138807,0.005017882960941643
1761384881569403400,8.9464033203125,-0.015056699356436729,-0.0022187902943231162,0.0005099588161334395
1761384881579470300,8.95647021484375,-0.008922142124176025,-0.0013239786127582191,-0.00222954915035516
1761384881589539300,8.966539306640625,0.00020925883650779723,0.002495689273253083,0.0004046718107536435
1761384881599608300,8.9766083984375,0.001855272477865219,0.0035814021507278083,-0.0019204832011833785
1761384881609677300,8.98667724609375,-0.010263619861006736,0.004682422195188701,-0.0063087447553873055
1761384881619746800,8.996746826171876,-0.007119476616382598,0.0017632833454757928,-0.003305946210213005
1761384881629816000,9.006816162109375,-0.009964344653487205,0.0065798898469656706,0.004253346595540643
1761384881639885000,9.016885009765625,-0.007121814703941345,0.002498758013173938,0.0010096702328883111
1761384881649954000,9.0269541015625,-0.007872340810298918,0.0056356495331041515,0.0013897555916570126
1761384881660023000,9.03702294921875,-0.003231821528077125,0.00046507849479094146,0.00662201195564121
1761384881670092000,9.047092041015626,-0.0036760581642389296,0.0034294812583364545,-0.002212853743880987
1761384881680161000,9.0571611328125,-0.012051087799668311,0.008830463519040495,0.001937416069675237
1761384881690230000,9.06722998046875,-0.009957330390810966,0.0011020246914587913,-0.008378408902604132
1761384881700299000,9.077299072265625,-0.008315992924571037,0.0006490567595697938,-0.004557224912941455
1761384881710368300,9.0873681640625,-0.011611527338624,0.007044529950339347,-0.0005768865725025535
1761384881720437000,9.09743701171875,-0.01490413914322853,0.005263217757828533,0.005234247391670942
1761384881730506000,9.107506103515625,-0.008023147457838059,0.00897767170369625,-0.001453979934286326
1761384881740575000,9.117574951171875,-0.006078443130850791,0.0037587680116295814,-0.0029678550959564742
1761384881750644000,9.12764404296875,-0.014156535646319388,0.008337912495434283,-0.0010920695530250667
1761384881760713200,9.137713134765624,-0.0035351883888244625,0.007628832644317299,0.003841733587346971
1761384881770781000,9.147781005859375,-0.00727320587337017,-0.0021115670601837334,0.0015526728020980954
1761384881780850000,9.157849853515625,-0.009069441640377044,0.009058262659236788,0.006960157868824899
1761384881790919200,9.167919189453125,-0.015207506003975867,0.004871679423283785,0.0011035773277282715
1761384881800988000,9.17798779296875,-0.013111410507559776,-0.002944181959424168,-0.0036731903537176548
1761384881811057200,9.18805712890625,-0.012361468923091888,0.001665613390970975,-0.004223883039038628
1761384881821126000,9.1981259765625,-0.0026361937224864958,0.00023684096317738292,-0.0017663886180147527
1761384881831195100,9.208195068359375,-0.005780336967110633,0.010294873515795916,-0.0024409086124040184
1761384881841264000,9.21826416015625,0.0021516250759363175,0.006841682588309049,0.00031184242814779277
1761384881851333000,9.2283330078125,-0.0071294134885072705,-0.00023004589620977638,0.0024903189783915874
1761384881861402000,9.238402099609376,-0.005030395382642746,0.005152852718532085,0.00027899960447102785
1761384881871470800,9.248470947265625,-0.015953940457105634,0.0022120865589007736,0.002013513513188809
1761384881881540000,9.2585400390625,-0.014909984362125395,-0.0019252689741551875,-0.004714826627448201
1761384881891608800,9.26860888671875,-0.0024877251625061033,0.002662880800012499,0.008799100266396999
1761384881901678000,9.278677978515624,-0.01161503446996212,0.007095566017832606,-0.00019851824678480625
1761384881911747000,9.2887470703125,-0.0008434650868177413,0.016654964865930377,0.004107636248227208
1761384881921816000,9.298816162109375,0.0015548282265663146,0.009831055396329611,0.0030228549525141714
1761384881931885000,9.308885009765625,-0.011761749464273451,-0.005979549333639442,-0.0009307049788534641
1761384881941954000,9.3189541015625,-0.013261632633209227,0.009279102335684,-0.0034719321605749427
1761384881952023000,9.32902294921875,-0.012963526469469069,-0.003940645650867373,-0.00204821950038895
1761384881962092000,9.339092041015626,-0.00966740753352642,0.0030112558462657034,0.001979099786933511
1761384881972161000,9.3491611328125,-0.009065934509038925,0.011593845551460981,0.00456029365286231
1761384881982230000,9.35922998046875,-0.00741699825823307,0.0035453809892758725,0.003800250799488276
1761384881992299000,9.369299072265624,-0.0030716625303030013,-0.0014509842596016824,-0.002901931986585259
1761384882002367000,9.379366943359376,-0.0014244798451662063,0.008459456515870987,0.000018357640597969294
1761384882012436200,9.389436279296875,-0.007713935378193855,0.0029297150426544245,-0.0029090010481886562
1761384882022505000,9.3995048828125,-0.01250292322039604,-0.006146485132072121,-0.0027054413001053033
1761384882032574000,9.409573974609375,-0.00412087932229042,0.0070235054286196825,0.008357694908138364
1761384882042643000,9.419642822265626,-0.01250292322039604,0.0022024054151028394,0.001362100399751216
1761384882052712000,9.4297119140625,-0.011008885270357132,-0.0024012524554505943,-0.0014291012213565408
1761384882062781200,9.43978125,-0.006368950510025024,0.0051798503233119846,0.004722334080468863
1761384882072850000,9.449849853515625,-0.01265372986793518,-0.0007224690556526184,0.0015342238299548626
1761384882082919200,9.459919189453124,-0.004727613043785095,0.0019775654169730842,-0.0031342246388085184
1761384882092988000,9.46998779296875,-0.0039770869374275205,0.006805880622565746,0.0016411913357675075
1761384882103057200,9.48005712890625,-0.008913374295830726,0.0032765557189472017,-0.004229381198063493
1761384882113126100,9.490126220703125,-0.007115384963154793,-0.0011344656563363968,-0.0066014258253388105
1761384882123195000,9.50019482421875,-0.013248773151636122,0.006001834230683744,0.007351751002296805
1761384882133264100,9.51026416015625,-0.00786357298195362,0.004132003504503518,0.00482594058541581
1761384882143332900,9.520332763671876,-0.00935585736632347,0.004464706057589501,-0.009010715456772594
1761384882153402000,9.530402099609375,-0.017138181805610657,0.011084526056144385,0.003845131120830774
1761384882163471000,9.54047119140625,-0.0008247603863477706,-0.000017480857763439414,0.005194810430426151
1761384882173540000,9.5505400390625,-0.01040332059264183,-0.00016583981988951564,-0.0010809819034300744
1761384882183609000,9.560609130859374,-0.007564297774434089,0.002795366339571774,0.004701199960894882
1761384882193678000,9.570677978515626,-0.0014303250640630722,0.00927950419448316,-0.00519703892013058
1761384882203748000,9.580748046875,-0.009064180943369865,0.008137531085126102,0.005662409675866365
1761384882213817000,9.590817138671875,-0.005473462975025177,0.003788158502895385,-0.0009526610823348164
1761384882223886000,9.600885986328125,-0.0077174425095319745,-0.00046449397290125485,0.0034766631346195933
1761384882233955000,9.610955078125,-0.005771569138765335,0.004810669951047748,-0.002410513474140316
1761384882244024000,9.621024169921874,-0.01055880341529846,0.005083641673531383,-0.007927614661492407
1761384882254093000,9.631093017578126,-0.008315992924571037,0.0036194874051027,0.010259217680525035
1761384882264162000,9.641162109375,-0.009811784440279006,0.008777381624933332,0.004652812508214265
1761384882274231000,9.65123095703125,-0.008318915534019469,0.006715681588463485,0.0020916933159343897
1761384882284299000,9.661299072265624,-0.008767828345298767,0.0036190124810673296,-0.0005422171179205179
1761384882294368000,9.671367919921876,-0.012806874603033066,0.0062004803416319185,0.0023678433761931956
1761384882304437000,9.68143701171875,-0.011010054314136505,-0.000511913311202079,0.004172225917037576
1761384882314506000,9.691506103515625,-0.008467968615889549,-0.0033131979349069296,-0.0018472170355729757
1761384882324575000,9.701574951171875,0.00021510405540466307,0.0003013027678243816,-0.005670318987686187
1761384882334644000,9.71164404296875,-0.009358195453882216,0.0003302914002910256,0.009402966177370398
1761384882344713000,9.721712890625,-0.00412438645362854,-0.0012632979340851307,0.009036050827428699
1761384882354782200,9.7317822265625,-0.001585223364830017,-0.0030831885713152587,-0.004994410753808915
1761384882364851000,9.741850830078125,-0.01954348938167095,-0.006714238550048321,0.0009301569895818829
1761384882374920200,9.751920166015625,-0.011309914043545722,0.011566665283590554,-0.005780556162819266
1761384882384989000,9.761989013671876,-0.010263035339117049,0.010010668013244867,0.000744717420078814
1761384882395058200,9.77205810546875,-0.014302081596851347,0.0003178703101351857,0.00537040445934981
1761384882405127200,9.782127197265625,-0.012953005075454712,-0.00241418500225991,0.004095452620089054
1761384882415196000,9.79219580078125,-0.011310498565435409,0.003817074070125818,-0.0006009433015249669
1761384882425265200,9.80226513671875,-0.017593524357676506,0.008657572903856634,-0.006470017998013645
1761384882435334000,9.812333984375,-0.0060690907806158064,0.004194638678245246,-0.005460914020705968
1761384882445403100,9.822403076171875,-0.011907879936695098,0.0006897175635211169,0.003612948066461831
1761384882455471900,9.832471923828125,-0.005915361523628235,0.006630304859951138,0.0015065869043581186
1761384882465541000,9.842541015625,-0.005165419939160347,-0.0059282940704375505,0.012931158569827675
