time,seconds_elapsed,z,y,x
1761384872728845600,0.105845458984375,-0.0005299690528772771,-0.0075937374494969845,0.002525741932913661
1761384872738914600,0.11591455078125,-0.0025622271932661533,-0.009104282595217228,0.004658934194594622
1761384872748983600,0.125983642578125,-0.004682902246713638,-0.00977300200611353,0.0029952572658658028
1761384872759052500,0.136052490234375,-0.003972371108829975,-0.0075636436231434345,0.003094060579314828
1761384872769121500,0.14612158203125,-0.0019526296528056264,-0.00936047825962305,0.004504204262048006
1761384872779190500,0.1561904296875,-0.0009004147723317146,-0.0070589748211205006,0.006658435333520174
1761384872789259800,0.166259765625,-0.002481799805536866,-0.00953891035169363,0.0031257520895451307
1761384872799328500,0.17632861328125,-0.0027835359796881676,-0.007610515225678682,0.004177700728178024
1761384872809397800,0.186397705078125,-0.0016263924771919847,-0.009749832563102245,0.0011765845119953156
1761384872819466500,0.196466552734375,-0.0032322786282747984,-0.006991330534219742,0.003742806613445282
1761384872829535500,0.206535400390625,-0.00105301383882761,-0.009495766833424568,0.00301656243391335
1761384872839604700,0.216604736328125,-0.002682602033019066,-0.008869125507771969,0.0029814087320119143
1761384872849673500,0.226673583984375,-0.0004548678989522159,-0.009630789048969746,0.006335127633064985
1761384872859742700,0.23674267578125,-0.002545981900766492,-0.008211856707930565,0.004299940075725317
1761384872869811500,0.2468115234375,-0.002689260058104992,-0.007868309505283833,0.004749481566250324
1761384872879880700,0.256880615234375,-0.0006924218614585698,-0.008143680170178413,0.0017124125733971596
1761384872889949400,0.266949462890625,-0.0014809839194640517,-0.006614759564399719,0.00509755639359355
1761384872900018700,0.277018798828125,-0.0010998855577781796,-0.005458681378513575,0.006630738265812397
1761384872910087700,0.287087646484375,-0.0011116034584119916,-0.009472331032156944,0.006449110805988312
1761384872920156400,0.297156494140625,-0.0041273669339716434,-0.008523979224264622,0.0017664746847003698
1761384872930224600,0.307224609375,-0.0018013621447607875,-0.010090717114508152,0.005406217183917761
1761384872940293600,0.317293701171875,-0.0011502192355692387,-0.008233428932726383,0.005515672732144594
1761384872950362600,0.327362548828125,-0.004233094397932291,-0.007419300265610218,0.003620567498728633
1761384872960431600,0.337431640625,-0.0027869981713593006,-0.008133826777338982,0.002840527566149831
1761384872970500400,0.347500244140625,-0.002332130214199424,-0.0030953921377658844,0.005787048954516649
1761384872980569600,0.357569580078125,-0.0008777778712101281,-0.010363425128161907,0.005850964691489935
1761384872990638600,0.367638671875,0.0004189152386970818,-0.007178017869591713,0.0034549187403172255
1761384873000707600,0.37770751953125,-0.0021427792962640524,-0.007768440991640091,0.002971555106341839
1761384873010776600,0.387776611328125,-0.0020687435753643513,-0.008587096817791462,0.0010687265312299132
1761384873020845600,0.397845458984375,-0.0024082965683192015,-0.007382548879832029,0.00490314606577158
1761384873030914600,0.40791455078125,0.0013544837711378932,-0.00888110976666212,0.005861351266503334
1761384873040983600,0.417983642578125,-0.0024927188642323017,-0.00857138354331255,0.0023222763556987047
1761384873051052500,0.428052490234375,-0.000743554555810988,-0.010939733125269413,0.002974484581500292
1761384873061121500,0.43812158203125,-0.0029878003988415003,-0.007660316303372383,0.00509942090138793
1761384873071190500,0.4481904296875,-0.003335609333589673,-0.007904262281954288,0.00663553224876523
1761384873081259500,0.458259521484375,-0.00046099317842163146,-0.008679508231580257,0.0046120621263980865
1761384873091328500,0.46832861328125,-0.0009376989910379052,-0.006554039195179939,0.005255215801298618
1761384873101397500,0.4783974609375,-0.003640807466581464,-0.010029198601841927,0.004561728797852993
1761384873111466800,0.488466796875,-0.0013022858183830976,-0.00965475756675005,0.0038746329955756664
1761384873121535500,0.498535400390625,0.002576342085376382,-0.0070251524448394775,0.006601177155971527
1761384873131604700,0.508604736328125,-0.002793655963614583,-0.008224373683333397,0.005405418109148741
1761384873141673500,0.518673583984375,-0.004321245010942221,-0.005951365921646357,0.0035412053111940622
1761384873151742700,0.52874267578125,-0.00044661210267804563,-0.005952164996415377,0.0054339137859642506
1761384873161811700,0.538811767578125,-0.001537709147669375,-0.009040366858243942,0.005524727515876293
1761384873171880400,0.54888037109375,-0.0014381069922819734,-0.010407899506390095,0.0041497377678751945
1761384873181948700,0.55894873046875,0.0004644552827812731,-0.007246194873005152,0.0035268242936581373
1761384873192017700,0.569017578125,-0.0034493261482566595,-0.008614260703325272,0.003498861100524664
1761384873202086700,0.579086669921875,-0.0023244069889187813,-0.01050244178622961,0.003933488857001066
1761384873212155600,0.58915576171875,-0.002329733222723007,-0.006745520513504744,0.004756938200443983
1761384873222224400,0.599224365234375,-0.0023073628544807434,-0.011141334660351276,0.00637906976044178
1761384873232293600,0.609293701171875,-0.0007866977830417454,-0.009291236288845539,0.004729507956653833
1761384873242362600,0.619362548828125,-0.0014066817238926888,-0.007137804292142391,0.004025900736451149
1761384873252431600,0.629431640625,0.0010090717114508152,-0.008609999902546406,0.005300223361700773
1761384873262500600,0.63950048828125,-0.003022421384230256,-0.009035040624439716,0.005272526293992996
1761384873272569600,0.649569580078125,-0.00025300029665231705,-0.010437194257974625,0.004071440547704697
1761384873282638600,0.659638671875,-0.0010396981379017234,-0.008252071216702461,0.004065847955644131
1761384873292707600,0.66970751953125,-0.0032232238445430994,-0.006709035485982895,0.005341236013919115
1761384873302776600,0.679776611328125,-0.005385976750403643,-0.009846772067248821,0.0059244679287076
1761384873312845600,0.689845458984375,-0.001487375469878316,-0.008440623059868813,0.0029792783316224813
1761384873322914600,0.69991455078125,-0.0005856291390955448,-0.007157777901738882,0.0028032432310283184
1761384873332983600,0.709983642578125,-0.0023579627741128206,-0.0062483083456754684,0.006201436743140221
1761384873343052500,0.720052490234375,-0.00281948852352798,-0.007778028026223183,0.0036730316933244467
1761384873353121500,0.73012158203125,-0.0025358619168400764,-0.009492571465671062,0.005350024439394474
1761384873363190500,0.7401904296875,0.00047404266661033034,-0.008250473067164421,0.0065681543201208115
1761384873373259500,0.750259521484375,-0.0017707358347252011,-0.009952765889465809,0.004505269695073366
1761384873383328800,0.760328857421875,-0.002201369032263756,-0.00887817982584238,0.005106078926473856
1761384873393397500,0.7703974609375,-0.0023699470330029726,-0.0064951833337545395,0.0065319351851940155
1761384873403466800,0.780466796875,-0.0004713795206043869,-0.008674981072545052,0.003200853243470192
1761384873413535500,0.790535400390625,-0.0023007048293948174,-0.008825182914733887,0.004944424610584974
1761384873423604500,0.8006044921875,-0.0018583538476377726,-0.009118130430579185,0.003350256709381938
1761384873433673700,0.810673828125,-0.0008295746520161629,-0.00842837244272232,0.006681604776531458
1761384873443742500,0.820742431640625,-0.0015345134306699038,-0.008762332610785961,0.0027979169972240925
1761384873453811700,0.830811767578125,-0.002624545246362686,-0.010105364955961704,0.003641340183094144
1761384873463880400,0.84088037109375,-0.0016508935950696468,-0.0015760586829856038,0.004846953321248293
1761384873473949700,0.85094970703125,-0.0010764497565105557,-0.00971361342817545,0.004982774145901203
1761384873484017700,0.861017578125,-0.0010940266074612737,-0.005287440028041601,0.004198207054287195
1761384873494086400,0.87108642578125,0.000978711643256247,-0.009833189658820629,0.0062360577285289764
1761384873504155600,0.88115576171875,-0.002204298507422209,-0.00836978293955326,0.004196609370410442
1761384873514224600,0.891224609375,-0.0000756337758502923,-0.00700890738517046,0.005016862880438566
1761384873524293600,0.901293701171875,-0.0016045545926317573,-0.008973254822194576,0.005662945564836264
1761384873534362600,0.911362548828125,-0.002348109148442745,-0.008664860390126705,0.005525526590645313
1761384873544431600,0.921431640625,-0.0005315669695846736,-0.010821488685905933,0.004785966593772173
1761384873554500600,0.93150048828125,-0.0005787048721686006,-0.01215679757297039,0.00401711231097579
1761384873564569600,0.941569580078125,0.0004442152567207813,-0.00869388971477747,0.0038104509003460407
1761384873574638600,0.951638671875,-0.002266349969431758,-0.008652077987790108,0.00564030883833766
1761384873584707600,0.96170751953125,0.00007856325100874528,-0.008058459497988224,0.004477838985621929
1761384873594776600,0.971776611328125,0.0003552656853571534,-0.008561263792216778,0.00461632339283824
1761384873604844800,0.9818447265625,-0.0029790119733661413,-0.00806112214922905,0.006945790257304907
1761384873614914000,0.9919140625,-0.0008298410102725029,-0.00675351032987237,0.004686098080128431
1761384873624982800,1.001982666015625,-0.0014956312952563167,-0.008305334486067295,0.003564108395949006
1761384873635051800,1.0120517578125,-0.002597380895167589,-0.009387376718223095,0.0017563547007739544
1761384873645120800,1.022120849609375,-0.000672448193654418,-0.0070826769806444645,0.004887965973466635
1761384873655189800,1.032189697265625,-0.0007560714147984982,-0.007394799496978521,0.005285841878503561
1761384873665259000,1.042259033203125,-0.0007576693315058947,-0.00820946041494608,0.004041346721351147
1761384873675327700,1.05232763671875,-0.002296976512297988,-0.009209477342665195,0.0060206083580851555
1761384873685397000,1.06239697265625,0.0002671150432433933,-0.00746244378387928,0.004585164599120617
1761384873695465700,1.0724658203125,-0.0018282600212842226,-0.008107461035251617,0.005604622419923544
1761384873705535000,1.082534912109375,-0.001175519311800599,-0.00908803753554821,0.0054877097718417645
1761384873715603700,1.092603759765625,-0.0015534218400716782,-0.008066981099545956,0.005751096177846193
1761384873725672700,1.102672607421875,-0.0016117451013997197,-0.006939132697880268,0.006780141964554787
1761384873735742000,1.112741943359375,-0.0015984292840585113,-0.008684301748871803,0.0031169636640697718
1761384873745810700,1.122810791015625,-0.003400324145331979,-0.0115573201328516,0.0052472264505922794
1761384873755880000,1.1328798828125,-0.001228516222909093,-0.004839496221393347,0.00666322885081172
1761384873765948700,1.14294873046875,-0.001549959764815867,-0.010839598253369331,0.0054972972720861435
1761384873776018000,1.153017822265625,-0.00019094864546786994,-0.008745022118091583,0.0020935109350830317
1761384873786087000,1.1630869140625,-0.003233077470213175,-0.00896926037967205,0.005742840468883514
1761384873796156000,1.173156005859375,-0.0018969696247950196,-0.00950908288359642,0.007729558739811182
1761384873806225000,1.183224853515625,-0.0015060176374390721,-0.008164718747138977,0.0021230720449239016
1761384873816293600,1.193293701171875,-0.0023816649336367846,-0.008638495579361916,0.006184925325214863
1761384873826361900,1.20336181640625,-0.0014096111990511417,-0.007739944849163294,0.0023411849979311228
1761384873836430800,1.213430908203125,-0.0007432882557623088,-0.010916563682258129,0.0047087352722883224
1761384873846499800,1.223499755859375,-0.004276237916201353,-0.008127967827022076,0.007733287289738655
1761384873856568800,1.23356884765625,-0.002656769473105669,-0.007185208611190319,0.0017483652336522937
1761384873866637800,1.243637939453125,-0.0005488775204867125,-0.007184942252933979,0.010032926686108112
1761384873876706800,1.253706787109375,0.00020133497309871018,-0.009251022711396217,0.004466653801500797
1761384873886775800,1.26377587890625,-0.0018290589796379209,-0.00746031291782856,0.007270696107298136
1761384873896844800,1.2738447265625,0.00028628981090150774,-0.008817460387945175,0.004492220003157854
1761384873906913800,1.283913818359375,-0.0010777813149616122,-0.008892561309039593,0.0032951291650533676
1761384873916982800,1.293982666015625,0.0005358280031941831,-0.009877131320536137,0.004599545616656542
1761384873927051800,1.3040517578125,-0.001600559800863266,-0.008374043740332127,0.004547347314655781
1761384873937121000,1.31412109375,-0.0012905678013339639,-0.008892028592526913,0.0023118900135159492
1761384873947189800,1.324189697265625,-0.003570500062778592,-0.009985522367060184,0.005633917171508074
1761384873957259000,1.334259033203125,-0.001955026527866721,-0.007506119552999735,0.005505020264536142
1761384873967327700,1.34432763671875,-0.002472478663548827,-0.00942279677838087,0.00580888707190752
1761384873977396700,1.354396728515625,-0.0018269284628331661,-0.007273625582456589,0.0041492050513625145
1761384873987466000,1.364466064453125,-0.000291616132017225,-0.008417187258601189,0.005096491426229477
1761384873997534700,1.37453466796875,-0.0012373046483844519,-0.006621151231229305,0.003907922655344009
1761384874007604000,1.38460400390625,-0.002234125742688775,-0.009163138456642628,0.004799016285687685
1761384874017672700,1.394672607421875,-0.004734035115689039,-0.007095459848642349,0.005524194799363613
1761384874027742000,1.404741943359375,-0.0020101540721952915,-0.00791225116699934,0.006685866042971611
1761384874037810700,1.414810791015625,-0.001139566651545465,-0.007713047321885824,0.0038248319178819656
1761384874047880000,1.4248798828125,-0.0014596786350011826,-0.007413974031805992,0.004277835600078106
1761384874057949000,1.434948974609375,-0.0016402408946305513,-0.008099205791950226,0.002912699244916439
1761384874068017700,1.445017578125,-0.0006833671359345317,-0.008678176440298557,0.003043726785108447
1761384874078087000,1.4550869140625,-0.0031092404387891293,-0.006913832388818264,0.0039292280562222
1761384874088155600,1.46515576171875,-0.003291400847956538,-0.010219347663223743,0.0034147051628679037
1761384874098225000,1.475224853515625,-0.0025960493367165327,-0.009846239350736141,0.005695702508091927
1761384874108294000,1.4852939453125,-0.0034703651908785105,-0.010083526372909546,0.004108725115656853
1761384874118363000,1.49536279296875,-0.004551608581095934,-0.008362325839698315,0.004699414130300283
1761384874128431900,1.505431884765625,-0.00177899154368788,-0.008668855763971806,0.004610997159034014
1761384874138500900,1.5155009765625,-0.0005091963685117662,-0.009358081966638565,0.002959570847451687
1761384874148569900,1.52556982421875,0.0005030711181461811,-0.0062789348885416985,0.006066148169338703
1761384874158638600,1.535638671875,-0.004776113200932741,-0.007011836860328913,0.00446984963491559
1761384874168707800,1.545707763671875,-0.00039068571641109884,-0.009793508797883987,0.002466619713231921
1761384874178776800,1.55577685546875,-0.0000828243064461276,-0.008738097734749317,0.0038434739690274
1761384874188845800,1.565845703125,-0.0012458267156034708,-0.00993039458990097,0.006393983494490385
1761384874198914800,1.575914794921875,-0.0008721852791495621,-0.007798800710588694,0.0023608922492712736
1761384874208983800,1.58598388671875,-0.0008761800127103925,-0.009898703545331955,0.005021390039473772
1761384874219052800,1.596052734375,-0.001612011343240738,-0.007230216171592474,0.002989398315548897
1761384874229122000,1.6061220703125,-0.0005262406193651259,-0.007952199317514896,0.005862150341272354
1761384874239189800,1.616189697265625,-0.0008791094878688455,-0.010439591482281685,0.004233893472701311
1761384874249258800,1.6262587890625,-0.003572630463168025,-0.006807572208344936,0.0046394928358495235
1761384874259328000,1.636327880859375,-0.0005685848882421851,-0.010239321738481522,0.004435760900378227
1761384874269396700,1.646396728515625,-0.0008354336023330688,-0.010009490884840488,0.0016759273130446672
1761384874279466000,1.656466064453125,0.00019654128118418157,-0.005512743256986141,0.005403819959610701
1761384874289534700,1.66653466796875,-0.0021049624774605036,-0.009453422389924526,0.004471713677048683
1761384874299604000,1.67660400390625,-0.0015371765475720167,-0.007863249629735947,0.002764361212030053
1761384874309673000,1.6866728515625,0.0005046690348535776,-0.008645419962704182,0.0019228023011237383
1761384874319741700,1.69674169921875,-0.0016972325975075364,-0.007639809977263212,0.005045891273766756
1761384874329811000,1.70681103515625,-0.0022828616201877594,-0.010188722051680088,0.004403803031891584
1761384874339879700,1.716879638671875,-0.001654355670325458,-0.00948032084852457,0.00355904852040112
1761384874349949000,1.726948974609375,-0.0011880361707881093,-0.009090700186789036,0.006989200133830309
1761384874360017700,1.737017578125,0.000045540054998127744,-0.00854235514998436,0.0032173648942261934
1761384874370087000,1.7470869140625,-0.0014199974248185754,-0.0068174260668456554,0.004514590837061405
1761384874380156000,1.757156005859375,0.0014117417158558965,-0.010283263400197029,0.005075718741863966
1761384874390225000,1.767224853515625,-0.0011536814272403717,-0.0075636436231434345,0.00430127140134573
1761384874400294000,1.7772939453125,-0.0015387744642794132,-0.006198773626238108,0.003228017594665289
1761384874410362600,1.787362548828125,0.00006684534309897572,-0.009148756973445415,0.002867958042770624
1761384874420432000,1.797431884765625,0.0012519520241767168,-0.00589757040143013,0.006390521302819252
1761384874430500900,1.8075009765625,-0.0037081853952258825,-0.012230301275849342,0.007309312000870705
1761384874440569900,1.81756982421875,-0.0025361282750964165,-0.009110940620303154,0.0031273500062525272
1761384874450638800,1.827638916015625,-0.0006285060080699623,-0.008362592197954655,0.004295146092772484
1761384874460707800,1.837707763671875,-0.0013965616235509515,-0.00814820732921362,0.007645136676728725
1761384874470776800,1.84777685546875,-0.0003765709698200226,-0.008985771797597408,0.006040581967681646
1761384874480845800,1.857845703125,-0.0013875069562345743,-0.008773517794907093,0.002133724745362997
1761384874490914800,1.867914794921875,-0.003507649526000023,-0.007595867849886417,0.004080495331436396
1761384874500983800,1.87798388671875,-0.0021702100057154894,-0.009737315587699413,0.005479986313730478
1761384874511052800,1.888052734375,0.0004950816510245204,-0.007992412894964218,0.0033859428949654102
1761384874521121800,1.898121826171875,-0.0013638047967106104,-0.00899748969823122,0.005566006526350975
1761384874531190800,1.908190673828125,-0.004429901950061321,-0.010522415861487389,0.00660517206415534
1761384874541259800,1.918259765625,-0.0009076052810996771,-0.00868962798267603,0.0038187066093087196
1761384874551329000,1.9283291015625,-0.0008562062866985798,-0.00777509855106473,0.0032748891972005367
1761384874561397800,1.938397705078125,-0.0010490191634744406,-0.010696053504943848,0.00253453035838902
1761384874571467000,1.948467041015625,-0.0024282701779156923,-0.006338057108223438,0.005342567339539528
1761384874581535700,1.95853564453125,-0.0004849616379942745,-0.008715194649994373,0.004171042703092098
1761384874591605000,1.96860498046875,-0.001570998691022396,-0.0072896042838692665,0.006354035809636116
1761384874601674800,1.9786748046875,-0.0010128001449629664,-0.008831840939819813,0.00440939562395215
1761384874611744000,1.988743896484375,-0.0007544735562987626,-0.00726323900744319,0.004299940075725317
1761384874621812700,1.998812744140625,0.0004444815858732909,-0.007407316006720066,0.002120675053447485
1761384874631881700,2.0088818359375,-0.0005142564186826348,-0.007133809383958578,0.005546831991523504
1761384874641950700,2.01895068359375,-0.0006490123341791332,-0.006942062173038721,0.0034027209039777517
1761384874652019700,2.029019775390625,-0.0006628608098253608,-0.010244381614029408,0.0015712650492787361
1761384874662089000,2.0390888671875,0.000016245283404714428,-0.006238188594579697,0.006921821739524603
1761384874672157700,2.04915771484375,0.0006258428329601884,-0.008481635712087154,0.005654689855873585
1761384874682227000,2.05922705078125,-0.002296710154041648,-0.008371113799512386,0.00436065997928381
1761384874692295700,2.069295654296875,-0.0011369034182280302,-0.007876299321651459,0.0035321505274623632
1761384874702365000,2.079364990234375,-0.00047377636656165123,-0.009131712839007378,0.0023318638559430838
1761384874712433000,2.089432861328125,-0.0018703379901126027,-0.009824667125940323,0.0017867147689685225
1761384874722501600,2.099501708984375,-0.0015534218400716782,-0.006250172853469849,0.005001416429877281
1761384874732571000,2.10957080078125,-0.0007835020078346133,-0.011030546389520168,0.004831240512430668
1761384874742639900,2.119639892578125,-0.00013262542779557407,-0.00851545762270689,0.002481267089024186
1761384874752708900,2.129708984375,-0.0009361011325381696,-0.007889614440500736,0.0030011162161827087
1761384874762777900,2.13977783203125,-0.0022093583829700947,-0.0086590014398098,0.004583832807838917
1761384874772846800,2.149846923828125,-0.001734516816213727,-0.010725880973041058,0.004793423693627119
1761384874782915800,2.159915771484375,-0.002529470482841134,-0.009916813112795353,0.0026229473296552896
1761384874792984800,2.16998486328125,-0.0014650048688054085,-0.008985771797597408,0.00432976707816124
1761384874803053800,2.1800537109375,-0.0004444815858732909,-0.009282714687287807,0.005370530765503645
1761384874813122800,2.190122802734375,-0.00187992537394166,-0.008564193733036518,0.00515774404630065
1761384874823191800,2.20019189453125,-0.0012330436147749424,-0.00842650793492794,0.004944957327097654
1761384874833260800,2.2102607421875,-0.0030418625101447105,-0.010014018043875694,0.004610464442521334
1761384874843329800,2.220329833984375,-0.0015712650492787361,-0.007586280815303326,0.004372644238173962
1761384874853398800,2.230398681640625,-0.0023337281309068203,-0.009676329791545868,0.00401471508666873
1761384874863468000,2.240468017578125,-0.0020897823851555586,-0.010297378525137901,0.00424188282340765
1761384874873536800,2.250536865234375,-0.0025007082149386406,-0.008188420906662941,0.0033188313245773315
1761384874883605800,2.260605712890625,-0.0008602010202594101,-0.009935455396771431,0.0031292142812162638
1761384874893674800,2.2706748046875,-0.002484196564182639,-0.005675462540239096,0.00572952488437295
1761384874903743700,2.28074365234375,-0.0011920308461412787,-0.009524262510240078,0.0030368026345968246
1761384874913813000,2.29081298828125,-0.0016937704058364034,-0.007062170654535294,0.004610464442521334
1761384874923881700,2.3008818359375,-0.0018351842882111669,-0.010944526642560959,0.004618986509740353
1761384874933951000,2.310950927734375,-0.0014202637830749154,-0.007594802882522345,0.004854409955441952
1761384874944019700,2.321019775390625,-0.0023252058308571577,-0.007651794236153364,0.005411277059465647
1761384874954089000,2.3310888671875,-0.002264219569042325,-0.010835337452590466,0.004289020784199238
1761384874964157700,2.34115771484375,-0.0005970807396806777,-0.008085623383522034,0.005776130128651857
1761384874974227000,2.35122705078125,-0.002404301892966032,-0.007455785758793354,0.004758003633469343
1761384874984296000,2.3612958984375,0.0005395564367063344,-0.009851831942796707,0.005233111325651407
1761384874994364700,2.37136474609375,-0.001205080421641469,-0.009634251706302166,0.004403536673635244
1761384875004434000,2.381433837890625,-0.0021547635551542044,-0.009063802659511566,0.005468268413096666
1761384875014502700,2.391502685546875,-0.0021909826900810003,-0.007442469708621502,0.004741225857287645
1761384875024572000,2.401572021484375,-0.0009576727170497179,-0.009003082290291786,0.0031276163645088673
1761384875034641000,2.411640869140625,-0.0010032127611339092,-0.008764197118580341,0.003935352899134159
1761384875044710000,2.4217099609375,0.0005195827106945217,-0.007032609544694424,0.002332396572455764
1761384875054779000,2.43177880859375,-0.0020210728980600834,-0.008347944356501102,0.004144144710153341
1761384875064848000,2.441847900390625,-0.0015614113071933389,-0.007430485915392637,0.006614226847887039
1761384875074916900,2.451916748046875,-0.0031846079509705305,-0.00902465358376503,0.005693039391189814
1761384875084985900,2.46198583984375,-0.002543851500377059,-0.007756723091006279,0.004688494838774204
1761384875095054800,2.472054931640625,-0.0005805690889246762,-0.010426275432109833,0.003564374754205346
1761384875105123800,2.482123779296875,-0.0021374530624598265,-0.00854448601603508,0.0035033884923905134
1761384875115192800,2.49219287109375,-0.002520149340853095,-0.008390022441744804,0.007758054416626692
1761384875125261800,2.50226171875,-0.0018881811993196607,-0.011115235276520252,0.0038575888611376286
1761384875135330800,2.512330810546875,-0.0018836538074538112,-0.006451773922890425,0.0065622953698039055
1761384875145399800,2.52239990234375,-0.00227886694483459,-0.007149788551032543,0.005078648217022419
1761384875155469000,2.532468994140625,-0.003312173532322049,-0.009631588123738766,0.005061870440840721
1761384875165537800,2.542537841796875,-0.001044491771608591,-0.0070158313028514385,0.006097307428717613
1761384875175606800,2.552606689453125,-0.0035388083197176456,-0.008017978630959988,0.00598492193967104
1761384875185675800,2.56267578125,-0.0013672668719664216,-0.008015049621462822,0.0025513083674013615
1761384875195744800,2.572744873046875,-0.0017915084026753902,-0.010179666802287102,0.007959655486047268
1761384875205813800,2.582813720703125,-0.0009723200928419828,-0.008773517794907093,0.0027305390685796738
1761384875215882800,2.5928828125,-0.0017267935909330845,-0.008173507638275623,0.005365470424294472
1761384875225952000,2.602951904296875,-0.001787779969163239,-0.009974337182939053,0.00290417717769742
1761384875236020000,2.61302001953125,0.0005254416610114276,-0.0059907808899879456,0.003590740030631423
1761384875246088700,2.623088623046875,-0.001181378262117505,-0.007062703371047974,0.0033630398102104664
1761384875256158000,2.633157958984375,-0.002526541007682681,-0.009670470841228962,0.005365736782550812
1761384875266226700,2.643226806640625,-0.0025992451701313257,-0.005850166082382202,0.006135656964033842
1761384875276296000,2.6532958984375,-0.0028461201582103968,-0.009547964669764042,0.005391569808125496
1761384875286364700,2.66336474609375,0.0004194478678982705,-0.008549279533326626,0.004671184346079826
1761384875296434000,2.673433837890625,-0.00036432043998502195,-0.00935941282659769,0.0043686493299901485
1761384875306503000,2.6835029296875,-0.00321843009442091,-0.00746004655957222,0.00310497940517962
1761384875316572000,2.693572021484375,-0.0006945523782633245,-0.009374327026307583,0.004506334662437439
1761384875326641000,2.703640869140625,-0.0033949976786971092,-0.008294947445392609,0.005406217183917761
1761384875336709600,2.713709716796875,-0.0017012272728607059,-0.00871972180902958,0.009176986292004585
1761384875346779000,2.72377880859375,-0.0012958941515535116,-0.007790811359882355,0.003388606244698167
1761384875356847900,2.733847900390625,-0.00253399764187634,-0.007869907654821873,0.006494118366390467
1761384875366916900,2.743916748046875,-0.002019741339609027,-0.007604389917105436,0.006696252152323723
1761384875376985900,2.75398583984375,-0.0046152579598128796,-0.01013998594135046,0.005132177844643593
1761384875387054800,2.764054931640625,-0.0036514601670205593,-0.007483748719096184,0.005314870737493038
1761384875397123800,2.774123779296875,-0.002624545246362686,-0.009702428244054317,0.0062309978529810905
1761384875407192800,2.78419287109375,-0.002414954360574484,-0.007189203519374132,0.003266367129981518
1761384875417261800,2.79426171875,-0.003242931328713894,-0.01074186060577631,0.005495166406035423
1761384875427330800,2.804330810546875,-0.0010420948965474963,-0.006957508157938719,0.004954544827342033
1761384875437399800,2.81439990234375,-0.0021470405627042055,-0.008384962566196918,0.005399292800575495
1761384875447468800,2.82446875,-0.001942509668879211,-0.008183094672858715,0.004210990387946367
1761384875457537800,2.834537841796875,-0.0013795174891129136,-0.006593187805265188,0.006749249063432217
1761384875467606800,2.844606689453125,0.00003781688792514615,-0.013194365426898003,0.002570483135059476
1761384875477676000,2.854676025390625,-0.0005262406193651259,-0.008190818130970001,0.004787831101566553
1761384875487744800,2.864744873046875,-0.005832322873175144,-0.008435030467808247,0.004063983913511038
1761384875497814000,2.87481396484375,-0.0054909056052565575,-0.010821755044162273,0.0006620618514716625
1761384875507882800,2.8848828125,-0.0010628675809130073,-0.009579923003911972,0.006699714343994856
1761384875517951700,2.89495166015625,-0.00008735168376006186,-0.008215852081775665,0.00455666845664382
1761384875528020700,2.905020751953125,-0.0008945558220148087,-0.006237389519810677,0.006328735966235399
1761384875538089700,2.91508984375,-0.0035260252188891172,-0.010370083153247833,0.004800880327820778
1761384875548159000,2.925158935546875,-0.0035920715890824795,-0.008986304514110088,0.004335093777626753
1761384875558227700,2.935227783203125,-0.001534779672510922,-0.008668855763971806,0.0043321643024683
1761384875568297000,2.945296875,-0.0014671353856101632,-0.00945182517170906,0.00552259711548686
1761384875578365700,2.95536572265625,-0.0032871398143470287,-0.007766576483845711,0.007803328335285187
1761384875588435000,2.96543505859375,0.00045673211570829153,-0.009794574230909348,0.0036429380998015404
1761384875598504000,2.97550390625,-0.0029577065724879503,-0.010032393969595432,0.003317766124382615
1761384875608572200,2.985572265625,-0.00015659387281630188,-0.009999637492001057,0.0032812808640301228
1761384875618641400,2.995641357421875,-0.000883636821527034,-0.010247843340039253,0.00458569684997201
1761384875628710100,3.005710205078125,0.0014354437589645386,-0.007809453643858433,0.002852511825039983
1761384875638779400,3.015779296875,-0.001564873498864472,-0.0076869479380548,0.0054696002043783665
1761384875648848400,3.025848388671875,-0.0010881676571443677,-0.010025469586253166,0.005249090492725372
1761384875658917000,3.035917236328125,-0.001835716888308525,-0.007412909064441919,0.005920739844441414
1761384875668986400,3.045986328125,-0.0011222560424357653,-0.008442220278084278,0.003884486621245742
1761384875679055000,3.05605517578125,-0.0003057308786083013,-0.007383613847196102,0.005224855616688728
1761384875689124400,3.066124267578125,-0.0022738068364560604,-0.009195894934237003,0.004459995776414871
1761384875699193300,3.076193359375,-0.0008604673203080893,-0.008419849909842014,0.0046485476195812225
1761384875709262300,3.086262451171875,-0.0030634342692792416,-0.010742925107479095,0.0011936287628486753
1761384875719331300,3.096331298828125,-0.0001781654718797654,-0.00803156103938818,0.004530835896730423
1761384875729400300,3.106400390625,-0.001184307737275958,-0.007888282649219036,0.001972070662304759
1761384875739469300,3.11646923828125,-0.0008085357258096337,-0.008422779850661755,0.004303668159991503
1761384875749537300,3.126537353515625,-0.0014066817238926888,-0.009905095212161541,0.0065314024686813354
1761384875759606300,3.136606201171875,-0.003498594742268324,-0.005090099759399891,0.006050169467926025
1761384875769676300,3.14667626953125,-0.00026844663079828024,-0.010177004151046276,0.005006209947168827
1761384875779744500,3.15674462890625,-0.002186455298215151,-0.0059998356737196445,0.005461877211928368
1761384875789813200,3.166813232421875,-0.0010138654615730047,-0.008382831700146198,0.004233094397932291
1761384875799882200,3.17688232421875,-0.0018359832465648651,-0.009731456637382507,0.0026607641484588385
1761384875809951200,3.186951171875,0.00145222176797688,-0.007961786352097988,0.00458782771602273
1761384875820020200,3.197020263671875,-0.0006285060080699623,-0.009300025179982185,0.006419816054403782
1761384875830089200,3.207089111328125,-0.0010255833622068167,-0.006364422384649515,0.00618039770051837
1761384875840158200,3.217158203125,-0.0005976133397780359,-0.008912534452974796,0.0016844493802636862
1761384875850227500,3.2272275390625,-0.0007845672662369907,-0.008494152687489986,0.003991812001913786
1761384875860296200,3.237296142578125,0.00023515711654908955,-0.00785818975418806,0.002918025478720665
1761384875870365400,3.247365478515625,-0.0016769925132393837,-0.009950368665158749,0.005890113301575184
1761384875880434200,3.25743408203125,-0.00037950044497847557,-0.009646768681704998,0.005587311927229166
1761384875890503400,3.26750341796875,-0.001303351018577814,-0.009521067142486572,0.0019411781104281545
1761384875900572400,3.277572509765625,-0.0006988134700804949,-0.0070523167960345745,0.007165235001593828
1761384875910641200,3.28764111328125,-0.0005664543714374304,-0.007573497481644154,0.0030562435276806355
1761384875920710400,3.29771044921875,-0.0011518171522766352,-0.010128534398972988,0.004664793144911528
1761384875930779100,3.307779052734375,0.000010652644050423987,-0.006051767151802778,0.005154548212885857
1761384875940848400,3.317848388671875,-0.0010628675809130073,-0.007608118467032909,0.0065282066352665424
1761384875950917000,3.327917236328125,0.0014820491196587682,-0.0047849016264081,0.0041033984161913395
1761384875960986400,3.337986328125,-0.002404035534709692,-0.009313606657087803,0.004344947170466185
1761384875971055400,3.348055419921875,-0.000904409505892545,-0.008445150218904018,0.00552179804071784
1761384875981124400,3.358124267578125,-0.002695385366678238,-0.008716526441276073,0.0046269758604466915
1761384875991193300,3.368193359375,-0.002001898130401969,-0.008105597458779812,0.0038362834602594376
1761384876001262000,3.378261962890625,-0.0046389601193368435,-0.0073628416284918785,0.004168379586189985
1761384876011331300,3.388331298828125,-0.0019944412633776665,-0.008376440964639187,0.005759618245065212
1761384876021400300,3.398400390625,0.0004569984448608011,-0.0086028091609478,0.005385976750403643
1761384876031469300,3.40846923828125,0.0005488775204867125,-0.007299990858882666,0.005584116093814373
1761384876041538300,3.418538330078125,-0.0015483618481084704,-0.006991596892476082,0.0041585261933505535
1761384876051607300,3.428607177734375,-0.0036107138730585575,-0.008351673372089863,0.004005128052085638
1761384876061676300,3.43867626953125,-0.0011222560424357653,-0.010906710289418697,0.0032088428270071745
1761384876071745300,3.448745361328125,-0.0002972087822854519,-0.007154582068324089,0.006203567609190941
1761384876081814300,3.458814208984375,-0.0015049523208290339,-0.01082867942750454,0.006982808467000723
1761384876091883300,3.46888330078125,-0.0007888282998465002,-0.010086989030241966,0.003454652614891529
1761384876101952300,3.4789521484375,-0.0008588694618083537,-0.007799067068845034,0.005511678289622068
1761384876112021200,3.489021240234375,-0.0010375675046816468,-0.00993385724723339,0.005546299275010824
1761384876122090200,3.49909033203125,-0.002549444092437625,-0.008053665049374104,0.004723382648080587
1761384876132159200,3.5091591796875,-0.001130511867813766,-0.008085090667009354,0.004960670135915279
1761384876142228500,3.519228515625,-0.0005845638806931674,-0.007099188398569822,0.006191583350300789
1761384876152297200,3.529297119140625,-0.0018184063956141472,-0.009266202338039875,0.006220878101885319
1761384876162366500,3.539366455078125,-0.0018184063956141472,-0.009531985968351364,0.005057875532656908
1761384876172435200,3.549435302734375,-0.0004913532175123692,-0.00953891035169363,0.0007946872501634061
1761384876182504200,3.559504150390625,-0.0021766014397144318,-0.009852897375822067,0.005839779507368803
1761384876192573200,3.5695732421875,-0.0010831075487658381,-0.007096525281667709,0.005149488337337971
1761384876202642200,3.57964208984375,0.00012623383372556418,-0.008391620591282845,0.004052798729389906
1761384876212711400,3.58971142578125,-0.0018405106384307146,-0.008154598996043205,0.004538292996585369
1761384876222780200,3.5997802734375,-0.0013158678775653243,-0.008509065955877304,0.004097007215023041
1761384876232849400,3.609849365234375,-0.0024980450980365276,-0.010390056297183037,0.0015334481140598655
1761384876242918100,3.619918212890625,-0.0013305152533575892,-0.006042179651558399,0.006045375484973192
1761384876252987400,3.6299873046875,-0.0015369103057309985,-0.006512494292110205,0.003835750976577401
1761384876263056400,3.640056396484375,-0.0016460998449474573,-0.0108270812779665,0.0011430287268012762
1761384876273124000,3.6501240234375,-0.0034708979073911905,-0.005892243701964617,0.0026351979468017817
1761384876283193300,3.660193359375,0.00043356261448934674,-0.008617988787591457,0.005246161017566919
1761384876293262300,3.670262451171875,-0.0033654365688562393,-0.008802812546491623,0.004240817856043577
1761384876303331300,3.680331298828125,-0.003299656556919217,-0.008589493110775948,0.005899168085306883
1761384876313400300,3.690400390625,-0.0015542207984253764,-0.007938350550830364,0.003739344421774149
1761384876323469300,3.70046923828125,-0.0016370450612157583,-0.0068083712831139565,0.00572952488437295
1761384876333538300,3.710538330078125,-0.0010396981379017234,-0.008683236315846443,0.006330866366624832
1761384876343607300,3.720607177734375,-0.0004468784318305552,-0.00723367789760232,0.005820604972541332
1761384876353676300,3.73067626953125,-0.002326537622138858,-0.009303486905992031,0.0015009575290605426
1761384876363745300,3.740745361328125,-0.0021574266720563173,-0.008590292185544968,0.005554821342229843
1761384876373814300,3.750814208984375,-0.0030482541769742966,-0.00944862887263298,0.0054821171797811985
1761384876383883300,3.76088330078125,-0.0023840616922825575,-0.00857191625982523,0.005974003113806248
1761384876393952300,3.7709521484375,-0.002180596347898245,-0.005560680292546749,0.004461860284209251
1761384876404021200,3.781021240234375,-0.002046372974291444,-0.00939137116074562,0.0031875374261289835
1761384876414090500,3.791090576171875,-0.001329982653260231,-0.007208111695945263,0.0024530377704650164
1761384876424159200,3.8011591796875,-0.002686596941202879,-0.008041148073971272,0.004316451493650675
1761384876434228200,3.811228271484375,-0.0021579593885689974,-0.009515474550426006,0.0021430456545203924
1761384876444297200,3.821297119140625,-0.0007584682898595929,-0.008758604526519775,0.004108725115656853
1761384876454366200,3.8313662109375,-0.0009366337326355278,-0.00785499345511198,0.0034314829390496016
1761384876464435500,3.841435546875,-0.0010375675046816468,-0.005619003437459469,0.006154032424092293
1761384876474504200,3.851504150390625,-0.0014234596164897084,-0.008553273975849152,0.004179032519459724
1761384876484573400,3.861573486328125,-0.0018530274974182248,-0.006470416206866503,0.005696767941117287
1761384876494642200,3.87164208984375,-0.0007981493836268783,-0.006718888878822327,0.0030860709957778454
1761384876504711400,3.88171142578125,-0.0005078648100607097,-0.010189520195126534,0.005336175672709942
1761384876514780200,3.8917802734375,-0.0010599381057545543,-0.007923436351120472,0.004031226970255375
1761384876524849200,3.90184912109375,-0.0022599585354328156,-0.007379619404673576,0.004445082042366266
1761384876534918400,3.91191845703125,-0.002269545802846551,-0.008047539740800858,0.003356115659698844
1761384876544987100,3.921987060546875,-0.0011270497925579548,-0.007392402272671461,0.00437956815585494
1761384876555056400,3.932056396484375,-0.002326004905626178,-0.00920441746711731,0.0062554990872740746
1761384876565125000,3.942125,-0.0006705839768983424,-0.006432599388062954,0.004896754398941994
1761384876575194400,3.9521943359375,-0.0007137271459214389,-0.00842704065144062,0.005841377656906843
1761384876585263400,3.962263427734375,-0.004337224178016186,-0.007166033610701561,0.00398568669334054
1761384876595332400,3.972332275390625,-0.0018658105982467532,-0.007179083302617073,0.0034903388004750013
1761384876605400600,3.982400634765625,-0.000669518718495965,-0.009121326729655266,0.004083158448338509
1761384876615469600,3.992469482421875,-0.002423742786049843,-0.008291752077639103,0.0031441280152648687
1761384876625538600,4.00253857421875,-0.004263987299054861,-0.00811917893588543,0.005906092468649149
1761384876635607800,4.01260791015625,-0.0020066918805241585,-0.007032343186438084,0.003041063668206334
1761384876645676500,4.022676513671875,-0.004460262134671211,-0.009426258504390717,0.0057479003444314
1761384876655745800,4.032745849609375,-0.007571367081254721,-0.008522382006049156,0.006335660349577665
1761384876665814500,4.042814453125,-0.003204049076884985,-0.007564176339656115,0.005707953125238419
1761384876675883800,4.0528837890625,-0.0046730488538742065,-0.00797563511878252,0.006848052144050598
1761384876685952800,4.062952880859375,-0.002834135899320245,-0.008301339112222195,0.004040015395730734
1761384876696021500,4.073021484375,-0.002826412906870246,-0.007345797028392553,0.003136138431727886
1761384876706090800,4.0830908203125,0.000026365294615970924,-0.009551960043609142,0.004778243601322174
1761384876716159500,4.093159423828125,-0.002252501668408513,-0.00854288786649704,0.003296460723504424
1761384876726228700,4.103228759765625,-0.0016349145444110036,-0.010172476060688496,0.002784601179882884
1761384876736297700,4.113297607421875,-0.004011253360658884,-0.007441937457770109,0.002980876248329878
1761384876746365400,4.123365478515625,-0.0012546151410788298,-0.011564777232706547,0.0031012510880827904
1761384876756434700,4.1334345703125,-0.003777960315346718,-0.010817227885127068,0.006364688742905855
1761384876766503700,4.143503662109375,-0.0010913633741438389,-0.009970609098672867,0.0059966398403048515
1761384876776572700,4.15357275390625,-0.0011853729374706745,-0.00908484123647213,0.003561445279046893
1761384876786641700,4.1636416015625,-0.0013249226612970233,-0.010045976378023624,0.005588377360254526
1761384876796710700,4.173710693359375,-0.0014024205738678575,-0.006295712664723396,0.004352404270321131
1761384876806779600,4.183779541015625,-0.0017427726415917277,-0.0070192934945225716,0.005531651899218559
1761384876816848600,4.1938486328125,-0.002120941411703825,-0.008718123659491539,0.0016594156622886658
1761384876826917600,4.203917724609375,-0.0018224010709673166,-0.009246229194104671,0.005694104824215174
1761384876836987000,4.21398681640625,-0.002923884429037571,-0.010237457230687141,0.004492486361414194
1761384876847055600,4.2240556640625,-0.0018399780383333564,-0.00749173853546381,0.00529622845351696
1761384876857124600,4.23412451171875,-0.00020746025256812572,-0.008182828314602375,0.004070907831192017
1761384876867193600,4.244193603515625,-0.0013800500892102718,-0.0073165022768080235,0.0054307179525494576
1761384876877262600,4.2542626953125,-0.0022325278259813786,-0.00950721837580204,0.00509835546836257
1761384876887331800,4.264331787109375,-0.0020839234348386526,-0.008538627065718174,0.005705023650079966
1761384876897400600,4.274400634765625,-0.003549993736669421,-0.009371929802000523,0.005766542628407478
1761384876907469800,4.2844697265625,-0.0006085322820581496,-0.00806085579097271,0.004620051942765713
1761384876917538600,4.29453857421875,0.0003890878288075328,-0.007426224648952484,0.004653075244277716
1761384876927607800,4.30460791015625,-0.002686596941202879,-0.009850233793258667,0.00566853815689683
1761384876937676500,4.314676513671875,-0.002891926560550928,-0.007085073739290237,0.002826679265126586
1761384876947745500,4.32474560546875,-0.00035446672700345516,-0.012057728134095669,0.005519401282072067
1761384876957814800,4.334814697265625,-0.0020988371688872576,-0.007045392412692308,0.006220611743628979
1761384876967883500,4.344883544921875,0.00013608753215521574,-0.009407616220414639,0.006392385344952345
1761384876977952800,4.354952880859375,-0.0013646037550643086,-0.009198558516800404,0.0046610645949840546
1761384876988021500,4.365021484375,0.0008492820779792964,-0.0070549799129366875,0.007784686051309109
1761384876998090800,4.3750908203125,-0.0007025419035926461,-0.009605756029486656,0.0037499971222132444
1761384877008159700,4.38515966796875,-0.0009984191274270415,-0.008187356404960155,0.004365986213088036
1761384877018228700,4.395228759765625,-0.0023393207229673862,-0.00917538907378912,0.004596083424985409
1761384877028297700,4.405297607421875,0.00019441076437942684,-0.00803475733846426,0.004739094991236925
1761384877038366500,4.415366455078125,-0.0009635316673666239,-0.008519452065229416,0.008423312567174435
1761384877048435700,4.425435791015625,-0.0037406759802252054,-0.009095493704080582,0.0051683965139091015
1761384877058504700,4.435504638671875,-0.0007808388327248394,-0.008314921520650387,0.003171025775372982
1761384877068573700,4.44557373046875,-0.0021734058391302824,-0.00872265174984932,0.005147091578692198
1761384877078642700,4.455642578125,-0.0005558017292059958,-0.00806085579097271,0.003340669209137559
1761384877088711700,4.465711669921875,-0.0020580908749252558,-0.009244098328053951,0.004828577395528555
1761384877098780700,4.47578076171875,-0.0018793927738443017,-0.008008391596376896,0.00564164062961936
1761384877108849700,4.485849609375,-0.0010905644157901406,-0.007866444997489452,0.0033507891930639744
1761384877118918700,4.495918701171875,-0.0016053534345701337,-0.009888051077723503,0.003506850451231003
1761384877128987600,4.505987548828125,-0.0025829998776316643,-0.007369499187916517,0.0038722362369298935
1761384877139056600,4.516056640625,0.0009954896522685885,-0.007337274961173534,0.0035627768374979496
1761384877149125600,4.526125732421875,-0.0006578007596544921,-0.007157511543482542,0.0016357135027647018
1761384877159194600,4.536194580078125,-0.0032980586402118206,-0.006765494588762522,0.005391835700720549
1761384877169263600,4.546263671875,-0.0012447615154087543,-0.010239854454994202,0.0029965888243168592
1761384877179332600,4.55633251953125,-0.001985120354220271,-0.007506918627768755,0.005900233518332243
1761384877189401600,4.566401611328125,-0.0018849853659048676,-0.010057161562144756,0.004881574306637049
1761384877199469600,4.576469482421875,-0.0016468988033011556,-0.008638761937618256,0.002906307578086853
1761384877209538800,4.586538818359375,0.0013515542959794402,-0.008125836960971355,0.0032200280111283064
1761384877219607600,4.596607666015625,-0.0016945693641901016,-0.00938870757818222,0.0054850466549396515
1761384877229676800,4.6066767578125,-0.0025044367648661137,-0.007919175550341606,0.0043835630640387535
1761384877239745500,4.61674560546875,-0.002013349672779441,-0.006944725289940834,0.003963849041610956
1761384877249814800,4.626814697265625,0.0008934905636124313,-0.008305334486067295,0.005293298978358507
1761384877259883500,4.636883544921875,0.0002695118892006576,-0.009223059751093388,0.004349208436906338
1761384877269952800,4.646952880859375,-0.00019574233738239855,-0.008657404221594334,0.0031643679831176996
1761384877280021800,4.657021728515625,-0.0021196098532527685,-0.0073021212592720985,0.004817658569663763
1761384877290090500,4.667090576171875,-0.0020780644845217466,-0.008231830783188343,0.006536195985972881
1761384877300159700,4.67715966796875,-0.0025369273498654366,-0.00857191625982523,0.008096808567643166
1761384877310228500,4.687228515625,-0.0044293696992099285,-0.0082483422011137,0.005140699911862612
1761384877320297700,4.697297607421875,-0.001976331928744912,-0.007222226355224848,0.005931658670306206
1761384877330366700,4.70736669921875,-0.001169394003227353,-0.0095096156001091,0.0037148434203118086
1761384877340435700,4.717435791015625,-0.0007896272582001984,-0.008221178315579891,0.004914597608149052
1761384877350504700,4.727504638671875,-0.003129480639472604,-0.009523730725049973,0.004048271104693413
1761384877360573700,4.73757373046875,-0.0016397082945331931,-0.008569519966840744,0.004458398092538118
1761384877370642700,4.747642578125,-0.001514539704658091,-0.008354336023330688,0.004077832214534283
1761384877380711700,4.757711669921875,-0.0016682040877640247,-0.01010989211499691,0.004496214911341667
1761384877390780700,4.76778076171875,0.0007534082396887243,-0.008587096817791462,0.0033507891930639744
1761384877400849700,4.777849609375,-0.0010018812026828527,-0.008056594990193844,0.002897785510867834
1761384877410918700,4.787918701171875,-0.0032317459117621183,-0.007416104432195425,0.00436145905405283
1761384877420987600,4.797987548828125,-0.0010940266074612737,-0.008414257317781448,0.004274639766663313
1761384877431056600,4.808056640625,-0.0016759273130446672,-0.006885336712002754,0.003427754621952772
1761384877441125600,4.818125732421875,-0.0006514092092402279,-0.009010539390146732,0.0032812808640301228
1761384877451195000,4.82819482421875,-0.0018967032665386796,-0.007874701172113419,0.0020013656467199326
1761384877461263600,4.838263671875,-0.000604004948399961,-0.009095227345824242,0.0044227116741240025
1761384877471332600,4.84833251953125,-0.003560912562534213,-0.008243548683822155,0.0038131140172481537
1761384877481401600,4.858401611328125,-0.002487126039341092,-0.00746244378387928,0.005078914575278759
1761384877491470600,4.868470703125,-0.0006639260682277381,-0.007499727886170149,0.00535455159842968
1761384877501539600,4.87853955078125,-0.0016863135388121009,-0.010700581595301628,0.0023097596131265163
1761384877511608600,4.888608642578125,-0.001413339632563293,-0.007851531729102135,0.0016724651213735342
1761384877521677800,4.898677734375,-0.0012447615154087543,-0.007172158919274807,0.0065713501535356045
1761384877531746600,4.90874658203125,-0.0015941682504490018,-0.00833755824714899,0.0019382486352697015
1761384877541815800,4.91881591796875,-0.0026117621455341578,-0.009484048932790756,0.005911418702453375
1761384877551884500,4.928884521484375,-0.001535312389023602,-0.006494384724646807,0.00848749466240406
1761384877561953800,4.938953857421875,-0.0015046859625726938,-0.009558618068695068,0.002826412906870246
1761384877572020700,4.949020751953125,-0.0003091930120717734,-0.007967911660671234,0.0049039446748793125
1761384877582089700,4.95908984375,-0.0006045375484973192,-0.008541289716959,0.0038005972746759653
1761384877592158500,4.969158447265625,-0.0005752427969127893,-0.00920388475060463,0.004493019077926874
1761384877602227700,4.979227783203125,-0.0019076223252341151,-0.009131979197263718,0.004220311529934406
1761384877612301000,4.989301025390625,-0.003424558788537979,-0.009059540927410126,0.004193679895251989
1761384877622370000,4.9993701171875,0.00005885586142539978,-0.006354834884405136,0.0033105756156146526
1761384877632439000,5.00943896484375,-0.0030722226947546005,-0.011657987721264362,0.004114051349461079
1761384877642508000,5.019508056640625,-0.0018546254141256213,-0.009749033488333225,0.0035867453552782536
1761384877652577000,5.029576904296875,-0.003436010330915451,-0.007752461824566126,0.005541771650314331
1761384877662646000,5.03964599609375,-0.0016042882343754172,-0.008914665319025517,0.003052515210583806
1761384877672715000,5.049715087890625,-0.0017222663154825568,-0.009009207598865032,0.0022274679504334927
1761384877682784000,5.059783935546875,-0.0007368966471403837,-0.008547947742044926,0.0017113472567871213
1761384877692853000,5.06985302734375,-0.0019718045368790627,-0.007113569416105747,0.005461877211928368
1761384877702922000,5.079921875,-0.0012548814993351698,-0.007389206904917955,0.004652808886021376
1761384877712991000,5.089990966796875,-0.003310841741040349,-0.008526642806828022,0.0023755396250635386
1761384877723060200,5.100060302734375,-0.0012061456218361855,-0.007879761047661304,0.003239735495299101
1761384877733129000,5.11012890625,-0.0015390408225357533,-0.01130724884569645,0.005264536943286657
1761384877743198200,5.1201982421875,-0.0027917916886508465,-0.006662430241703987,0.005849899724125862
1761384877753267000,5.130266845703125,-0.000752875639591366,-0.0099008334800601,0.003165965899825096
1761384877763336000,5.1403359375,-0.0017829863354563713,-0.007502391003072262,0.005589708685874939
1761384877773405200,5.1504052734375,-0.0007784419576637447,-0.00830906257033348,0.00398781755939126
1761384877783474000,5.160473876953125,-0.001627457677386701,-0.008468053303658962,0.0038003309164196253
1761384877793543200,5.170543212890625,-0.0006194512825459242,-0.009758887812495232,0.002834402257576585
1761384877803612000,5.18061181640625,-0.0019459717441350222,-0.01085930597037077,0.0028565065003931522
1761384877813681200,5.19068115234375,-0.0018194715958088636,-0.00933118350803852,0.0029590383637696505
1761384877823750100,5.200750244140625,-0.0015166702214628458,-0.007188404444605112,0.005282912403345108
1761384877833819100,5.210819091796875,-0.002272475278005004,-0.009865413419902325,0.004607268609106541
1761384877843888000,5.22088818359375,-0.0032176312524825335,-0.006499710958451033,0.0034498588647693396
1761384877853956900,5.230956787109375,-0.002086054068058729,-0.009038502350449562,0.0030240193009376526
1761384877864026000,5.241026123046875,-0.0019893813878297806,-0.009927731938660145,0.007005977910012007
1761384877874094800,5.2510947265625,-0.0026972496416419744,-0.0067934575490653515,0.004522047471255064
1761384877884164000,5.2611640625,-0.004322310443967581,-0.008265652693808079,0.0037851508241146803
1761384877894233000,5.271233154296875,-0.0003787015157286078,-0.00836951658129692,0.008161257021129131
1761384877904301000,5.281301025390625,-0.002624278888106346,-0.011745072901248932,0.002832538215443492
1761384877914370000,5.2913701171875,-0.00344586418941617,-0.008519984781742096,0.0013638047967106104
1761384877924439000,5.30143896484375,-0.0035625104792416096,-0.006875216495245695,0.006808104924857616
1761384877934508000,5.311508056640625,-0.0011060107499361038,-0.009623865596950054,0.00529702752828598
1761384877944577000,5.321576904296875,-0.003469033632427454,-0.009037170559167862,0.005899700801819563
1761384877954646000,5.33164599609375,-0.0018239989876747131,-0.008262190967798233,0.0019912454299628735
1761384877964715000,5.341715087890625,-0.00032730249222368,-0.009165801107883453,0.004540157038718462
1761384877974784300,5.3517841796875,-0.0016263924771919847,-0.005048021674156189,0.003879160387441516
1761384877984853000,5.36185302734375,-0.0002442118711769581,-0.009188704192638397,0.004215517546981573
1761384877994922000,5.371921875,-0.002079662401229143,-0.0062301987782120705,0.006446181330829859
1761384878004991000,5.381990966796875,-0.0008008125587366521,-0.00836765207350254,0.0054757255129516125
1761384878015060000,5.39206005859375,-0.0009406284661963582,-0.008748217485845089,0.0028722193092107773
1761384878025129000,5.40212890625,-0.00019734023953787982,-0.010210826061666012,0.0043955473229289055
1761384878035198000,5.412197998046875,-0.0023158849216997623,-0.009022523649036884,0.005001150071620941
1761384878045267200,5.42226708984375,-0.0011576761025935411,-0.009273659437894821,0.004634699318557978
1761384878055336000,5.4323359375,-0.002150236163288355,-0.009079515002667904,0.005026716738939285
1761384878065405200,5.4424052734375,0.0008799084462225437,-0.0062219430692493916,0.00478516798466444
1761384878075474000,5.452473876953125,-0.000669518718495965,-0.00851705577224493,0.006322877015918493
1761384878085543200,5.462543212890625,-0.0014588796766474843,-0.008311726152896881,0.00697881355881691
1761384878095612200,5.472612060546875,0.0002937466779258102,-0.00894103106111288,0.004068244714289904
1761384878105681000,5.482680908203125,-0.0027715517207980156,-0.008445416577160358,0.0036602485924959183
1761384878115750100,5.492750244140625,-0.0013369068037718534,-0.006738596595823765,0.005868807900696993
1761384878125819000,5.50281884765625,-0.00412417110055685,-0.008681905455887318,0.005799565929919481
1761384878135888100,5.51288818359375,0.0006985471700318158,-0.009210276417434216,0.0064863949082791805
1761384878145957000,5.52295703125,-0.000150202278746292,-0.008988169021904469,0.005090632475912571
1761384878156026000,5.533026123046875,-0.002175003755837679,-0.011093663983047009,0.005152950529009104
1761384878166095000,5.54309521484375,-0.0008522115531377494,-0.006393184419721365,0.0048922267742455006
1761384878176164000,5.5531640625,-0.0010985539993271232,-0.011303520761430264,0.004602208733558655
1761384878186233000,5.563233154296875,-0.0025563682429492474,-0.006264820229262114,0.004309527110308409
1761384878196301800,5.5733017578125,0.00012303804396651685,-0.007217432837933302,0.003600327530875802
1761384878206372000,5.5833720703125,-0.001306014135479927,-0.009632387198507786,0.004809136036783457
1761384878216441000,5.593441162109375,-0.0020181434229016304,-0.007469634059816599,0.003850131994113326
1761384878226510000,5.603510009765625,-0.0031012510880827904,-0.009636647999286652,0.0027233485598117113
1761384878236578800,5.613578857421875,-0.0012490225490182638,-0.008800681680440903,0.005011270288378
1761384878246648000,5.62364794921875,-0.0019800602458417416,-0.010690460912883282,0.0052115400321781635
1761384878256717000,5.633717041015625,-0.0014176006661728024,-0.008300806395709515,0.0025659557431936264
1761384878266786000,5.6437861328125,-0.0024719461798667908,-0.007967911660671234,0.0034357442054897547
1761384878276855000,5.65385498046875,-0.0022058964241296053,-0.008705873973667622,0.003967044875025749
1761384878286924000,5.663924072265625,0.0006823018775321543,-0.007449394091963768,0.005763879511505365
1761384878296993000,5.673992919921875,-0.0002561961009632796,-0.009660350158810616,0.00443869037553668
1761384878307062300,5.684062255859375,-0.003108974313363433,-0.008287491276860237,0.0023851271253079176
1761384878317131000,5.694131103515625,-0.0036946034524589777,-0.007682687137275934,0.007731422781944275
1761384878327200000,5.704199951171875,-0.0008735168376006186,-0.009697901085019112,0.0041529336012899876
1761384878337269000,5.71426904296875,-0.0012450277572497725,-0.006533532869070768,0.0017699368763715029
1761384878347338000,5.724337890625,-0.001996571896597743,-0.008385761640965939,0.003947337158024311
1761384878357407000,5.734406982421875,-0.001406947965733707,-0.00956607423722744,0.0027121631428599358
1761384878367476000,5.74447607421875,-0.0013968279818072915,-0.008802546188235283,0.002552906284108758
1761384878377545200,5.754545166015625,-0.0024506407789885998,-0.008856608532369137,0.00401524780318141
1761384878387613200,5.76461328125,-0.002432531211525202,-0.007443002425134182,0.002478870330378413
1761384878397682000,5.774681884765625,0.0002061286650132388,-0.008163920603692532,0.006343383342027664
1761384878407751200,5.784751220703125,-0.002636795863509178,-0.0067575047723948956,0.002838397165760398
1761384878417820000,5.79481982421875,-0.00287461606785655,-0.007693073246628046,0.0046698530204594135
1761384878427889200,5.80488916015625,-0.002525475574657321,-0.007691741921007633,0.004635232035070658
1761384878437958000,5.8149580078125,-0.0012828446924686432,-0.0089391665533185,0.00279046013019979
1761384878448027100,5.825027099609375,-0.0008756473544053733,-0.010553575120866299,0.002241050126031041
1761384878458096000,5.83509619140625,-0.0014154701493680477,-0.007744206115603447,0.006256298162043095
1761384878468165000,5.8451650390625,-0.0016703346045687795,-0.008139419369399548,0.0038780951872467995
1761384878478234000,5.855234130859375,-0.001606685109436512,-0.010970093309879303,0.0035888757556676865
1761384878488302800,5.865302734375,0.00017710021347738802,-0.008015049621462822,0.005645368713885546
1761384878498372000,5.8753720703125,0.001434112200513482,-0.010937335900962353,0.00436145905405283
1761384878508441000,5.885441162109375,-0.0012506204657256603,-0.008287491276860237,0.004929511342197657
1761384878518510000,5.895510009765625,-0.003638144349679351,-0.009950635023415089,0.006172141991555691
1761384878528579000,5.9055791015625,-0.0006719155353493989,-0.007785751484334469,0.006345780100673437
1761384878538648000,5.91564794921875,-0.0017542241839691997,-0.007539675105363131,0.004322576802223921
1761384878548717000,5.925717041015625,-0.0011014834744855762,-0.010208695195615292,0.0033310819417238235
1761384878558786000,5.9357861328125,-0.000517718493938446,-0.008465123362839222,0.0038253646343946457
1761384878568855000,5.94585498046875,-0.0019006980583071709,-0.009196960367262363,0.005381183233112097
1761384878578924000,5.955924072265625,-0.0009171926649287343,-0.00780679052695632,0.002332396572455764
1761384878588993000,5.965992919921875,-0.0021017666440457106,-0.006484264507889748,0.005904760677367449
1761384878599062000,5.97606201171875,-0.000806138850748539,-0.00990189891308546,0.003882356220856309
1761384878609127000,5.986126953125,-0.0006660565850324929,-0.007773767225444317,0.0054458980448544025
1761384878619195600,5.996195556640625,-0.0012833772925660014,-0.009699499234557152,0.0020996362436562777
1761384878629265000,6.006264892578125,-0.0017142767319455743,-0.00714579364284873,0.006714628078043461
1761384878639333600,6.016333740234375,-0.0014181332662701607,-0.005152417812496424,0.009011072106659412
1761384878649403000,6.02640283203125,-0.002511893631890416,-0.008991098031401634,0.006365487817674875
1761384878659472000,6.036471923828125,-0.0024767396971583366,-0.007379086688160896,0.005428853910416365
1761384878669540900,6.046540771484375,-0.0013230583863332868,-0.009585515595972538,0.0035510589368641376
1761384878679609900,6.05660986328125,-0.0029057750944048166,-0.0049675945192575455,0.006800914648920298
1761384878689678800,6.066678955078125,-0.002216282533481717,-0.010063819587230682,0.006813963875174522
1761384878699747800,6.076747802734375,-0.0012985573848709464,-0.0073015885427594185,0.003823500359430909
1761384878709816600,6.086816650390625,-0.0022011026740074158,-0.007409446872770786,0.006986536551266909
1761384878719885800,6.0968857421875,-0.0028807413764297962,-0.010478206910192966,0.005534581374377012
1761384878729954800,6.106954833984375,-0.0023880566004663706,-0.007274424657225609,0.006864564027637243
1761384878740023800,6.11702392578125,-0.0010921623324975371,-0.00923264678567648,0.0036842171102762222
1761384878750091800,6.127091796875,-0.0022927154786884785,-0.008594552986323833,0.004069842863827944
1761384878760160800,6.137160888671875,-0.001790975802578032,-0.0054786549881100655,0.006812898442149162
1761384878770229800,6.147229736328125,-0.0006570018595084548,-0.011895275674760342,0.00458569684997201
1761384878780298800,6.157298828125,-0.0031814121175557375,-0.009614810347557068,0.0032346753869205713
1761384878790367700,6.16736767578125,-0.0009661948424763978,-0.007150054909288883,0.0034029872622340918
1761384878800436700,6.177436767578125,-0.0007672567153349519,-0.007167365401983261,0.007797735743224621
1761384878810506000,6.187506103515625,-0.0025798040442168713,-0.009468336589634418,0.004036553204059601
1761384878820574700,6.19757470703125,-0.0007094661123119295,-0.008265652693808079,0.00452843913808465
1761384878830644000,6.20764404296875,-0.00033156355493701994,-0.00629038643091917,0.004334294702857733
1761384878840712700,6.217712646484375,-0.0014889733865857124,-0.009749566204845905,0.004189951345324516
1761384878850781700,6.22778173828125,-0.0027590349782258272,-0.007228351663798094,0.004467452876269817
1761384878860850700,6.2378505859375,-0.0009709885343909264,-0.009856092743575573,0.0035486621782183647
1761384878870919700,6.247919677734375,-0.000020772657080669887,-0.007044327445328236,0.005847502965480089
1761384878880989000,6.257989013671875,-0.0013222594279795885,-0.008237157016992569,0.00589757040143013
1761384878891057700,6.2680576171875,-0.0011771172285079956,-0.009587380103766918,0.0049215215258300304
1761384878901127000,6.278126953125,-0.002269279444590211,-0.006724481470882893,0.0026224146131426096
1761384878911195600,6.288195556640625,-0.0035686357878148556,-0.00896952673792839,0.004658934194594622
1761384878921265000,6.298264892578125,-0.002039981307461858,-0.008212922140955925,0.0031995216850191355
1761384878931334000,6.308333984375,-0.001784850494004786,-0.006964432541280985,0.0044112601317465305
1761384878941402600,6.318402587890625,-0.002127599436789751,-0.007167631760239601,0.0046354979276657104
1761384878951471900,6.328471923828125,-0.0024762072134763002,-0.007892278023064137,0.004575044382363558
1761384878961540600,6.33854052734375,-0.00355798308737576,-0.009670470841228962,0.005853361915796995
1761384878971609900,6.34860986328125,-0.0023909860756248236,-0.008868060074746609,0.005499427672475576
1761384878981678800,6.358678955078125,-0.0034237599465996027,-0.00830666534602642,0.0049497513100504875
1761384878991747800,6.368747802734375,-0.0018812569323927164,-0.008225439116358757,0.006371346767991781
1761384879001816800,6.37881689453125,-0.002487392397597432,-0.00811811350286007,0.0014969628537073731
1761384879011885800,6.3888857421875,-0.0029739518649876118,-0.009529056958854198,0.0025270734913647175
1761384879021954800,6.398954833984375,-0.001253017340786755,-0.004758802708238363,0.005350290797650814
1761384879032023800,6.40902392578125,-0.0007281082216650248,-0.009052084758877754,0.0031763522420078516
1761384879042092800,6.4190927734375,-0.003304982790723443,-0.007137271575629711,0.004319114610552788
1761384879052161800,6.429161865234375,-0.003412574529647827,-0.011150122620165348,0.004237888380885124
1761384879062230800,6.439230712890625,-0.0030956584960222244,-0.009484848007559776,0.006327670533210039
1761384879072299800,6.4492998046875,-0.002576075727120042,-0.006071208510547876,0.003953462466597557
1761384879082368000,6.459367919921875,-0.0009408948244526982,-0.008125836960971355,0.00899855513125658
1761384879092436700,6.469436767578125,-0.0033755565527826548,-0.0061521683819592,0.006573746912181377
1761384879102505700,6.479505615234375,-0.0033907366450875998,-0.0065226140432059765,0.004171309061348438
1761384879112574700,6.48957470703125,-0.0016982977977022529,-0.008621717803180218,0.005298092495650053
1761384879122643700,6.499643798828125,0.00040533312130719423,-0.005952164996415377,0.006602775305509567
1761384879132713000,6.509712890625,-0.003798999357968569,-0.00951201282441616,0.006440322380512953
1761384879142781700,6.51978173828125,-0.0005984122981317341,-0.010575679130852222,0.004249339923262596
1761384879152851000,6.529850830078125,-0.002659166231751442,-0.0092307822778821,0.0033212280832231045
1761384879162919700,6.539919677734375,-0.0019795275293290615,-0.009153018705546856,0.0038482677191495895
1761384879172989000,6.549989013671875,-0.001222657272592187,-0.007685083895921707,0.005735650192946196
1761384879183057700,6.5600576171875,-0.0023315974976867437,-0.008900018408894539,0.004735100548714399
1761384879193126700,6.570126708984375,-0.0022658174857497215,-0.007816644385457039,0.006505569908767939
1761384879203196000,6.58019580078125,-0.0020152139477431774,-0.010124007239937782,0.005754292011260986
1761384879213264600,6.5902646484375,-0.002447977662086487,-0.010914699174463749,0.0037971350830048323
1761384879223334000,6.600333984375,-0.0008881642133928835,-0.005907956510782242,0.0041529336012899876
1761384879233402600,6.610402587890625,-0.0016056197928264737,-0.010371148586273193,0.0034402713645249605
1761384879243472000,6.620471923828125,0.001416002749465406,-0.007132744416594505,0.005273059010505676
1761384879253540900,6.630540771484375,-0.002525209216400981,-0.008385495282709599,0.0079159801825881
1761384879263609900,6.64060986328125,-0.0015760586829856038,-0.008796154521405697,0.0044171190820634365
1761384879273678800,6.650678955078125,-0.002430933527648449,-0.006659500766545534,0.0062123560346663
1761384879283747600,6.66074755859375,-0.0023377228062599897,-0.00791278388351202,0.005562012083828449
1761384879293816800,6.67081689453125,-0.0013161342358216643,-0.008198807947337627,0.00242107966914773
1761384879303885800,6.6808857421875,-0.0025337315164506435,-0.008537295274436474,0.005533782299607992
1761384879313954800,6.690954833984375,-0.0006793724023737013,-0.007172957994043827,0.005483714863657951
1761384879324023800,6.70102392578125,-0.0005747101386077702,-0.00863316934555769,0.0035507925786077976
1761384879334092800,6.7110927734375,-0.004473311826586723,-0.009401224553585052,0.0070342072285711765
1761384879344161800,6.721161865234375,0.0012966931099072099,-0.008794290944933891,0.0028517129831016064
1761384879354230800,6.731230712890625,-0.0011142665753141046,-0.009180981665849686,0.004095142707228661
1761384879364299800,6.7412998046875,0.0005230448441579938,-0.008141282945871353,0.005619536153972149
1761384879374369000,6.751369140625,-0.0011486213188618422,-0.009919209405779839,0.002769687445834279
1761384879384437800,6.761437744140625,-0.001967010786756873,-0.010714962147176266,0.0024855281226336956
1761384879394506800,6.7715068359375,-0.0018612833227962255,-0.010104033164680004,0.006306099239736795
1761384879404575000,6.781574951171875,-0.0015483618481084704,-0.0062523032538592815,0.004751611966639757
1761384879414643700,6.791643798828125,-0.0002769687562249601,-0.006952181924134493,0.005604622419923544
1761384879424713000,6.801712890625,-0.0013675332302227616,-0.00920335203409195,0.005282380152493715
1761384879434781700,6.81178173828125,0.000147272803587839,-0.00800519622862339,0.0022122878581285477
1761384879444850700,6.8218505859375,-0.000937166390940547,-0.009692042134702206,0.005390504375100136
1761384879454920000,6.831919921875,-0.0014908375451341271,-0.008141815662384033,0.004746019374579191
1761384879464988700,6.84198876953125,0.00023276027059182525,-0.006101834587752819,0.00443895673379302
1761384879475058000,6.852057861328125,0.0008783105295151472,-0.008011853322386742,0.003831756068393588
1761384879485126700,6.862126708984375,-0.0023185480386018753,-0.0071095749735832214,0.005434979218989611
1761384879495196000,6.87219580078125,-0.001401355373673141,-0.008579906076192856,0.004766792058944702
1761384879505264600,6.8822646484375,-0.0006950850365683436,-0.009447298012673855,0.005793706979602575
1761384879515334000,6.892333984375,-0.0021369203459471464,-0.006850183010101318,0.0037760960403829813
1761384879525403000,6.90240283203125,-0.0005858954391442239,-0.00752023421227932,0.001740642124786973
1761384879535471600,6.9124716796875,-0.0011195929255336523,-0.008345548063516617,0.004005128052085638
1761384879545540900,6.922540771484375,-0.0011041465913876891,-0.005123921670019627,0.003151318524032831
1761384879555609600,6.932609619140625,-0.0020682108588516712,-0.007271495182067156,0.005702360533177853
1761384879565678800,6.942678955078125,-0.0033635725267231464,-0.008444883860647678,0.004252269398421049
1761384879575747800,6.952747802734375,-0.00005352953667170368,-0.010961837135255337,0.004867726005613804
1761384879585816800,6.96281689453125,-0.0005246427026577294,-0.007622499484568834,0.003227484878152609
1761384879595885800,6.9728857421875,0.0005030711181461811,-0.007652326952666044,0.005167864263057709
1761384879605955600,6.98295556640625,-0.0019262643763795495,-0.0070078419521451,0.005827795248478651
1761384879616024600,6.993024658203125,-0.0013672668719664216,-0.008045409806072712,0.005839246790856123
1761384879626093600,7.003093505859375,-0.0007363640470430255,-0.00881932396441698,0.004683168604969978
1761384879636162600,7.01316259765625,-0.003481284249573946,-0.007498662453144789,0.004541222471743822
1761384879646231600,7.0232314453125,-0.0004756405542138964,-0.008160457946360111,0.0037859496660530567
1761384879656300500,7.033300537109375,0.00009560748003423214,-0.009958624839782715,0.0062637547962367535
1761384879666369500,7.04336962890625,-0.00355798308737576,-0.006073072552680969,0.005435511935502291
1761384879676438500,7.0534384765625,-0.002375007141381502,-0.0076304893009364605,0.005816077347844839
1761384879686507500,7.063507568359375,-0.0012359730899333954,-0.00697828084230423,0.0054395063780248165
1761384879696576500,7.073576416015625,-0.0014183996245265007,-0.011955728754401207,0.002930276095867157
1761384879706645500,7.0836455078125,0.000523577444255352,-0.007382548879832029,0.004090881906449795
1761384879716714500,7.093714599609375,-0.0005147890187799931,-0.008845689706504345,0.0038032603915780783
1761384879726782500,7.103782470703125,-0.001996305538341403,-0.010216685011982918,0.0031997880432754755
1761384879736851500,7.1138515625,-0.002802444389089942,-0.008026234805583954,0.00947952177375555
1761384879746920700,7.123920654296875,0.0011326423846185207,-0.008871788159012794,0.00424188282340765
1761384879756989400,7.133989501953125,-0.0016623451374471188,-0.009502691216766834,0.0038810246624052525
1761384879767058700,7.14405859375,-0.0024951156228780746,-0.008894159458577633,0.0018524948973208666
1761384879777127400,7.15412744140625,0.0004900216590613127,-0.010485930368304253,0.0009816411184147
1761384879787196700,7.16419677734375,-0.0011313108261674643,-0.00694871973246336,0.006315686274319887
1761384879797265400,7.174265380859375,-0.0017614146927371621,-0.010905112139880657,0.008110124617815018
1761384879807334400,7.18433447265625,-0.0011116034584119916,-0.008975918404757977,0.004063717555254698
1761384879817403600,7.194403564453125,-0.0016538230702280998,-0.007785751484334469,0.0052078114822506905
1761384879827472400,7.204472412109375,-0.0013731258222833276,-0.008207862265408039,0.0037593182642012835
1761384879837541600,7.214541748046875,-0.0024117587599903345,-0.011035873554646969,0.0043654534965753555
1761384879847610400,7.2246103515625,-0.0025015072897076607,-0.009957559406757355,0.006715693045407534
1761384879857679600,7.2346796875,-0.0007054713787510991,-0.0073468624614179134,0.004738562274724245
1761384879867748600,7.24474853515625,-0.002017078222706914,-0.005134840961545706,0.006715160794556141
1761384879877817600,7.254817626953125,-0.0013278521364554763,-0.007725297473371029,0.006058425176888704
1761384879887886600,7.264886474609375,-0.0018370485631749034,-0.008070975542068481,0.0035747610963881016
1761384879897955600,7.27495556640625,-0.0005190501105971634,-0.00996315199881792,0.00401631323620677
1761384879908024600,7.285024658203125,-0.000907338981050998,-0.008792160078883171,0.004747883416712284
1761384879918093600,7.295093505859375,-0.00242107966914773,-0.008949019946157932,0.0032434638123959303
1761384879928162600,7.30516259765625,-0.00301762786693871,-0.007499994244426489,0.006375074852257967
1761384879938231600,7.3152314453125,-0.0017496967921033502,-0.011084875091910362,0.004019775427877903
1761384879948300500,7.325300537109375,-0.0018383801216259599,-0.010851582512259483,0.002288188086822629
1761384879958369500,7.33536962890625,-0.0018647453980520368,-0.006846720818430185,0.00541473925113678
1761384879968438500,7.3454384765625,-0.0006005428149364889,-0.007352721411734819,0.008017978630959988
1761384879978507500,7.355507568359375,-0.0005914880894124508,-0.008972722105681896,0.005871205125004053
1761384879988576800,7.36557666015625,-0.0032583775464445353,-0.008022240363061428,0.0070339408703148365
1761384879998645500,7.3756455078125,-0.0031217574141919613,-0.010605772957205772,0.003032008884474635
1761384880008714500,7.385714599609375,-0.0019385149935260415,-0.010824950411915779,0.005458415020257235
1761384880018782700,7.39578271484375,-0.0031132353469729424,-0.008200138807296753,0.004224305972456932
1761384880028851500,7.4058515625,0.000565122754778713,-0.009948237799108028,0.002192580606788397
1761384880038920700,7.415920654296875,-0.002959570847451687,-0.009276323020458221,0.005497563164681196
1761384880048989400,7.425989501953125,-0.0016245282022282481,-0.01044491771608591,0.004997954238206148
1761384880059058400,7.436058349609375,-0.002217081608250737,-0.006157760974019766,0.004969192203134298
1761384880069127700,7.446127685546875,-0.0004293015517760068,-0.010308830067515373,0.00774793466553092
1761384880079196400,7.456196533203125,-0.00025992453447543085,-0.006003564223647118,0.0035116442013531923
1761384880089265700,7.466265625,-0.0015297196805477142,-0.009037703275680542,0.002825880190357566
1761384880099334400,7.47633447265625,-0.0022426480427384377,-0.00977513287216425,0.004463990684598684
1761384880109403600,7.486403564453125,0.00030892668291926384,-0.004412058740854263,0.004240551497787237
1761384880119472400,7.496472412109375,-0.003612045431509614,-0.00948032084852457,0.00432976707816124
1761384880129541600,7.506541748046875,-0.0034024545457214117,-0.00708640506491065,0.0064927865751087666
1761384880139610600,7.516610595703125,-0.003733751829713583,-0.008383364416658878,0.005087969359010458
1761384880149679400,7.526679443359375,-0.0010873686987906694,-0.007726362906396389,0.005459479987621307
1761384880159748600,7.53674853515625,-0.0027502465527504683,-0.006404902320355177,0.006177202332764864
1761384880169817300,7.5468173828125,-0.0008096009842120111,-0.009755691513419151,0.0032735576387494802
1761384880179886600,7.556886474609375,-0.00027803401462733746,-0.005966546013951302,0.005449626594781876
1761384880189955600,7.56695556640625,-0.004144677426666021,-0.010939999483525753,0.005814479663968086
1761384880200024600,7.577024658203125,0.000544350128620863,-0.008072040975093842,0.00535481795668602
1761384880210093600,7.587093505859375,-0.0018674085149541497,-0.008496548980474472,0.005910619627684355
1761384880220162600,7.59716259765625,0.0002585929469205439,-0.009818541817367077,0.007992679253220558
1761384880230231600,7.6072314453125,-0.003174754325300455,-0.006969758775085211,0.0020716730505228043
1761384880240300500,7.617300537109375,-0.0005454153870232403,-0.008244081400334835,0.004583033733069897
1761384880250369500,7.62736962890625,-0.004759068600833416,-0.00711729796603322,0.006382798310369253
1761384880260438500,7.6374384765625,-0.0012029499048367143,-0.008791361004114151,0.002148105762898922
1761384880270507500,7.647507568359375,-0.002025600289925933,-0.008445416577160358,0.004652276169508696
1761384880280576500,7.657576416015625,-0.0016261261189356446,-0.007498130202293396,0.0041097900830209255
1761384880290645500,7.6676455078125,-0.002590989461168647,-0.01098340842872858,0.003293531248345971
1761384880300714500,7.677714599609375,-0.0023877902422100306,-0.006252569612115622,0.005270662251859903
1761384880310782500,7.687782470703125,-0.002258360618725419,-0.00866219773888588,0.00344506511464715
1761384880320851500,7.6978515625,-0.0011432950850576162,-0.008272044360637665,0.006836866959929466
1761384880330920400,7.70792041015625,-0.003079413203522563,-0.007021424360573292,0.002796585438773036
1761384880340989700,7.71798974609375,0.0009195895399898291,-0.008373777382075787,0.002811499172821641
1761384880351058400,7.728058349609375,-0.0010050770360976458,-0.006360960192978382,0.004574511665850878
1761384880361127700,7.738127685546875,-0.0025739450938999653,-0.010836401954293251,0.0032506543211638927
1761384880371196400,7.748196533203125,-0.002823483431711793,-0.007226753979921341,0.0046661244705319405
1761384880381265700,7.758265625,-0.0006165218073874712,-0.006308495998382568,0.004196343012154102
1761384880391334700,7.768334716796875,-0.002364886924624443,-0.008527175523340702,0.00440939562395215
1761384880401403400,7.7784033203125,-0.002654106356203556,-0.007691741921007633,0.005078914575278759
1761384880411472600,7.78847265625,-0.0018820558907464147,-0.01041482388973236,0.00404587434604764
1761384880421541400,7.798541259765625,0.0001382180635118857,-0.008078166283667088,0.00355851580388844
1761384880431610600,7.808610595703125,-0.002835201332345605,-0.008390288800001144,0.003864513011649251
1761384880441679400,7.818679443359375,-0.0012010856298729777,-0.00806245394051075,0.004156928043812513
1761384880451748600,7.82874853515625,-0.0024615598376840353,-0.004973985720425844,0.00566880451515317
1761384880461817600,7.838817626953125,-0.000871652620844543,-0.008218248374760151,0.004041613079607487
1761384880471886600,7.848886474609375,-0.00567040266469121,-0.009075786918401718,0.004593420308083296
1761384880481955600,7.85895556640625,-0.0007241134881041944,-0.00893623661249876,0.004653607495129108
1761384880492024300,7.8690244140625,-0.005268265027552843,-0.010070743970572948,0.00512871565297246
1761384880502093600,7.879093505859375,-0.0025334651581943035,-0.009618538431823254,0.005254416726529598
1761384880512162600,7.88916259765625,-0.0037001960445195436,-0.008098406717181206,0.005190767347812653
1761384880522231600,7.8992314453125,-0.0005765743553638458,-0.008533833548426628,0.00330338510684669
1761384880532300500,7.909300537109375,-0.0028509139083325863,-0.008981510996818542,0.0035422705113887787
1761384880542369500,7.91936962890625,-0.0012897689593955874,-0.00791438203305006,0.0036812876351177692
1761384880552438500,7.9294384765625,-0.00358860963024199,-0.009351956658065319,0.003912716172635555
1761384880562507500,7.939507568359375,-0.0005954828229732811,-0.00800199992954731,0.003976099658757448
1761384880572576500,7.949576416015625,-0.00233266269788146,-0.005902630276978016,0.0037798245903104544
1761384880582644500,7.95964453125,-0.0009214537567459047,-0.008598548360168934,0.004098072182387114
1761384880592713500,7.96971337890625,0.00031425300403498113,-0.009926133789122105,0.001970472978428006
1761384880602782500,7.979782470703125,-0.00045353634050115943,-0.00953970942646265,0.005833920557051897
1761384880612851500,7.9898515625,-0.0009499495499767363,-0.008291485719382763,0.005213137716054916
1761384880622920200,7.999920166015625,-0.0025395904667675495,-0.008342618122696877,0.004771585576236248
1761384880632989400,8.009989501953125,-0.0032384039368480444,-0.0075700352899730206,0.003419232554733753
1761384880643058200,8.02005810546875,-0.0023390543647110462,-0.006399309728294611,0.004591555800288916
1761384880653127400,8.03012744140625,-0.0031212246976792812,-0.008778044953942299,0.0030125677585601807
1761384880663196400,8.040196533203124,-0.0030157635919749737,-0.010000436566770077,0.006161755882203579
1761384880673265200,8.05026513671875,-0.002320412313565612,-0.006484530866146088,0.005861351266503334
1761384880683334400,8.06033447265625,-0.0004386226355563849,-0.008264853619039059,0.004024835303425789
1761384880693403100,8.070403076171875,-0.0006623281515203416,-0.008761533536016941,0.0052179316990077496
1761384880703472400,8.080472412109375,-0.0006021407316438854,-0.008094144985079765,0.005264803301542997
1761384880713541400,8.090541259765626,-0.0021345235873013735,-0.009958624839782715,0.005614209920167923
1761384880723610400,8.1006103515625,-0.0011294466676190495,-0.008925850503146648,0.005629922728985548
1761384880733679400,8.110679443359375,-0.0011211908422410488,-0.009815346449613571,0.004656004719436169
1761384880743748400,8.120748291015625,-0.0010804444318637252,-0.007889880798757076,0.004445881117135286
1761384880753817300,8.1308173828125,0.00022610237647313625,-0.00962572917342186,0.0051750545389950275
1761384880763886300,8.14088623046875,-0.0016381103778257966,-0.007739944849163294,0.005108209326863289
1761384880773955300,8.150955322265625,-0.00213532242923975,-0.009346097707748413,0.004604605492204428
1761384880784024300,8.1610244140625,-0.0005531385540962219,-0.007762315683066845,0.006804110016673803
1761384880794093300,8.17109326171875,0.0010381002211943269,-0.007684284821152687,0.003876497270539403
1761384880804162300,8.181162353515624,-0.0010183927370235324,-0.009965282864868641,0.005804093088954687
1761384880814231300,8.191231201171876,-0.0002306297537870705,-0.009770605713129044,0.00526799913495779
1761384880824300300,8.20130029296875,0.00039281626231968403,-0.01013838779181242,0.0013289173366501927
1761384880834369500,8.21136962890625,-0.0033957967534661293,-0.008413990959525108,0.005486910697072744
1761384880844438300,8.221438232421875,-0.0008476841612718999,-0.00866459496319294,0.00544323492795229
1761384880854506200,8.23150634765625,-0.0006506102508865297,-0.008889098651707172,0.00503976596519351
1761384880864575500,8.241575439453126,-0.0013435647124424577,-0.006960970349609852,0.0057279267348349094
1761384880874644200,8.251644287109375,-0.0028794098179787397,-0.0052136704325675964,0.0031494542490690947
1761384880884713500,8.26171337890625,-0.00133903743699193,-0.007978297770023346,0.004658401478081942
1761384880894782200,8.2717822265625,-0.0008247809601016343,-0.008947156369686127,0.005939648021012545
1761384880904851500,8.2818515625,-0.002412024885416031,-0.011151454411447048,0.0049311090260744095
1761384880914920400,8.29192041015625,-0.0007699198904447258,-0.008421980775892735,0.007272826507687569
1761384880924989200,8.3019892578125,0.00016724651504773647,-0.006315686274319887,0.0051801144145429134
1761384880935058400,8.312058349609375,-0.0007510114228352904,-0.008714661933481693,0.0044083306565880775
1761384880945127200,8.322127197265624,-0.00015100123709999025,-0.006091448478400707,0.007733020931482315
1761384880955196400,8.332196533203126,0.001407480682246387,-0.00987127237021923,0.0034490597900003195
1761384880965265200,8.34226513671875,-0.0012767193838953972,-0.006643787957727909,0.0030921963043510914
1761384880975334400,8.35233447265625,0.001026382320560515,-0.01068114023655653,0.004677309654653072
1761384880985403400,8.3624033203125,-0.0015598133904859424,-0.00737322773784399,0.005164934787899256
1761384880995472400,8.372472412109374,-0.002231462625786662,-0.007997206412255764,0.00350418733432889
1761384881005541400,8.382541259765626,-0.0001805623178370297,-0.008468053303658962,0.00119575927965343
1761384881015610000,8.392610107421875,-0.0014990933705121279,-0.006966562941670418,0.00498091010376811
1761384881025679400,8.402679443359375,-0.0012897689593955874,-0.007772968150675297,0.004797950852662325
1761384881035748400,8.412748291015625,-0.001350222621113062,-0.008763664402067661,0.004038151353597641
1761384881045817300,8.4228173828125,-0.0020210728980600834,-0.007255782373249531,0.004840828012675047
1761384881055886300,8.43288623046875,-0.0027419906109571457,-0.0065106297843158245,0.0030064424499869347
1761384881065955300,8.442955322265625,-0.00239258399233222,-0.008676312863826752,0.004832838196307421
1761384881076024300,8.4530244140625,-0.0008937568636611104,-0.009409214369952679,0.005618204362690449
1761384881086093300,8.46309326171875,-0.001110005541704595,-0.00902944803237915,0.0057191383093595505
1761384881096162300,8.473162353515624,-0.0022237394005060196,-0.011687016114592552,0.005318332463502884
1761384881106230300,8.483230224609375,-0.0012828446924686432,-0.00765845226123929,0.0057502975687384605
1761384881116299300,8.49329931640625,0.00041012681322172284,-0.005252552684396505,0.006088785361498594
1761384881126368300,8.5033681640625,-0.0006767092272639275,-0.008569786325097084,0.006400108803063631
1761384881136437500,8.5134375,-0.0012900352012366056,-0.007128749508410692,0.004131628200411797
1761384881146506200,8.52350634765625,-0.0008522115531377494,-0.00962919183075428,0.006281598005443811
1761384881156575500,8.533575439453125,-0.0006897587445564568,-0.009548497386276722,0.002153698354959488
1761384881166644200,8.543644287109375,-0.0010250506456941366,-0.007544202730059624,0.005668005906045437
1761384881176713200,8.553713134765625,-0.0017811221769079566,-0.008612396195530891,0.005386775825172663
1761384881186782500,8.563782470703124,-0.0011430287268012762,-0.008374842815101147,0.003658917034044862
1761384881196851200,8.573851318359376,-0.0009454221581108868,-0.008319448679685593,0.004551075864583254
1761384881206920400,8.58392041015625,-0.002623746171593666,-0.007158576976507902,0.004927380476146936
1761384881216989200,8.5939892578125,-0.0014381069922819734,-0.008258729241788387,0.0037316211964935064
1761384881227058400,8.604058349609375,-0.0038059235084801912,-0.00788721814751625,0.005356415640562773
1761384881237127400,8.61412744140625,-0.003310841741040349,-0.009017995558679104,0.002065015025436878
1761384881247196400,8.624196533203126,-0.0006372944335453212,-0.011601528152823448,0.0018706043483689427
1761384881257265400,8.634265380859375,-0.0001579254458192736,-0.0064776064828038216,0.005260542035102844
1761384881267334100,8.644334228515625,-0.00333241350017488,-0.007102117873728275,0.0052168662659823895
1761384881277403400,8.6544033203125,-0.0008040083339437842,-0.009094694629311562,0.005821936298161745
1761384881287472000,8.66447216796875,-0.0013145363191142678,-0.00751916877925396,0.004475708585232496
1761384881297541400,8.674541259765626,-0.0016737966798245907,-0.0065508438274264336,0.00538571085780859
1761384881307610400,8.6846103515625,-0.0044046021066606045,-0.009849168360233307,0.004032292403280735
1761384881317679400,8.694679443359375,-0.0008476841612718999,-0.008612129837274551,0.004387824330478907
1761384881327748400,8.704748291015624,-0.001678057829849422,-0.00917512271553278,0.0025768745690584183
1761384881337817300,8.7148173828125,-0.0024881914723664522,-0.008411061950027943,0.006918360013514757
1761384881347886300,8.72488623046875,-0.0008554073283448815,-0.009731190279126167,0.008756473660469055
1761384881357954300,8.734954345703125,-0.001091629732400179,-0.00820999313145876,0.004309793468564749
1761384881368023300,8.745023193359375,-0.001160339335910976,-0.006325273774564266,0.0016346483025699854
1761384881378092300,8.75509228515625,-0.0025899240281432867,-0.007727428339421749,0.00433056615293026
1761384881388161500,8.76516162109375,-0.0034756914246827364,-0.00808828603476286,0.003736681304872036
1761384881398230300,8.775230224609375,-0.0028961875941604376,-0.010824418626725674,0.005943376570940018
1761384881408299500,8.785299560546875,-0.003591006388887763,-0.006457100156694651,0.005533249583095312
1761384881418368300,8.7953681640625,-0.0015787219163030386,-0.007754592224955559,0.003418167121708393
1761384881428437200,8.805437255859376,-0.0033366745337843895,-0.010157030075788498,0.005240834783762693
1761384881438506200,8.81550634765625,-0.0035862126387655735,-0.01013652328401804,0.0007864314829930663
1761384881448575200,8.8255751953125,-0.0022397185675799847,-0.009306948632001877,0.004732703324407339
1761384881458644500,8.83564453125,-0.002223206916823983,-0.007023821119219065,0.006385994143784046
1761384881468713200,8.845713134765624,-0.0006910903030075133,-0.00824061967432499,0.0057196710258722305
1761384881478782500,8.855782470703126,-0.005652825813740492,-0.007424892857670784,0.0054552191868424416
1761384881488851200,8.865851318359375,-0.002423742786049843,-0.009020659141242504,0.00532552320510149
1761384881498920400,8.87592041015625,-0.002572879893705249,-0.009138903580605984,0.00404507527127862
1761384881508989400,8.885989501953125,0.0004825647920370102,-0.006965231616050005,0.004260258749127388
1761384881519058200,8.89605810546875,-0.0031816784758120775,-0.008758071810007095,0.00606375141069293
1761384881529127400,8.90612744140625,-0.00152332813013345,-0.008431834168732166,0.0027864654548466206
1761384881539196200,8.916196044921875,-0.001398159540258348,-0.010724815540015697,0.004473578184843063
1761384881549265400,8.926265380859375,-0.0030863373540341854,-0.008723716251552105,0.003769704606384039
1761384881559334400,8.93633447265625,-0.0013257216196507215,-0.009185242466628551,0.004505269695073366
1761384881569403400,8.9464033203125,-0.003171558491885662,-0.008770322427153587,0.003876763628795743
1761384881579470300,8.95647021484375,-0.003099120454862714,-0.006630738265812397,0.004975583869963884
1761384881589539300,8.966539306640625,-0.0004410194815136492,-0.01025556679815054,0.002895388752222061
1761384881599608300,8.9766083984375,-0.000577107013668865,-0.009315204806625843,0.004608866758644581
1761384881609677300,8.98667724609375,-0.004697549622505903,-0.008558068424463272,0.006168946158140898
1761384881619746800,8.996746826171876,-0.0012013519881293178,-0.008058725856244564,0.0034104441292583942
1761384881629816000,9.006816162109375,-0.004763329867273569,-0.005179582163691521,0.006621683482080698
1761384881639885000,9.016885009765625,-0.0037433390971273184,-0.008012386038899422,0.0030772825703024864
1761384881649954000,9.0269541015625,-0.0008953547803685069,-0.008723982609808445,0.005227518733590841
1761384881660023000,9.03702294921875,-0.0032469260040670633,-0.00606348505243659,0.005248291417956352
1761384881670092000,9.047092041015626,-0.002624545246362686,-0.010173541493713856,0.002867958042770624
1761384881680161000,9.0571611328125,-0.0012420982820913196,-0.008705873973667622,0.004297276493161917
1761384881690230000,9.06722998046875,-0.00048709215479902923,-0.006602508947253227,0.006481601390987635
1761384881700299000,9.077299072265625,-0.0008713863207958639,-0.007678159512579441,0.003367567202076316
1761384881710368300,9.0873681640625,-0.002686863299459219,-0.00675164582207799,0.006707703694701195
1761384881720437000,9.09743701171875,-0.0005874933558516204,-0.009757023304700851,0.005621400196105242
1761384881730506000,9.107506103515625,0.000059921123465755954,-0.008714928291738033,0.005026184022426605
1761384881740575000,9.117574951171875,0.0001968075957847759,-0.009076851420104504,0.003832022426649928
1761384881750644000,9.12764404296875,-0.0025156219489872456,-0.008893626742064953,0.003972371108829975
1761384881760713200,9.137713134765624,-0.002011219272390008,-0.00785366166383028,0.003591539105400443
1761384881770781000,9.147781005859375,-0.00043809000635519624,-0.0070770843885838985,0.0027236149180680513
1761384881780850000,9.157849853515625,-0.0012895026011392474,-0.004904743749648333,0.004571315832436085
1761384881790919200,9.167919189453125,-0.002916427794843912,-0.00860254280269146,0.004351338837295771
1761384881800988000,9.17798779296875,-0.0018306568963453174,-0.008175105787813663,0.003969707991927862
1761384881811057200,9.18805712890625,0.0003206445835530758,-0.008400142192840576,0.0062126219272613525
1761384881821126000,9.1981259765625,-0.0022152173332870007,-0.008769789710640907,0.00498117646202445
1761384881831195100,9.208195068359375,-0.003495398908853531,-0.008420382626354694,0.004987834487110376
1761384881841264000,9.21826416015625,-0.0009603358921594918,-0.008577775210142136,0.004926049150526524
1761384881851333000,9.2283330078125,-0.003023753175511956,-0.007930094376206398,0.005227252375334501
1761384881861402000,9.238402099609376,-0.0007723167072981596,-0.010125071741640568,0.004322044085711241
1761384881871470800,9.248470947265625,-0.0032794165890663862,-0.00812210887670517,0.004628307651728392
1761384881881540000,9.2585400390625,-0.0004348942020442337,-0.005103149451315403,0.005651227664202452
1761384881891608800,9.26860888671875,0.0005025385180488229,-0.009609484113752842,0.0029113676864653826
1761384881901678000,9.278677978515624,-0.00019574233738239855,-0.006237655878067017,0.005352154839783907
1761384881911747000,9.2887470703125,-0.002633600030094385,-0.007109042257070541,0.005775863770395517
1761384881921816000,9.298816162109375,-0.0005448827287182212,-0.009601227939128876,0.001797101111151278
1761384881931885000,9.308885009765625,0.0018612833227962255,-0.005881591234356165,0.004682635888457298
1761384881941954000,9.3189541015625,-0.0015448997728526592,-0.011492072604596615,0.0068091703578829765
1761384881952023000,9.32902294921875,-0.0049558766186237335,-0.009754892438650131,0.004791559185832739
1761384881962092000,9.339092041015626,-0.0009416937828063965,-0.009258479811251163,0.00221947836689651
1761384881972161000,9.3491611328125,-0.0016415724530816078,-0.009048888459801674,0.004332696553319693
1761384881982230000,9.35922998046875,-0.0024780714884400368,-0.00848349928855896,0.0022117553744465113
1761384881992299000,9.369299072265624,-0.00230816169641912,-0.008342351764440536,0.0017936390358954668
1761384882002367000,9.379366943359376,-0.0013353090034797788,-0.008134359493851662,0.004822718445211649
1761384882012436200,9.389436279296875,-0.001704955706372857,-0.009853695519268513,0.005811550188809633
1761384882022505000,9.3995048828125,-0.0028128307312726974,-0.007798268459737301,0.004167846869677305
1761384882032574000,9.409573974609375,-0.0009898969437927008,-0.008463526144623756,0.005930859595537186
1761384882042643000,9.419642822265626,-0.0014562164433300495,-0.009600695222616196,0.002496713539585471
1761384882052712000,9.4297119140625,-0.0010282464791089296,-0.004855475388467312,0.004376106429845095
1761384882062781200,9.43978125,-0.0013968279818072915,-0.01155758649110794,0.0057343184016644955
1761384882072850000,9.449849853515625,0.0007856325246393681,-0.005131645128130913,0.005721535068005323
1761384882082919200,9.459919189453124,-0.000179230744834058,-0.008409463800489902,0.0046874298714101315
1761384882092988000,9.46998779296875,0.00021411814668681473,-0.008167915046215057,0.0023579627741128206
1761384882103057200,9.48005712890625,0.00014540860138367862,-0.008714661933481693,0.0041185785084962845
1761384882113126100,9.490126220703125,-0.0002873550693038851,-0.008082959800958633,0.0057590859942138195
1761384882123195000,9.50019482421875,0.0002620550512801856,-0.007727428339421749,0.004759334959089756
1761384882133264100,9.51026416015625,-0.000702009245287627,-0.011113104410469532,0.004220843780785799
1761384882143332900,9.520332763671876,-0.0012487561907619238,-0.008067247457802296,0.0036136433482170105
1761384882153402000,9.530402099609375,-0.0015992282424122095,-0.009831591509282589,0.005255215801298618
1761384882163471000,9.54047119140625,-0.0010138654615730047,-0.009724000468850136,0.0051862397231161594
1761384882173540000,9.5505400390625,-0.0008396946941502392,-0.005348692648112774,0.004222441930323839
1761384882183609000,9.560609130859374,-0.0013675332302227616,-0.008268848992884159,0.004051733296364546
1761384882193678000,9.570677978515626,-0.0034874093253165483,-0.007040865253657103,0.007813980802893639
1761384882203748000,9.580748046875,-0.00170788518153131,-0.008491222746670246,0.004142280668020248
1761384882213817000,9.590817138671875,-0.0006471481174230576,-0.007930893450975418,0.003260241821408272
1761384882223886000,9.600885986328125,-0.0010697918478399515,-0.007445665542036295,0.006977215874940157
1761384882233955000,9.610955078125,-0.00020213393145240843,-0.009615609422326088,0.005017395596951246
1761384882244024000,9.621024169921874,-0.0013909690314903855,-0.00875168014317751,0.003810983384028077
1761384882254093000,9.631093017578126,-0.0003760383406188339,-0.007202252745628357,0.0049042110331356525
1761384882264162000,9.641162109375,-0.0007307713967747986,-0.0062453788705170155,0.00387330143712461
1761384882274231000,9.65123095703125,-0.003029345767572522,-0.007741010282188654,0.007047256920486689
1761384882284299000,9.661299072265624,-0.0020722055342048407,-0.009501625783741474,0.0027292075101286173
1761384882294368000,9.671367919921876,-0.0018993664998561144,-0.005271194502711296,0.0028929917607456446
1761384882304437000,9.68143701171875,-0.0014034858904778957,-0.008204933255910873,0.0056831855326890945
1761384882314506000,9.691506103515625,-0.0024258734192699194,-0.00706856232136488,0.003230414353311062
1761384882324575000,9.701574951171875,-0.0019481023773550987,-0.01113547571003437,0.004006459377706051
1761384882334644000,9.71164404296875,-0.0028575719334185123,-0.00923264678567648,0.006450442597270012
1761384882344713000,9.721712890625,-0.0010516822803765535,-0.007986287586390972,0.0052267201244831085
1761384882354782200,9.7317822265625,-0.0015688681742176414,-0.010845989920198917,0.0059993029572069645
1761384882364851000,9.741850830078125,-0.001300155185163021,-0.00947978813201189,0.0038370825350284576
1761384882374920200,9.751920166015625,-0.002722283359616995,-0.007157777901738882,0.0054128747433424
1761384882384989000,9.761989013671876,-0.0017451694002375007,-0.011087538674473763,0.0036192359402775764
1761384882395058200,9.77205810546875,0.00030599720776081085,-0.008272843435406685,0.004597947467118502
1761384882405127200,9.782127197265625,-0.0006079996819607913,-0.01014185044914484,0.004007524810731411
1761384882415196000,9.79219580078125,-0.0009622001089155674,-0.009005479514598846,0.0051713259890675545
1761384882425265200,9.80226513671875,-0.0004439489566721022,-0.0073021212592720985,0.002541188383474946
1761384882435334000,9.812333984375,-0.0010985539993271232,-0.006265618838369846,0.004471447318792343
1761384882445403100,9.822403076171875,-0.0017712684348225594,-0.007224090863019228,0.004531368613243103
1761384882455471900,9.832471923828125,-0.0015968313673511147,-0.007996940053999424,0.002793922321870923
1761384882465541000,9.842541015625,-0.0002181128947995603,-0.009096026420593262,0.003495132550597191
