time,seconds_elapsed,z,y,x
1761384872728845600,0.105845458984375,0.0010217337403446436,0.0008727437816560268,-0.0020297926384955645
1761384872738914600,0.11591455078125,-0.0010105244582518935,-0.0006378013640642166,0.0001033996231853962
1761384872748983600,0.125983642578125,-0.0031311996281147003,-0.0013065207749605179,-0.0015602773055434227
1761384872759052500,0.136052490234375,-0.002420668490231037,0.0009028376080095768,-0.0014614739920943975
1761384872769121500,0.14612158203125,-0.0004009269177913666,-0.0008939970284700394,-0.000051330309361219406
1761384872779190500,0.1561904296875,0.0006515895947813988,0.0014079702086746693,0.0021030250936746597
1761384872789259800,0.166259765625,-0.0009297954384237528,-0.0010719653218984604,-0.0014296581503003836
1761384872799328500,0.17632861328125,-0.0012310289312154055,0.000857203733175993,-0.0003774999640882015
1761384872809397800,0.186397705078125,-0.00007388542871922255,-0.00128211360424757,-0.0033786161802709103
1761384872819466500,0.196466552734375,-0.00168298848439008,0.0014714431017637253,-0.0008137281984090805
1761384872829535500,0.206535400390625,0.0004962763050571084,-0.001032993197441101,-0.0015399723779410124
1761384872839604700,0.216604736328125,-0.0011300949845463037,-0.00040140654891729355,-0.0015737919602543116
1761384872849673500,0.226673583984375,0.0010976390913128853,-0.0011630700901150703,0.0017799269407987595
1761384872859742700,0.23674267578125,-0.0009945807978510857,0.00025416072458028793,-0.00025571975857019424
1761384872869811500,0.2468115234375,-0.0011378589551895857,0.0005977079272270203,0.000193821731954813
1761384872879880700,0.256880615234375,0.0008598840213380754,0.00032372865825891495,-0.0028428719379007816
1761384872889949400,0.266949462890625,0.00007132196333259344,0.001852649264037609,0.0005422718822956085
1761384872900018700,0.277018798828125,0.00045040983241051435,0.003005636390298605,0.0020746197551488876
1761384872910087700,0.287087646484375,0.0004386919317767024,-0.0010080132633447647,0.0018929922953248024
1761384872920156400,0.297156494140625,-0.002576267346739769,-0.000058426521718502045,-0.002789310412481427
1761384872930224600,0.307224609375,-0.0002502624411135912,-0.0016251644119620323,0.0008504320867359638
1761384872940293600,0.317293701171875,0.0004009809345006943,0.00023227930068969727,0.0009599290788173676
1761384872950362600,0.327362548828125,-0.002681894227862358,0.0010464079678058624,-0.0009351761545985937
1761384872960431600,0.337431640625,-0.0012342901900410652,0.000334201380610466,-0.001714589772745967
1761384872970500400,0.347500244140625,-0.0007794222328811884,0.005372636020183563,0.0012319316156208515
1761384872980569600,0.357569580078125,0.0006731205503456295,-0.0018981806933879852,0.0012950962409377098
1761384872990638600,0.367638671875,0.0019698136020451784,0.001287226565182209,-0.0011009497102349997
1761384873000707600,0.37770751953125,-0.0005904734134674072,0.0006989678367972374,-0.0015837294049561024
1761384873010776600,0.387776611328125,-0.0005164376925677061,-0.0001196879893541336,-0.003486557863652706
1761384873020845600,0.397845458984375,-0.0008552869549021125,0.0010859430767595768,0.0003481539897620678
1761384873030914600,0.40791455078125,0.002907493384554982,-0.0004126178100705147,0.001306359190493822
1761384873040983600,0.417983642578125,-0.0009416191605851054,-0.0001058308407664299,-0.0022335087414830923
1761384873051052500,0.428052490234375,0.0008075451478362083,-0.0024741804227232933,-0.0015813005156815052
1761384873061121500,0.43812158203125,-0.0014344893861562014,0.0008086394518613815,0.0005445550195872784
1761384873071190500,0.4481904296875,-0.0017822983209043741,0.0005646934732794762,0.0020806663669645786
1761384873081259500,0.458259521484375,0.0010916143655776978,-0.00021163560450077057,0.00005690334364771843
1761384873091328500,0.46832861328125,0.0006149085238575935,0.0019138334318995476,0.0007000570185482502
1761384873101397500,0.4783974609375,-0.002088702516630292,-0.0015620989724993706,0.000006360933184623718
1761384873111466800,0.488466796875,0.0002498191315680742,-0.0011876579374074936,-0.0006807348690927029
1761384873121535500,0.498535400390625,0.004127743188291788,0.0014408649876713753,0.002045517321676016
1761384873131604700,0.508604736328125,-0.0012422548606991768,0.0002416437491774559,0.0008497582748532295
1761384873141673500,0.518673583984375,-0.0027686376124620438,0.0025165067054331303,-0.0010139534715563059
1761384873151742700,0.52874267578125,0.0011059953831136227,0.00251570763066411,0.0008787550032138824
1761384873161811700,0.538811767578125,0.000014395802281796932,-0.0005732672289013863,0.0009693596512079239
1761384873171880400,0.54888037109375,0.00011399795766919851,-0.0019407998770475388,-0.00040563009679317474
1761384873181948700,0.55894873046875,0.002017967402935028,0.0012230710126459599,-0.0010279582347720861
1761384873192017700,0.569017578125,-0.0018958139698952436,-0.00014499481767416,-0.0010559214279055595
1761384873202086700,0.579086669921875,-0.0007723020389676094,-0.0020353421568870544,-0.0006218790076673031
1761384873212155600,0.58915576171875,-0.0007776282727718353,0.0017215791158378124,0.00020157033577561378
1761384873222224400,0.599224365234375,-0.0007547553395852447,-0.0026734620332717896,0.001823910977691412
1761384873232293600,0.609293701171875,0.0007659097318537533,-0.0008233636617660522,0.00017434917390346527
1761384873242362600,0.619362548828125,0.00014431728050112724,0.001327594742178917,-0.0005299262702465057
1761384873252431600,0.629431640625,0.002560070715844631,-0.00014460086822509766,0.0007443963550031185
1761384873262500600,0.63950048828125,-0.0014695122372359037,-0.0005667032673954964,0.0007174927741289139
1761384873272569600,0.649569580078125,0.0012999088503420353,-0.0019688569009304047,-0.0004835929721593857
1761384873282638600,0.659638671875,0.00051230622921139,0.0002148738130927086,-0.0004895622842013836
1761384873292707600,0.66970751953125,-0.001671219477429986,0.001757909543812275,0.0007858257740736008
1761384873302776600,0.679776611328125,-0.003832464572042227,-0.0013775061815977097,0.0013696854002773762
1761384873312845600,0.689845458984375,0.00006613670848309994,0.000028642825782299042,-0.0015755041968077421
1761384873322914600,0.69991455078125,0.0009681846713647246,0.001311951782554388,-0.001751413568854332
1761384873332983600,0.709983642578125,-0.0008041489636525512,0.0022214213386178017,0.0016467799432575703
1761384873343052500,0.720052490234375,-0.0012630149722099304,0.000691460445523262,-0.000879612984135747
1761384873353121500,0.73012158203125,-0.000979388365522027,-0.0010230829939246178,0.0007973797619342804
1761384873363190500,0.7401904296875,0.0020308643579483032,0.00021635275334119797,0.002015921752899885
1761384873373259500,0.750259521484375,-0.00021391408517956734,-0.0014859400689601898,-0.00004696287214756012
1761384873383328800,0.760328857421875,-0.0006433023372665048,-0.00041166506707668304,0.0005544410087168217
1761384873393397500,0.7703974609375,-0.0008118803380057216,0.001971331425011158,0.001980297267436981
1761384873403466800,0.780466796875,0.0010878791799768806,-0.00020919740200042725,-0.0013511036522686481
1761384873413535500,0.790535400390625,-0.0007414461579173803,-0.0003593992441892624,0.0003924677148461342
1761384873423604500,0.8006044921875,-0.00029901089146733284,-0.0006554052233695984,-0.0012038887944072485
1761384873433673700,0.810673828125,0.0007297683041542768,0.00003435276448726654,0.0021274592727422714
1761384873443742500,0.820742431640625,0.000024870969355106354,-0.00030305515974760056,-0.0017598127014935017
1761384873453811700,0.830811767578125,-0.001065160846337676,-0.0016460875049233437,-0.0009163895156234503
1761384873463880400,0.84088037109375,-0.00009225879330188036,0.006877710111439228,0.0002855006605386734
1761384873473949700,0.85094970703125,0.00048218504525721073,-0.0012598447501659393,0.00042132148519158363
1761384873484017700,0.861017578125,0.0004679439589381218,0.003168159630149603,-0.00036504073068499565
1761384873494086400,0.87108642578125,0.0025406822096556425,-0.001377590000629425,0.0016728099435567856
1761384873504155600,0.88115576171875,-0.0006405980093404651,0.00008746888488531113,-0.0003690160810947418
1761384873514224600,0.891224609375,0.0014880667440593243,0.0014483444392681122,0.00045123742893338203
1761384873524293600,0.901293701171875,-0.00004312244709581137,-0.0005200989544391632,0.0010938583873212337
1761384873534362600,0.911362548828125,-0.0007866770029067993,-0.00021170452237129211,0.0009564394131302834
1761384873544431600,0.921431640625,0.0010288262274116278,-0.002371027134358883,0.00021403701975941658
1761384873554500600,0.93150048828125,0.0009816883830353618,-0.00370633602142334,-0.0005548172630369663
1761384873564569600,0.941569580078125,0.002002999885007739,-0.0002443268895149231,-0.0007641897536814213
1761384873574638600,0.951638671875,-0.0007075653411448002,-0.0002025151625275612,0.0010656681843101978
1761384873584707600,0.96170751953125,0.0016360704321414232,0.0003929436206817627,-0.00009919563308358192
1761384873594776600,0.971776611328125,0.0019127728883177042,-0.00010986067354679108,0.00003928877413272858
1761384873604844800,0.9818447265625,-0.0014205346815288067,0.00039649102836847305,0.002367061097174883
1761384873614914000,0.9919140625,0.0007286362815648317,0.001704102847725153,0.00010736891999840736
1761384873624982800,1.001982666015625,0.00005850719753652811,0.00015051476657390594,-0.0010193807538598776
1761384873635051800,1.0120517578125,-0.0010432424023747444,-0.0009315274655818939,-0.0028271344490349293
1761384873645120800,1.022120849609375,0.0008810297586023808,0.0013756132684648037,0.00030169496312737465
1761384873655189800,1.032189697265625,0.0007974065374583006,0.0010634907521307468,0.0006995708681643009
1761384873665259000,1.042259033203125,0.0007931444561108947,0.0002468135207891464,-0.0005489815957844257
1761384873675327700,1.05232763671875,-0.0007461627246811986,-0.0007532034069299698,0.001430280040949583
1761384873685397000,1.06239697265625,0.0018185898661613464,0.0009972648695111275,-0.00000765221193432808
1761384873695465700,1.0724658203125,-0.0002767852274700999,0.00035224761813879013,0.001011805608868599
1761384873705535000,1.082534912109375,0.00037559529300779104,-0.0006263572722673416,0.0008918833918869495
1761384873715603700,1.092603759765625,-0.000002307235263288021,0.00039469916373491287,0.0011552697978913784
1761384873725672700,1.102672607421875,-0.00006206217221915722,0.0015223678201436996,0.0021803700365126133
1761384873735742000,1.112741943359375,-0.00004874635487794876,-0.00022280123084783554,-0.0014828082639724016
1761384873745810700,1.122810791015625,-0.0018498345743864775,-0.003092139959335327,0.0006450447253882885
1761384873755880000,1.1328798828125,0.0003219733480364084,0.0036256839521229267,0.002061047125607729
1761384873765948700,1.14294873046875,2.5902409106492996e-7,-0.0023728888481855392,0.0008920719847083092
1761384873776018000,1.153017822265625,0.0013592701870948076,-0.00027831271290779114,-0.0025117143522948027
1761384873786087000,1.1630869140625,-0.0016848878003656864,-0.0005038268864154816,0.0011344575323164463
1761384873796156000,1.173156005859375,-0.0003487799549475312,-0.0010436493903398514,0.003121175803244114
1761384873806225000,1.183224853515625,0.000041600666008889675,0.00030244234949350357,-0.0024885383900254965
1761384873816293600,1.193293701171875,-0.0008340466301888227,-0.00017133448272943497,0.0015733148902654648
1761384873826361900,1.20336181640625,0.00013584073167294264,0.0007271100766956806,-0.0022748287301510572
1761384873836430800,1.213430908203125,0.0008021636749617755,-0.0024495087563991547,0.00009272154420614243
1761384873846499800,1.223499755859375,-0.0027337614446878433,0.00033828336745500565,0.0031124413944780827
1761384873856568800,1.23356884765625,-0.0011142930015921593,0.0012810425832867622,-0.002872480545192957
1761384873866637800,1.243637939453125,0.0009927282808348536,0.0012821536511182785,0.005408627912402153
1761384873876706800,1.253706787109375,0.0017429407453164458,-0.0007839268073439598,-0.00015764497220516205
1761384873886775800,1.26377587890625,-0.000287972972728312,0.001007579267024994,0.00264321593567729
1761384873896844800,1.2738447265625,0.001827375846914947,-0.0003495682030916214,-0.00013526016846299171
1761384873906913800,1.283913818359375,0.0004613980418071151,-0.00042439624667167664,-0.001335490494966507
1761384873916982800,1.293982666015625,0.0020750074181705713,-0.0014089662581682205,-0.00003107404336333275
1761384873927051800,1.3040517578125,-0.00006078521255403757,0.00009974371641874313,-0.00008535478264093399
1761384873937121000,1.31412109375,0.00024920678697526455,-0.00041824113577604294,-0.0023208120837807655
1761384873947189800,1.324189697265625,-0.002032569842413068,-0.0015084845945239067,0.0009991689585149288
1761384873957259000,1.334259033203125,-0.00041709630750119686,0.0009709182195365429,0.0008702720515429974
1761384873967327700,1.34432763671875,-0.000938718905672431,-0.0009460253641009331,0.0011714501306414604
1761384873977396700,1.354396728515625,-0.00029316870495676994,0.001203145831823349,-0.0004882318899035454
1761384873987466000,1.364466064453125,0.0012404518201947212,0.00006244704127311707,0.00045758206397295
1761384873997534700,1.37453466796875,0.0002947633620351553,0.0018584830686450005,-0.0007309867069125175
1761384874007604000,1.38460400390625,-0.0007051971042528749,-0.0006826845929026604,0.0001588091254234314
1761384874017672700,1.394672607421875,-0.003205106593668461,0.001384994015097618,0.0008839876390993595
1761384874027742000,1.404741943359375,-0.0004832403501495719,0.0005694776773452759,0.002044680528342724
1761384874037810700,1.414810791015625,0.00038734707050025463,0.0007686815224587917,-0.0008163535967469215
1761384874047880000,1.4248798828125,0.0000639668432995677,0.0010664211586117744,-0.0003642630763351917
1761384874057949000,1.434948974609375,-0.00011659541632980108,0.00038118939846754074,-0.0017293994314968586
1761384874068017700,1.445017578125,0.0008371820440515876,-0.00019918661564588547,-0.0015987891238182783
1761384874078087000,1.4550869140625,-0.00158869125880301,0.0015651574358344078,-0.000713287852704525
1761384874088155600,1.46515576171875,-0.001771400566212833,-0.001739327795803547,-0.0012270079459995031
1761384874098225000,1.475224853515625,-0.0010760490549728274,-0.0013662194833159447,0.0010539893992245197
1761384874108294000,1.4852939453125,-0.0019503642106428742,-0.0016033193096518517,-0.0005321372300386429
1761384874118363000,1.49536279296875,-0.0030316077172756195,0.00011788122355937958,0.000058551784604787827
1761384874128431900,1.505431884765625,-0.0002593930112197995,-0.00019082427024841309,-0.000029596500098705292
1761384874138500900,1.5155009765625,0.0010104021057486534,-0.0008800504729151726,-0.0016810228116810322
1761384874148569900,1.52556982421875,0.0020212240051478148,0.0021956395357847214,0.0014260257594287395
1761384874158638600,1.535638671875,-0.0032579603139311075,0.001462737563997507,-0.00017027277499437332
1761384874168707800,1.545707763671875,0.001130253542214632,-0.001318393275141716,-0.002171596745029092
1761384874178776800,1.55577685546875,0.0014381150249391794,-0.00026298221200704575,-0.000794742489233613
1761384874188845800,1.565845703125,0.0002747563412413001,-0.0014594793319702148,0.0017568739131093025
1761384874198914800,1.575914794921875,0.0006483977776952088,0.000672114547342062,-0.002276217332109809
1761384874208983800,1.58598388671875,0.0006473445100709796,-0.0014274436980485916,0.0003872867673635483
1761384874219052800,1.596052734375,-0.00008848682045936584,0.0012410436756908894,-0.001644704956561327
1761384874229122000,1.6061220703125,0.0009996327571570873,0.0005182167515158653,0.0012312456965446472
1761384874239189800,1.616189697265625,0.0006467638304457068,-0.001969175413250923,-0.0003970111720263958
1761384874249258800,1.6262587890625,-0.0020456467755138874,0.001660877838730812,0.000010981224477291107
1761384874259328000,1.636327880859375,0.0009583989158272743,-0.0017708716914057732,-0.0001927507109940052
1761384874269396700,1.646396728515625,0.0006916191196069121,-0.0015436606481671333,-0.002950518624857068
1761384874279466000,1.656466064453125,0.001723594032227993,0.002953086979687214,0.0007773740217089653
1761384874289534700,1.66653466796875,-0.0005767429247498512,-0.000988195650279522,-0.00015182560309767723
1761384874299604000,1.67660400390625,-0.000008956994861364365,0.0006019771099090576,-0.0018591780681163073
1761384874309673000,1.6866728515625,0.002032217103987932,-0.0001834724098443985,-0.0026978563982993364
1761384874319741700,1.69674169921875,-0.00016968441195786,0.000822137575596571,0.00042523257434368134
1761384874329811000,1.70681103515625,-0.0007545206462964416,-0.001727876253426075,-0.00021303724497556686
1761384874339879700,1.716879638671875,-0.0001260146964341402,-0.0010194750502705574,-0.001057791756466031
1761384874349949000,1.726948974609375,0.0003406944451853633,-0.0006314236670732498,0.002375971060246229
1761384874360017700,1.737017578125,0.001574270660057664,-0.00008307863026857376,-0.0013958641793578863
1761384874370087000,1.7470869140625,0.0001082421513274312,0.0016402280889451504,-0.00009456230327486992
1761384874380156000,1.757156005859375,0.002939981408417225,-0.0018256092444062233,0.0004665656015276909
1761384874390225000,1.767224853515625,0.00037324277218431234,0.0008923723362386227,-0.00030445540323853493
1761384874400294000,1.7772939453125,-0.000011850264854729176,0.0022572423331439495,-0.0013777092099189758
1761384874410362600,1.787362548828125,0.0015938588185235858,-0.0006924653425812721,-0.0017328569665551186
1761384874420432000,1.797431884765625,0.002778965514153242,0.0025587212294340134,0.0017897062934935093
1761384874430500900,1.8075009765625,-0.002182828728109598,-0.00377587229013443,0.002713180612772703
1761384874440569900,1.81756982421875,-0.0010107714915648103,-0.0006565116345882416,-0.0014687813818454742
1761384874450638800,1.827638916015625,0.0008944639121182263,0.00008800346404314041,-0.00029632728546857834
1761384874460707800,1.837707763671875,0.00012640829663723707,0.00030238833278417587,0.0030536632984876633
1761384874470776800,1.84777685546875,0.001146493130363524,-0.0005347905680537224,0.0014536720700562
1761384874480845800,1.857845703125,0.00013555714394897223,-0.00032253656536340714,-0.0024531851522624493
1761384874490914800,1.867914794921875,-0.0019864006899297237,0.0008520288392901421,-0.0005026450380682945
1761384874500983800,1.87798388671875,-0.0006489611696451902,-0.0012894188985228539,0.0008968459442257881
1761384874511052800,1.888052734375,0.0020147478207945824,0.00045199040323495865,-0.0011938000097870827
1761384874521121800,1.898121826171875,0.00015586137305945158,-0.0005530864000320435,0.0009862636215984821
1761384874531190800,1.908190673828125,-0.0029112170450389385,-0.002081609331071377,0.0020285327918827534
1761384874541259800,1.918259765625,0.0006110797403380275,-0.0002488214522600174,-0.0007579326629638672
1761384874551329000,1.9283291015625,0.0006634833989664912,0.0006649787537753582,-0.0012982883490622044
1761384874561397800,1.938397705078125,0.00047067052219063044,-0.0022559762001037598,-0.002038647187873721
1761384874571467000,1.948467041015625,-0.0009079549927264452,0.0021016597747802734,0.0007732594385743141
1761384874581535700,1.95853564453125,0.0010353535180911422,-0.0002754777669906616,-0.00039826519787311554
1761384874591605000,1.96860498046875,-0.000052790273912250996,0.0011465717107057571,0.0017877016216516495
1761384874601674800,1.9786748046875,0.0005054082721471786,-0.0003956649452447891,-0.0001569385640323162
1761384874611744000,1.988743896484375,0.000763793068472296,0.0011735795997083187,-0.00026256078854203224
1761384874621812700,1.998812744140625,0.001962748123332858,0.0010295026004314423,-0.0024418258108198643
1761384874631881700,2.0088818359375,0.0010009260149672627,0.0013008206151425838,0.0009880037978291512
1761384874641950700,2.01895068359375,0.0008661700994707644,0.0014925678260624409,-0.0011561072897166014
1761384874652019700,2.029019775390625,0.0008503264980390668,-0.0018097134307026863,-0.002983011770993471
1761384874662089000,2.0390888671875,0.001529432600364089,0.0021964795887470245,0.0023675449192523956
1761384874672157700,2.04915771484375,0.002137374598532915,-0.000046125613152980804,0.0011044768616557121
1761384874682227000,2.05922705078125,-0.000785178504884243,0.00006439629942178726,-0.00018955301493406296
1761384874692295700,2.069295654296875,0.0003718837397173047,0.0005590077489614487,-0.0010146850254386663
1761384874702365000,2.079364990234375,0.0010350107913836837,-0.0006964057683944702,-0.002214971696957946
1761384874712433000,2.089432861328125,-0.000365504645742476,-0.0013907337561249733,-0.0027564438059926033
1761384874722501600,2.099501708984375,-0.00004858849570155144,0.002183760516345501,0.0004582577385008335
1761384874732571000,2.10957080078125,0.000716623617336154,-0.0025984514504671097,0.0002918373793363571
1761384874742639900,2.119639892578125,0.0013675001682713628,-0.00008336268365383148,-0.0020581360440701246
1761384874752708900,2.129708984375,0.0005596542614512146,0.0005412660539150238,-0.0015341853722929955
1761384874762777900,2.13977783203125,-0.0007136029889807105,-0.00022812094539403915,0.000048531219363212585
1761384874772846800,2.149846923828125,-0.0002445171121507883,-0.002297172322869301,0.00026186322793364525
1761384874782915800,2.159915771484375,-0.0010394707787781954,-0.0014881044626235962,-0.0019086131360381842
1761384874792984800,2.16998486328125,0.0000201324000954628,-0.0005581220611929893,-0.000197618268430233
1761384874803053800,2.1800537109375,0.00104065565392375,-0.0008550649508833885,0.0008431454189121723
1761384874813122800,2.190122802734375,-0.00039909814950078726,-0.00013641547411680222,0.0006341366097331047
1761384874823191800,2.20019189453125,0.00024778360966593027,0.0000012703239917755127,0.0004213498905301094
1761384874833260800,2.2102607421875,-0.0015660772332921624,-0.0015868181362748146,0.00008973153308033943
1761384874843329800,2.220329833984375,-0.00009547977242618799,0.000840919092297554,-0.00014808867126703262
1761384874853398800,2.230398681640625,-0.0008626120397821069,-0.0012498944997787476,-0.0005032829940319061
1761384874863468000,2.240468017578125,-0.0006186662940308452,-0.001870943233370781,-0.0002761152572929859
1761384874873536800,2.250536865234375,-0.0010327629279345274,0.00023881811648607254,-0.001196015626192093
1761384874883605800,2.260605712890625,0.0006077442667447031,-0.0015082163736224174,-0.0013856326695531607
1761384874893674800,2.2706748046875,-0.0010214545764029026,0.0027497843839228153,0.0012172753922641277
1761384874903743700,2.28074365234375,0.0002707111416384578,-0.001099015586078167,-0.0014754468575119972
1761384874913813000,2.29081298828125,-0.00023456837516278028,0.001364164985716343,0.00010153139010071754
1761384874923881700,2.3008818359375,-0.0003759822575375438,-0.0025181910023093224,0.00011005345731973648
1761384874933951000,2.310950927734375,0.00003646372351795435,0.000835017766803503,0.0003492902033030987
1761384874944019700,2.321019775390625,-0.000868478324264288,0.0007780264131724834,0.0009061573073267937
1761384874954089000,2.3310888671875,-0.0008120808051899076,-0.0024057328701019287,-0.00021363748237490654
1761384874964157700,2.34115771484375,0.0008550580241717398,0.00034398119896650314,0.001273471862077713
1761384874974227000,2.35122705078125,-0.0009568285895511508,0.0009730104357004166,0.0002570170909166336
1761384874984296000,2.3612958984375,0.0019870297983288765,-0.0014230357483029366,0.0007321247830986977
1761384874994364700,2.37136474609375,0.00024198973551392555,-0.0012002484872937202,-0.00009434716776013374
1761384875004434000,2.381433837890625,-0.0007076933979988098,-0.0006297994405031204,0.0009703845717012882
1761384875014502700,2.391502685546875,-0.0007487945258617401,0.000990043394267559,0.00024392642080783844
1761384875024572000,2.401572021484375,0.0004845154471695423,-0.0005705691874027252,-0.0013696830719709396
1761384875034641000,2.411640869140625,0.0004377466393634677,-0.0003275889903306961,-0.0005595446564257145
1761384875044710000,2.4217099609375,0.0019605420529842377,0.0014039985835552216,-0.0021625009831041098
1761384875054779000,2.43177880859375,-0.0005827185232192278,0.00009113643318414688,-0.000348429661244154
1761384875064848000,2.441847900390625,-0.00012305693235248327,0.001008594874292612,0.002121652476489544
1761384875074916900,2.451916748046875,-0.001749039744026959,-0.0005834866315126419,0.0012030326761305332
1761384875084985900,2.46198583984375,-0.0011082832934334874,0.000684443861246109,0.00019848812371492386
1761384875095054800,2.472054931640625,0.0008526503224857152,-0.0019830074161291122,-0.0009234526660293341
1761384875105123800,2.482123779296875,-0.0007042336510494351,-0.00010121800005435944,-0.0009844389278441668
1761384875115192800,2.49219287109375,-0.0010903977090492845,0.00005315709859132767,0.003272172063589096
1761384875125261800,2.50226171875,-0.00045842956751585007,-0.00267205573618412,-0.0006282934918999672
1761384875135330800,2.512330810546875,-0.00045482232235372066,0.001995351631194353,0.002079777419567108
1761384875145399800,2.52239990234375,-0.0008500354597344995,0.0012973370030522346,0.0005961302667856216
1761384875155469000,2.532468994140625,-0.0018853246001526713,-0.0011829249560832977,0.0005819653160870075
1761384875165537800,2.542537841796875,0.0003823571605607867,0.0014328318648040295,0.0016174023039638996
1761384875175606800,2.552606689453125,-0.002113931579515338,0.00043122097849845886,0.0015067793428897858
1761384875185675800,2.56267578125,0.0000576098682358861,0.00043414998799562454,-0.0019268342293798923
1761384875195744800,2.572744873046875,-0.0003673791652545333,-0.0017287833616137505,0.0034837904386222363
1761384875205813800,2.582813720703125,0.0004518091445788741,-0.00032263435423374176,-0.001745325978845358
1761384875215882800,2.5928828125,-0.00030544388573616743,0.00027569662779569626,0.0008913688361644745
1761384875225952000,2.602951904296875,-0.00036643026396632195,-0.001525132916867733,-0.0015699244104325771
1761384875236020000,2.61302001953125,0.001944617135450244,0.002457413822412491,-0.0008816265035420656
1761384875246088700,2.623088623046875,0.00023779715411365032,0.0013854913413524628,-0.0011093267239630222
1761384875256158000,2.633157958984375,-0.0011067816521972418,-0.001219271682202816,0.0008961227722465992
1761384875266226700,2.643226806640625,-0.0011794858146458864,0.002601033076643944,0.0016660429537296295
1761384875276296000,2.6532958984375,-0.0014253646368160844,-0.001094125211238861,0.0009247628040611744
1761384875286364700,2.66336474609375,0.0018402034183964133,-0.00009544007480144501,0.00020437734201550484
1761384875296434000,2.673433837890625,0.0010538464412093163,-0.0009078430011868477,-0.00009672949090600014
1761384875306503000,2.6835029296875,-0.0018002631841227412,0.000991523265838623,-0.001360399415716529
1761384875316572000,2.693572021484375,0.0007239985861815512,-0.0009215101599693298,0.00004324736073613167
1761384875326641000,2.703640869140625,-0.0019764467142522335,0.00015786942094564438,0.0009431298822164536
1761384875336709600,2.713709716796875,-0.0002835735213011503,-0.00026810355484485626,0.004715287126600742
1761384875346779000,2.72377880859375,0.00012175960000604391,0.0006608068943023682,-0.001073092920705676
1761384875356847900,2.733847900390625,-0.001113656209781766,0.0005853800103068352,0.0020349007099866867
1761384875366916900,2.743916748046875,-0.0005993999075144529,0.0008508977480232716,0.002237034495919943
1761384875376985900,2.75398583984375,-0.003193675074726343,-0.0016836021095514297,0.0006742915138602257
1761384875387054800,2.764054931640625,-0.002229877281934023,0.0009726351127028465,0.000856984406709671
1761384875397123800,2.774123779296875,-0.0012031709775328636,-0.0012481417506933212,0.0017730165272951126
1761384875407192800,2.78419287109375,-0.0009935800917446613,0.001265082973986864,-0.0011916141957044601
1761384875417261800,2.79426171875,-0.0018208840629085898,-0.002289636991918087,0.001037494745105505
1761384875427330800,2.804330810546875,0.00037995236925780773,0.0014947154559195042,0.0004968731664121151
1761384875437399800,2.81439990234375,-0.0007215389050543308,0.0000688871368765831,0.0009431168437004089
1761384875447468800,2.82446875,-0.0005170080112293363,0.00027075503021478653,-0.00024518556892871857
1761384875457537800,2.834537841796875,0.00004752085078507662,0.0018591894768178463,0.002293775323778391
1761384875467606800,2.844606689453125,0.0014648552751168609,-0.004741988144814968,-0.0018849906045943499
1761384875477676000,2.854676025390625,0.0009014111128635705,0.000259927473962307,0.00033320672810077667
1761384875487744800,2.864744873046875,-0.004404671024531126,0.000015715137124061584,-0.0003906404599547386
1761384875497814000,2.87481396484375,-0.004060637205839157,-0.002371075563132763,-0.003791353665292263
1761384875507882800,2.8848828125,0.00036740093491971493,-0.0011292435228824615,0.0022462988272309303
1761384875517951700,2.89495166015625,0.0013446495868265629,0.00023304391652345657,0.00010320823639631271
1761384875528020700,2.905020751953125,0.0005374454194679856,0.0022115064784884453,0.0018752757459878922
1761384875538089700,2.91508984375,-0.0020922357216477394,-0.001923631876707077,0.0003468794748187065
1761384875548159000,2.925158935546875,-0.0021582820918411016,-0.0005398532375693321,-0.00011890707537531853
1761384875558227700,2.935227783203125,-0.00009849411435425282,-0.00022406410425901413,-0.00012210756540298462
1761384875568297000,2.945296875,-0.00003084982745349407,-0.0010070335119962692,0.0010683252476155758
1761384875578365700,2.95536572265625,-0.001847139559686184,0.0006783856078982353,0.003349272534251213
1761384875588435000,2.96543505859375,0.0018967323703691363,-0.0013496121391654015,-0.0008111177012324333
1761384875598504000,2.97550390625,-0.0015148340025916696,-0.0015885736793279648,-0.0011361001525074244
1761384875608572200,2.985572265625,0.0012862787116318941,-0.0015558172017335892,-0.0011725854128599167
1761384875618641400,2.995641357421875,0.0005603987374342978,-0.0018069380894303322,0.00013203034177422523
1761384875628710100,3.005710205078125,0.0028794794343411922,0.0006314516067504883,-0.0016011546831578016
1761384875638779400,3.015779296875,-0.00011760334018617868,0.0007550274021923542,0.0010174699127674103
1761384875648848400,3.025848388671875,0.00035910250153392553,-0.001583494246006012,0.0007969602011144161
1761384875658917000,3.035917236328125,-0.00038607779424637556,0.0010291594080626965,0.0014691748656332493
1761384875668986400,3.045986328125,0.00032738305162638426,-1.51805579662323e-7,-0.0005670783575624228
1761384875679055000,3.05605517578125,0.0011449158191680908,0.0010569216683506966,0.0007737190462648869
1761384875689124400,3.066124267578125,-0.0008231601677834988,-0.0007553594186902046,0.00000885920599102974
1761384875699193300,3.076193359375,0.000591407879255712,0.000020031817257404327,0.00019812444224953651
1761384875709262300,3.086262451171875,-0.0016115590697154403,-0.002303043380379677,-0.0032567945308983326
1761384875719331300,3.096331298828125,0.0012761944672092795,0.000409930944442749,0.00008210306987166405
1761384875729400300,3.106400390625,0.0002700522309169173,0.0005532093346118927,-0.002476662164554
1761384875739469300,3.11646923828125,0.0006477923598140478,0.000019189901649951935,-0.0001430152915418148
1761384875749537300,3.126537353515625,0.000049646361730992794,-0.0014631254598498344,0.002084719017148018
1761384875759606300,3.136606201171875,-0.0020419186912477016,0.0033506210893392563,0.0016047880053520203
1761384875769676300,3.14667626953125,0.001188229420222342,-0.001736283302307129,0.0005608284845948219
1761384875779744500,3.15674462890625,-0.000727263861335814,0.002444105688482523,0.0010189698077738285
1761384875789813200,3.166813232421875,0.0004453259753063321,0.00006110966205596924,-0.00020981300622224808
1761384875799882200,3.17688232421875,-0.00037572940345853567,-0.001286020502448082,-0.0017805274110287428
1761384875809951200,3.186951171875,0.0029124757274985313,0.0004836497828364372,0.00014653615653514862
1761384875820020200,3.197020263671875,0.0008319616899825633,-0.0008536502718925476,0.001979532651603222
1761384875830089200,3.207089111328125,0.00043488433584570885,0.0020819525234401226,0.0017401142977178097
1761384875840158200,3.217158203125,0.0008636506390757859,-0.0004646172747015953,-0.0027552710380405188
1761384875850227500,3.2272275390625,0.0006766967126168311,-0.00004623550921678543,-0.000447908416390419
1761384875860296200,3.237296142578125,0.0016969393473118544,0.0005911793559789658,-0.001521540805697441
1761384875870365400,3.247365478515625,-0.00021521025337278843,-0.001500999554991722,0.0014505470171570778
1761384875880434200,3.25743408203125,0.0010803646873682737,-0.001198471523821354,0.0011469293385744095
1761384875890503400,3.26750341796875,0.0001565141137689352,-0.0010727699846029282,-0.002499204594641924
1761384875900572400,3.277572509765625,0.0007628249004483223,0.0014005876146256924,0.002726007252931595
1761384875910641200,3.28764111328125,0.0008951839990913868,0.0008794069290161133,-0.001382984220981598
1761384875920710400,3.29771044921875,0.00031001807656139135,-0.0016725994646549225,0.0002264208160340786
1761384875930779100,3.307779052734375,0.001472487929277122,0.0024041677825152874,0.0007161758840084076
1761384875940848400,3.317848388671875,0.0003973304992541671,0.0008488651365041733,0.0020903628319501877
1761384875950917000,3.327917236328125,0.0029422473162412643,0.0036720819771289825,-0.00033444538712501526
1761384875960986400,3.337986328125,-0.0009456753032281995,-0.0008554020896553993,-0.00009224005043506622
1761384875971055400,3.348055419921875,0.0005539507255889475,0.000013054348528385162,0.0010846108198165894
1761384875981124400,3.358124267578125,-0.0012400074629113078,-0.00025822781026363373,0.0001903558149933815
1761384875991193300,3.368193359375,-0.0005465202266350389,0.00035270117223262787,-0.0006003365851938725
1761384876001262000,3.378261962890625,-0.0031864135526120663,0.0010965904220938683,-0.00026706326752901077
1761384876011331300,3.388331298828125,-0.0005418946966528893,0.0000829910859465599,0.0013241753913462162
1761384876021400300,3.398400390625,0.0019051217241212726,-0.00014412403106689453,0.0009507075883448124
1761384876031469300,3.40846923828125,0.0019970007706433535,0.0011586942709982395,0.0011488469317555428
1761384876041538300,3.418538330078125,-0.00010063196532428265,0.0014732545241713524,-0.0002749846316874027
1761384876051607300,3.428607177734375,-0.0021629841066896915,0.00011317804455757141,-0.0004283827729523182
1761384876061676300,3.43867626953125,0.0003203356172889471,-0.0024433480575680733,-0.0012250386644154787
1761384876071745300,3.448745361328125,0.0011453828774392605,0.001308780163526535,0.0017696861177682877
1761384876081814300,3.458814208984375,-0.00006492785178124905,-0.0023643309250473976,0.002548803575336933
1761384876091883300,3.46888330078125,0.0006511961692012846,-0.0016226405277848244,-0.0009793522767722607
1761384876101952300,3.4789521484375,0.0005765136447735131,0.0006645605899393559,0.0010770009830594063
1761384876112021200,3.489021240234375,0.0003978156019002199,-0.0014702295884490013,0.001111621968448162
1761384876122090200,3.49909033203125,-0.001118356129154563,0.00041023921221494675,0.00028850091621279716
1761384876132159200,3.5091591796875,0.000300576095469296,0.00037881359457969666,0.0005257884040474892
1761384876142228500,3.519228515625,0.0008447216241620481,0.0013692309148609638,0.0017578843981027603
1761384876152297200,3.529297119140625,-0.00038912089075893164,-0.0007977830246090889,0.0017871791496872902
1761384876162366500,3.539366455078125,-0.00039526703767478466,-0.0010650623589754105,0.0006233891472220421
1761384876172435200,3.549435302734375,0.0009317861404269934,-0.0010719867423176765,-0.003639799077063799
1761384876182504200,3.559504150390625,-0.000757671776227653,-0.0013840096071362495,0.0014063217677175999
1761384876192573200,3.5695732421875,0.0003358221147209406,0.0013723624870181084,0.0007160305976867676
1761384876202642200,3.57964208984375,0.0015389283653348684,0.0000751446932554245,-0.0003806520253419876
1761384876212711400,3.58971142578125,-0.00042781606316566467,0.0003121662884950638,0.00010484224185347557
1761384876222780200,3.5997802734375,0.00009554100688546896,-0.0000380268320441246,-0.00033483700826764107
1761384876232849400,3.609849365234375,-0.0010866362135857344,-0.0019190171733498573,-0.0028983959928154945
1761384876242918100,3.619918212890625,0.00007546867709606886,0.002425640821456909,0.0016131908632814884
1761384876252987400,3.6299873046875,-0.0001309263752773404,0.0019553261809051037,-0.0005964336451143026
1761384876263056400,3.640056396484375,-0.00024254550226032734,-0.0023590726777911186,-0.003288062522187829
1761384876273124000,3.6501240234375,-0.0020673435647040606,0.002575764898210764,-0.0017958933021873236
1761384876283193300,3.660193359375,0.0018366894219070673,-0.00014834478497505188,0.0008170939981937408
1761384876293262300,3.670262451171875,-0.001962309703230858,-0.00033316854387521744,-0.0001882491633296013
1761384876303331300,3.680331298828125,-0.0019005443900823593,-0.00012465380132198334,0.0014705867506563663
1761384876313400300,3.690400390625,-0.00015510863158851862,0.0005264887586236,-0.0006892369128763676
1761384876323469300,3.70046923828125,-0.00023782788775861263,0.0016576498746871948,0.0013027354143559933
1761384876333538300,3.710538330078125,0.0003595190355554223,-0.0002172151580452919,0.0019040768966078758
1761384876343607300,3.720607177734375,0.0009495673584751785,0.0012291907332837582,0.001393388956785202
1761384876353676300,3.73067626953125,-0.0009300918318331242,-0.0008406182751059532,-0.002926258370280266
1761384876363745300,3.740745361328125,-0.0007634640205651522,-0.00013052579015493393,0.0011279638856649399
1761384876373814300,3.750814208984375,-0.0016542915254831314,-0.0009888624772429466,0.0010552597232162952
1761384876383883300,3.76088330078125,-0.000992538291029632,-0.00011633336544036865,0.0015473654493689537
1761384876393952300,3.7709521484375,-0.0007890729466453195,0.002894902601838112,0.0000352226197719574
1761384876404021200,3.781021240234375,-0.0006553559796884656,-0.0009382674470543861,-0.001238273223862052
1761384876414090500,3.791090576171875,0.00006103434134274721,0.0012449920177459717,-0.001972772879526019
1761384876424159200,3.8011591796875,-0.00129369564820081,0.0004117721691727638,-0.00010739592835307121
1761384876434228200,3.811228271484375,-0.0007650580955669284,-0.001062554307281971,-0.0022808017674833536
1761384876444297200,3.821297119140625,0.000634042895399034,-0.00030946265906095505,-0.00031334441155195236
1761384876454366200,3.8313662109375,0.0004558774526230991,0.0005941484123468399,-0.0009905865881592035
1761384876464435500,3.841435546875,0.0003544129431247711,0.002825961448252201,0.0017339899204671383
1761384876474504200,3.851504150390625,-0.00003147916868329048,-0.00010830909013748169,-0.00024100998416543007
1761384876484573400,3.861573486328125,-0.0004603855777531862,0.001971969846636057,0.001279698684811592
1761384876494642200,3.87164208984375,0.0005944925360381603,0.001723497174680233,-0.0013309982605278492
1761384876504711400,3.88171142578125,0.00088731903815642,-0.0017472757026553154,0.0009227828122675419
1761384876514780200,3.8917802734375,0.00033524574246257544,0.0005188081413507462,-0.00038216589018702507
1761384876524849200,3.90184912109375,-0.0008661682950332761,0.0010562250390648842,0.00003343867138028145
1761384876534918400,3.91191845703125,-0.0008757555624470115,0.000388304702937603,-0.0010555277112871408
1761384876544987100,3.921987060546875,0.0002683389466255903,0.0010413150303065777,-0.00002899719402194023
1761384876555056400,3.932056396484375,-0.0009306161664426327,-0.0007707001641392708,0.001846933737397194
1761384876565125000,3.942125,0.0007270146743394434,0.0019995663315057755,0.0004907608963549137
1761384876575194400,3.9521943359375,0.0006838715053163469,0.000005125068128108978,0.0014353841543197632
1761384876585263400,3.962263427734375,-0.002937807235866785,0.0012639611959457397,-0.00041817547753453255
1761384876595332400,3.972332275390625,-0.0004663935396820307,0.0012509115040302277,-0.0009135233704000711
1761384876605400600,3.982400634765625,0.0007336299167945981,-0.0006906744092702866,-0.0003177751787006855
1761384876615469600,3.992469482421875,-0.0010205941507592797,0.0001389002427458763,-0.0012568056117743254
1761384876625538600,4.00253857421875,-0.002860626205801964,0.0003065476194024086,0.0015071057714521885
1761384876635607800,4.01260791015625,-0.0006033307872712612,0.0013933833688497543,-0.0013579230289906263
1761384876645676500,4.022676513671875,-0.00305145513266325,-0.0009982651099562645,0.001353482250124216
1761384876655745800,4.032745849609375,-0.006162560079246759,-0.00009438861161470413,0.0019412422552704811
1761384876665814500,4.042814453125,-0.0017951446352526546,0.0008564046584069729,0.0013151541352272034
1761384876675883800,4.0528837890625,-0.003264144528657198,0.00044494587928056717,0.002455253154039383
1761384876685952800,4.062952880859375,-0.0014182773884385824,0.0001208186149597168,-0.0003490201197564602
1761384876696021500,4.073021484375,-0.0014105543959885836,0.0010763606987893581,-0.0012528970837593079
1761384876706090800,4.0830908203125,0.0014476825017482042,-0.001132129691541195,0.00039202719926834106
1761384876716159500,4.093159423828125,-0.0008311844430863857,-0.0001230575144290924,-0.001089755678549409
1761384876726228700,4.103228759765625,-0.00020582671277225018,-0.0017524687573313713,-0.0015975621063262224
1761384876736297700,4.113297607421875,-0.002582165412604809,0.0009780698455870152,-0.0014012870378792286
1761384876746365400,4.123365478515625,0.00017911801114678383,-0.0031506894156336784,-0.0012779408134520054
1761384876756434700,4.1334345703125,-0.0023442271631211042,-0.0024031400680541992,0.0019854968413710594
1761384876766503700,4.143503662109375,0.00034888042137026787,-0.0015601450577378273,0.0016210619360208511
1761384876776572700,4.15357275390625,0.00025487085804343224,-0.0006743771955370903,-0.0008141326252371073
1761384876786641700,4.1636416015625,0.00012398557737469673,-0.0016362089663743973,0.00121664023026824
1761384876796710700,4.173710693359375,0.00004648766480386257,0.002114054746925831,-0.00001933285966515541
1761384876806779600,4.183779541015625,-0.00028641324024647474,0.0013876128941774368,0.0011631916277110577
1761384876816848600,4.1938486328125,-0.000664582010358572,-0.0003112172707915306,-0.002709044609218836
1761384876826917600,4.203917724609375,-0.0003616411704570055,-0.0008468488231301308,0.0013282005675137043
1761384876836987000,4.21398681640625,-0.0014631245285272598,-0.0018380768597126007,0.00012658210471272469
1761384876847055600,4.2240556640625,-0.00036856194492429495,0.0009096851572394371,0.000934995710849762
1761384876857124600,4.23412451171875,0.0012639558408409357,0.00021859537810087204,-0.0002903249114751816
1761384876867193600,4.244193603515625,0.00009870098438113928,0.001082682516425848,0.0010726959444582462
1761384876877262600,4.2542626953125,-0.0007537767523899674,-0.0011080335825681686,0.0007403334602713585
1761384876887331800,4.264331787109375,-0.0005967303877696395,-0.00013851560652256012,0.0013502552174031734
1761384876897400600,4.274400634765625,-0.00206280080601573,-0.0009718183428049088,0.0014117741957306862
1761384876907469800,4.2844697265625,0.0008840864174999297,0.00033607520163059235,0.0002668234519660473
1761384876917538600,4.29453857421875,0.001881706528365612,0.0009707063436508179,0.00029984675347805023
1761384876927607800,4.30460791015625,-0.0011866249842569232,-0.001452770084142685,0.0013175150379538536
1761384876937676500,4.314676513671875,-0.0013919546036049724,0.0013123899698257446,-0.00152434385381639
1761384876947745500,4.32474560546875,0.0011512640630826354,-0.0036628292873501778,0.0011704415082931519
1761384876957814800,4.334814697265625,-0.000593106378801167,0.0013495064340531826,0.0018716519698500633
1761384876967883500,4.344883544921875,0.0016492484137415886,-0.0010132109746336937,0.0020453892648220062
1761384876977952800,4.354952880859375,0.0001485571265220642,-0.0008041532710194588,0.0003140685148537159
1761384876988021500,4.365021484375,0.002366582164540887,0.00133427232503891,0.0034383698366582394
1761384876998090800,4.3750908203125,0.0008147582411766052,-0.0012165037915110588,-0.0005963190924376249
1761384877008159700,4.38515966796875,0.0005242765182629228,0.0002001691609621048,0.000021183397620916367
1761384877018228700,4.395228759765625,-0.000816625077277422,-0.0007878635078668594,0.00025128060951828957
1761384877028297700,4.405297607421875,0.0017230460653081536,0.0003524506464600563,0.0003955960273742676
1761384877038366500,4.415366455078125,0.0005651036044582725,-0.0001322440803050995,0.004079813603311777
1761384877048435700,4.425435791015625,-0.002206869889050722,-0.0007093939930200577,0.000824575312435627
1761384877058504700,4.435504638671875,0.0007529672584496439,0.00007117819041013718,-0.0011727954261004925
1761384877068573700,4.44557373046875,-0.0006345686269924045,-0.0003375643864274025,0.0008026016876101494
1761384877078642700,4.455642578125,0.0009830354247242212,0.0003242315724492073,-0.0010038206819444895
1761384877088711700,4.465711669921875,-0.000513674458488822,-0.0008588610216975212,0.0004838281311094761
1761384877098780700,4.47578076171875,-0.0003349763574078679,0.00037684570997953415,0.0012968913652002811
1761384877108849700,4.485849609375,0.0004574538907036185,0.0005159592255949974,-0.0009955931454896927
1761384877118918700,4.495918701171875,-0.00005733512807637453,-0.0015056468546390533,-0.0008395318873226643
1761384877128987600,4.505987548828125,-0.0010268682381138206,0.0010173250921070576,-0.0004739733412861824
1761384877139056600,4.516056640625,0.0025516212917864323,0.0010495493188500404,-0.0007834327407181263
1761384877149125600,4.526125732421875,0.0009006672189570963,0.0012258547358214855,-0.0027124984189867973
1761384877159194600,4.536194580078125,-0.0017395906616002321,0.0016178716905415058,0.0010436237789690495
1761384877169263600,4.546263671875,0.0003197292098775506,-0.0018547410145401955,-0.001351907616481185
1761384877179332600,4.55633251953125,-0.00042062962893396616,0.0008781948126852512,0.0015517370775341988
1761384877189401600,4.566401611328125,-0.0003186408430337906,-0.0016774004325270653,0.0005310038104653358
1761384877199469600,4.576469482421875,-0.0000805542804300785,-0.0002590008080005646,-0.0014442629180848598
1761384877209538800,4.586538818359375,0.0029249496292322874,0.0002567991614341736,-0.0011303119827061892
1761384877219607600,4.596607666015625,-0.00012117403093725443,-0.0010060714557766914,0.001134706661105156
1761384877229676800,4.6066767578125,-0.0009254880715161562,0.00046460237354040146,0.00003246963024139404
1761384877239745500,4.61674560546875,-0.0004344009794294834,0.0014390526339411736,-0.0003872443921864033
1761384877249814800,4.626814697265625,0.0024772081524133682,0.00007856357842683792,0.0009408509358763695
1761384877259883500,4.636883544921875,0.0018532294780015945,-0.0008391616865992546,-0.000003239605575799942
1761384877269952800,4.646952880859375,0.001389883691444993,-0.0002750670537352562,-0.001189605100080371
1761384877280021800,4.657021728515625,-0.0005339838098734617,0.001080215908586979,0.0004636854864656925
1761384877290090500,4.667090576171875,-0.0004894441226497293,0.00015209149569272995,0.0021820939145982265
1761384877300159700,4.67715966796875,-0.0009483069879934192,-0.00018799398094415665,0.003742706496268511
1761384877310228500,4.687228515625,-0.0028390211518853903,0.00013599451631307602,0.0007852213457226753
1761384877320297700,4.697297607421875,-0.0003859833814203739,0.001162110362201929,0.0015761801041662693
1761384877330366700,4.70736669921875,0.0004232102073729038,-0.0011239983141422272,-0.00064250105060637
1761384877340435700,4.717435791015625,0.0008029769524000585,0.00016443897038698196,0.0005572531372308731
1761384877350504700,4.727504638671875,-0.0015367416199296713,-0.0011388929560780525,-0.0003121304325759411
1761384877360573700,4.73757373046875,-0.0000469692749902606,-0.000184682197868824,0.0000979965552687645
1761384877370642700,4.747642578125,0.00007938395719975233,0.00003190618008375168,-0.0002846773713827133
1761384877380711700,4.757711669921875,-0.00007428042590618134,-0.00172364991158247,0.00013370532542467117
1761384877390780700,4.76778076171875,0.002344138454645872,-0.00020598061382770538,-0.001015735324472189
1761384877400849700,4.777849609375,0.0005888489540666342,0.0003245212137699127,-0.0014687390066683292
1761384877410918700,4.787918701171875,-0.0016403035260736942,0.000966459047049284,-0.000007117167115211487
1761384877420987600,4.797987548828125,0.0004974157782271504,-0.00003169383853673935,-0.00009393645450472832
1761384877431056600,4.808056640625,-0.00008402066305279732,0.0014987122267484665,-0.0009433180093765259
1761384877441125600,4.818125732421875,0.000940497440751642,-0.0006264904513955116,-0.0010897917672991753
1761384877451195000,4.82819482421875,-0.00030537100974470377,0.0005098134279251099,-0.0023722732439637184
1761384877461263600,4.838263671875,0.0009873273083940148,-0.0007107127457857132,0.000049072783440351486
1761384877471332600,4.84833251953125,-0.001973110716789961,0.0001370944082736969,-0.000564314890652895
1761384877481401600,4.858401611328125,-0.0008993241935968399,0.0009181993082165718,0.0007014856673777103
1761384877491470600,4.868470703125,0.0009231969597749412,0.0008809887804090977,0.0009745224379003048
1761384877501539600,4.87853955078125,-0.00009919051080942154,-0.0023198649287223816,-0.0020702695474028587
1761384877511608600,4.888608642578125,0.00017303531058132648,0.0005298824980854988,-0.0027093079406768084
1761384877521677800,4.898677734375,0.0003416134277358651,0.0012092553079128265,0.002189577091485262
1761384877531746600,4.90874658203125,-0.00000950181856751442,0.000042698346078395844,-0.0024459431879222393
1761384877541815800,4.91881591796875,-0.0010270957136526704,-0.0011037923395633698,0.001527226995676756
1761384877551884500,4.928884521484375,0.00004866463132202625,0.0018867510370910168,0.0041006323881447315
1761384877561953800,4.938953857421875,0.00007929105777293444,-0.0011774823069572449,-0.001560449367389083
1761384877572020700,4.949020751953125,0.0012732830364257097,0.0004136795178055763,0.000514643732458353
1761384877582089700,4.95908984375,0.0009779385291039944,-0.00015969853848218918,-0.0005887036677449942
1761384877592158500,4.969158447265625,0.0010055550374090672,-0.0008217897266149521,0.00010162126272916794
1761384877602227700,4.979227783203125,-0.0003268244909122586,-0.0007498841732740402,-0.00017108628526329994
1761384877612301000,4.989301025390625,-0.0018437373219057918,-0.0006747245788574219,-0.00019917916506528854
1761384877622370000,4.9993701171875,0.0016396773280575871,0.0020299814641475677,-0.0010822834447026253
1761384877632439000,5.00943896484375,-0.0014944057911634445,-0.003275069408118725,-0.0002810731530189514
1761384877642508000,5.019508056640625,-0.0002768085105344653,-0.0013661151751875877,-0.0008083791472017765
1761384877652577000,5.029576904296875,-0.0018598190508782864,0.0006306502036750317,0.0011460110545158386
1761384877662646000,5.03964599609375,-0.000028096954338252544,-0.000531553290784359,-0.0013432453852146864
1761384877672715000,5.049715087890625,-0.00014610588550567627,-0.0006236080080270767,-0.0021680109202861786
1761384877682784000,5.059783935546875,0.0008392637828364968,-0.00016234815120697021,-0.0026841317303478718
1761384877692853000,5.06985302734375,-0.0003957836888730526,0.0012743333354592323,0.0010670255869626999
1761384877702922000,5.079921875,0.00032113934867084026,0.0009986958466470242,0.00025795726105570793
1761384877712991000,5.089990966796875,-0.001737253158353269,-0.00013992376625537872,-0.0020192808005958796
1761384877723060200,5.100060302734375,0.00036744296085089445,0.0005069579929113388,-0.0011550849303603172
1761384877733129000,5.11012890625,0.00003501330502331257,-0.0029175328090786934,0.0008711465634405613
1761384877743198200,5.1201982421875,-0.0012177375610917807,0.0017272857949137688,0.001456509344279766
1761384877753267000,5.130266845703125,0.0008186016348190606,-0.0015142476186156273,-0.0012280186638236046
1761384877763336000,5.1403359375,-0.0002115090610459447,0.0008841948583722115,0.0011957241222262383
1761384877773405200,5.1504052734375,0.0007918772171251476,0.00007680151611566544,-0.00040629319846630096
1761384877783474000,5.160473876953125,-0.00005713850259780884,-0.00008218921720981598,-0.0005937798414379358
1761384877793543200,5.170543212890625,0.0009501164313405752,-0.0013727536424994469,-0.0015592409763485193
1761384877803612000,5.18061181640625,-0.00037640403024852276,-0.0024731718003749847,-0.001537136733531952
1761384877813681200,5.19068115234375,-0.00024991913232952356,-0.0009431866928935051,-0.0014337298925966024
1761384877823750100,5.200750244140625,0.000052882242016494274,0.0011995923705399036,0.0008901441469788551
1761384877833819100,5.210819091796875,-0.0007041605422273278,-0.0014777164906263351,0.00021494459360837936
1761384877843888000,5.22088818359375,-0.0016493165167048573,0.001887985970824957,-0.0009424651507288218
1761384877853956900,5.230956787109375,-0.0005175312981009483,-0.000649438239634037,-0.001367236953228712
1761384877864026000,5.241026123046875,-0.00042085861787199974,-0.0015386678278446198,0.002614721655845642
1761384877874094800,5.2510947265625,-0.0011291829869151115,0.0015952135436236858,0.00013084011152386665
1761384877884164000,5.2611640625,-0.002754243789240718,0.00012301839888095856,-0.0006060565356165171
1761384877894233000,5.271233154296875,0.0011891198810189962,0.000018374063074588776,0.00376999843865633
1761384877904301000,5.281301025390625,-0.0010564575204625726,-0.0033571822568774223,-0.0015587203670293093
1761384877914370000,5.2913701171875,-0.001876899041235447,-0.0001303078606724739,-0.003025904530659318
1761384877924439000,5.30143896484375,-0.0019935453310608864,0.001514460425823927,0.002418395597487688
1761384877934508000,5.311508056640625,0.0004625762812793255,-0.0012352000921964645,0.0009081992320716381
1761384877944577000,5.321576904296875,-0.0019004466012120247,-0.0006485050544142723,0.0015108725056052208
1761384877954646000,5.33164599609375,-0.00025403115432709455,0.00012736674398183823,-0.002396414987742901
1761384877964715000,5.341715087890625,0.0012426653411239386,-0.0007762433961033821,0.00015249662101268768
1761384877974784300,5.3517841796875,-0.000052844756282866,0.003346131183207035,-0.0005064511206001043
1761384877984853000,5.36185302734375,0.0013293358497321606,-0.0007945513352751732,-0.00017009396106004715
1761384877994922000,5.371921875,-0.0005049739265814424,0.0021651508286595345,0.0020617684349417686
1761384878004991000,5.381990966796875,0.0007738759159110487,0.00002769753336906433,0.0010913126170635223
1761384878015060000,5.39206005859375,0.0006362545536831021,-0.0003498159348964691,-0.0015110247768461704
1761384878025129000,5.40212890625,0.00137954275123775,-0.001812424510717392,0.000012303236871957779
1761384878035198000,5.412197998046875,-0.0007399374153465033,-0.0006251726299524307,0.0006176847964525223
1761384878045267200,5.42226708984375,0.00041827140375971794,-0.0008763084188103676,0.0002512340433895588
1761384878055336000,5.4323359375,-0.0005736815510317683,-0.0006807409226894379,0.0006433273665606976
1761384878065405200,5.4424052734375,0.0024564629420638084,0.0021768310107290745,0.00040177861228585243
1761384878075474000,5.452473876953125,0.0009090383537113667,-0.00011480413377285004,0.0019401023164391518
1761384878085543200,5.462543212890625,0.00011967739555984735,0.00009052548557519913,0.0025960388593375683
1761384878095612200,5.472612060546875,0.001872897264547646,-0.0005370024591684341,-0.00031481729820370674
1761384878105681000,5.482680908203125,-0.0011924011632800102,-0.000041387975215911865,-0.0007228134199976921
1761384878115750100,5.492750244140625,0.00024107762146741152,0.0016638189554214478,0.0014842688106000423
1761384878125819000,5.50281884765625,-0.0025461865589022636,-0.0002794899046421051,0.0014150268398225307
1761384878135888100,5.51288818359375,0.002277900232002139,-0.0008063651621341705,0.002101223450154066
1761384878145957000,5.52295703125,0.0014291508123278618,-0.0005842577666044235,0.0007054610177874565
1761384878156026000,5.533026123046875,-0.0005938218673691154,-0.002687091939151287,0.0007676663808524609
1761384878166095000,5.54309521484375,0.0007289703353308141,0.0020133876241743565,0.0005069426260888577
1761384878176164000,5.5531640625,0.000484611839056015,-0.0028943615034222603,0.00021660653874278069
1761384878186233000,5.563233154296875,-0.0009732024045661092,0.0021443390287458897,-0.00007607508450746536
1761384878196301800,5.5733017578125,0.001705219503492117,0.001188566442579031,-0.0007871740963310003
1761384878206372000,5.5833720703125,0.00027616729494184256,-0.0012263879179954529,0.00042163440957665443
1761384878216441000,5.593441162109375,-0.00043497304432094097,0.0009362162090837955,-0.0005386027041822672
1761384878226510000,5.603510009765625,-0.001518080709502101,-0.0012307977303862572,-0.001665386138483882
1761384878236578800,5.613578857421875,0.0003364675212651491,-0.00039325375109910965,0.0006216736510396004
1761384878246648000,5.62364794921875,-0.00039457017555832863,-0.0022830329835414886,0.0008219433948397636
1761384878256717000,5.633717041015625,0.0001698007108643651,0.00010764505714178085,-0.0018250592984259129
1761384878266786000,5.6437861328125,-0.0008845448028296232,0.00044053979218006134,-0.0009552708361297846
1761384878276855000,5.65385498046875,-0.0006156645249575377,-0.00029541924595832825,-0.0004252535291016102
1761384878286924000,5.663924072265625,0.002272533718496561,0.0009610606357455254,0.001371581107378006
1761384878296993000,5.673992919921875,0.0013340283185243607,-0.0012521538883447647,0.000043155625462532043
1761384878307062300,5.684062255859375,-0.0015187498647719622,0.00012070499360561371,-0.0020104076247662306
1761384878317131000,5.694131103515625,-0.002102375729009509,0.0007259943522512913,0.0033336011692881584
1761384878327200000,5.704199951171875,0.00071871088584885,-0.0012892195954918861,-0.0002448880113661289
1761384878337269000,5.71426904296875,0.0003498063888400793,0.001876958180218935,-0.0026300286408513784
1761384878347338000,5.724337890625,-0.0004017377505078912,0.0000247294083237648,-0.00045262835919857025
1761384878357407000,5.734406982421875,0.0001898147165775299,-0.001154087483882904,-0.0016897814348340034
1761384878367476000,5.74447607421875,0.00019993470050394535,-0.00039055943489074707,-0.0018490382935851812
1761384878377545200,5.754545166015625,-0.0008527878671884537,-0.00044381245970726013,-0.00038822321221232414
1761384878387613200,5.76461328125,-0.0008346782997250557,0.0009697936475276947,-0.0019246006850153208
1761384878397682000,5.774681884765625,0.001804992789402604,0.000249277800321579,0.001938795205205679
1761384878407751200,5.784751220703125,-0.0010379317682236433,0.001655693631619215,-0.0015661909710615873
1761384878417820000,5.79481982421875,-0.001273574074730277,0.0007211877964437008,0.00026471400633454323
1761384878427889200,5.80488916015625,-0.0009244335815310478,0.0007225191220641136,0.00023009302094578743
1761384878437958000,5.8149580078125,0.00032001733779907227,-0.0005249204114079475,-0.0016153000760823488
1761384878448027100,5.825027099609375,0.0007272146758623421,-0.0021393289789557457,-0.0021647100802510977
1761384878458096000,5.83509619140625,0.00018948654178529978,0.0006718914955854416,0.0018505104817450047
1761384878468165000,5.8451650390625,-0.00006537791341543198,0.000276678241789341,-0.0005276924930512905
1761384878478234000,5.855234130859375,0.0000010624062269926071,-0.002550918608903885,-0.0008158371783792973
1761384878488302800,5.865302734375,0.0017848477000370622,0.00040412507951259613,0.001240655779838562
1761384878498372000,5.8753720703125,0.0030415572691708803,-0.0025184266269207,-0.000043233856558799744
1761384878508441000,5.885441162109375,0.0003568246029317379,0.00013141799718141556,0.0005248184315860271
1761384878518510000,5.895510009765625,-0.0020308641251176596,-0.0015316503122448921,0.0017672786489129066
1761384878528579000,5.9055791015625,0.0009353646892122924,0.0006332332268357277,0.001940916758030653
1761384878538648000,5.91564794921875,-0.00014577037654817104,0.0008825832046568394,-0.0000816253013908863
1761384878548717000,5.925717041015625,0.0005069703329354525,-0.0017864368855953217,-0.0010731201618909836
1761384878558786000,5.9357861328125,0.0010890043340623379,-0.00004276353865861893,-0.0005785808898508549
1761384878568855000,5.94585498046875,-0.00029397523030638695,-0.0007746005430817604,0.0009772377088665962
1761384878578924000,5.955924072265625,0.000686142360791564,0.0006129802204668522,-0.0020720676984637976
1761384878588993000,5.965992919921875,-0.0004984316183254123,0.0019355062395334244,0.0015002964064478874
1761384878599062000,5.97606201171875,0.0007983396062627435,-0.0014789355918765068,-0.0005212726537138224
1761384878609127000,5.986126953125,0.0009384218719787896,0.000649196095764637,0.0010422691702842712
1761384878619195600,5.996195556640625,0.0003191379364579916,-0.0012785578146576881,-0.0023045905400067568
1761384878629265000,6.006264892578125,-0.00011176150292158127,0.0012751477770507336,0.0023104012943804264
1761384878639333600,6.016333740234375,0.00018227542750537395,0.003265043254941702,0.0046055433340370655
1761384878649403000,6.02640283203125,-0.0009114849381148815,-0.0005736369639635086,0.0019599590450525284
1761384878659472000,6.036471923828125,-0.0008727633394300938,0.0010427990928292274,0.0010237349197268486
1761384878669540900,6.046540771484375,0.0002809179713949561,-0.0011636298149824142,-0.0008540600538253784
1761384878679609900,6.05660986328125,-0.001301587326452136,0.0034533049911260605,0.0023946911096572876
1761384878689678800,6.066678955078125,-0.0006120947655290365,-0.0016429200768470764,0.0024077403359115124
1761384878699747800,6.076747802734375,0.0003052597166970372,0.001117488369345665,-0.0005841266829520464
1761384878709816600,6.086816650390625,-0.0005972855724394321,0.0010096300393342972,0.002578909508883953
1761384878719885800,6.0968857421875,-0.0012770198518410325,-0.0020605335012078285,0.0011250232346355915
1761384878729954800,6.106954833984375,-0.0007843350758776069,0.0011432487517595291,0.0024550058878958225
1761384878740023800,6.11702392578125,0.0005124948220327497,-0.0008145226165652275,-0.0007270830683410168
1761384878750091800,6.127091796875,-0.0006880583241581917,-0.00017642881721258163,-0.0003414573147892952
1761384878760160800,6.137160888671875,-0.0001840589102357626,0.0029412824660539627,0.0024003805592656136
1761384878770229800,6.147229736328125,0.0009499150328338146,-0.0034753382205963135,0.00017317896708846092
1761384878780298800,6.157298828125,-0.0015736932400614023,-0.001194295473396778,-0.0011795845348387957
1761384878790367700,6.16736767578125,0.0006415240350179374,0.0012704599648714066,-0.0010112726595252752
1761384878800436700,6.177436767578125,0.0008387545822188258,0.0012508369982242584,0.003381046000868082
1761384878810506000,6.187506103515625,-0.0009737927466630936,-0.001050134189426899,-0.00038013653829693794
1761384878820574700,6.19757470703125,0.0008971173665486276,0.00015358813107013702,0.00011043297126889229
1761384878830644000,6.20764404296875,0.0012750199530273676,0.0021288543939590454,-0.00008371146395802498
1761384878840712700,6.217712646484375,0.00011775724124163389,-0.0013297991827130318,-0.0002295859158039093
1761384878850781700,6.22778173828125,-0.001152304350398481,0.0011914153583347797,0.000047915615141391754
1761384878860850700,6.2378505859375,0.0006353013450279832,-0.0014376239851117134,-0.0008725658990442753
1761384878870919700,6.247919677734375,0.0015855171950533986,0.001374141313135624,0.0014262748882174492
1761384878880989000,6.257989013671875,0.00028388993814587593,0.00018080417066812515,0.0014745239168405533
1761384878891057700,6.2680576171875,0.00042903213761746883,-0.001169418916106224,0.0004984750412404537
1761384878901127000,6.278126953125,-0.0006627315888181329,0.0016937470063567162,-0.0018022723961621523
1761384878911195600,6.288195556640625,-0.0019620880484580994,-0.0005512982606887817,0.00023424718528985977
1761384878921265000,6.298264892578125,-0.0004317795392125845,0.00020749028772115707,-0.0012267918791621923
1761384878931334000,6.308333984375,-0.00017664872575551271,0.0014559798873960972,-0.000015053432434797287
1761384878941402600,6.318402587890625,-0.0005184211768209934,0.0012530684471130371,0.00020701531320810318
1761384878951471900,6.328471923828125,-0.0008670289535075426,0.0005284221842885017,0.00014656176790595055
1761384878961540600,6.33854052734375,-0.0019499622285366058,-0.001253260299563408,0.001421589870005846
1761384878971609900,6.34860986328125,-0.0007829652167856693,-0.0004508495330810547,0.0010676556266844273
1761384878981678800,6.358678955078125,-0.0018149411771446466,0.00010963901877403259,0.0005147685296833515
1761384878991747800,6.368747802734375,-0.00027243816293776035,0.00019086524844169617,0.0019363639876246452
1761384879001816800,6.37881689453125,-0.0008771262364462018,0.00029851216822862625,-0.0029419008642435074
1761384879011885800,6.3888857421875,-0.0013636857038363814,-0.001112431287765503,-0.0019117901101708412
1761384879021954800,6.398954833984375,0.0003562502097338438,0.0036549153737723827,0.0009063216857612133
1761384879032023800,6.40902392578125,0.0008811593288555741,-0.0006383666768670082,-0.0012676168698817492
1761384879042092800,6.4190927734375,-0.0016948661068454385,0.001277395524084568,-0.00012876465916633606
1761384879052161800,6.429161865234375,-0.0018024578457698226,-0.002735455520451069,-0.00020999088883399963
1761384879062230800,6.439230712890625,-0.0014862725511193275,-0.0010720565915107727,0.0018747425638139248
1761384879072299800,6.4492998046875,-0.000966689782217145,0.0023415829055011272,-0.0004994655027985573
1761384879082368000,6.459367919921875,0.00067265669349581,0.00029180198907852173,0.004542417824268341
1761384879092436700,6.469436767578125,-0.0017620050348341465,0.0022654705680906773,0.002117609605193138
1761384879102505700,6.479505615234375,-0.0017779170302674174,0.0018905983306467533,-0.00029060058295726776
1761384879112574700,6.48957470703125,-0.00008547818288207054,-0.00020850542932748795,0.000836182851344347
1761384879122643700,6.499643798828125,0.002020144835114479,0.002460272517055273,0.0021360008977353573
1761384879132713000,6.509712890625,-0.002184187527745962,-0.0010995753109455109,0.001973547972738743
1761384879142781700,6.51978173828125,0.0010212031193077564,-0.002160453237593174,-0.0002214456908404827
1761384879152851000,6.529850830078125,-0.0010395507561042905,-0.0008155563846230507,-0.0011495575308799744
1761384879162919700,6.539919677734375,-0.0003558149328455329,-0.0007369741797447205,-0.0006270064041018486
1761384879172989000,6.549989013671875,0.0004010553238913417,0.0007309606298804283,0.0012603760696947575
1761384879183057700,6.5600576171875,-0.0007066992111504078,-0.00048795342445373535,0.0002540941350162029
1761384879193126700,6.570126708984375,-0.0006409191992133856,0.0005954205989837646,0.002024563495069742
1761384879203196000,6.58019580078125,-0.0003869112115353346,-0.0017123352736234665,0.0012683714739978313
1761384879213264600,6.5902646484375,-0.000819674925878644,-0.002503027208149433,-0.0006887854542583227
1761384879223334000,6.600333984375,0.000745185709092766,0.002506015822291374,-0.0003370223566889763
1761384879233402600,6.610402587890625,0.000027730129659175873,-0.0019571762531995773,-0.0010496845934540033
1761384879243472000,6.620471923828125,0.003053047228604555,0.0012822235003113747,0.0007792804390192032
1761384879253540900,6.630540771484375,-0.0008881648536771536,0.000029472634196281433,0.0034222016111016273
1761384879263609900,6.64060986328125,0.00006507406942546368,-0.00037946272641420364,-0.0000803852453827858
1761384879273678800,6.650678955078125,-0.0007898007752373815,0.001757191028445959,0.0017148517072200775
1761384879283747600,6.66074755859375,-0.0006937962025403976,0.0005027474835515022,0.0010596155188977718
1761384879293816800,6.67081689453125,0.00032779236789792776,0.00021672341972589493,-0.0020813168957829475
1761384879303885800,6.6808857421875,-0.0008856579661369324,-0.00012115761637687683,0.0010278965346515179
1761384879313954800,6.690954833984375,0.0009687011479400098,0.00124317966401577,0.000977829098701477
1761384879324023800,6.70102392578125,0.0010764305479824543,-0.00021770969033241272,-0.0009583225473761559
1761384879334092800,6.7110927734375,-0.0028221711982041597,-0.0009857648983597755,0.002525092102587223
1761384879344161800,6.721161865234375,0.0029524988494813442,-0.00037712976336479187,-0.001659950241446495
1761384879354230800,6.731230712890625,0.0005415392806753516,-0.0007638204842805862,-0.00041652051731944084
1761384879364299800,6.7412998046875,0.0021824310533702374,0.00027641281485557556,0.0011050011962652206
1761384879374369000,6.751369140625,0.0005107647739350796,-0.0015015136450529099,-0.0017448475118726492
1761384879384437800,6.761437744140625,-0.0003038174472749233,-0.002296769991517067,-0.0020313896238803864
1761384879394506800,6.7715068359375,-0.00019808998331427574,-0.0016858410090208054,0.0017891814932227135
1761384879404575000,6.781574951171875,0.00011920533142983913,0.002167504746466875,0.000232011079788208
1761384879414643700,6.791643798828125,0.0013905984815210104,0.0014676260761916637,0.0010850215330719948
1761384879424713000,6.801712890625,0.00030375481583178043,-0.0007826210930943489,0.0007595745846629143
1761384879434781700,6.81178173828125,0.0018185608787462115,0.00041553471237421036,-0.0023105177097022533
1761384879444850700,6.8218505859375,0.0007352016400545835,-0.0012738332152366638,0.0008638272993266582
1761384879454920000,6.831919921875,0.0001815304858610034,0.00027639325708150864,0.00021934229880571365
1761384879464988700,6.84198876953125,0.0019080680795013905,0.0023175086826086044,-0.0000906144268810749
1761384879475058000,6.852057861328125,0.0025536182802170515,0.00040748994797468185,-0.0006978150922805071
1761384879485126700,6.862126708984375,-0.000640703015960753,0.001311013475060463,0.0009029209613800049
1761384879495196000,6.87219580078125,0.00027648964896798134,-0.00015931762754917145,0.00023473380133509636
1761384879505264600,6.8822646484375,0.0009841459104791284,-0.0010272925719618797,0.0012588794343173504
1761384879515334000,6.892333984375,-0.0004576893988996744,0.0015698224306106567,-0.0007587315049022436
1761384879525403000,6.90240283203125,0.0010972952004522085,0.0009031696245074272,-0.002795502310618758
1761384879535471600,6.9124716796875,0.0005635977722704411,0.00007785577327013016,-0.0005310163833200932
1761384879545540900,6.922540771484375,0.0005792583106085658,0.00329762976616621,-0.0013874359428882599
1761384879555609600,6.932609619140625,-0.0003848059568554163,0.001150056254118681,0.0011636060662567616
1761384879565678800,6.942678955078125,-0.0016759182326495647,-0.000018808990716934204,-0.0002875174395740032
1761384879575747800,6.952747802734375,0.0016341247828677297,-0.0025357622653245926,0.0003279391676187515
1761384879585816800,6.96281689453125,0.0011621182784438133,0.0008014063350856304,-0.0013151620514690876
1761384879595885800,6.9728857421875,0.002189832041040063,0.0007715788669884205,0.0006252173334360123
1761384879605955600,6.98295556640625,-0.00023983349092304707,0.0014157546684145927,0.0012830826453864574
1761384879616024600,6.993024658203125,0.00031916401349008083,0.00037818681448698044,0.0012945341877639294
1761384879626093600,7.003093505859375,0.0009531120304018259,-0.00039035361260175705,0.00013742409646511078
1761384879636162600,7.01316259765625,-0.0017918081721290946,0.000930307898670435,-0.000004522036761045456
1761384879646231600,7.0232314453125,0.0012116935104131699,0.00026483554393053055,-0.0007635992951691151
1761384879656300500,7.033300537109375,0.001782941515557468,-0.001533331349492073,0.0017142058350145817
1761384879666369500,7.04336962890625,-0.0018702845554798841,0.0023529743775725365,0.0008829338476061821
1761384879676438500,7.0534384765625,-0.0006873086094856262,0.0007955576293170452,0.0012634992599487305
1761384879686507500,7.063507568359375,0.0004491822328418493,0.001444588415324688,0.0008822670206427574
1761384879696576500,7.073576416015625,0.000266755698248744,-0.0035328594967722893,-0.0016269632615149021
1761384879706645500,7.0836455078125,0.002208837540820241,0.0010431786067783833,-0.0004691006615757942
1761384879716714500,7.093714599609375,0.001170471077784896,-0.00041996221989393234,-0.0007567221764475107
1761384879726782500,7.103782470703125,-0.0003110187826678157,-0.001787257380783558,-0.0013623109553009272
1761384879736851500,7.1138515625,-0.0011171576334163547,0.00040319282561540604,0.004917422775179148
1761384879746920700,7.123920654296875,0.0028167464770376682,-0.0004402613267302513,-0.00032317452132701874
1761384879756989400,7.133989501953125,0.000021758838556706905,-0.001071164384484291,-0.0006840326823294163
1761384879767058700,7.14405859375,-0.0008122795261442661,-0.0004602428525686264,-0.00271566747687757
1761384879777127400,7.15412744140625,0.002172857755795121,-0.002052013762295246,-0.0035865213721990585
1761384879787196700,7.16419677734375,0.0005472415359690785,0.0014841500669717789,0.0017442693933844566
1761384879797265400,7.174265380859375,-0.00008286233060061932,-0.0024722423404455185,0.003538707736879587
1761384879807334400,7.18433447265625,0.0005636689020320773,-0.0005414430052042007,-0.0005104970186948776
1761384879817403600,7.194403564453125,0.000021449290215969086,0.000648723915219307,0.000633596908301115
1761384879827472400,7.204472412109375,0.00030145631171762943,0.00023208651691675186,-0.0008168185595422983
1761384879837541600,7.214541748046875,-0.0007371766259893775,-0.002595924772322178,-0.00021068332716822624
1761384879847610400,7.2246103515625,-0.0008310963166877627,-0.001517689786851406,0.002135877963155508
1761384879857679600,7.2346796875,0.0009649395942687988,0.0010930071584880352,0.00015874719247221947
1761384879867748600,7.24474853515625,-0.00034915481228381395,0.0033078105188906193,0.0021331016905605793
1761384879877817600,7.254817626953125,0.0003400712739676237,0.0007173540070652962,0.0014763660728931427
1761384879887886600,7.264886474609375,-0.0001727142371237278,0.0003733653575181961,-0.0010096579790115356
1761384879897955600,7.27495556640625,0.0011452841572463512,-0.0015188110992312431,-0.0005681058391928673
1761384879908024600,7.285024658203125,0.000752582389395684,-0.0003466559574007988,0.00016060424968600273
1761384879918093600,7.295093505859375,-0.0007611582987010479,-0.00050351582467556,-0.001343815354630351
1761384879928162600,7.30516259765625,-0.001361099537461996,0.0009482200257480145,0.0017856331542134285
1761384879938231600,7.3152314453125,-0.00009316846262663603,-0.002636660821735859,-0.0005696662701666355
1761384879948300500,7.325300537109375,-0.00018489663489162922,-0.002398972399532795,-0.0023023372050374746
1761384879958369500,7.33536962890625,-0.0002112619113177061,0.001605889294296503,0.0008242139592766762
1761384879968438500,7.3454384765625,0.0010507367551326752,0.0011051329784095287,0.003426648210734129
1761384879978507500,7.355507568359375,0.0010597914224490523,-0.0005148677155375481,0.0012798747047781944
1761384879988576800,7.36557666015625,-0.0016109871212393045,0.00043806713074445724,0.002440494019538164
1761384879998645500,7.3756455078125,-0.0014743669889867306,-0.002145465463399887,-0.0015614379663020372
1761384880008714500,7.385714599609375,-0.00029285892378538847,-0.0023592766374349594,0.0008641439490020275
1761384880018782700,7.39578271484375,-0.0014675792772322893,0.00026553496718406677,-0.000369965098798275
1761384880028851500,7.4058515625,0.002207216341048479,-0.0014808187261223793,-0.002403122838586569
1761384880038920700,7.415920654296875,-0.0013174772029742599,-0.0008089039474725723,0.0009018597193062305
1761384880048989400,7.425989501953125,0.000017050071619451046,-0.001972055062651634,0.00040119048207998276
1761384880059058400,7.436058349609375,-0.000575503334403038,0.0023151016794145107,0.00037242844700813293
1761384880069127700,7.446127685546875,0.001209361245855689,-0.0018351804465055466,0.0031487522646784782
1761384880079196400,7.456196533203125,0.001378738204948604,0.002470085397362709,-0.0010875381994992495
1761384880089265700,7.466265625,0.00010819092858582735,-0.0005610119551420212,-0.0017749459948390722
1761384880099334400,7.47633447265625,-0.0006047374336048961,-0.0012984415516257286,-0.0001368355005979538
1761384880109403600,7.486403564453125,0.0019451671978458762,0.004065908491611481,-0.0003623375669121742
1761384880119472400,7.496472412109375,-0.0019758050329983234,-0.0010023536160588264,-0.00027312198653817177
1761384880129541600,7.506541748046875,-0.0017670899396762252,0.0013940096832811832,0.0018879235722124577
1761384880139610600,7.516610595703125,-0.0020983871072530746,0.00009705033153295517,0.0004831063561141491
1761384880149679400,7.526679443359375,0.0005488698370754719,0.0007583377882838249,0.0008528660982847214
1761384880159748600,7.53674853515625,-0.001114008016884327,0.002079798374325037,0.001570588443428278
1761384880169817300,7.5468173828125,0.000827132083941251,-0.0012679453939199448,-0.0013352513778954744
1761384880179886600,7.556886474609375,0.0013586990535259247,0.002521200105547905,0.0008408175781369209
1761384880189955600,7.56695556640625,-0.00250801257789135,-0.0024513714015483856,0.001203036867082119
1761384880200024600,7.577024658203125,0.0021810149773955345,0.00041658710688352585,0.0007433751598000526
1761384880210093600,7.587093505859375,-0.00022679404355585575,-0.0000011278316378593445,0.0012981384061276913
1761384880220162600,7.59716259765625,0.0018992074765264988,-0.0013231206685304642,0.0033801980316638947
1761384880230231600,7.6072314453125,-0.0015371256740763783,0.0015225713141262531,-0.0025450442917644978
1761384880240300500,7.617300537109375,0.0010922132059931755,0.0002482486888766289,-0.00003368360921740532
1761384880250369500,7.62736962890625,-0.003119615837931633,0.0013806452043354511,0.0017640204168856144
1761384880260438500,7.6374384765625,0.0004365027416497469,-0.0002934178337454796,-0.002470672130584717
1761384880270507500,7.647507568359375,-0.0003884577890858054,0.000051478855311870575,0.00003051990643143654
1761384880280576500,7.657576416015625,0.000011016381904482841,0.000998765230178833,-0.0005119661800563335
1761384880290645500,7.6676455078125,-0.0009541789768263698,-0.0024844082072377205,-0.0013297258410602808
1761384880300714500,7.677714599609375,-0.0007509797578677535,0.0022464306093752384,0.0006474051624536514
1761384880310782500,7.687782470703125,-0.0006208214908838272,-0.00016092415899038315,-0.001179622020572424
1761384880320851500,7.6978515625,0.0004942440427839756,0.00022922921925783157,0.0022121798247098923
1761384880330920400,7.70792041015625,-0.0014421726809814572,0.0014798026531934738,-0.0018307298887521029
1761384880340989700,7.71798974609375,0.0025568301789462566,0.000127449631690979,-0.0018158161547034979
1761384880351058400,7.728058349609375,0.0006313521880656481,0.002140467055141926,-0.000054160598665475845
1761384880361127700,7.738127685546875,-0.0009375158697366714,-0.002334974706172943,-0.0013780179433524609
1761384880371196400,7.748196533203125,-0.0011863812105730176,0.0012774299830198288,0.00003719329833984375
1761384880381265700,7.758265625,0.0010205804137513041,0.0021956879645586014,-0.0004325881600379944
1761384880391334700,7.768334716796875,-0.0007272938964888453,-0.000021656975150108337,-0.00022048549726605415
1761384880401403400,7.7784033203125,-0.0010165133280679584,0.0008137766271829605,0.0004490334540605545
1761384880411472600,7.78847265625,-0.00024661864154040813,-0.0019133174791932106,-0.000585680827498436
1761384880421541400,7.798541259765625,0.001773655298165977,0.0004233401268720627,-0.0010730393696576357
1761384880431610600,7.808610595703125,-0.0012009033234789968,0.00010904110968112946,-0.0007676871027797461
1761384880441679400,7.818679443359375,0.0004332123789936304,0.00043687596917152405,-0.0004752720706164837
1761384880451748600,7.82874853515625,-0.0008263337658718228,0.0035262019373476505,0.0010371385142207146
1761384880461817600,7.838817626953125,0.0007635734509676695,0.0002819392830133438,-0.0005900529213249683
1761384880471886600,7.848886474609375,-0.004038304090499878,-0.0005808966234326363,-0.000039180275052785873
1761384880481955600,7.85895556640625,0.0009079849696718156,-0.00044134631752967834,0.000021006911993026733
1761384880492024300,7.8690244140625,-0.003638113383203745,-0.0015788646414875984,0.0004960722289979458
1761384880502093600,7.879093505859375,-0.0009033133974298835,-0.0011266591027379036,0.0006217733025550842
1761384880512162600,7.88916259765625,-0.0020687109790742397,0.00039493292570114136,0.0005591260269284248
1761384880522231600,7.8992314453125,0.001054910710081458,-0.000040493905544281006,-0.0013282562140375376
1761384880532300500,7.909300537109375,-0.0012196743628010154,-0.00048880185931921,-0.001088971272110939
1761384880542369500,7.91936962890625,0.00034147058613598347,0.0005783271044492722,-0.0009499541483819485
1761384880552438500,7.9294384765625,-0.0019596796482801437,-0.0008634636178612709,-0.0007188646122813225
1761384880562507500,7.939507568359375,0.0010334472171962261,0.0004864931106567383,-0.0006554811261594296
1761384880572576500,7.949576416015625,-0.0007034427253529429,0.0025861766189336777,-0.0008505790028721094
1761384880582644500,7.95964453125,0.0007077662157826126,-0.0001097414642572403,-0.0005323314107954502
1761384880592713500,7.96971337890625,0.0019409495871514082,-0.0014413762837648392,-0.002659471007063985
1761384880602782500,7.979782470703125,0.001173160271719098,-0.0010549519211053848,0.001203976571559906
1761384880612851500,7.9898515625,0.0006745873834006488,0.00019040144979953766,0.0005835765041410923
1761384880622920200,7.999920166015625,-0.0009150535333901644,0.00013926904648542404,0.00014202436432242393
1761384880632989400,8.009989501953125,-0.0016159856459125876,0.0009094267152249813,-0.0012100646272301674
1761384880643058200,8.02005810546875,-0.0007166360737755895,0.002080152276903391,-0.00003774138167500496
1761384880653127400,8.03012744140625,-0.0015027078334242105,-0.00030404236167669296,-0.001617012545466423
1761384880663196400,8.040196533203124,-0.001397246727719903,-0.0015264339745044708,0.0015321755781769753
1761384880673265200,8.05026513671875,-0.0007028680993244052,0.001988968811929226,0.0012324373237788677
1761384880683334400,8.06033447265625,0.0011789215495809913,0.00020864605903625488,-0.0006040786392986774
1761384880693403100,8.070403076171875,0.0009534217533655465,-0.00028926972299814224,0.0005891397595405579
1761384880703472400,8.080472412109375,0.0010136091150343418,0.0003781188279390335,0.0006360113620758057
1761384880713541400,8.090541259765626,-0.000521667767316103,-0.0014889752492308617,0.0009849960915744305
1761384880723610400,8.1006103515625,0.00048340915236622095,-0.0004562009125947952,0.0010007089003920555
1761384880733679400,8.110679443359375,0.0004888921976089478,-0.0013473741710186005,0.00002633407711982727
1761384880743748400,8.120748291015625,0.0005296386079862714,0.0005780914798378944,-0.00018378952518105507
1761384880753817300,8.1308173828125,0.0018339145462960005,-0.0011577261611819267,0.0005454677157104015
1761384880763886300,8.14088623046875,-0.000030298251658678055,0.0007280581630766392,0.00047862250357866287
1761384880773955300,8.150955322265625,-0.0005337828770279884,-0.0008833566680550575,-0.000026161782443523407
1761384880784024300,8.1610244140625,0.0010484009981155396,0.0007004253566265106,0.002173342742025852
1761384880794093300,8.17109326171875,0.0026349476538598537,0.0007761325687170029,-0.000754988519474864
1761384880804162300,8.181162353515624,0.0005784548120573163,-0.001504865474998951,0.0011726072989404202
1761384880814231300,8.191231201171876,0.0013623666018247604,-0.0013112127780914307,0.0006358553655445576
1761384880824300300,8.20130029296875,0.001985812559723854,-0.001678994856774807,-0.003303226549178362
1761384880834369500,8.21136962890625,-0.0018065597396343946,0.00004460010677576065,0.0008554402738809586
1761384880844438300,8.221438232421875,0.0007415528525598347,-0.00020600389689207077,0.0008117645047605038
1761384880854506200,8.23150634765625,0.0009357764502055943,-0.0004299292340874672,0.0004094969481229782
1761384880864575500,8.241575439453126,0.0002428219886496663,0.0014981990680098534,0.0010976577177643776
1761384880874644200,8.251644287109375,-0.0012971926480531693,0.003243592567741871,-0.0014808813575655222
1761384880884713500,8.26171337890625,0.00024317973293364048,0.00047896523028612137,0.000028065871447324753
1761384880894782200,8.2717822265625,0.0007551517919637263,-0.0004888670518994331,0.0013097282499074936
1761384880904851500,8.2818515625,-0.0008320921333506703,-0.0026931650936603546,0.00030118925496935844
1761384880914920400,8.29192041015625,0.000804651586804539,0.00003357976675033569,0.0026420149952173233
1761384880924989200,8.3019892578125,0.0017418180359527469,0.002139874268323183,0.0005493029020726681
1761384880935058400,8.312058349609375,0.0008190694497898221,-0.00026023201644420624,-0.00022257305681705475
1761384880945127200,8.322127197265624,0.0014190796064212918,0.00236298143863678,0.0031021172180771828
1761384880955196400,8.332196533203126,0.002976739779114723,-0.001413099467754364,-0.0011814015451818705
1761384880965265200,8.34226513671875,0.00029253982938826084,0.0018143849447369576,-0.0015382650308310986
1761384880975334400,8.35233447265625,0.0025900169275701046,-0.002227315679192543,0.000045151449739933014
1761384880985403400,8.3624033203125,0.000003821332938969135,0.0010805968195199966,0.0005327765829861164
1761384880995472400,8.372472412109374,-0.0006707829888910055,0.0004560723900794983,-0.0011288817040622234
1761384881005541400,8.382541259765626,0.0013801173772662878,-0.000014774501323699951,-0.0034373097587376833
1761384881015610000,8.392610107421875,0.000057088909670710564,0.001484626904129982,0.0003472045063972473
1761384881025679400,8.402679443359375,0.000266413320787251,0.000678221695125103,0.00016424525529146194
1761384881035748400,8.412748291015625,0.00020255637355148792,-0.00031318794935941696,-0.0005958601832389832
1761384881045817300,8.4228173828125,-0.00046829390339553356,0.0011946940794587135,0.00020681647583842278
1761384881055886300,8.43288623046875,-0.001192072406411171,0.0019394285045564175,-0.0016279029659926891
1761384881065955300,8.442955322265625,-0.0008426657877862453,-0.00022625457495450974,0.00019849278032779694
1761384881076024300,8.4530244140625,0.0006516063585877419,-0.000962747260928154,0.000982451718300581
1761384881086093300,8.46309326171875,0.00043535768054425716,-0.0005829809233546257,0.0010833856649696827
1761384881096162300,8.473162353515624,-0.0006830046186223626,-0.003244534134864807,0.0006807832978665829
1761384881106230300,8.483230224609375,0.0002578900894150138,0.0007840297184884548,0.0011127484031021595
1761384881116299300,8.49329931640625,0.0019484616350382566,0.003189260605722666,0.001450265757739544
1761384881126368300,8.5033681640625,0.0008616255363449454,-0.0001279730349779129,0.0017615891993045807
1761384881136437500,8.5134375,0.00024468638002872467,0.0013104579411447048,-0.0005090376362204552
1761384881146506200,8.52350634765625,0.0006825100281275809,-0.001189984381198883,0.0016409321688115597
1761384881156575500,8.533575439453125,0.000842476321849972,-0.0011097127571702003,-0.0024893307127058506
1761384881166644200,8.543644287109375,0.0005071844207122922,0.0008945818990468979,0.0010249768383800983
1761384881176713200,8.553713134765625,-0.0002530865604057908,-0.00017679017037153244,0.0007401020266115665
1761384881186782500,8.563782470703124,0.0003850068897008896,0.00006076321005821228,-0.0009877567645162344
1761384881196851200,8.573851318359376,0.0005803065723739564,0.00011571776121854782,-0.00009853625670075417
1761384881206920400,8.58392041015625,-0.0010980174411088228,0.0012765894643962383,0.0002777683548629284
1761384881216989200,8.5939892578125,0.00008500157855451107,0.0001742728054523468,-0.0009210684802383184
1761384881227058400,8.604058349609375,-0.0022828150540590286,0.0005457838997244835,0.0007037259638309479
1761384881237127400,8.61412744140625,-0.0017884428380057216,-0.0005850773304700851,-0.002590176649391651
1761384881247196400,8.624196533203126,0.0008851044694893062,-0.0031686099246144295,-0.0027845874428749084
1761384881257265400,8.634265380859375,0.0013607424916699529,0.0019519375637173653,0.0006022495217621326
1761384881267334100,8.644334228515625,-0.001813745591789484,0.0013274261727929115,0.0005585737526416779
1761384881277403400,8.6544033203125,0.0007140473462641239,-0.0006640516221523285,0.001162201166152954
1761384881287472000,8.66447216796875,0.00020351936109364033,0.0009114742279052734,-0.0001840265467762947
1761384881297541400,8.674541259765626,-0.00016045395750552416,0.001874052919447422,0.000722772441804409
1761384881307610400,8.6846103515625,-0.002891259267926216,-0.0014242716133594513,-0.0006306460127234459
1761384881317679400,8.694679443359375,0.0006645101238973439,-0.00018849782645702362,-0.00027691666036844254
1761384881327748400,8.704748291015624,-0.00016586354468017817,-0.0007514907047152519,-0.002087866421788931
1761384881337817300,8.7148173828125,-0.0009762863628566265,0.000012217089533805847,0.002252739854156971
1761384881347886300,8.72488623046875,0.0006564977811649442,-0.0013079112395644188,0.004090853501111269
1761384881357954300,8.734954345703125,0.0004200432449579239,0.00021335389465093613,-0.0003573833964765072
1761384881368023300,8.745023193359375,0.00035133364144712687,0.0020980732515454292,-0.0030325285624712706
1761384881378092300,8.75509228515625,-0.001080955727957189,0.0006921356543898582,-0.0003386298194527626
1761384881388161500,8.76516162109375,-0.0019667232409119606,0.000331277959048748,-0.0009325146675109863
1761384881398230300,8.775230224609375,-0.0013883266365155578,-0.0024070534855127335,0.0012733717449009418
1761384881408299500,8.785299560546875,-0.002083145547658205,0.0019602649845182896,0.0008632447570562363
1761384881418368300,8.7953681640625,-0.00006777700036764145,0.0006652399897575378,-0.0012509129010140896
1761384881428437200,8.805437255859376,-0.0018257296178489923,-0.0017371978610754013,0.0005717547610402107
1761384881438506200,8.81550634765625,-0.002075430704280734,-0.0017208848148584366,-0.003884193953126669
1761384881448575200,8.8255751953125,-0.0007289366330951452,-0.0008913101628422737,0.00006207777187228203
1761384881458644500,8.83564453125,-0.0007118245121091604,0.001388044562190771,0.0017138589173555374
1761384881468713200,8.845713134765624,0.0008202921017073095,0.0001712460070848465,0.0010475357994437218
1761384881478782500,8.855782470703126,-0.0041374326683580875,0.0009887246415019035,0.0007829777896404266
1761384881488851200,8.865851318359375,-0.0009083496406674385,-0.0006070416420698166,0.0006532818078994751
1761384881498920400,8.87592041015625,-0.0010573659092187881,-0.0007295366376638412,-0.0006291097961366177
1761384881508989400,8.885989501953125,0.001998078776523471,0.0014441353268921375,-0.0004139263182878494
1761384881519058200,8.89605810546875,-0.001663085538893938,-0.0003483295440673828,0.0013891845010221004
1761384881529127400,8.90612744140625,-0.000004735193215310574,-0.000022091902792453766,-0.0018881014548242092
1761384881539196200,8.916196044921875,0.00012248579878360033,-0.0023163268342614174,-0.0002013430930674076
1761384881549265400,8.926265380859375,-0.001565692014992237,-0.00031522754579782486,-0.000905216671526432
1761384881559334400,8.93633447265625,0.0001965217525139451,-0.0007790829986333847,-0.0001694955863058567
1761384881569403400,8.9464033203125,-0.0016493151197209954,-0.00036416295915842056,-0.0007980016525834799
1761384881579470300,8.95647021484375,-0.0015745152486488223,0.0017740298062562943,0.00030117202550172806
1761384881589539300,8.966539306640625,0.0010835856664925814,-0.0018507987260818481,-0.0017790230922400951
1761384881599608300,8.9766083984375,0.0009503731853328645,-0.0009101312607526779,-0.00006444798782467842
1761384881609677300,8.98667724609375,-0.003170069307088852,-0.00015299487859010696,0.0014956314116716385
1761384881619746800,8.996746826171876,0.00033068563789129257,0.0003481190651655197,-0.0012623299844563007
1761384881629816000,9.006816162109375,-0.003231292124837637,0.003227262757718563,0.001948909368366003
1761384881639885000,9.016885009765625,-0.0022094962187111378,0.00039007700979709625,-0.001597112976014614
1761384881649954000,9.0269541015625,0.0006384879816323519,-0.00032151956111192703,0.0005531231872737408
1761384881660023000,9.03702294921875,-0.0017063625855371356,0.002342310268431902,0.000574055127799511
1761384881670092000,9.047092041015626,-0.0010839818278327584,-0.0017677461728453636,-0.0018062782473862171
1761384881680161000,9.0571611328125,0.0003030964871868491,-0.0002996353432536125,-0.0003773407079279423
1761384881690230000,9.06722998046875,0.001058102585375309,0.0018037296831607819,0.0018069841898977757
1761384881700299000,9.077299072265625,0.0006770934560336173,0.0007262816652655602,-0.0013079855125397444
1761384881710368300,9.0873681640625,-0.0011383835226297379,0.0016527953557670116,0.0020321509800851345
1761384881720437000,9.09743701171875,0.0009667919366620481,-0.0013511376455426216,0.0009456565603613853
1761384881730506000,9.107506103515625,0.0016142064705491066,-0.00030904263257980347,0.0003504403866827488
1761384881740575000,9.117574951171875,0.001755674253217876,-0.0006712768226861954,-0.0008441444952040911
1761384881750644000,9.12764404296875,-0.0009567552478983998,-0.0004880521446466446,-0.000703795813024044
1761384881760713200,9.137713134765624,-0.0004480890929698944,0.0005505168810486794,-0.0010847582016140223
1761384881770781000,9.147781005859375,0.0011250402312725782,0.0013270941562950611,-0.001952682388946414
1761384881780850000,9.157849853515625,0.0002790208673104644,0.003499747719615698,-0.00010385503992438316
1761384881790919200,9.167919189453125,-0.0013479043263942003,-0.0001980513334274292,-0.00032383203506469727
1761384881800988000,9.17798779296875,-0.0002580250147730112,0.00022724922746419907,-0.0007049324922263622
1761384881811057200,9.18805712890625,0.001893276465125382,0.000002212822437286377,0.0015379814431071281
1761384881821126000,9.1981259765625,-0.0006377201061695814,-0.00036730431020259857,0.00030735647305846214
1761384881831195100,9.208195068359375,-0.0019179016817361116,-0.00001789722591638565,0.0003140144981443882
1761384881841264000,9.21826416015625,0.0006216772017069161,-0.00017513055354356766,0.00025300774723291397
1761384881851333000,9.2283330078125,-0.0014417400816455483,0.00047255028039216995,0.0005542109720408916
1761384881861402000,9.238402099609376,0.0008152017835527658,-0.0017220517620444298,-0.00035066576674580574
1761384881871470800,9.248470947265625,-0.0016918980982154608,0.0002809111028909683,-0.00004440220072865486
1761384881881540000,9.2585400390625,0.0011552049545571208,0.0032956544309854507,0.0009775306098163128
1761384881891608800,9.26860888671875,0.002092637587338686,-0.0012106802314519882,-0.0017623293679207563
1761384881901678000,9.278677978515624,0.0013992650201544166,0.0021615372970700264,0.00067889504134655
1761384881911747000,9.2887470703125,-0.0010385926580056548,0.0012901509180665016,0.0011026039719581604
1761384881921816000,9.298816162109375,0.0010539306094869971,-0.001203007996082306,-0.0028762463480234146
1761384881931885000,9.308885009765625,0.003460096661001444,0.002516628708690405,0.000009288545697927475
1761384881941954000,9.3189541015625,0.00005792314186692238,-0.003093934617936611,0.0021356800571084023
1761384881952023000,9.32902294921875,-0.003353053703904152,-0.0013567544519901276,0.0001180688850581646
1761384881962092000,9.339092041015626,0.0006656008772552013,-0.0008608009666204453,-0.002453525783494115
1761384881972161000,9.3491611328125,-0.000034277793020009995,-0.0006512096151709557,-0.0003403075970709324
1761384881982230000,9.35922998046875,-0.0008661736501380801,-0.0000859331339597702,-0.0024611710105091333
1761384881992299000,9.369299072265624,-0.0006962638581171632,0.00005521439015865326,-0.002879287349060178
1761384882002367000,9.379366943359376,0.00027889665216207504,0.00026006903499364853,0.00014929473400115967
1761384882012436200,9.389436279296875,-0.00009075005073100328,-0.0014592669904232025,0.001138126477599144
1761384882022505000,9.3995048828125,-0.0011949774343520403,0.0005965633317828178,-0.0005052969790995121
1761384882032574000,9.409573974609375,0.0006279563531279564,-0.0000686943531036377,0.0012577157467603683
1761384882042643000,9.419642822265626,0.0001628524623811245,-0.0012083547189831734,-0.0021770314779132605
1761384882052712000,9.4297119140625,0.0005908224266022444,0.0035368651151657104,-0.00029763858765363693
1761384882062781200,9.43978125,0.00022342160809785128,-0.003168053925037384,0.001060178503394127
1761384882072850000,9.449849853515625,0.002405882114544511,0.003257887437939644,0.0010473951697349548
1761384882082919200,9.459919189453124,0.0014438577927649021,-0.000020411796867847443,0.000013775192201137543
1761384882092988000,9.46998779296875,0.0018372066551819444,0.00022113695740699768,-0.0023156919050961733
1761384882103057200,9.48005712890625,0.001769750495441258,-0.0003279000520706177,-0.0005543539300560951
1761384882113126100,9.490126220703125,0.0013369868975132704,0.00030380208045244217,0.00108615355566144
1761384882123195000,9.50019482421875,0.0018875082023441792,0.0006570136174559593,0.0000869440846145153
1761384882133264100,9.51026416015625,0.0009234438766725361,-0.0027286624535918236,-0.0004515470936894417
1761384882143332900,9.520332763671876,0.0003779195249080658,0.00031593721359968185,-0.0010584183037281036
1761384882153402000,9.530402099609375,0.000027447473257780075,-0.0014484068378806114,0.0005831541493535042
1761384882163471000,9.54047119140625,0.0006138648604974151,-0.001341361552476883,0.0005141864530742168
1761384882173540000,9.5505400390625,0.0007880356279201806,0.003033946268260479,-0.0004496113397181034
1761384882183609000,9.560609130859374,0.00025856844149529934,0.00010943785309791565,-0.0006213667802512646
1761384882193678000,9.570677978515626,-0.0018613076535984874,0.0013374215923249722,0.003140880726277828
1761384882203748000,9.580748046875,-0.00008034741040319204,-0.00011409353464841843,-0.0005318457260727882
1761384882213817000,9.590817138671875,0.0009803896537050605,0.0004462357610464096,-0.0014138845726847649
1761384882223886000,9.600885986328125,0.0005562762962654233,0.0009265760891139507,0.002301454544067383
1761384882233955000,9.610955078125,0.0014239342417567968,-0.0012433677911758423,0.00034163426607847214
1761384882244024000,9.621024169921874,0.00023150723427534103,-0.0003850068897008896,-0.0008663975168019533
1761384882254093000,9.631093017578126,0.0012464378960430622,0.0011644205078482628,0.0002268301323056221
1761384882264162000,9.641162109375,0.0008915982325561345,0.002121665980666876,-0.000803888076916337
1761384882274231000,9.65123095703125,-0.001406976138241589,0.0006260345689952374,0.0023700674064457417
1761384882284299000,9.661299072265624,-0.0004524743417277932,-0.0011385651305317879,-0.001949631841853261
1761384882294368000,9.671367919921876,-0.00027963530737906694,0.00309186615049839,-0.0017858475912362337
1761384882304437000,9.68143701171875,0.0002131112851202488,0.00015253014862537384,0.0010028872638940811
1761384882314506000,9.691506103515625,-0.0008092762436717749,0.0012889010831713676,-0.0014498839154839516
1761384882324575000,9.701574951171875,-0.0003318951930850744,-0.0027794847264885902,-0.0006733103655278683
1761384882334644000,9.71164404296875,-0.001241364749148488,-0.0008766558021306992,0.0017706728540360928
1761384882344713000,9.721712890625,0.0005636489950120449,0.0003666505217552185,0.0005469736643135548
1761384882354782200,9.7317822265625,0.00004646310117095709,-0.0024930518120527267,0.0013195564970374107
1761384882364851000,9.741850830078125,0.0003131910925731063,-0.0011311350390315056,-0.0008435249328613281
1761384882374920200,9.751920166015625,-0.0011089370818808675,0.0011908751912415028,0.0007322672754526138
1761384882384989000,9.761989013671876,-0.00013083626981824636,-0.002739163115620613,-0.0010618679225444794
1761384882395058200,9.77205810546875,0.0019203303381800652,0.00007553212344646454,-0.00008315639570355415
1761384882405127200,9.782127197265625,0.001004988793283701,-0.0017965370789170265,-0.0006750598549842834
1761384882415196000,9.79219580078125,0.000650788308121264,-0.0006601661443710327,0.00048874132335186
1761384882425265200,9.80226513671875,0.0011663231998682022,0.0010379757732152939,-0.002143339952453971
1761384882435334000,9.812333984375,0.0005117180990055203,0.002074478194117546,-0.0002130810171365738
1761384882445403100,9.822403076171875,-0.00016195699572563171,0.0011137952096760273,-0.00015402957797050476
1761384882455471900,9.832471923828125,0.000012480071745812893,0.0003409460186958313,-0.0018914758693426847
1761384882465541000,9.842541015625,0.0013916147872805595,-0.0007576774805784225,-0.0011898414231836796
