time,seconds_elapsed,z,y,x
1761817890535056400,0.101056396484375,0.23943176865577698,0.025093644857406616,-0.03340177237987518
1761817890544984300,0.110984375,0.35518258810043335,0.13996638357639313,0.029167287051677704
1761817890554911500,0.120911376953125,0.45108914375305176,0.32491761445999146,0.057569097727537155
1761817890564839400,0.13083935546875,0.5574705600738525,0.22200645506381989,0.02119087055325508
1761817890574766300,0.140766357421875,0.6547310948371887,0.040943458676338196,0.0019247643649578094
1761817890584693500,0.150693603515625,0.7564492225646973,-0.21700569987297058,0.01886579766869545
1761817890594621400,0.160621337890625,0.8409324288368225,-0.5103811025619507,0.053924448788166046
1761817890604548400,0.17054833984375,0.872734546661377,-0.6173164248466492,0.09261208772659302
1761817890614476500,0.1804765625,0.8610289096832275,-0.30311912298202515,0.14789503812789917
1761817890624403500,0.190403564453125,0.89946448802948,0.030862843617796898,0.1429913491010666
1761817890634331400,0.200331298828125,0.9670672416687012,0.1702183336019516,0.08070267736911774
1761817890644258600,0.210258544921875,1.093996286392212,0.19183935225009918,0.10213620960712433
1761817890654186500,0.2201865234375,1.273926854133606,0.15100963413715363,0.20573104918003082
1761817890664113400,0.230113525390625,1.4191367626190186,0.04259598255157471,0.29209381341934204
1761817890674041600,0.24004150390625,1.4757603406906128,-0.19530099630355835,0.2696814239025116
1761817890683968500,0.249968505859375,1.409394383430481,-0.5604104399681091,0.10233351588249207
1761817890693896400,0.259896484375,1.3077082633972168,-0.7259405851364136,-0.09151371568441391
1761817890703823400,0.2698232421875,1.225090503692627,-0.49585404992103577,-0.2642101049423218
1761817890713751300,0.279751220703125,1.1582083702087402,-0.054867614060640335,-0.45777878165245056
1761817890723678500,0.289678466796875,1.1085174083709717,0.5452296137809753,-0.632689356803894
1761817890733605400,0.29960546875,0.9953485131263733,1.2448023557662964,-0.7653672695159912
1761817890743533300,0.309533203125,0.753934919834137,1.9545063972473145,-0.8392996788024902
1761817890753460500,0.31946044921875,0.5593087077140808,2.5297861099243164,-0.8599005341529846
1761817890763388400,0.329388427734375,0.5800014138221741,2.7614879608154297,-0.8869702219963074
1761817890773315300,0.3393154296875,0.7510810494422913,2.579190969467163,-0.985321581363678
1761817890783243500,0.349243408203125,0.9220569729804993,2.1907758712768555,-1.1036204099655151
1761817890793170400,0.35917041015625,0.9614424705505371,1.7618279457092285,-1.166038990020752
1761817890803098400,0.369098388671875,0.8339818120002747,1.3072057962417603,-1.1411876678466797
1761817890813025500,0.379025634765625,0.607031524181366,0.8680391311645508,-1.0406887531280518
1761817890822952700,0.38895263671875,0.3967736065387726,0.4413652718067169,-0.9565486907958984
1761817890832879900,0.3988798828125,0.2344273179769516,0.06898371130228043,-0.8775082230567932
1761817890842807800,0.408807861328125,0.10552430897951126,-0.2095121145248413,-0.7935941219329834
1761817890852734500,0.418734375,-0.008023287169635296,-0.2796536684036255,-0.7144215106964111
1761817890862661600,0.42866162109375,-0.03580126166343689,-0.21506723761558533,-0.6950179934501648
1761817890872589600,0.438589599609375,0.15391594171524048,-1.1809056997299194,-0.04344956949353218
1761817890882516700,0.448516845703125,0.4559568464756012,-0.9295598268508911,0.495825856924057
1761817890892444700,0.458444580078125,0.7112243175506592,-0.05251004174351692,0.6790505051612854
1761817890902371600,0.46837158203125,0.6730005741119385,0.6083502173423767,0.5888149738311768
1761817890912299500,0.478299560546875,0.5761304497718811,0.7545612454414368,0.37666386365890503
1761817890922226700,0.488226806640625,0.4676915109157562,0.6796279549598694,0.19511783123016357
1761817890932154600,0.498154541015625,0.35668057203292847,0.7065626382827759,0.13398896157741547
1761817890942081800,0.508081787109375,0.37441956996917725,0.9447833895683289,0.16688986122608185
1761817890952009700,0.518009765625,0.594932496547699,0.7292753458023071,0.24121734499931335
1761817890961936600,0.5279365234375,0.9916132688522339,0.3768896162509918,0.2425047606229782
1761817890971864600,0.537864501953125,1.356948971748352,0.2160426676273346,0.2261846363544464
1761817890981791700,0.547791748046875,1.4501937627792358,0.004741006530821323,0.25223106145858765
1761817890991718700,0.55771875,1.311514973640442,-0.18078383803367615,0.25986021757125854
1761817891001646800,0.567646728515625,1.0928512811660767,-0.2799692153930664,0.1855328232049942
1761817891011573800,0.57757373046875,0.957301139831543,-0.26570558547973633,0.03398909047245979
1761817891021501700,0.587501708984375,0.9570244550704956,-0.06460575759410858,-0.14490927755832672
1761817891031428600,0.5974287109375,0.947364091873169,0.09517432004213333,-0.3081943392753601
1761817891041356500,0.6073564453125,0.6819228529930115,0.11301975697278976,-0.4063445031642914
1761817891051283700,0.61728369140625,0.2812529504299164,0.11404640227556229,-0.4696401059627533
1761817891061211600,0.627211669921875,0.1446930319070816,0.08483726531267166,-0.48078930377960205
1761817891071138600,0.637138671875,0.16565370559692383,0.05173816531896591,-0.4296584725379944
1761817891081066500,0.64706640625,0.19090117514133453,-0.18781952559947968,-0.3277285695075989
1761817891090993700,0.65699365234375,0.1661236584186554,-0.4577884376049042,-0.16630081832408905
1761817891100921600,0.666921630859375,0.11915387958288193,-0.6893780827522278,-0.019684530794620514
1761817891110848800,0.676848876953125,0.1299189180135727,-0.8455213308334351,0.07482732832431793
1761817891120776700,0.686776611328125,0.0911184772849083,-0.8612939119338989,0.10411939769983292
1761817891130703600,0.69670361328125,0.0014743444044142962,-0.7972411513328552,0.05913860723376274
1761817891140630800,0.706630859375,-0.11595185846090317,-0.6752235889434814,0.008886115625500679
1761817891150558700,0.716558837890625,-0.1954386979341507,-0.6114747524261475,-0.005184696055948734
1761817891160485600,0.726485595703125,-0.2368547022342682,-0.6179884672164917,0.036446165293455124
1761817891170413800,0.736413818359375,-0.2897815406322479,-0.6114962100982666,0.12157517671585083
1761817891180340700,0.7463408203125,-0.3768487870693207,-0.7012037634849548,0.13024884462356567
1761817891190268700,0.7562685546875,-0.4306718111038208,-0.5625337362289429,0.1044262945652008
1761817891200195800,0.76619580078125,-0.4402506649494171,-0.30704712867736816,0.01567162200808525
1761817891210123800,0.776123779296875,-0.41412878036499023,-0.07510019838809967,-0.026163175702095032
1761817891220050700,0.78605078125,-0.4389306902885437,0.03417329862713814,-0.011878244578838348
1761817891229978600,0.795978515625,-0.4811689555644989,-0.007243120111525059,-0.01192298624664545
1761817891239905500,0.805905517578125,-0.5187076330184937,-0.2599021792411804,-0.03747805207967758
1761817891249833500,0.81583349609375,-0.5310980081558228,-0.5884800553321838,-0.01640978455543518
1761817891259760600,0.8257607421875,-0.49446406960487366,-0.7564520239830017,0.06473704427480698
1761817891269688600,0.8356884765625,-0.3992975950241089,-0.7779956459999084,0.06688115745782852
1761817891279615700,0.84561572265625,-0.2551960051059723,-0.716599702835083,-0.07283900678157806
1761817891289542700,0.855542724609375,-0.07309649139642715,-0.6743220686912537,-0.37153542041778564
1761817891299470600,0.865470703125,0.11476706713438034,-0.6467961072921753,-0.7736982107162476
1761817891309397800,0.875397705078125,0.26615604758262634,-0.6953409910202026,-1.2403873205184937
1761817891319325700,0.88532568359375,0.38364747166633606,-0.8730226755142212,-1.754805088043213
1761817891329252600,0.895252685546875,0.4114053547382355,-1.0512456893920898,-2.1944992542266846
1761817891339180800,0.905180908203125,0.30259016156196594,-1.1985365152359009,-2.4799463748931885
1761817891349107700,0.915107666015625,0.1783566176891327,-1.1163992881774902,-2.6611180305480957
1761817891359035600,0.92503564453125,0.11563155055046082,-0.7635093331336975,-2.671523094177246
1761817891368962800,0.934962890625,0.06542510539293289,-0.2698120176792145,-2.5817136764526367
1761817891378890800,0.944890869140625,-0.0929383784532547,0.20567205548286438,-2.5408217906951904
1761817891388817700,0.954817626953125,-0.3246419131755829,0.716059684753418,-2.7578258514404297
1761817891398745900,0.964745849609375,-0.5196875333786011,1.2230044603347778,-3.2165164947509766
1761817891408672500,0.974672607421875,-0.6417058110237122,1.7372180223464966,-3.5639212131500244
1761817891418600700,0.9846005859375,-0.6367910504341125,2.0076422691345215,-3.1666276454925537
1761817891428527600,0.994527587890625,-0.3940460681915283,2.298966646194458,-1.5358569622039795
1761817891438455600,1.00445556640625,-0.012841610237956047,1.7535120248794556,-0.5156300067901611
1761817891448382700,1.0143828125,0.288659930229187,0.9969716668128967,-0.36878031492233276
1761817891458310700,1.024310546875,0.3787977993488312,0.3921021819114685,-0.375186949968338
1761817891468237600,1.034237548828125,0.32043781876564026,-0.25059235095977783,-0.32110029458999634
1761817891478164700,1.044164794921875,0.3025001585483551,-0.7233240008354187,-0.3197668194770813
1761817891488092700,1.0540927734375,0.40858426690101624,-0.8022733926773071,-0.34435686469078064
1761817891498019600,1.06401953125,0.5580869317054749,-0.6195917129516602,-0.3419474959373474
1761817891507947800,1.07394775390625,0.6669902205467224,-0.30771905183792114,-0.2924308180809021
1761817891517874700,1.083874755859375,0.6450806856155396,-0.3504124581813812,-0.2502064108848572
1761817891527802600,1.093802734375,0.5832524299621582,-0.5971106886863708,-0.2587311863899231
1761817891537729800,1.103729736328125,0.5014573335647583,-0.9067217111587524,-0.24247758090496063
1761817891547657700,1.11365771484375,0.40445008873939514,-1.1210310459136963,-0.12310244143009186
1761817891557584600,1.123584716796875,0.2867000699043274,-1.0936670303344727,0.11320943385362625
1761817891567512800,1.133512939453125,0.1177121251821518,-0.8740599155426025,0.41956350207328796
1761817891577439700,1.143439697265625,0.0050081778317689896,-0.46201276779174805,0.6573402881622314
1761817891587367700,1.15336767578125,-0.10222826153039932,-0.09876426309347153,0.8142254948616028
1761817891597294600,1.163294677734375,-0.15467636287212372,0.2778526246547699,0.8324949145317078
1761817891607222800,1.173222900390625,-0.16634392738342285,0.5925320386886597,0.7334831357002258
1761817891617149700,1.183149658203125,-0.19410061836242676,0.7778603434562683,0.6294155716896057
1761817891627077600,1.19307763671875,-0.2038392722606659,0.9315851926803589,0.5781790018081665
1761817891637004500,1.203004638671875,-0.18257348239421844,0.9810616374015808,0.5988040566444397
1761817891646932500,1.212932373046875,-0.1335875540971756,0.8290913105010986,0.6706098318099976
1761817891656859600,1.222859619140625,-0.0693168044090271,0.5340821146965027,0.7622444033622742
1761817891666787600,1.23278759765625,-0.019533799961209297,0.1912863850593567,0.7996242642402649
1761817891676714800,1.24271484375,-0.03158985823392868,-0.12035445123910904,0.7349151968955994
1761817891686642700,1.252642578125,-0.09037568420171738,-0.3921652138233185,0.6005224585533142
1761817891696569600,1.262569580078125,-0.10447155684232712,-0.566242516040802,0.4589861333370209
1761817891706497800,1.272497802734375,-0.05513996630907059,-0.5833152532577515,0.3608829975128174
1761817891716424700,1.2824248046875,0.00015320320380851626,-0.5217699408531189,0.2930753827095032
1761817891726352600,1.2923525390625,0.08998748660087585,-0.42696431279182434,0.19014021754264832
1761817891736279800,1.30227978515625,0.1769917607307434,-0.2899332046508789,0.06206084415316582
1761817891746207700,1.312207763671875,0.23403587937355042,-0.1373644471168518,-0.08110563457012177
1761817891756134700,1.322134765625,0.2764914035797119,-0.01066284067928791,-0.2260959893465042
1761817891766062800,1.332062744140625,0.27179864048957825,0.12066695094108582,-0.4000776708126068
1761817891775989800,1.34198974609375,0.20571337640285492,0.14870552718639374,-0.6158323884010315
1761817891785917700,1.351917724609375,0.15198010206222534,0.06285986304283142,-0.8546180725097656
1761817891795844900,1.361844970703125,0.174637109041214,-0.19840043783187866,-1.0693917274475098
1761817891805772800,1.371772705078125,0.2527660131454468,-0.47273266315460205,-1.204466462135315
1761817891815699500,1.381699462890625,0.3427000045776367,-0.7954478859901428,-1.2649314403533936
1761817891825628200,1.391628173828125,0.4203402101993561,-1.0287679433822632,-1.3211078643798828
1761817891835555000,1.40155517578125,0.4419421851634979,-1.0228350162506104,-1.4031397104263306
1761817891845483000,1.41148291015625,0.3418810963630676,0.033602431416511536,-1.1835341453552246
1761817891855410200,1.42141015625,-0.022253381088376045,0.9478873014450073,0.14646859467029572
1761817891865338000,1.431338134765625,-0.13799595832824707,1.257288932800293,0.5488367676734924
1761817891875265000,1.44126513671875,-0.20628972351551056,1.1550880670547485,0.29073387384414673
1761817891885193200,1.451193115234375,-0.2905239164829254,0.9026744365692139,0.05686066672205925
1761817891895120100,1.4611201171875,-0.2371458113193512,0.5550093650817871,0.006328159011900425
1761817891905048000,1.471048095703125,-0.1378333419561386,0.12869533896446228,0.006763585843145847
1761817891914975200,1.480975341796875,-0.07634938508272171,-0.1758575290441513,-0.0031939316540956497
1761817891924903200,1.490903076171875,-0.06546477973461151,-0.2946896255016327,0.02810487151145935
1761817891934830000,1.500830078125,-0.09894853830337524,-0.2810261845588684,0.13410736620426178
1761817891944758300,1.51075830078125,-0.09914960712194443,-0.2107086032629013,0.3191371560096741
1761817891954685200,1.520685302734375,-0.0816744863986969,-0.16550149023532867,0.5048680305480957
1761817891964613000,1.530613037109375,-0.06936322152614594,-0.10159867256879807,0.64725261926651
1761817891974540300,1.540540283203125,-0.08492451161146164,-0.0490381196141243,0.713908851146698
1761817891984468200,1.55046826171875,-0.12029927968978882,-0.036496758460998535,0.6969287991523743
1761817891994395100,1.56039501953125,-0.17249614000320435,-0.07918262481689453,0.6123797297477722
1761817892004323300,1.5703232421875,-0.23023080825805664,-0.1356711983680725,0.476862370967865
1761817892014250000,1.58025,-0.25836098194122314,-0.12510059773921967,0.34585466980934143
1761817892024178000,1.590177978515625,-0.27135586738586426,-0.07738687843084335,0.25067996978759766
1761817892034105000,1.60010498046875,-0.27317318320274353,-0.0026049846783280373,0.19153456389904022
1761817892044033000,1.610032958984375,-0.2545260190963745,0.08727936446666718,0.1465226113796234
1761817892053960200,1.619960205078125,-0.22799161076545715,0.2003968060016632,0.11910753697156906
1761817892063888100,1.62988818359375,-0.2103859931230545,0.3257560729980469,0.12106896191835403
1761817892073815000,1.63981494140625,-0.20521721243858337,0.47008922696113586,0.13570065796375275
1761817892083743000,1.649742919921875,-0.20820048451423645,0.5705137848854065,0.15646186470985413
1761817892093670100,1.659670166015625,-0.1903751641511917,0.5870302319526672,0.18143053352832794
1761817892103598000,1.66959814453125,-0.15444272756576538,0.5122345089912415,0.21591047942638397
1761817892113525200,1.679525146484375,-0.11787953972816467,0.3548944592475891,0.2564801871776581
1761817892123453200,1.689453125,-0.10313121974468231,0.16512718796730042,0.2758520245552063
1761817892133380000,1.699380126953125,-0.11864451318979263,-0.019789401441812515,0.2545066773891449
1761817892143308300,1.709308349609375,-0.14289791882038116,-0.14546477794647217,0.18820515275001526
1761817892153235200,1.719235107421875,-0.14198876917362213,-0.19972144067287445,0.08239609003067017
1761817892163163100,1.7291630859375,-0.0994034931063652,-0.2256462574005127,-0.0661129578948021
1761817892173090300,1.73909033203125,-0.024310965090990067,-0.20904435217380524,-0.24644404649734497
1761817892183018200,1.749018310546875,0.07610245794057846,-0.14963455498218536,-0.45131704211235046
1761817892192945200,1.758945068359375,0.19739075005054474,-0.08001851290464401,-0.6910538077354431
1761817892202873300,1.768873291015625,0.33865734934806824,-0.00890012364834547,-0.9560127854347229
1761817892212800000,1.778800048828125,0.46253201365470886,0.04375141113996506,-1.3203072547912598
1761817892222728200,1.788728271484375,0.4005733132362366,0.5325221419334412,-1.8304061889648438
1761817892232655000,1.798655029296875,0.06769778579473495,1.3169230222702026,-1.2131717205047607
1761817892242583000,1.8085830078125,-0.12307243049144745,1.1672240495681763,0.16318367421627045
1761817892252510000,1.818510009765625,-0.1370806097984314,0.896289050579071,0.26687729358673096
1761817892262438100,1.828438232421875,-0.25238722562789917,0.4558051526546478,-0.007804332301020622
1761817892272365000,1.838364990234375,-0.2628942131996155,-0.0017292255070060492,-0.04246651008725166
1761817892282293000,1.84829296875,-0.16686302423477173,-0.2515853941440582,0.05316147953271866
1761817892292221200,1.85822119140625,-0.08349345624446869,-0.38115406036376953,0.04420727118849754
1761817892302148000,1.868148193359375,-0.009047714993357658,-0.43243110179901123,-0.04227728396654129
1761817892312076000,1.878075927734375,0.07180042564868927,-0.3318447768688202,-0.07621773332357407
1761817892322003200,1.888003173828125,0.15704981982707977,-0.0784657746553421,0.019046204164624214
1761817892331931100,1.89793115234375,0.2524305284023285,0.3213021159172058,0.15559574961662292
1761817892341858000,1.907858154296875,0.29382777214050293,0.6995681524276733,0.24847720563411713
1761817892351786200,1.9177861328125,0.246948704123497,0.7770585417747498,0.24809736013412476
1761817892361713200,1.927713134765625,0.1266459971666336,0.5356349945068359,0.24108392000198364
1761817892371641000,1.93764111328125,0.009275798685848713,0.1521594524383545,0.3065861165523529
1761817892381568300,1.947568359375,-0.07504387944936752,-0.2640228569507599,0.4207611382007599
1761817892391496200,1.95749609375,-0.1071702241897583,-0.6347180604934692,0.5161182284355164
1761817892401423000,1.967423095703125,-0.08639223873615265,-0.8517060279846191,0.5687135457992554
1761817892411351300,1.977351318359375,-0.049301985651254654,-0.9222845435142517,0.5776751041412354
1761817892421278200,1.9872783203125,-0.039805687963962555,-0.8364431262016296,0.5644522309303284
1761817892431206100,1.9972060546875,-0.0576549768447876,-0.6225361824035645,0.5092223286628723
1761817892441133000,2.007133056640625,-0.08221545070409775,-0.34299618005752563,0.4189198613166809
1761817892451061200,2.017061279296875,-0.10013561695814133,-0.050015147775411606,0.3278460204601288
1761817892460988200,2.02698828125,-0.13744863867759705,0.20893944799900055,0.24213458597660065
1761817892470916000,2.036916015625,-0.16172422468662262,0.39643776416778564,0.14419427514076233
1761817892480844000,2.046843994140625,-0.17508982121944427,0.46626612544059753,0.048585195094347
1761817892490771000,2.05677099609375,-0.18122908473014832,0.3993515968322754,-0.05205276608467102
1761817892500699100,2.06669921875,-0.16944167017936707,0.184353768825531,-0.1636195033788681
1761817892510626000,2.0766259765625,-0.1169520765542984,-0.15338294208049774,-0.28616559505462646
1761817892520554000,2.086553955078125,-0.02627144381403923,-0.571064293384552,-0.4154548645019531
1761817892530481200,2.096481201171875,0.0975668728351593,-0.9924968481063843,-0.5588932037353516
1761817892540409000,2.1064091796875,0.22327525913715363,-1.3083515167236328,-0.7169656753540039
1761817892550336000,2.1163359375,0.3005037009716034,-1.431735873222351,-0.889916718006134
1761817892560264200,2.12626416015625,0.3190464675426483,-1.4345132112503052,-1.1047075986862183
1761817892570191000,2.136191162109375,0.3324815332889557,-1.1928222179412842,-1.4687676429748535
1761817892580119000,2.146119140625,0.16555699706077576,0.13051056861877441,-1.8249415159225464
1761817892590046200,2.156046142578125,-0.09801346063613892,0.9228639602661133,-1.0023351907730103
1761817892599974100,2.16597412109375,-0.14530134201049805,1.0797007083892822,0.1909990757703781
1761817892609901300,2.1759013671875,-0.053966693580150604,0.8563545942306519,0.18482951819896698
1761817892619829200,2.185829345703125,-0.08217942714691162,0.6241918802261353,-0.05171645060181618
1761817892629757200,2.195757080078125,-0.10074906796216965,0.40436241030693054,-0.03581021726131439
1761817892639684000,2.20568408203125,-0.07500695437192917,0.14428846538066864,0.06003455072641373
1761817892649612300,2.2156123046875,-0.029223252087831497,-0.1309489905834198,0.059850119054317474
1761817892659539200,2.225539306640625,0.05860194191336632,-0.33708882331848145,0.02919606864452362
1761817892669467100,2.235467041015625,0.21079547703266144,-0.4542897641658783,0.07168520987033844
1761817892679394300,2.245394287109375,0.36768120527267456,-0.5045734643936157,0.22753019630908966
1761817892689322200,2.255322265625,0.4825012981891632,-0.4011140763759613,0.40961283445358276
1761817892699249200,2.265249267578125,0.48825639486312866,-0.20681598782539368,0.4970787763595581
1761817892709177300,2.27517724609375,0.39609673619270325,0.058038413524627686,0.4699662923812866
1761817892719104000,2.28510400390625,0.25506076216697693,0.3842090666294098,0.34851551055908203
1761817892729032000,2.295031982421875,0.11638970673084259,0.6501405835151672,0.2291024923324585
1761817892738959000,2.304958984375,-0.005572418682277203,0.7140048146247864,0.19055350124835968
1761817892748887000,2.314886962890625,-0.0629371702671051,0.6065231561660767,0.22053520381450653
1761817892758815000,2.32481494140625,-0.04385562241077423,0.38903504610061646,0.2444155067205429
1761817892768742100,2.3347421875,0.01443319022655487,0.08905721455812454,0.2480362355709076
1761817892778670000,2.344670166015625,0.06354507803916931,-0.19123995304107666,0.25061899423599243
1761817892788597000,2.354596923828125,0.0922723039984703,-0.34602105617523193,0.2267068475484848
1761817892798525200,2.364525146484375,0.08866345137357712,-0.3959862291812897,0.16816070675849915
1761817892808452000,2.3744521484375,0.05401603505015373,-0.35546061396598816,0.08936034888029099
1761817892818380300,2.38438037109375,0.002361095743253827,-0.24531011283397675,0.00565026979893446
1761817892828307500,2.394307373046875,-0.030645981431007385,-0.11781845986843109,-0.09242138266563416
1761817892838235400,2.4042353515625,-0.06128751486539841,-0.011239820159971714,-0.18196459114551544
1761817892848162300,2.414162353515625,-0.08407097309827805,0.07125697284936905,-0.2691906690597534
1761817892858090500,2.424090576171875,-0.0880310907959938,0.09925052523612976,-0.38404643535614014
1761817892868018400,2.434018310546875,-0.06326773017644882,0.030767539516091347,-0.5317471623420715
1761817892877945300,2.4439453125,-0.018688809126615524,-0.1818845421075821,-0.6918904781341553
1761817892887873500,2.45387353515625,0.057951878756284714,-0.4235191345214844,-0.8316066265106201
1761817892897800400,2.463800537109375,0.14793743193149567,-0.6899742484092712,-0.9734836220741272
1761817892907728400,2.473728271484375,0.26463329792022705,-0.9748362302780151,-1.1387956142425537
1761817892917655600,2.483655517578125,0.40384578704833984,-1.651038646697998,-1.4533274173736572
1761817892927583500,2.49358349609375,0.4976825714111328,-2.414949417114258,-1.6327441930770874
1761817892937510400,2.503510498046875,0.2812325656414032,-1.4781395196914673,-0.08259986340999603
1761817892947438600,2.5134384765625,0.017592372372746468,-1.3738802671432495,0.9355014562606812
1761817892957365500,2.523365478515625,-0.12405264377593994,-1.3752936124801636,0.7155469655990601
1761817892967293400,2.53329345703125,-0.31147363781929016,-1.3034276962280273,0.33298778533935547
1761817892977221400,2.543221435546875,-0.32670238614082336,-1.2511076927185059,0.15678773820400238
1761817892987148500,2.5531484375,-0.18143880367279053,-1.217012643814087,0.1073509156703949
1761817892997076500,2.563076416015625,-0.013154451735317707,-1.2603927850723267,0.05978845804929733
1761817893007003600,2.573003662109375,0.16754430532455444,-1.2887425422668457,0.01571020856499672
1761817893016931600,2.582931640625,0.3228606581687927,-1.2073709964752197,0.03402316942811012
1761817893026858200,2.592858154296875,0.3945431709289551,-1.0690840482711792,0.1428329050540924
1761817893036786400,2.602786376953125,0.37477320432662964,-0.8421965837478638,0.33606839179992676
1761817893046713300,2.61271337890625,0.2863541841506958,-0.5044123530387878,0.5573964715003967
1761817893056641300,2.622641357421875,0.11470014601945877,-0.11475507915019989,0.7163988947868347
1761817893066569200,2.6325693359375,-0.09774858504533768,0.21967355906963348,0.7635881304740906
1761817893076496400,2.642496337890625,-0.27024713158607483,0.4268656373023987,0.7280985713005066
1761817893086424300,2.65242431640625,-0.3981747627258301,0.4903656244277954,0.6864931583404541
1761817893096351500,2.6623515625,-0.4549221992492676,0.49369698762893677,0.6612352132797241
1761817893106279400,2.672279541015625,-0.47309496998786926,0.4214743971824646,0.6128107905387878
1761817893116206300,2.682206298828125,-0.47018733620643616,0.29668664932250977,0.5173740386962891
1761817893126134300,2.69213427734375,-0.43128862977027893,0.2046351283788681,0.39111971855163574
1761817893136061400,2.7020615234375,-0.389217346906662,0.16587281227111816,0.2727278470993042
1761817893145989400,2.7119892578125,-0.3383125066757202,0.20774909853935242,0.17405517399311066
1761817893155917300,2.721917236328125,-0.2966598570346832,0.3104983866214752,0.07518717646598816
1761817893165844500,2.731844482421875,-0.27067986130714417,0.4504508972167969,-0.023158038035035133
1761817893175772400,2.7417724609375,-0.24205060303211212,0.6418112516403198,-0.10697144269943237
1761817893185699600,2.751699462890625,-0.20601631700992584,0.9115902185440063,-0.18119512498378754
1761817893195627500,2.76162744140625,-0.19280970096588135,1.1715024709701538,-0.28125619888305664
1761817893205554400,2.771554443359375,-0.21613360941410065,1.3553837537765503,-0.42508310079574585
1761817893215482400,2.781482421875,-0.2291277050971985,1.4658894538879395,-0.6011611819267273
1761817893225409500,2.791409423828125,-0.22085347771644592,1.4650077819824219,-0.7832878232002258
1761817893235337500,2.80133740234375,-0.21847793459892273,1.2685751914978027,-0.9578531980514526
1761817893245265400,2.811265380859375,-0.16018572449684143,0.8891593813896179,-1.1310557126998901
1761817893255192600,2.821192626953125,-0.05355462804436684,0.26153677701950073,-1.3007755279541016
1761817893265120500,2.83112060546875,0.11597006767988205,-0.48595428466796875,-1.4303008317947388
1761817893275047400,2.84104736328125,0.3124098777770996,-1.0291979312896729,-1.48446524143219
1761817893284975600,2.8509755859375,0.4924077093601227,-1.5207386016845703,-1.522045373916626
1761817893294902300,2.86090234375,0.6958207488059998,-2.167628049850464,-1.5338211059570312
1761817893304830200,2.870830322265625,0.7147333025932312,-1.0005762577056885,-0.2718963623046875
1761817893314758700,2.880758544921875,0.4313628077507019,-0.120358407497406,0.8376830220222473
1761817893324685300,2.890685302734375,0.10630757361650467,-0.3314344882965088,0.6398138403892517
1761817893334613200,2.90061328125,0.027547243982553482,-0.31465259194374084,0.05592852085828781
1761817893344540400,2.91054052734375,0.11417499929666519,-0.2636204659938812,-0.34811297059059143
1761817893354468400,2.92046826171875,0.2634774148464203,-0.6333172917366028,-0.5946234464645386
1761817893364395300,2.930395263671875,0.4499274492263794,-1.132053017616272,-0.7227185368537903
1761817893374323500,2.940323486328125,0.6005672812461853,-1.4846031665802002,-0.7473685145378113
1761817893384250400,2.95025048828125,0.6665357351303101,-1.5739471912384033,-0.5873875617980957
1761817893394178300,2.96017822265625,0.6627535223960876,-1.4496334791183472,-0.2759644687175751
1761817893404106500,2.9701064453125,0.5701010227203369,-1.1766149997711182,0.09250662475824356
1761817893414033400,2.980033447265625,0.39785659313201904,-0.6845880746841431,0.44112107157707214
1761817893423961300,2.98996142578125,0.13730907440185547,-0.09616994857788086,0.6728559136390686
1761817893433888500,2.999888427734375,-0.18414831161499023,0.4320576786994934,0.8222190141677856
1761817893443816400,3.00981640625,-0.43204107880592346,0.8602252006530762,0.9423668384552002
1761817893453743400,3.019743408203125,-0.5854498147964478,1.2252236604690552,0.9976266622543335
1761817893463671600,3.029671630859375,-0.7060522437095642,1.3650133609771729,0.9530611634254456
1761817893473599500,3.039599609375,-0.7506839036941528,1.3305389881134033,0.8150204420089722
1761817893483526400,3.0495263671875,-0.7049289345741272,1.215636134147644,0.6272057890892029
1761817893493454300,3.059454345703125,-0.5923128724098206,1.027719259262085,0.44536706805229187
1761817893503381500,3.069381591796875,-0.46922966837882996,0.7826637029647827,0.2997206449508667
1761817893513309400,3.079309326171875,-0.3902919888496399,0.5226669907569885,0.1966659128665924
1761817893523236600,3.089236572265625,-0.3475017249584198,0.35194191336631775,0.0925208255648613
1761817893533164500,3.09916455078125,-0.36165323853492737,0.22980667650699615,-0.0399051234126091
1761817893543092500,3.109092529296875,-0.3774941861629486,0.15803655982017517,-0.20277798175811768
1761817893553019600,3.11901953125,-0.3406727910041809,0.16324889659881592,-0.40699341893196106
1761817893562947600,3.128947509765625,-0.25532495975494385,0.1680079847574234,-0.6297410130500793
1761817893572874500,3.13887451171875,-0.13241128623485565,0.08866655826568604,-0.850775957107544
1761817893582802400,3.148802490234375,-0.0020461201202124357,-0.0974828451871872,-1.0342867374420166
1761817893592729300,3.158729248046875,0.0842679962515831,-0.3641555607318878,-1.179867148399353
1761817893602657300,3.1686572265625,0.1452654004096985,-0.6664749979972839,-1.3066073656082153
1761817893612585500,3.17858544921875,0.19114181399345398,-0.8549661040306091,-1.3232028484344482
1761817893622512400,3.188512451171875,0.10871513187885284,-0.47485336661338806,0.7819964289665222
1761817893632440300,3.1984404296875,-0.020895328372716904,-0.041054509580135345,1.7691229581832886
1761817893642367500,3.208367431640625,-0.09284386783838272,0.8334708213806152,1.81653892993927
1761817893652295400,3.21829541015625,-0.33729755878448486,0.23931874334812164,1.0086276531219482
1761817893662223400,3.228223388671875,-0.4272865951061249,-0.2933276891708374,0.17799599468708038
1761817893672150300,3.238150390625,-0.2942792773246765,-0.27473294734954834,-0.2486000657081604
1761817893682078500,3.248078369140625,-0.21967588365077972,-0.2893742322921753,-0.3566873371601105
1761817893692005400,3.25800537109375,-0.14619314670562744,-0.4522411823272705,-0.2995601296424866
1761817893701933300,3.267933349609375,0.022673511877655983,-0.5718801617622375,-0.20722593367099762
1761817893711860500,3.277860595703125,0.21172945201396942,-0.7557163238525391,-0.1280650645494461
1761817893721788400,3.287788330078125,0.33959344029426575,-0.9458916187286377,-0.02344578690826893
1761817893731716400,3.29771630859375,0.38373586535453796,-0.9019801020622253,0.14783701300621033
1761817893741643500,3.3076435546875,0.3258484899997711,-0.6897023320198059,0.3577329218387604
1761817893751571500,3.317571533203125,0.18413661420345306,-0.4219851791858673,0.5289949178695679
1761817893761498400,3.327498291015625,0.02111641876399517,-0.11053004860877991,0.5821544528007507
1761817893771426600,3.337426513671875,-0.13428647816181183,0.13773834705352783,0.5267588496208191
1761817893781353500,3.347353515625,-0.28202712535858154,0.2886998653411865,0.4738874137401581
1761817893791281400,3.357281494140625,-0.38845956325531006,0.34872671961784363,0.5199404358863831
1761817893801209300,3.367209228515625,-0.4079987704753876,0.37856411933898926,0.6167091131210327
1761817893811136500,3.377136474609375,-0.35483303666114807,0.3268386125564575,0.6594632267951965
1761817893821064700,3.387064697265625,-0.2685990631580353,0.1529254913330078,0.6281036734580994
1761817893830992000,3.396991943359375,-0.14304514229297638,-0.05133124440908432,0.5688387751579285
1761817893840919800,3.406919921875,-0.003509692382067442,-0.22540734708309174,0.5146633982658386
1761817893850847700,3.41684765625,0.10034266859292984,-0.24882106482982635,0.47159820795059204
1761817893860774700,3.426774658203125,0.0805235505104065,-0.18705038726329803,0.40708574652671814
1761817893870702800,3.436702880859375,-0.014741714112460613,-0.12590765953063965,0.33173373341560364
1761817893880629500,3.44662939453125,-0.10821733623743057,0.04453091323375702,0.28987228870391846
1761817893890557400,3.456557373046875,-0.186628520488739,0.26869210600852966,0.2946004867553711
1761817893900485600,3.466485595703125,-0.2524012625217438,0.40922921895980835,0.33675578236579895
1761817893910412500,3.47641259765625,-0.2825692892074585,0.4896252751350403,0.3749484419822693
1761817893920340500,3.486340576171875,-0.30238237977027893,0.5856109857559204,0.36827266216278076
1761817893930267600,3.496267578125,-0.3409348130226135,0.7425132989883423,0.2843535244464874
1761817893940195600,3.506195556640625,-0.38765043020248413,0.8944087028503418,0.12373871356248856
1761817893950122500,3.51612255859375,-0.4020477533340454,0.9024743437767029,-0.11665737628936768
1761817893960050700,3.52605078125,-0.32184484601020813,0.6976308226585388,-0.46948525309562683
1761817893969978600,3.535978515625,-0.10874403268098831,0.2956703305244446,-0.9569747447967529
1761817893979905500,3.545905517578125,0.1931130290031433,-0.09310243278741837,-1.5537781715393066
1761817893989833500,3.55583349609375,0.4632355868816376,-0.40647923946380615,-2.1583714485168457
1761817893999760600,3.5657607421875,0.6651769876480103,-0.5811075568199158,-2.684107780456543
1761817894009688600,3.5756884765625,0.8025593757629395,-0.5896030068397522,-3.0853519439697266
1761817894019616500,3.585616455078125,0.6433600187301636,1.983957052230835,-1.5844597816467285
1761817894029543700,3.595543701171875,0.23769348859786987,3.2686562538146973,1.350643277168274
1761817894039471600,3.6054716796875,0.15238627791404724,3.3600707054138184,2.0428755283355713
1761817894049398800,3.615398681640625,-0.019547659903764725,2.458385705947876,1.080445408821106
1761817894059326700,3.62532666015625,-0.2193334400653839,1.5161641836166382,0.03309182822704315
1761817894069254700,3.635254638671875,-0.35412001609802246,0.8936587572097778,-0.6072061061859131
1761817894079181600,3.645181640625,-0.43439796566963196,0.3302145004272461,-0.835305392742157
1761817894089109800,3.65510986328125,-0.4970903992652893,-0.3494423031806946,-0.7371686697006226
1761817894099036700,3.66503662109375,-0.45391735434532166,-0.8778630495071411,-0.4395119845867157
1761817894108964600,3.674964599609375,-0.3009392321109772,-1.1871552467346191,-0.06921490281820297
1761817894118892500,3.684892578125,-0.06321015954017639,-1.3801121711730957,0.2362382858991623
1761817894128819700,3.69481982421875,0.2367299646139145,-1.2618659734725952,0.47957131266593933
1761817894138747600,3.70474755859375,0.4406612515449524,-0.7878504395484924,0.6808145046234131
1761817894148674800,3.7146748046875,0.4868103861808777,-0.10831025242805481,0.7277724742889404
1761817894158602800,3.724602783203125,0.28229889273643494,0.6165568828582764,0.6356572508811951
1761817894168529700,3.73452978515625,-0.11098767817020416,1.2465298175811768,0.4850616157054901
1761817894178457900,3.744457763671875,-0.4991350769996643,1.6604005098342896,0.3423260748386383
1761817894188385800,3.7543857421875,-0.7282395958900452,1.7521499395370483,0.2687336206436157
1761817894198312400,3.7643125,-0.7656071186065674,1.4414969682693481,0.3233998417854309
1761817894208240600,3.77424072265625,-0.6314865946769714,0.8933126926422119,0.4665764570236206
1761817894218167600,3.78416748046875,-0.4366995692253113,0.30459049344062805,0.6253926157951355
1761817894228095500,3.794095458984375,-0.23637233674526215,-0.17249831557273865,0.7102686166763306
1761817894238023700,3.804023681640625,-0.06312965601682663,-0.4816768169403076,0.6596933603286743
1761817894247950600,3.81395068359375,0.03894558176398277,-0.6864174604415894,0.47026750445365906
1761817894257878500,3.82387841796875,0.10394690185785294,-0.7744385004043579,0.1734912097454071
1761817894267805700,3.8338056640625,0.1857866495847702,-0.6943843960762024,-0.17867295444011688
1761817894277733600,3.843733642578125,0.27742651104927063,-0.5613456964492798,-0.5323532819747925
1761817894287661600,3.85366162109375,0.37262412905693054,-0.4520045816898346,-0.8810310959815979
1761817894297588500,3.86358837890625,0.4832901656627655,-0.3608379364013672,-1.2343355417251587
1761817894307516700,3.8735166015625,0.5935612916946411,-0.29366159439086914,-1.6121089458465576
1761817894317443600,3.883443603515625,0.6638630628585815,0.028905432671308517,-1.9365359544754028
1761817894327371500,3.89337158203125,0.26973578333854675,1.6720247268676758,-1.629951000213623
1761817894337299700,3.9032998046875,-0.17868441343307495,2.3502583503723145,0.19042617082595825
1761817894347226600,3.9132265625,-0.24611271917819977,2.2504091262817383,0.9008616805076599
1761817894357154600,3.923154541015625,-0.1473073661327362,1.731778860092163,0.9542244672775269
1761817894367081700,3.933081787109375,-0.037549979984760284,0.9668676257133484,0.7311282753944397
1761817894377009700,3.943009765625,0.039661020040512085,0.04776966571807861,0.3561817407608032
1761817894386937600,3.9529375,0.20482094585895538,-0.8295693397521973,-0.04722670838236809
1761817894396864800,3.96286474609375,0.4872083067893982,-1.6182557344436646,-0.33600983023643494
1761817894406792700,3.972792724609375,0.6905869841575623,-1.9846915006637573,-0.38450121879577637
1761817894416719600,3.9827197265625,0.7932143211364746,-1.6855697631835938,-0.13843350112438202
1761817894426647600,3.9926474609375,0.8987716436386108,-1.211008071899414,0.10489953309297562
1761817894436575700,4.00257568359375,0.8891515135765076,-0.47687384486198425,0.27182403206825256
1761817894446502700,4.012502685546875,0.7285298705101013,0.45378002524375916,0.3530097007751465
1761817894456430600,4.0224306640625,0.4621908664703369,1.3588825464248657,0.41265347599983215
1761817894466358800,4.03235888671875,0.14750000834465027,2.012399196624756,0.49829167127609253
1761817894476285700,4.04228564453125,-0.09594979882240295,2.462810754776001,0.5821195244789124
1761817894486213600,4.052213623046875,-0.3221379220485687,2.570802688598633,0.6742646098136902
1761817894496140800,4.062140869140625,-0.3708420395851135,2.2028887271881104,0.7008906602859497
1761817894506068700,4.07206884765625,-0.372488409280777,1.53490149974823,0.722465455532074
1761817894515996700,4.08199658203125,-0.1770099699497223,0.718511164188385,0.6817057132720947
1761817894525923800,4.091923828125,0.0998205691576004,-0.1262136995792389,0.5824757814407349
1761817894535851800,4.101851806640625,0.3761557638645172,-0.8681328296661377,0.4230658710002899
1761817894545778700,4.11177880859375,0.6027109026908875,-1.3567049503326416,0.20764170587062836
1761817894555706600,4.12170654296875,0.7386462092399597,-1.528653860092163,-0.03549734875559807
1761817894565634800,4.131634765625,0.7323510646820068,-1.488527536392212,-0.25282061100006104
1761817894575561500,4.1415615234375,0.6290958523750305,-1.2677947282791138,-0.4309639632701874
1761817894585489700,4.15148974609375,0.4947875440120697,-0.949836015701294,-0.5884654521942139
1761817894595416600,4.16141650390625,0.34992414712905884,-0.6545813679695129,-0.7316413521766663
1761817894605344500,4.171344482421875,0.19368314743041992,-0.48263224959373474,-0.8470430374145508
1761817894615272400,4.1812724609375,0.07240122556686401,-0.3967988193035126,-0.9384530782699585
1761817894625199600,4.19119970703125,-0.05123282968997955,-0.39030441641807556,-0.9945483207702637
1761817894635127600,4.20112744140625,-0.19612349569797516,-0.5734037756919861,-1.0353740453720093
1761817894645054500,4.211054443359375,-0.2711822986602783,-0.9152103662490845,-1.2571752071380615
1761817894654982700,4.220982666015625,-0.23519913852214813,-1.3613109588623047,-1.4019875526428223
1761817894664910600,4.23091064453125,-0.013425726443529129,-1.4062215089797974,0.7317818403244019
1761817894674837500,4.24083740234375,-0.08675990998744965,-0.1700686663389206,1.9767279624938965
1761817894684765700,4.250765625,-0.60858154296875,-0.1082625538110733,2.053591012954712
1761817894694692600,4.260692626953125,-0.9439550042152405,-0.48108866810798645,1.683963656425476
1761817894704620500,4.27062060546875,-1.0484044551849365,-0.6341607570648193,1.1484344005584717
1761817894714548500,4.280548583984375,-0.9419222474098206,-0.856102466583252,0.7083391547203064
1761817894724475600,4.2904755859375,-0.69405198097229,-1.1835379600524902,0.3952401280403137
1761817894734403600,4.300403564453125,-0.38119274377822876,-1.41230046749115,0.1976766288280487
1761817894744331500,4.31033154296875,-0.06772858649492264,-1.3467515707015991,0.05834271013736725
1761817894754258700,4.3202587890625,0.138496994972229,-0.9992725253105164,-0.05832933261990547
1761817894764186600,4.3301865234375,0.16733023524284363,-0.44728150963783264,-0.1827319860458374
1761817894774113500,4.340113525390625,0.04639257490634918,0.16588859260082245,-0.3159435987472534
1761817894784041700,4.350041748046875,-0.13954080641269684,0.6225930452346802,-0.42588552832603455
1761817894793969700,4.3599697265625,-0.32285332679748535,0.8528348207473755,-0.4651544988155365
1761817894803896600,4.369896484375,-0.47791773080825806,0.7764660120010376,-0.42168986797332764
1761817894813824800,4.37982470703125,-0.5676547884941101,0.4333299398422241,-0.29240521788597107
1761817894823751400,4.38975146484375,-0.4459899365901947,-0.038567300885915756,-0.08100724220275879
1761817894833679400,4.399679443359375,-0.09163184463977814,-0.5531991720199585,0.17447035014629364
1761817894843607600,4.409607666015625,0.29795747995376587,-1.0082298517227173,0.4034888744354248
1761817894853534500,4.419534423828125,0.5126062631607056,-1.2680145502090454,0.5512422323226929
1761817894863462400,4.42946240234375,0.551131010055542,-1.259009599685669,0.5824462175369263
1761817894873390300,4.439390380859375,0.46793192625045776,-0.9443380236625671,0.4882669448852539
1761817894883317500,4.4493173828125,0.27227187156677246,-0.4617042541503906,0.3127414584159851
1761817894893245400,4.459245361328125,0.0244795773178339,-0.03921447694301605,0.1373201608657837
1761817894903172600,4.469172607421875,-0.17458665370941162,0.3181157112121582,0.010534778237342834
1761817894913100500,4.4791005859375,-0.3157593309879303,0.6150145530700684,-0.029768794775009155
1761817894923028500,4.489028564453125,-0.3857453167438507,0.8515096306800842,0.022577498108148575
1761817894932955400,4.498955322265625,-0.3569548428058624,0.9888011813163757,0.13862261176109314
1761817894942883600,4.508883544921875,-0.3317943811416626,1.094686508178711,0.27800846099853516
1761817894952810500,4.518810546875,-0.35534024238586426,1.1328694820404053,0.39816680550575256
1761817894962738400,4.528738525390625,-0.2832367718219757,0.9390537142753601,0.4824715554714203
1761817894972666600,4.53866650390625,-0.008554041385650635,0.575702965259552,0.5031090974807739
1761817894982593500,4.548593505859375,0.3555038273334503,0.20101617276668549,0.4118744730949402
1761817894992521500,4.558521484375,0.6889806985855103,-0.44212663173675537,0.12754854559898376
1761817895002449400,4.568449462890625,0.902996838092804,-0.9939716458320618,-0.4226893186569214
1761817895012376600,4.57837646484375,0.8718481063842773,-1.0672777891159058,-1.3795151710510254
1761817895022304500,4.588304443359375,0.497040718793869,-0.18424655497074127,-2.599203586578369
1761817895032231700,4.598231689453125,-0.09587332606315613,1.446033239364624,-1.1998639106750488
1761817895042159600,4.60815966796875,-0.38700157403945923,2.160534620285034,-0.17122775316238403
1761817895052087600,4.618087646484375,-0.3444801867008209,1.4224364757537842,0.3387397825717926
1761817895062014500,4.628014404296875,-0.3071429431438446,0.4384405314922333,0.4128536880016327
1761817895071942700,4.637942626953125,-0.20913442969322205,-0.39806702733039856,0.26049038767814636
1761817895081869600,4.64786962890625,-0.04365278780460358,-0.8907198905944824,-0.0016578594222664833
1761817895091797500,4.657797607421875,0.1799333542585373,-1.1240605115890503,-0.34329837560653687
1761817895101725700,4.6677255859375,0.3201269507408142,-1.167194128036499,-0.6353933811187744
1761817895111652600,4.677652587890625,0.3602587580680847,-1.063378095626831,-0.8181058764457703
1761817895121580500,4.68758056640625,0.3693326711654663,-0.8067415356636047,-0.9090858697891235
1761817895131508500,4.697508544921875,0.32930269837379456,-0.5116926431655884,-0.9276251792907715
1761817895141435600,4.707435546875,0.23067089915275574,-0.295594185590744,-0.8428665995597839
1761817895151363600,4.717363525390625,0.13821332156658173,-0.1434924453496933,-0.6677107214927673
1761817895161290500,4.72729052734375,0.07307986170053482,0.01403326727449894,-0.39979830384254456
1761817895171218400,4.737218505859375,0.03909602388739586,0.21114495396614075,-0.060269758105278015
1761817895181146600,4.747146728515625,-0.021627509966492653,0.3980799615383148,0.30097633600234985
1761817895191073500,4.757073486328125,-0.055655770003795624,0.5957446098327637,0.6501704454421997
1761817895201001500,4.76700146484375,-0.056384410709142685,0.804338276386261,0.9465331435203552
1761817895210929700,4.7769296875,-0.06381189823150635,1.026347041130066,1.1518610715866089
1761817895220856300,4.786856201171875,-0.0956590473651886,1.1450188159942627,1.2582069635391235
1761817895230784500,4.796784423828125,-0.12684562802314758,1.0637975931167603,1.277977466583252
1761817895240711400,4.80671142578125,-0.11981409043073654,0.8417567610740662,1.2148038148880005
1761817895250639400,4.816639404296875,-0.10066041350364685,0.628150999546051,1.0910860300064087
1761817895260567600,4.826567626953125,-0.09216280281543732,0.44217175245285034,0.9241096377372742
1761817895270494500,4.836494384765625,-0.10093408077955246,0.31085070967674255,0.7348048090934753
1761817895280422400,4.84642236328125,-0.14015817642211914,0.24204231798648834,0.5302609801292419
1761817895290350300,4.856350341796875,-0.2012617439031601,0.21837590634822845,0.3003363311290741
1761817895300277500,4.866277587890625,-0.25227031111717224,0.28448569774627686,0.0492098294198513
1761817895310205400,4.876205322265625,-0.2964397370815277,0.3334871530532837,-0.21077226102352142
1761817895320132600,4.886132568359375,-0.3063001036643982,0.42226123809814453,-0.4726339876651764
1761817895330060500,4.896060546875,-0.20668911933898926,0.6108832359313965,-0.7230013608932495
1761817895339988500,4.905988525390625,-0.02012137696146965,0.7598122954368591,-0.9541091322898865
1761817895349915400,4.915915283203125,0.05873800441622734,0.6901000738143921,-1.171604871749878
1761817895359843600,4.925843505859375,0.07056403905153275,0.43883612751960754,-1.4397324323654175
1761817895369771500,4.935771484375,0.15370123088359833,-0.13158325850963593,-1.9547556638717651
1761817895379698400,4.945698486328125,0.3930363357067108,-2.5529067516326904,-0.24702556431293488
1761817895389626600,4.955626708984375,0.27428317070007324,0.543401300907135,0.3508463501930237
1761817895399553500,4.965553466796875,-0.38638636469841003,0.9477538466453552,0.07217691093683243
1761817895409481500,4.9754814453125,-0.5420536994934082,0.03239293023943901,-0.3835836946964264
1761817895419409400,4.985409423828125,-0.10773501545190811,-0.8210356831550598,-0.8001036643981934
1761817895429336600,4.995336669921875,0.3278352618217468,-1.5081013441085815,-0.9966206550598145
1761817895439264500,5.005264404296875,0.6016479134559631,-1.8566347360610962,-0.9856548309326172
1761817895449192400,5.0151923828125,0.6925084590911865,-1.834659457206726,-0.8650893568992615
1761817895459119600,5.02511962890625,0.5957358479499817,-1.3531911373138428,-0.7064384818077087
1761817895469047600,5.035047607421875,0.39198294281959534,-0.579246997833252,-0.5521273016929626
1761817895478975500,5.0449755859375,0.23035968840122223,0.13411052525043488,-0.3700842559337616
1761817895488902700,5.054902587890625,0.16742850840091705,0.42110657691955566,-0.11007873713970184
1761817895498830600,5.06483056640625,0.13112616539001465,0.3912733197212219,0.2162567526102066
1761817895508757500,5.074757568359375,0.07702182233333588,0.3906640410423279,0.5466291308403015
1761817895518685700,5.084685791015625,0.010532014071941376,0.4868427813053131,0.8377786874771118
1761817895528613600,5.094613525390625,-0.06323671340942383,0.6429783701896667,1.0581907033920288
1761817895538540500,5.10454052734375,-0.13206344842910767,0.8096491098403931,1.1896216869354248
1761817895548468500,5.114468505859375,-0.1659327894449234,0.8668963313102722,1.2498763799667358
1761817895558396700,5.124396728515625,-0.18882611393928528,0.7697937488555908,1.2568907737731934
1761817895568323600,5.134323486328125,-0.2069370299577713,0.5501485466957092,1.2261097431182861
1761817895578251500,5.14425146484375,-0.19282519817352295,0.3151549994945526,1.1711442470550537
1761817895588178400,5.154178466796875,-0.17586693167686462,0.11040807515382767,1.097426414489746
1761817895598106600,5.164106689453125,-0.18030188977718353,-0.053347568958997726,0.9945783019065857
1761817895608034600,5.17403466796875,-0.2237430214881897,-0.20519578456878662,0.8679095506668091
1761817895617961500,5.18396142578125,-0.26645585894584656,-0.31396007537841797,0.7313362956047058
1761817895627889400,5.193889404296875,-0.29289335012435913,-0.30645108222961426,0.560526967048645
1761817895637817600,5.203817626953125,-0.3090590238571167,-0.22280573844909668,0.34720301628112793
1761817895647744500,5.21374462890625,-0.2949517071247101,-0.1924688071012497,0.060029786080121994
1761817895657672400,5.22367236328125,-0.23000171780586243,-0.11996397376060486,-0.3107381761074066
1761817895667599400,5.233599365234375,-0.1648131012916565,-0.14995963871479034,-0.7401280999183655
1761817895677527600,5.243527587890625,-0.1114947572350502,-0.2905265986919403,-1.1771022081375122
1761817895687455500,5.25345556640625,-0.007707731332629919,-0.5156712532043457,-1.5895512104034424
1761817895697382400,5.26338232421875,0.12191417813301086,-0.847612738609314,-1.950209617614746
1761817895707310300,5.273310302734375,0.230438232421875,-1.0761561393737793,-2.2324612140655518
1761817895717238500,5.283238525390625,0.28185802698135376,-1.2368252277374268,-2.3967742919921875
1761817895727165400,5.29316552734375,0.34172141551971436,-1.966374397277832,-0.6962782144546509
1761817895737093400,5.30309326171875,0.23278027772903442,0.13271485269069672,1.3668380975723267
1761817895747020500,5.3130205078125,-0.35276734828948975,0.45925188064575195,1.2211073637008667
1761817895756948500,5.322948486328125,-0.3810479938983917,0.1968868523836136,0.38027361035346985
1761817895766876400,5.33287646484375,-0.14894627034664154,-0.0018822861602529883,-0.37189382314682007
1761817895776803600,5.342803466796875,0.03092149831354618,-0.27050626277923584,-0.7991700768470764
1761817895786731500,5.3527314453125,0.2066744714975357,-0.479796826839447,-1.0151822566986084
1761817895796659500,5.362659423828125,0.34229540824890137,-0.5935382843017578,-1.0209013223648071
1761817895806586600,5.372586669921875,0.3572307825088501,-0.5806164741516113,-0.8160557150840759
1761817895816514600,5.3825146484375,0.2698782980442047,-0.5078282952308655,-0.42737826704978943
1761817895826442200,5.392442138671875,0.26024478673934937,-0.2256670445203781,0.041619572788476944
1761817895836369200,5.402369140625,0.26624220609664917,0.043791063129901886,0.4764602482318878
1761817895846297000,5.412297119140625,0.10998745262622833,0.12844699621200562,0.8810322880744934
1761817895856224000,5.42222412109375,-0.10324279963970184,0.2705551087856293,1.2744845151901245
1761817895866152000,5.43215185546875,-0.3026122450828552,0.42593109607696533,1.5972861051559448
1761817895876080000,5.442080078125,-0.3620995283126831,0.5581253170967102,1.7485392093658447
1761817895886007000,5.452007080078125,-0.25723668932914734,0.6004347205162048,1.7200829982757568
1761817895895935000,5.46193505859375,-0.1241942048072815,0.5310348272323608,1.577149510383606
1761817895905863200,5.47186328125,-0.04496362805366516,0.44022005796432495,1.389060616493225
1761817895915790000,5.4817900390625,-0.008897770196199417,0.37404850125312805,1.237324595451355
1761817895925718000,5.491718017578125,-0.01630977727472782,0.22627127170562744,1.1505062580108643
1761817895935646000,5.50164599609375,-0.004706119187176228,0.027687599882483482,1.1327874660491943
1761817895945573000,5.511572998046875,0.017243584617972374,-0.13665993511676788,1.164949893951416
1761817895955501000,5.5215009765625,-0.04433482512831688,-0.18190358579158783,1.2050349712371826
1761817895965428200,5.53142822265625,-0.1521451324224472,-0.10110478848218918,1.2333147525787354
1761817895975356200,5.541356201171875,-0.21033412218093872,0.10251970589160919,1.2193946838378906
1761817895985284000,5.5512841796875,-0.294336199760437,0.2790223956108093,1.125144600868225
1761817895995211000,5.5612109375,-0.33256134390830994,0.3807210624217987,0.9187246561050415
1761817896005139200,5.57113916015625,-0.2579082250595093,0.4150477349758148,0.6196349263191223
1761817896015067100,5.581067138671875,-0.1477779746055603,0.3450033962726593,0.22740432620048523
1761817896024994000,5.590994140625,-0.03184281662106514,0.27546513080596924,-0.23662169277668
1761817896034922200,5.600922119140625,0.08652643859386444,0.1927441507577896,-0.7413253784179688
1761817896044850200,5.61085009765625,0.19918577373027802,0.050748709589242935,-1.2473175525665283
1761817896054777000,5.620777099609375,0.28820618987083435,-0.16147033870220184,-1.6922478675842285
1761817896064705000,5.630705078125,0.3203226625919342,-0.508065402507782,-2.042097806930542
1761817896074632200,5.640632080078125,0.32915982604026794,-0.909670352935791,-2.3038735389709473
1761817896084560100,5.65056005859375,0.3842620253562927,-1.2606290578842163,-2.4963433742523193
1761817896094488000,5.660488037109375,0.4791424572467804,-1.6162828207015991,-2.6539344787597656
1761817896104415200,5.670415283203125,0.5480799674987793,-1.8074415922164917,-2.8044521808624268
1761817896114343200,5.68034326171875,0.5857993960380554,-1.7953499555587769,-2.9409658908843994
1761817896124271000,5.69027099609375,0.6204950213432312,-2.9973931312561035,-2.8357040882110596
1761817896134198300,5.7001982421875,0.454862117767334,-0.16069918870925903,0.07017561793327332
1761817896144126200,5.710126220703125,-0.23253434896469116,0.7905445098876953,0.7720708847045898
1761817896154054100,5.72005419921875,-0.3808748126029968,0.6227768063545227,0.5809699296951294
1761817896163981300,5.729981201171875,-0.15193381905555725,0.6244345307350159,-0.053262047469615936
1761817896173909200,5.7399091796875,0.0024450956843793392,0.257228285074234,-0.6160635948181152
1761817896183837200,5.749837158203125,0.11234915256500244,0.2005683332681656,-0.9605886936187744
1761817896193764000,5.75976416015625,0.21778397262096405,0.3481234312057495,-1.034738540649414
1761817896203692300,5.7696923828125,0.26596999168395996,0.4842468500137329,-0.8944637775421143
1761817896213619200,5.779619140625,0.3218090236186981,0.6580423712730408,-0.6631333231925964
1761817896223547100,5.789547119140625,0.3005036413669586,0.5433914661407471,-0.42867857217788696
1761817896233475300,5.799475341796875,0.17524904012680054,0.3519213795661926,-0.18215346336364746
1761817896243402200,5.80940234375,0.012136663310229778,0.21325615048408508,0.09172365069389343
1761817896253330200,5.819330078125,-0.06909453868865967,0.2095644772052765,0.38870498538017273
1761817896263258000,5.829258056640625,-0.09321147203445435,0.2896803617477417,0.6591126918792725
1761817896273185300,5.839185302734375,-0.1463700234889984,0.3437848687171936,0.855661928653717
1761817896283113200,5.84911328125,-0.19092902541160583,0.42285770177841187,0.9573462605476379
1761817896293041200,5.859041259765625,-0.23563072085380554,0.48148399591445923,0.9717294573783875
1761817896302968000,5.868968017578125,-0.2674959897994995,0.4983591139316559,0.9252524971961975
1761817896312896300,5.878896240234375,-0.2839016020298004,0.44078877568244934,0.8496980667114258
1761817896322823200,5.8888232421875,-0.27943143248558044,0.3102732002735138,0.805185079574585
1761817896332751000,5.898751220703125,-0.260225772857666,0.1393355280160904,0.8111023306846619
1761817896342679000,5.908678955078125,-0.2643890976905823,-0.04739469289779663,0.8682236075401306
1761817896352606000,5.91860595703125,-0.3052332103252411,-0.15706340968608856,0.9531959891319275
1761817896362534100,5.9285341796875,-0.2728085517883301,-0.0927881971001625,1.0113332271575928
1761817896372462000,5.938462158203125,-0.26041898131370544,-0.06904212385416031,0.955809473991394
1761817896382389000,5.948388916015625,-0.23965440690517426,-0.1401578038930893,0.7044987678527832
1761817896392317200,5.958317138671875,-0.10886415839195251,-0.20206589996814728,0.2887153923511505
1761817896402245000,5.9682451171875,0.07520539313554764,-0.22491081058979034,-0.2237769067287445
1761817896412172000,5.978172119140625,0.21373851597309113,-0.34070637822151184,-0.788583517074585
1761817896422100000,5.988099853515625,0.2757100462913513,-0.4406810998916626,-1.3795416355133057
1761817896432028200,5.998028076171875,0.26734745502471924,-0.41442713141441345,-1.930411458015442
1761817896441955000,6.007955078125,0.23471570014953613,-0.34162992238998413,-2.3603641986846924
1761817896451883000,6.017883056640625,0.2427091747522354,-0.4131256937980652,-2.6168456077575684
1761817896461810200,6.02781005859375,0.3093937635421753,-0.6568114161491394,-2.7325732707977295
1761817896471738000,6.037738037109375,0.3082438111305237,-2.2740166187286377,-1.5951189994812012
1761817896481666000,6.047666015625,0.4076823890209198,-1.1610969305038452,1.6455165147781372
1761817896491593200,6.05759326171875,-0.012951388955116272,-0.2163732945919037,1.8749103546142578
1761817896501521200,6.067521240234375,-0.2990134060382843,-0.4110376536846161,1.2433682680130005
1761817896511449000,6.077448974609375,-0.20484431087970734,0.03650311008095741,0.29004213213920593
1761817896521376300,6.087376220703125,-0.110044464468956,0.238068088889122,-0.4682141840457916
1761817896531304200,6.09730419921875,-0.043315768241882324,0.3197222054004669,-0.9832788705825806
1761817896541232000,6.107232177734375,0.026411648839712143,0.34710589051246643,-1.325685739517212
1761817896551159000,6.117158935546875,0.134316548705101,0.2516227662563324,-1.470847725868225
1761817896561087200,6.127087158203125,0.2482614517211914,0.12169133126735687,-1.363344669342041
1761817896571015200,6.13701513671875,0.3122265934944153,0.02418794482946396,-1.039811372756958
1761817896580942000,6.146942138671875,0.3374066650867462,0.11037134379148483,-0.6467810273170471
1761817896590870000,6.1568701171875,0.24173127114772797,0.06692346930503845,-0.3136773109436035
1761817896600797200,6.166797119140625,0.03832082077860832,0.09296957403421402,0.053327661007642746
1761817896610725000,6.17672509765625,-0.16901718080043793,0.2553691267967224,0.4474582076072693
1761817896620653000,6.186653076171875,-0.33088576793670654,0.5166254043579102,0.8675185441970825
1761817896630580200,6.196580322265625,-0.4281015396118164,0.7768479585647583,1.213637351989746
1761817896640508200,6.206508056640625,-0.439866304397583,0.9067068696022034,1.377419114112854
1761817896650436000,6.21643603515625,-0.3681340515613556,0.8768771290779114,1.338587999343872
1761817896660363300,6.22636328125,-0.2794094383716583,0.8348797559738159,1.1433817148208618
1761817896670291200,6.236291259765625,-0.26314577460289,0.7545550465583801,0.8717581629753113
1761817896680219100,6.24621923828125,-0.2816554605960846,0.6084566116333008,0.6426166892051697
1761817896690146300,6.256146240234375,-0.27385345101356506,0.36155495047569275,0.5244844555854797
1761817896700074200,6.26607421875,-0.24154122173786163,0.08392912149429321,0.541923999786377
1761817896710002200,6.276002197265625,-0.2822361886501312,-0.1262054741382599,0.6852145791053772
1761817896719929300,6.285929443359375,-0.4049535393714905,-0.22390447556972504,0.8773963451385498
1761817896729857300,6.295857177734375,-0.5080759525299072,-0.19227303564548492,1.0227073431015015
1761817896739785200,6.30578515625,-0.5142360925674438,-0.07362505793571472,1.0503329038619995
1761817896749712100,6.315712158203125,-0.42988237738609314,0.07117553800344467,0.942467987537384
1761817896759640300,6.325640380859375,-0.30322104692459106,0.2009323239326477,0.72702556848526
1761817896769567200,6.335567138671875,-0.17668573558330536,0.25484296679496765,0.41509753465652466
1761817896779495200,6.3454951171875,-0.10102059692144394,0.25295114517211914,0.0265670046210289
1761817896789423000,6.355423095703125,-0.034705761820077896,0.24753400683403015,-0.4203021228313446
1761817896799350000,6.36535009765625,0.03277719020843506,0.1398499757051468,-0.9249409437179565
1761817896809278200,6.3752783203125,0.11566329002380371,-0.09107404947280884,-1.491119146347046
1761817896819206100,6.3852060546875,0.19993557035923004,-0.2810567021369934,-2.095005989074707
1761817896829133000,6.395133056640625,0.27830013632774353,-0.44649919867515564,-2.6553406715393066
1761817896839061000,6.40506103515625,0.3342331647872925,-0.7072559595108032,-3.0759570598602295
1761817896848989000,6.414989013671875,0.39620068669319153,-1.1508859395980835,-3.1704204082489014
1761817896858916000,6.424916015625,0.3273325562477112,-0.9371653199195862,1.4880491495132446
1761817896868844000,6.434843994140625,0.20804665982723236,0.3037463128566742,2.4279587268829346
1761817896878772000,6.44477197265625,-0.06874358654022217,0.17343054711818695,1.7820806503295898
1761817896888699100,6.45469921875,-0.13095849752426147,0.10164690762758255,0.734017014503479
1761817896898627000,6.464626953125,-0.16878150403499603,0.2383970469236374,-0.35654550790786743
1761817896908555000,6.474554931640625,-0.21802575886249542,0.15024161338806152,-1.2172690629959106
1761817896918482200,6.484482177734375,-0.11897291243076324,0.030594663694500923,-1.7217767238616943
1761817896928410000,6.49441015625,0.07435766607522964,-0.07989296317100525,-1.8337496519088745
1761817896938338000,6.504338134765625,0.23182141780853271,-0.15875624120235443,-1.5925652980804443
1761817896948265000,6.514264892578125,0.3355523347854614,-0.07558944076299667,-1.141587734222412
1761817896958193200,6.524193115234375,0.3995446264743805,-0.0021525081247091293,-0.7114902138710022
1761817896968121000,6.53412109375,0.3110530972480774,-0.08690574765205383,-0.3026108145713806
1761817896978048000,6.544048095703125,0.13453508913516998,-0.12365145981311798,0.10228270292282104
1761817896987976200,6.55397607421875,-0.07245831191539764,-0.06464699655771255,0.5108441114425659
1761817896997904100,6.563904052734375,-0.18050163984298706,0.03364184871315956,0.9355291724205017
1761817897007831000,6.5738310546875,-0.2040138840675354,0.13843856751918793,1.2912309169769287
1761817897017759000,6.583759033203125,-0.20363187789916992,0.2827374041080475,1.4909725189208984
1761817897027686100,6.59368603515625,-0.19674894213676453,0.4558415412902832,1.5305942296981812
1761817897037614000,6.603614013671875,-0.20833942294120789,0.5769684910774231,1.453690528869629
1761817897047542000,6.6135419921875,-0.23802487552165985,0.6294282674789429,1.2981308698654175
1761817897057469200,6.62346923828125,-0.2596087157726288,0.6257690191268921,1.1303730010986328
1761817897067397000,6.633397216796875,-0.26495182514190674,0.5714253187179565,0.9746741652488708
1761817897077325000,6.643324951171875,-0.277673602104187,0.4915851950645447,0.8281015753746033
1761817897087252000,6.653251953125,-0.34358176589012146,0.44652611017227173,0.7135167121887207
1761817897097180200,6.66318017578125,-0.4036582410335541,0.4358074963092804,0.6473175287246704
1761817897107108000,6.673108154296875,-0.45637550950050354,0.4593013823032379,0.6023178696632385
1761817897117035000,6.683034912109375,-0.5262812376022339,0.45551225543022156,0.5840072631835938
1761817897126963000,6.692962890625,-0.5037133097648621,0.4771099388599396,0.5656178593635559
1761817897136891100,6.70289111328125,-0.4243377149105072,0.4562501311302185,0.5012797117233276
1761817897146818000,6.712818115234375,-0.3264758586883545,0.36841028928756714,0.33296874165534973
1761817897156746000,6.72274609375,-0.13551916182041168,0.32037660479545593,0.027886848896741867
1761817897166674000,6.732673828125,0.05538155511021614,0.1229945495724678,-0.4309861958026886
1761817897176600800,6.742600830078125,0.24201154708862305,-0.08548558503389359,-1.0336312055587769
1761817897186529000,6.752529052734375,0.4145217835903168,-0.3080054819583893,-1.7156044244766235
1761817897196457000,6.76245703125,0.5425093173980713,-0.814631462097168,-2.3957417011260986
1761817897206383900,6.7723837890625,0.6722622513771057,-1.319285273551941,-2.9925036430358887
1761817897216311800,6.782311767578125,0.8040651082992554,-1.6593276262283325,-3.4144675731658936
1761817897226240000,6.792239990234375,0.5213662981987,-2.2350940704345703,-0.628873884677887
1761817897236167000,6.8021669921875,0.06786361336708069,-1.2664486169815063,3.027190685272217
1761817897246094800,6.8120947265625,-0.11044487357139587,0.028797101229429245,2.79392147064209
1761817897256023000,6.82202294921875,-0.3207062780857086,0.24688299000263214,1.397021770477295
1761817897265950000,6.831949951171875,-0.39959681034088135,0.6024187207221985,-0.004768728744238615
1761817897275878000,6.8418779296875,-0.4108259379863739,0.9264931678771973,-0.918863832950592
1761817897285805800,6.851805908203125,-0.3342320919036865,0.9174435138702393,-1.3817768096923828
1761817897295733000,6.86173291015625,-0.14091722667217255,0.7371397614479065,-1.5208829641342163
1761817897305661000,6.871660888671875,0.09793449193239212,0.5122315883636475,-1.4014756679534912
1761817897315588900,6.8815888671875,0.2829087972640991,0.28812775015830994,-1.125260591506958
1761817897325516000,6.89151611328125,0.40296757221221924,0.009388240054249763,-0.7652150988578796
1761817897335444000,6.90144384765625,0.47257113456726074,-0.0638633668422699,-0.40799590945243835
1761817897345372000,6.911371826171875,0.4384264647960663,-0.07558181136846542,-0.028364963829517365
1761817897355299000,6.921299072265625,0.3124035596847534,0.0063199857249855995,0.43880754709243774
1761817897365227000,6.93122705078125,0.18741367757320404,0.20873567461967468,0.9339536428451538
1761817897375155000,6.941155029296875,-0.059457771480083466,0.22181841731071472,1.3350036144256592
1761817897385082000,6.95108203125,-0.3292444944381714,0.3308628499507904,1.6042921543121338
1761817897395010000,6.961010009765625,-0.4074961841106415,0.3787379264831543,1.6365412473678589
1761817897404937000,6.97093701171875,-0.39344456791877747,0.26925402879714966,1.4701848030090332
1761817897414865000,6.980864990234375,-0.35445019602775574,0.21174271404743195,1.2063937187194824
1761817897424793000,6.99079296875,-0.2982311248779297,0.20344723761081696,0.9338199496269226
1761817897434720000,7.000719970703125,-0.26508402824401855,0.11842755228281021,0.6917523145675659
1761817897444648000,7.01064794921875,-0.2504427433013916,0.11401895433664322,0.5186372399330139
1761817897454576000,7.020576171875,-0.24498963356018066,0.14758339524269104,0.43201878666877747
1761817897464503000,7.0305029296875,-0.18904300034046173,0.13182227313518524,0.3943624794483185
1761817897474431000,7.040430908203125,-0.0637664645910263,0.08262330293655396,0.34361037611961365
1761817897484359000,7.05035888671875,0.051612865179777145,-0.06612090766429901,0.21075913310050964
1761817897494286000,7.0602861328125,0.1560588777065277,-0.26822522282600403,-0.04346383735537529
1761817897504214000,7.070214111328125,0.3350544571876526,-0.390129029750824,-0.38661107420921326
1761817897514142000,7.080141845703125,0.5391004085540771,-0.520065188407898,-0.8100685477256775
1761817897524069000,7.090069091796875,0.6742166876792908,-0.9684852957725525,-1.3591231107711792
1761817897533997000,7.0999970703125,0.7675051093101501,-1.7067396640777588,-2.261720895767212
1761817897543925000,7.109925048828125,0.5454480648040771,-0.27822908759117126,-1.2465828657150269
1761817897553852200,7.11985205078125,-0.006076000165194273,1.056091547012329,0.8196906447410583
1761817897563780000,7.129780029296875,-0.17578861117362976,1.3173481225967407,1.324451208114624
1761817897573708000,7.1397080078125,-0.16255921125411987,1.1497104167938232,0.9417843818664551
1761817897583636000,7.149635986328125,-0.1503390371799469,0.8782474994659424,0.3695105314254761
1761817897593563100,7.159563232421875,-0.0976051464676857,0.47169533371925354,-0.06702695041894913
1761817897603491000,7.169490966796875,0.020785678178071976,-0.015830375254154205,-0.41237103939056396
1761817897613419000,7.1794189453125,0.08622974157333374,-0.5217418670654297,-0.7823992967605591
1761817897623346200,7.18934619140625,0.03387865796685219,-0.9602276086807251,-1.1437863111495972
1761817897633274000,7.199274169921875,-0.046941109001636505,-1.234072208404541,-1.390581727027893
1761817897643201000,7.209200927734375,-0.062177058309316635,-1.2889761924743652,-1.457066297531128
1761817897653129200,7.219129150390625,-0.05532805621623993,-1.147925853729248,-1.3708597421646118
1761817897663057200,7.22905712890625,-0.062342822551727295,-0.8668899536132812,-1.2004075050354004
1761817897672985000,7.238985107421875,-0.0073660253547132015,-0.4531264305114746,-0.9276179671287537
1761817897682912000,7.248912109375,0.07845593988895416,0.06383176147937775,-0.5246036648750305
1761817897692840200,7.258840087890625,0.11737094074487686,0.6612511277198792,-0.0030451309867203236
1761817897702768000,7.26876806640625,0.021628430113196373,1.1859514713287354,0.6122018098831177
1761817897712695000,7.278695068359375,-0.14145229756832123,1.4409579038619995,1.2433134317398071
1761817897722623200,7.288623291015625,-0.2311670035123825,1.3756452798843384,1.7762343883514404
1761817897732551200,7.29855126953125,-0.20566411316394806,1.0288538932800293,2.097412586212158
1761817897742478000,7.30847802734375,-0.03778430446982384,0.6101149320602417,2.180006980895996
1761817897752406000,7.318406005859375,0.17347678542137146,0.2635018527507782,2.0438153743743896
1761817897762334200,7.328334228515625,0.29029181599617004,0.009911920875310898,1.7075047492980957
1761817897772260900,7.3382607421875,0.2899183928966522,-0.09771610051393509,1.242220401763916
1761817897782189000,7.34818896484375,0.21457649767398834,-0.06929324567317963,0.7112902402877808
1761817897792117000,7.358116943359375,0.1373330056667328,-0.029723698273301125,0.17517630755901337
1761817897802044000,7.3680439453125,0.09298844635486603,-0.02169107273221016,-0.3438785672187805
1761817897811971800,7.377971923828125,0.15972426533699036,-0.028199149295687675,-0.8052976727485657
1761817897821900000,7.387900146484375,0.3267854154109955,-0.12447375059127808,-1.2106289863586426
1761817897831827200,7.3978271484375,0.5338746905326843,-0.2905997633934021,-1.5867981910705566
1761817897841755100,7.407755126953125,0.6846535801887512,-0.4616420865058899,-1.9055155515670776
1761817897851683000,7.41768310546875,0.7461504936218262,-0.7736821174621582,-2.191516399383545
1761817897861610200,7.4276103515625,0.7403876781463623,-1.016453742980957,-2.4343786239624023
1761817897871538200,7.4375380859375,0.6570496559143066,-1.1403532028198242,-2.57889723777771
1761817897881466000,7.447466064453125,0.46919453144073486,-1.0983901023864746,-2.1726856231689453
1761817897891393000,7.45739306640625,0.055783096700906754,0.049197643995285034,1.577559471130371
1761817897901321200,7.4673212890625,-0.30142056941986084,0.5218389630317688,2.8361222743988037
1761817897911249200,7.477249267578125,-0.40454787015914917,0.7574732899665833,2.719202995300293
1761817897921176000,7.487176025390625,-0.4523710608482361,0.5392874479293823,2.020883798599243
1761817897931104000,7.49710400390625,-0.33980289101600647,0.2747601270675659,1.212320327758789
1761817897941032200,7.5070322265625,-0.12738411128520966,0.14800697565078735,0.47737500071525574
1761817897950958800,7.516958740234375,0.06183943152427673,0.07209533452987671,-0.09743838757276535
1761817897960887000,7.526886962890625,0.09364183247089386,0.1238836944103241,-0.5045273303985596
1761817897970815000,7.53681494140625,-0.017548315227031708,0.08816859126091003,-0.7982867360115051
1761817897980742000,7.546741943359375,-0.12270669639110565,0.018609756603837013,-0.9671260714530945
1761817897990670000,7.556670166015625,-0.0806891918182373,-0.06632295250892639,-0.999104380607605
1761817898000598000,7.566597900390625,0.09967472404241562,-0.08847619593143463,-0.9099768996238708
1761817898010525000,7.57652490234375,0.20984645187854767,-0.20423297584056854,-0.7424222826957703
1761817898020452900,7.586452880859375,0.2524825930595398,-0.16836312413215637,-0.503943681716919
1761817898030381000,7.596381103515625,0.18502818048000336,0.031263142824172974,-0.2159823626279831
1761817898040308000,7.606307861328125,0.03411642462015152,0.3495774567127228,0.13444915413856506
1761817898050236000,7.61623583984375,-0.08668991923332214,0.6553677320480347,0.5078433156013489
1761817898060164000,7.6261640625,-0.13804709911346436,0.850873589515686,0.8488301634788513
1761817898070091000,7.636091064453125,-0.11656277626752853,0.9342644810676575,1.1078816652297974
1761817898080019000,7.64601904296875,-0.06461142748594284,0.9278808832168579,1.2689980268478394
1761817898089947000,7.65594677734375,-0.0528046153485775,0.8139622211456299,1.3188910484313965
1761817898099875000,7.665875,-0.07911158353090286,0.6044579744338989,1.2395405769348145
1761817898109802000,7.675802001953125,-0.12823686003684998,0.3643754720687866,1.0463730096817017
1761817898119730000,7.68572998046875,-0.17333641648292542,0.047895267605781555,0.8094209432601929
1761817898129657900,7.695657958984375,-0.1952836662530899,-0.2896457612514496,0.539566159248352
1761817898139585000,7.7055849609375,-0.202934131026268,-0.40630125999450684,0.33130407333374023
1761817898149513000,7.715512939453125,-0.23406504094600677,-0.43383732438087463,0.23727235198020935
1761817898159441000,7.72544091796875,-0.23802782595157623,-0.4093295633792877,0.22786927223205566
1761817898169368000,7.7353681640625,-0.18505524098873138,-0.28573858737945557,0.23128794133663177
1761817898179296000,7.7452958984375,-0.08512783795595169,-0.09583283960819244,0.20299585163593292
1761817898189224000,7.755223876953125,0.06799015402793884,0.1321410983800888,0.1217394471168518
1761817898199151000,7.765151123046875,0.2771385908126831,0.3727260231971741,-0.04363406077027321
1761817898209079000,7.7750791015625,0.48346325755119324,0.5353333353996277,-0.33559346199035645
1761817898219007000,7.785007080078125,0.6208668947219849,0.5348907113075256,-0.7598350644111633
1761817898228934100,7.79493408203125,0.6469112634658813,0.24482662975788116,-1.3446465730667114
1761817898238862000,7.804862060546875,0.6486327648162842,-1.018651008605957,-2.0584371089935303
1761817898248790000,7.8147900390625,0.3730602562427521,-0.2134757936000824,-0.40395334362983704
1761817898258717200,7.82471728515625,-0.19842828810214996,-0.12809404730796814,0.6897738575935364
1761817898268645000,7.83464501953125,-0.34316521883010864,-0.4520789682865143,0.9115414619445801
1761817898278573000,7.844572998046875,-0.3658505380153656,-0.4577949047088623,0.7484910488128662
1761817898288501000,7.8545009765625,-0.30996468663215637,-0.4015253782272339,0.5431084036827087
1761817898298428200,7.86442822265625,-0.1507428139448166,-0.07020683586597443,0.298461377620697
1761817898308356000,7.874356201171875,-0.06817656010389328,0.38836658000946045,-0.012296944856643677
1761817898318284000,7.884283935546875,-0.15042482316493988,0.7767366766929626,-0.31808534264564514
1761817898328211000,7.8942109375,-0.23911501467227936,0.9562987089157104,-0.543879508972168
1761817898338139100,7.90413916015625,-0.21351991593837738,0.9238079190254211,-0.6274383068084717
1761817898348067000,7.914067138671875,-0.12378904968500137,0.6396202445030212,-0.5651430487632751
1761817898357994000,7.923993896484375,-0.013455619104206562,0.10461965203285217,-0.36931705474853516
1761817898367922200,7.933922119140625,0.08080743998289108,-0.4490572512149811,-0.0552201122045517
1761817898377850000,7.94385009765625,0.0963781476020813,-0.8402878642082214,0.3671306073665619
1761817898387777000,7.953777099609375,0.03267700970172882,-0.9498429894447327,0.7784215211868286
1761817898397705000,7.963705078125,-0.03716225549578667,-0.7808030843734741,1.0778270959854126
1761817898407633200,7.973633056640625,-0.07031682878732681,-0.47793710231781006,1.2183436155319214
1761817898417560000,7.98356005859375,-0.07264336943626404,-0.06285177916288376,1.2475835084915161
1761817898427488000,7.993488037109375,-0.07684402912855148,0.2776212692260742,1.2434189319610596
1761817898437416200,8.003416259765626,-0.0585331991314888,0.452629029750824,1.2146717309951782
1761817898447343000,8.013343017578125,-0.07192434370517731,0.5043245553970337,1.1326316595077515
1761817898457271000,8.02327099609375,-0.1176590770483017,0.4412744641304016,1.00697660446167
1761817898467199000,8.033198974609375,-0.1276382952928543,0.36106812953948975,0.8639253377914429
1761817898477126100,8.043126220703124,-0.10368501394987106,0.3334977626800537,0.7218930721282959
1761817898487054000,8.05305419921875,-0.08605367690324783,0.3797720670700073,0.5957697629928589
1761817898496982000,8.06298193359375,-0.07581435143947601,0.49647578597068787,0.4842507243156433
1761817898506910200,8.07291015625,-0.07593563944101334,0.574714720249176,0.3806781768798828
1761817898516837000,8.082837158203125,-0.030856579542160034,0.5510533452033997,0.2375367134809494
1761817898526765000,8.09276513671875,0.05102832242846489,0.37875428795814514,0.007556471973657608
1761817898536693000,8.10269287109375,0.13071595132350922,0.00304510910063982,-0.33602777123451233
1761817898546620200,8.1126201171875,0.19419974088668823,-0.506172776222229,-0.8180720210075378
1761817898556548000,8.122548095703126,0.2146323174238205,-0.8986966609954834,-1.4033175706863403
1761817898566476000,8.13247607421875,0.18640364706516266,-1.005882740020752,-2.010532855987549
1761817898576403200,8.1424033203125,0.13289780914783478,-0.8924618363380432,-2.4909989833831787
1761817898586331100,8.1523310546875,0.06475426256656647,-0.7876300811767578,-2.761554479598999
1761817898596259000,8.162259033203124,0.07563859969377518,-1.1484606266021729,-2.648216962814331
1761817898606186200,8.172186279296875,0.05487772077322006,-0.05066138878464699,0.5734831690788269
1761817898616114200,8.1821142578125,-0.30259785056114197,1.1148601770401,1.7333792448043823
1761817898626042000,8.1920419921875,-0.3322093188762665,0.9028995037078857,1.5475661754608154
1761817898635969300,8.20196923828125,-0.20462529361248016,0.7643493413925171,0.9010041356086731
1761817898645897200,8.211897216796874,-0.19359813630580902,0.5100604891777039,0.3592047095298767
1761817898655825200,8.2218251953125,-0.21764513850212097,0.23435063660144806,0.01082488615065813
1761817898665753000,8.231753173828125,-0.24641835689544678,0.035075850784778595,-0.23867125809192657
1761817898675680300,8.24168017578125,-0.26272088289260864,-0.15117177367210388,-0.39690831303596497
1761817898685608200,8.251608154296875,-0.24924713373184204,-0.4117114543914795,-0.44707608222961426
1761817898695536000,8.2615361328125,-0.17668530344963074,-0.6040508151054382,-0.3520379960536957
1761817898705463300,8.27146337890625,-0.05648454651236534,-0.6073684096336365,-0.14852294325828552
1761817898715391200,8.28139111328125,0.05741086229681969,-0.5256650447845459,0.08511164039373398
1761817898725319200,8.291319091796876,0.13184066116809845,-0.38738834857940674,0.34372708201408386
1761817898735245800,8.301245849609375,0.1346106231212616,-0.12981297075748444,0.6369067430496216
1761817898745174300,8.31117431640625,0.0987209752202034,0.09296776354312897,0.9172917604446411
1761817898755102200,8.321102294921875,0.06985817104578018,0.23819419741630554,1.1124664545059204
1761817898765028900,8.33102880859375,0.07623070478439331,0.3427458703517914,1.1645681858062744
1761817898774957000,8.34095703125,0.09061550348997116,0.43997469544410706,1.0933654308319092
1761817898784885200,8.35088525390625,0.03977734223008156,0.46226638555526733,0.9435887336730957
1761817898794812000,8.36081201171875,-0.051102232187986374,0.44633749127388,0.7216986417770386
1761817898804739800,8.37073974609375,-0.13971175253391266,0.4587613344192505,0.47294631600379944
1761817898814668000,8.38066796875,-0.18416310846805573,0.35152488946914673,0.28698763251304626
1761817898824596500,8.390596435546875,-0.12915663421154022,0.1308414191007614,0.20060501992702484
1761817898834523400,8.4005234375,-0.01589611917734146,-0.09485162794589996,0.18551954627037048
1761817898844451300,8.410451416015626,0.07751543074846268,-0.2817988991737366,0.18881535530090332
1761817898854379500,8.420379638671875,0.10656972229480743,-0.4010073244571686,0.16382665932178497
1761817898864306400,8.430306396484376,0.09162537008523941,-0.44685453176498413,0.07172578573226929
1761817898874234400,8.440234375,0.10166841745376587,-0.4137439727783203,-0.10734570026397705
1761817898884162300,8.450162353515625,0.15096157789230347,-0.2699348032474518,-0.3822069466114044
1761817898894089500,8.46008935546875,0.21460260450839996,-0.2807634770870209,-0.7690494060516357
1761817898904017400,8.470017333984375,0.2687249183654785,-0.27713871002197266,-1.357016921043396
1761817898913945300,8.4799453125,0.27455830574035645,0.17750737071037292,-2.1022112369537354
1761817898923872500,8.48987255859375,0.18251344561576843,0.6138825416564941,-2.8912882804870605
1761817898933800400,8.499800537109374,0.12657321989536285,0.551355242729187,-2.6751558780670166
1761817898943728400,8.509728271484375,0.10290231555700302,1.5670198202133179,0.40860483050346375
1761817898953656300,8.51965625,-0.31598442792892456,1.3628008365631104,1.1500352621078491
1761817898963583500,8.52958349609375,-0.32570570707321167,0.5725507736206055,0.8667858839035034
1761817898973511400,8.539511474609375,-0.20094966888427734,0.16589033603668213,0.25349128246307373
1761817898983439400,8.549439453125,-0.09399707615375519,-0.3093935251235962,-0.1912367194890976
1761817898993366500,8.559366455078125,0.040932778269052505,-0.5574544668197632,-0.4197593927383423
1761817899003294500,8.56929443359375,0.05241846293210983,-0.566501796245575,-0.5292537808418274
1761817899013222400,8.579222412109376,0.034916702657938004,-0.3394313454627991,-0.5587022304534912
1761817899023149600,8.589149658203125,0.010882017202675343,-0.07168283313512802,-0.4690853953361511
1761817899033077500,8.599077392578126,0.003256321419030428,0.11497732996940613,-0.23287391662597656
1761817899043005400,8.60900537109375,-0.043737996369600296,0.2179822027683258,0.07994714379310608
1761817899052932600,8.6189326171875,-0.05773051083087921,0.21315228939056396,0.4152148962020874
1761817899062860500,8.628860595703125,-0.016126498579978943,0.14298725128173828,0.7205244898796082
1761817899072788500,8.63878857421875,0.016398953273892403,0.1416250467300415,0.9578036069869995
1761817899082715400,8.64871533203125,0.01765122264623642,0.20236678421497345,1.093495488166809
1761817899092643600,8.6586435546875,0.0059855105355381966,0.27674490213394165,1.1086806058883667
1761817899102571500,8.668571533203124,-0.014217182993888855,0.33751434087753296,1.0018558502197266
1761817899112499500,8.67849951171875,-0.04820417985320091,0.3782963752746582,0.8309167623519897
1761817899122426400,8.68842626953125,-0.08894416689872742,0.3991893529891968,0.6695972681045532
1761817899132354600,8.6983544921875,-0.1278580129146576,0.4156024158000946,0.5305498838424683
1761817899142282500,8.708282470703125,-0.14490677416324615,0.4249551594257355,0.41777974367141724
1761817899152209400,8.71820947265625,-0.1643342673778534,0.4138769507408142,0.32051151990890503
1761817899162137300,8.728137451171875,-0.19462229311466217,0.3538079857826233,0.20561018586158752
1761817899172065500,8.7380654296875,-0.21430784463882446,0.2707967162132263,0.054377272725105286
1761817899181992200,8.7479921875,-0.19632431864738464,0.20636633038520813,-0.10931472480297089
1761817899191920400,8.75792041015625,-0.1214403510093689,0.1538490504026413,-0.291006863117218
1761817899201848600,8.7678486328125,-0.027697093784809113,0.08960080146789551,-0.4870215952396393
1761817899211776500,8.777776611328125,0.04430039972066879,0.023708604276180267,-0.6686398386955261
1761817899221703200,8.787703125,0.07566829025745392,-0.09739147126674652,-0.8069507479667664
1761817899231631400,8.79763134765625,0.10623632371425629,-0.342114120721817,-0.9238861203193665
1761817899241559600,8.8075595703125,0.15424740314483643,-0.6236823797225952,-1.0757060050964355
1761817899251486200,8.817486328125,0.1704798936843872,-0.8981400728225708,-1.3483442068099976
1761817899261414400,8.827414306640625,0.19495566189289093,-0.8065388202667236,-1.6974316835403442
1761817899271342300,8.83734228515625,0.1943090409040451,-0.39909568428993225,-1.9834685325622559
1761817899281269200,8.847269287109375,0.15900804102420807,0.08050420880317688,-2.1967384815216064
1761817899291197200,8.857197265625,0.10950494557619095,0.4351200759410858,0.16185122728347778
1761817899301125400,8.86712548828125,-0.10537641495466232,1.4439128637313843,1.78066885471344
1761817899311052300,8.87705224609375,-0.4666166603565216,1.2602636814117432,1.3860350847244263
1761817899320980200,8.886980224609376,-0.48335832357406616,0.5172222852706909,0.5077700614929199
1761817899330908400,8.896908447265625,-0.3399558663368225,-0.16964958608150482,-0.3041875958442688
1761817899340836400,8.90683642578125,-0.18150855600833893,-0.8202440738677979,-0.80861496925354
1761817899350763300,8.91676318359375,-0.04554646834731102,-1.133993148803711,-1.0298360586166382
1761817899360691200,8.926691162109375,0.01941720023751259,-1.1426669359207153,-1.0662394762039185
1761817899370619400,8.936619384765624,0.06829073280096054,-0.8953830599784851,-0.9483109712600708
1761817899380546300,8.94654638671875,0.1352289617061615,-0.6932960748672485,-0.6627943515777588
1761817899390474200,8.95647412109375,0.1675909012556076,-0.6116870045661926,-0.2092342972755432
1761817899400402400,8.96640234375,0.14878907799720764,-0.41574525833129883,0.36288177967071533
1761817899410329300,8.976329345703125,0.057794202119112015,-0.22679877281188965,0.9087709784507751
1761817899420257300,8.98625732421875,-0.0060396213084459305,0.03757833316922188,1.3407245874404907
1761817899430185200,8.996185302734375,-0.04298112541437149,0.29228758811950684,1.5953351259231567
1761817899440112400,9.0061123046875,-0.032835498452186584,0.524763822555542,1.704032301902771
1761817899450040300,9.016040283203125,-0.041073720902204514,0.6695904731750488,1.674452781677246
1761817899459968300,9.02596826171875,-0.07736963033676147,0.7147519588470459,1.4998884201049805
1761817899469896200,9.035896240234376,-0.10405610501766205,0.6935502290725708,1.2070730924606323
1761817899479823400,9.0458232421875,-0.11575011163949966,0.6029384732246399,0.8884246945381165
1761817899489751300,9.055751220703126,-0.0854119136929512,0.4528493583202362,0.6122807264328003
1761817899499679200,9.06567919921875,-0.01018051989376545,0.27037733793258667,0.3901178538799286
1761817899509606400,9.0756064453125,0.06140631437301636,0.1043662428855896,0.22006648778915405
1761817899519534300,9.085534423828125,0.11519531905651093,-0.01732194796204567,0.06829598546028137
1761817899529462300,9.095462158203125,0.127797931432724,-0.08265568315982819,-0.08097685128450394
1761817899539389400,9.105389404296876,0.13157738745212555,-0.11203642934560776,-0.2416420727968216
1761817899549317400,9.1153173828125,0.18258625268936157,-0.24872584640979767,-0.42783617973327637
1761817899559245300,9.125245361328124,0.2864225208759308,-0.5743672251701355,-0.709069013595581
1761817899569173200,9.13517333984375,0.3642241358757019,-0.7536118030548096,-1.115828275680542
1761817899579100400,9.145100341796875,0.3598095774650574,-0.6996493935585022,-1.5314700603485107
1761817899589028400,9.1550283203125,0.31612786650657654,-0.5271574854850769,-1.8831887245178223
1761817899598956300,9.164956298828125,0.2776795029640198,-0.27063772082328796,-2.1660029888153076
1761817899608883500,9.174883544921874,0.2884754240512848,-0.11962291598320007,-2.420564889907837
1761817899618811400,9.184811279296875,0.36803847551345825,-0.7227963209152222,-2.719928026199341
1761817899628739300,9.1947392578125,0.4395432770252228,-2.053793430328369,0.5045418739318848
1761817899638666500,9.20466650390625,0.05253082886338234,-0.3195527493953705,1.6465840339660645
1761817899648594400,9.214594482421875,-0.2929900884628296,-0.649793803691864,1.151087760925293
1761817899658522400,9.2245224609375,-0.2759144604206085,-0.4116837978363037,0.1543777585029602
1761817899668449300,9.23444921875,-0.27861863374710083,-0.12975730001926422,-0.4868120849132538
1761817899678377500,9.24437744140625,-0.13249650597572327,0.13962532579898834,-0.8069063425064087
1761817899688305400,9.254305419921875,0.041269700974226,0.37028968334198,-0.9835229516029358
1761817899698233300,9.2642333984375,0.11263080686330795,0.4503115117549896,-1.100767731666565
1761817899708160500,9.274160400390626,0.12075424939393997,0.5196210741996765,-1.1175727844238281
1761817899718088400,9.28408837890625,0.0626303032040596,0.17879760265350342,-0.930814802646637
1761817899728016400,9.294016357421874,0.041358303278684616,-0.4871695041656494,-0.657114565372467
1761817899737943300,9.303943359375,-0.022228628396987915,-0.8652639985084534,-0.25224679708480835
1761817899747871500,9.31387158203125,-0.17875857651233673,-1.0385494232177734,0.1386871337890625
1761817899757799400,9.32379931640625,-0.3195631802082062,-0.7840428948402405,0.5615845322608948
1761817899767726300,9.333726318359375,-0.3590807616710663,-0.3398480713367462,0.9873260259628296
1761817899777654500,9.343654541015624,-0.3116985559463501,0.27161669731140137,1.3618463277816772
1761817899787582500,9.35358251953125,-0.3015945255756378,0.8082737326622009,1.5816506147384644
1761817899797510400,9.363510498046875,-0.31951412558555603,1.2164555788040161,1.642698049545288
1761817899807437300,9.373437255859375,-0.3395077884197235,1.3941802978515625,1.5838876962661743
1761817899817365500,9.383365478515625,-0.35218966007232666,1.3506505489349365,1.4255363941192627
1761817899827293200,9.393293212890624,-0.33348897099494934,1.093140959739685,1.1823596954345703
1761817899837220000,9.40322021484375,-0.26386964321136475,0.7452725172042847,0.9057005643844604
1761817899847148300,9.413148193359374,-0.18773119151592255,0.3099234402179718,0.6782543063163757
1761817899857076200,9.423076171875,-0.13108354806900024,-0.13474895060062408,0.5325140953063965
1761817899867003100,9.433003173828125,-0.110835000872612,-0.46950432658195496,0.4254574775695801
1761817899876931000,9.44293115234375,-0.1339932233095169,-0.6255390048027039,0.3005845546722412
1761817899886859300,9.452859375,-0.12333765625953674,-0.5792111754417419,0.09982562810182571
1761817899896787200,9.462787109375,-0.06127123162150383,-0.4214756488800049,-0.22506168484687805
1761817899906714000,9.472714111328125,0.015788933262228966,-0.19573520123958588,-0.6392061114311218
1761817899916642300,9.482642333984375,0.1124187484383583,0.024471353739500046,-1.0988682508468628
1761817899926570200,9.4925703125,0.2020689994096756,0.16657869517803192,-1.6162434816360474
1761817899936497200,9.5024970703125,0.2736034393310547,0.39921578764915466,-2.1808109283447266
1761817899946425000,9.512425048828124,0.21811966598033905,0.40946951508522034,-2.663418769836426
1761817899956353300,9.522353271484375,0.1157379224896431,-0.16998451948165894,-3.0288279056549072
1761817899966280200,9.5322802734375,0.1349417120218277,-2.2971878051757812,-2.163118600845337
1761817899976208100,9.5422080078125,0.05344051495194435,-1.0200477838516235,1.1022027730941772
1761817899986136300,9.55213623046875,-0.3725709617137909,-0.7866201996803284,1.4735974073410034
1761817899996063200,9.562063232421876,-0.3049792945384979,-0.8557031154632568,0.8901852369308472
1761817900005991200,9.5719912109375,-0.26071518659591675,-0.39717552065849304,0.036548368632793427
1761817900015919000,9.581919189453124,-0.2113078087568283,0.21465937793254852,-0.7301126718521118
1761817900025847300,9.591847412109376,-0.020881669595837593,0.5772308707237244,-1.266079306602478
1761817900035774200,9.601774169921875,0.11631589382886887,0.6004135012626648,-1.5450193881988525
1761817900045702100,9.6117021484375,0.26612216234207153,0.3684029281139374,-1.5728213787078857
1761817900055630000,9.621630126953125,0.41007810831069946,-0.13827046751976013,-1.3504973649978638
1761817900065557200,9.63155712890625,0.491816908121109,-0.7758184671401978,-0.9340163469314575
1761817900075485200,9.641485107421875,0.33249416947364807,-1.2883020639419556,-0.1271347850561142
1761817900085413000,9.6514130859375,0.18216991424560547,-1.1184943914413452,0.6480573415756226
1761817900095340300,9.66134033203125,0.08305417001247406,-0.8111908435821533,1.0420081615447998
1761817900105268200,9.671268310546875,0.015226386487483978,-0.4569110572338104,1.2064357995986938
1761817900115196200,9.681196044921874,-0.028877021744847298,0.020232081413269043,1.2517887353897095
1761817900125124000,9.6911240234375,-0.06978636980056763,0.31332945823669434,1.1755867004394531
1761817900135051300,9.70105126953125,-0.12037213146686554,0.49083617329597473,0.9893642067909241
1761817900144979200,9.710979248046876,-0.16185058653354645,0.6134244203567505,0.7399735450744629
1761817900154907100,9.7209072265625,-0.16817522048950195,0.6549055576324463,0.5177618265151978
1761817900164834000,9.730833984375,-0.17535217106342316,0.5904139280319214,0.36682185530662537
1761817900174762200,9.74076220703125,-0.21209417283535004,0.3103804290294647,0.32718780636787415
1761817900184690200,9.750690185546874,-0.2761642336845398,-0.1024092584848404,0.3879843056201935
1761817900194617000,9.7606171875,-0.2643014192581177,-0.5277538299560547,0.41397443413734436
1761817900204545000,9.770544921875,-0.2174830585718155,-0.8577495813369751,0.35145246982574463
1761817900214473200,9.78047314453125,-0.17761768400669098,-0.9385214447975159,0.22951024770736694
1761817900224401200,9.790401123046875,-0.1256740540266037,-0.6427289247512817,0.09788352251052856
1761817900234328000,9.800328125,-0.11644948273897171,-0.18720419704914093,-0.07282736152410507
1761817900244256300,9.81025634765625,-0.032522886991500854,0.36398863792419434,-0.3232257664203644
1761817900254184200,9.82018408203125,0.09528176486492157,0.9092758297920227,-0.5864514708518982
1761817900264111000,9.830111083984375,0.17861101031303406,1.3311578035354614,-0.8175051808357239
1761817900274039000,9.8400390625,0.2225978970527649,1.4473241567611694,-1.0671000480651855
1761817900283967200,9.84996728515625,0.2636718153953552,1.2209382057189941,-1.2380763292312622
1761817900293894100,9.85989404296875,0.22872066497802734,1.3406797647476196,0.43071576952934265
1761817900303822000,9.869822021484374,-0.08412513136863708,1.591625452041626,1.129179835319519
1761817900313750000,9.87975,-0.20777618885040283,0.7358319759368896,1.0435117483139038
1761817900323678200,9.88967822265625,-0.21720698475837708,-0.023798493668437004,0.4466634690761566
1761817900333605000,9.899605224609376,-0.24972018599510193,-0.38547229766845703,-0.3779457211494446
1761817900343533000,9.909532958984375,-0.175840362906456,-0.7330595254898071,-1.099263072013855
1761817900353461000,9.9194609375,-0.03098035790026188,-0.948420524597168,-1.5245656967163086
1761817900363388200,9.92938818359375,0.16580833494663239,-1.032715916633606,-1.7296022176742554
1761817900373316000,9.939316162109375,0.35135096311569214,-0.9700402617454529,-1.7861822843551636
1761817900383244000,9.949244140625,0.44557252526283264,-0.8442208170890808,-1.7094433307647705
1761817900393172000,9.959171875,0.44324392080307007,-0.6581690907478333,-1.4971731901168823
1761817900403099100,9.96909912109375,0.32494255900382996,-0.5377212166786194,-1.1455028057098389
1761817900413027000,9.979027099609375,0.1987924724817276,-0.43222010135650635,-0.7136186361312866
1761817900422955000,9.988955078125,0.08201181143522263,-0.3398054838180542,-0.1979217231273651
1761817900432882200,9.998882080078126,-0.05538913980126381,-0.23422329127788544,0.3661954998970032
1761817900442810000,10.00881005859375,-0.12487687170505524,0.019005781039595604,0.8078341484069824
1761817900452738000,10.018738037109374,-0.18636251986026764,0.33748218417167664,1.0778162479400635
1761817900462665000,10.0286650390625,-0.28090792894363403,0.6934089064598083,1.2406301498413086
1761817900472593200,10.03859326171875,-0.3491237461566925,1.014570713043213,1.3560163974761963
1761817900482521000,10.04852099609375,-0.36142221093177795,1.1846669912338257,1.4242208003997803
1761817900492449000,10.058448974609375,-0.3145481050014496,1.1650327444076538,1.4331427812576294
1761817900502376200,10.068376220703126,-0.24377568066120148,1.1172106266021729,1.391942024230957
1761817900512304000,10.07830419921875,-0.18573644757270813,1.0018093585968018,1.3393267393112183
1761817900522232000,10.088232177734374,-0.10754949599504471,0.7994199991226196,1.2640780210494995
1761817900532159000,10.098158935546875,-0.017298078164458275,0.6040500998497009,1.1678472757339478
1761817900542087200,10.108087158203125,0.024342309683561325,0.5019474029541016,1.0366264581680298
1761817900552015000,10.11801513671875,-0.00644285324960947,0.4298402667045593,0.8828527927398682
1761817900561942000,10.12794189453125,-0.04698921740055084,0.37602418661117554,0.7258743643760681
1761817900571870200,10.1378701171875,-0.03558185696601868,0.28433045744895935,0.5363787412643433
1761817900581798100,10.147798095703125,0.05106062814593315,0.11762189865112305,0.26316317915916443
1761817900591726000,10.15772607421875,0.20335263013839722,-0.11579203605651855,-0.14936070144176483
1761817900601653000,10.167653076171876,0.36890992522239685,-0.4805702567100525,-0.7652744650840759
1761817900611581200,10.177581298828125,0.578258216381073,-0.8097526431083679,-1.5999517440795898
1761817900621509000,10.187509033203124,0.8238818645477295,-1.189075231552124,-2.599561929702759
1761817900631436000,10.19743603515625,1.060307502746582,-1.5528833866119385,-3.5498757362365723
1761817900641364200,10.2073642578125,0.7695723176002502,-0.6342712640762329,-0.7379943132400513
1761817900651292200,10.217292236328126,0.17539018392562866,0.41127273440361023,1.2722471952438354
1761817900661219000,10.227218994140625,-0.12527671456336975,0.5621591210365295,1.505260705947876
1761817900671147000,10.23714697265625,-0.20669536292552948,-0.005801149178296328,0.8179776072502136
1761817900681075200,10.2470751953125,-0.22818441689014435,-0.17391958832740784,-0.1649773120880127
1761817900691003100,10.257003173828124,-0.28496506810188293,-0.2876782715320587,-1.0022165775299072
1761817900700930000,10.266929931640625,-0.2004248946905136,-0.3932180106639862,-1.5571612119674683
1761817900710858000,10.27685791015625,-0.007277564611285925,-0.4409487843513489,-1.8319896459579468
1761817900720786200,10.2867861328125,0.13906154036521912,-0.5604504346847534,-1.8111910820007324
1761817900730713000,10.296713134765625,0.24848653376102448,-0.6054267287254333,-1.5527162551879883
1761817900740641000,10.30664111328125,0.24273809790611267,-0.660139262676239,-1.195662260055542
1761817900750569200,10.3165693359375,0.14407798647880554,-0.595373809337616,-0.8300210237503052
1761817900760497200,10.3264970703125,0.022710539400577545,-0.3849971890449524,-0.4386650025844574
1761817900770424000,10.336424072265626,-0.12373913824558258,-0.15891779959201813,0.04088158532977104
1761817900780352000,10.34635205078125,-0.23230822384357452,0.14759767055511475,0.5653863549232483
1761817900790280200,10.3562802734375,-0.2750008702278137,0.4601559638977051,1.0312814712524414
1761817900800207000,10.36620703125,-0.24892322719097137,0.674302875995636,1.351083755493164
1761817900810135000,10.376135009765624,-0.17724032700061798,0.6830815076828003,1.5174092054367065
1761817900820063200,10.386063232421876,-0.08807423710823059,0.4281863868236542,1.5774579048156738
1761817900829989000,10.395989013671874,-0.024779196828603745,0.028364617377519608,1.5103235244750977
1761817900839917300,10.405917236328126,-0.011870056390762329,-0.3817398250102997,1.3158535957336426
1761817900849845500,10.415845458984375,-0.009393008425831795,-0.7220491170883179,1.0186876058578491
1761817900859773400,10.4257734375,-0.014352879486978054,-1.0166687965393066,0.6800631880760193
1761817900869700000,10.4357001953125,0.016557544469833374,-1.1592172384262085,0.35757774114608765
1761817900879628500,10.445628662109375,0.09800446778535843,-1.1994363069534302,0.09037745743989944
1761817900889556500,10.455556396484376,0.15784017741680145,-1.0592596530914307,-0.0943746268749237
1761817900899483100,10.465483154296875,0.09775739908218384,-0.7172075510025024,-0.16725842654705048
1761817900909411000,10.4754111328125,0.01996432989835739,-0.2889576256275177,-0.2194547951221466
1761817900919339500,10.485339599609375,0.03193816915154457,0.10304635018110275,-0.34458261728286743
1761817900929267500,10.495267333984375,0.13001981377601624,0.42957964539527893,-0.591499388217926
1761817900939194000,10.505194091796875,0.3274519145488739,0.7049241065979004,-0.9557974338531494
1761817900949122300,10.515122314453125,0.4918513596057892,0.7981511950492859,-0.9851198792457581
1761817900959050500,10.525050537109376,0.33728736639022827,1.1894718408584595,1.002579689025879
1761817900968977200,10.53497705078125,-0.039161644876003265,0.9563754200935364,1.7797616720199585
1761817900978905000,10.544905029296874,-0.11376743018627167,0.281169593334198,1.2960855960845947
1761817900988833300,10.554833251953125,-0.11624327301979065,-0.37775135040283203,0.2222515344619751
1761817900998761500,10.564761474609375,-0.07107659429311752,-0.5526499152183533,-0.7217794060707092
1761817901008688000,10.574688232421876,-0.033728647977113724,-0.6352419257164001,-1.2635477781295776
1761817901018616300,10.5846162109375,0.045818377286195755,-0.5653619170188904,-1.5236304998397827
1761817901028544300,10.594544189453124,0.1827312707901001,-0.4006521999835968,-1.5983561277389526
1761817901038471200,10.60447119140625,0.34418249130249023,-0.29154515266418457,-1.5354125499725342
1761817901048399000,10.614399169921874,0.4623776972293854,-0.29927903413772583,-1.4238333702087402
1761817901058327300,10.624327392578126,0.4881770610809326,-0.3520892560482025,-1.2744449377059937
1761817901068254200,10.634254150390625,0.4433731436729431,-0.48193874955177307,-1.0654033422470093
1761817901078182100,10.64418212890625,0.34173521399497986,-0.6470014452934265,-0.6902027726173401
1761817901088110300,10.6541103515625,0.1802954524755478,-0.6266027092933655,-0.17195768654346466
1761817901098038300,10.664038330078125,0.021767592057585716,-0.4014037251472473,0.39249318838119507
1761817901107965200,10.673965087890625,-0.07626163959503174,-0.04157310724258423,0.9091865420341492
1761817901117893000,10.68389306640625,-0.14307981729507446,0.36926236748695374,1.3032491207122803
1761817901127821300,10.6938212890625,-0.14811314642429352,0.7371121048927307,1.5508387088775635
1761817901137748200,10.703748291015625,-0.09932030737400055,0.9386356472969055,1.6760088205337524
1761817901147676200,10.71367626953125,-0.04456459358334541,0.9678199887275696,1.6971516609191895
1761817901157604000,10.72360400390625,0.039185963571071625,0.8760011196136475,1.622004508972168
1761817901167532300,10.7335322265625,0.13458684086799622,0.6374746561050415,1.4501328468322754
1761817901177459200,10.743459228515626,0.17941875755786896,0.41057896614074707,1.1873080730438232
1761817901187387100,10.75338720703125,0.15972667932510376,0.15949644148349762,0.8552186489105225
1761817901197315300,10.7633154296875,0.09305764734745026,-0.08684516698122025,0.49416565895080566
1761817901207242200,10.7732421875,0.05023258179426193,-0.2202114313840866,0.12597917020320892
1761817901217170200,10.783170166015625,0.06051770970225334,-0.34712517261505127,-0.21196985244750977
1761817901227098000,10.79309814453125,0.1492016464471817,-0.5042381286621094,-0.5142198204994202
1761817901237026300,10.8030263671875,0.2703847885131836,-0.7004494667053223,-0.8057946562767029
1761817901246953200,10.812953125,0.3416254222393036,-0.9328634738922119,-1.1545586585998535
1761817901256881200,10.822881103515625,0.35136353969573975,-0.9886955618858337,-1.5656307935714722
1761817901266809300,10.832809326171875,0.3512636423110962,-0.9162440299987793,-2.032169818878174
1761817901276736300,10.842736328125,0.3806670606136322,-0.31880563497543335,-1.7975950241088867
1761817901286664200,10.852664306640625,0.1490536630153656,1.0093997716903687,1.4856864213943481
1761817901296592100,10.862592041015626,-0.132770836353302,1.0028156042099,1.9032154083251953
1761817901306520300,10.872520263671875,-0.2999742329120636,0.8062269687652588,1.8328157663345337
1761817901316447200,10.882447265625,-0.2162175327539444,0.29497963190078735,1.449487328529358
1761817901326375200,10.892375244140625,-0.1344263255596161,-0.005417854059487581,0.9084563255310059
1761817901336303400,10.902303466796875,-0.15971224009990692,-0.16615401208400726,0.2973999083042145
1761817901346230300,10.912230224609376,-0.18662747740745544,-0.2371879667043686,-0.31146982312202454
1761817901356158200,10.922158203125,-0.18976494669914246,-0.37596529722213745,-0.7690099477767944
1761817901366086100,10.932086181640624,-0.1273898184299469,-0.47528383135795593,-1.0365214347839355
1761817901376014300,10.942014404296875,-0.040241871029138565,-0.4109381437301636,-1.10014808177948
1761817901385941200,10.951941162109375,0.022754138335585594,-0.20494316518306732,-0.996491014957428
1761817901395869200,10.961869140625,0.0018547156360000372,-0.10603974759578705,-0.7299668788909912
1761817901405797000,10.971797119140625,0.0003305116842966527,0.031740859150886536,-0.32389888167381287
1761817901415724300,10.981724365234374,-0.00033581117168068886,0.19541873037815094,0.1666332632303238
1761817901425652200,10.99165234375,-0.039712343364953995,0.46080708503723145,0.6709290742874146
1761817901435580200,11.001580078125,-0.03414260596036911,0.7379904985427856,1.139220118522644
1761817901445508400,11.01150830078125,-0.03658591955900192,0.8093970417976379,1.5031214952468872
1761817901455435300,11.021435302734375,-0.29144591093063354,0.7418296933174133,1.7330095767974854
1761817901465363200,11.03136328125,-0.567263126373291,0.9446775913238525,1.5302375555038452
1761817901475291100,11.041291015625,-0.24227730929851532,0.6830624938011169,1.3081400394439697
1761817901485219300,11.05121923828125,-0.18738362193107605,0.10206368565559387,1.1280235052108765
1761817901495146200,11.061146240234375,-0.05918731540441513,-0.08152345567941666,0.9651579260826111
1761817901505074200,11.07107421875,0.09537892788648605,-0.21013475954532623,0.7875722646713257
1761817901515002400,11.08100244140625,0.24863453209400177,-0.18088525533676147,0.5554125308990479
1761817901524929300,11.09092919921875,0.39327526092529297,-0.06417449563741684,0.24800843000411987
1761817901534857200,11.100857177734374,0.474161833524704,-0.026344560086727142,-0.1595849245786667
1761817901544785200,11.11078515625,0.4753419756889343,0.010581620037555695,-0.6749643683433533
1761817901554713300,11.12071337890625,0.41814419627189636,0.06892561912536621,-1.289786458015442
1761817901564640300,11.13064013671875,0.3162232041358948,0.03856014832854271,-1.9973022937774658
1761817901574568200,11.140568115234375,0.2696112394332886,0.011372469365596771,-2.796231985092163
1761817901584496400,11.150496337890624,0.16899943351745605,1.1828643083572388,-2.5779988765716553
1761817901594423300,11.16042333984375,0.07079774886369705,1.0363355875015259,0.4935469329357147
1761817901604351200,11.170351318359375,0.22116248309612274,0.625182569026947,1.0747206211090088
1761817901614279200,11.180279052734376,0.3268074095249176,0.3246145248413086,0.9285749197006226
1761817901624207400,11.190207275390625,0.41466808319091797,0.027584809809923172,0.7401520013809204
1761817901634134300,11.20013427734375,0.26139944791793823,0.030004825443029404,0.6569319367408752
1761817901644062200,11.210062255859375,-0.031458910554647446,0.11383026093244553,0.4379580616950989
1761817901653990100,11.219990234375,-0.27434080839157104,0.2393711358308792,0.09464037418365479
1761817901663918300,11.22991845703125,-0.4263908267021179,0.38318678736686707,-0.23291143774986267
1761817901673845200,11.23984521484375,-0.46279996633529663,0.4228047728538513,-0.44147396087646484
1761817901683773200,11.249773193359376,-0.3577077388763428,0.4148223400115967,-0.534101665019989
1761817901693701400,11.259701416015625,-0.16929441690444946,0.49886128306388855,-0.5235731601715088
1761817901703628300,11.269628173828124,-0.018506506457924843,0.6680436730384827,-0.4345366954803467
1761817901713556200,11.27955615234375,0.008602076210081577,0.7617453932762146,-0.3328779935836792
1761817901723484200,11.289484130859375,-0.04678767919540405,0.6413078904151917,-0.1827622652053833
1761817901733412400,11.299412353515624,-0.10070396959781647,0.4132535755634308,0.029649099335074425
1761817901743339300,11.30933935546875,-0.11282496899366379,0.07907739281654358,0.28168588876724243
1761817901753267200,11.31926708984375,-0.0829155445098877,-0.25638264417648315,0.5976433157920837
1761817901763195400,11.3291953125,-0.025683419778943062,-0.46472543478012085,0.8818885684013367
1761817901773123300,11.339123291015625,0.007900906726717949,-0.4829009771347046,1.0437549352645874
1761817901783050200,11.34905029296875,-0.03490457311272621,-0.35280361771583557,1.0661453008651733
1761817901792978200,11.358978271484375,-0.10719447582960129,-0.10860532522201538,1.0145652294158936
1761817901802906400,11.36890625,-0.15486876666545868,0.16895069181919098,0.9386389255523682
1761817901812833300,11.378833251953125,-0.15183942019939423,0.3719483017921448,0.8453673124313354
1761817901822761200,11.38876123046875,-0.11801432073116302,0.5096867680549622,0.7328992486000061
1761817901832690400,11.3986904296875,-0.09728027880191803,0.618628203868866,0.6100918054580688
1761817901842618400,11.408618408203125,-0.09750764816999435,0.6843990087509155,0.47068825364112854
1761817901852545500,11.418545654296874,-0.06650472432374954,0.6373633742332458,0.2913787066936493
1761817901862473500,11.428473388671875,0.02843450754880905,0.5374531745910645,0.056993719190359116
1761817901872401400,11.4384013671875,0.15019556879997253,0.3051123023033142,-0.24232429265975952
1761817901882329300,11.448329345703126,0.24380727112293243,-0.09162411093711853,-0.6769364476203918
1761817901892256500,11.458256591796875,0.34987673163414,-0.3926052749156952,-1.3131959438323975
1761817901902184400,11.468184326171874,0.46593376994132996,-0.7785796523094177,-1.976006031036377
1761817901912112400,11.4781123046875,0.5882618427276611,-1.167018175125122,-1.6063650846481323
1761817901922039600,11.48803955078125,0.38478630781173706,-0.7059068083763123,0.17248499393463135
1761817901931967500,11.497967529296876,0.0007947137928567827,-0.348065584897995,0.7068346738815308
1761817901941895400,11.5078955078125,-0.11607541888952255,-0.19100798666477203,0.7082582712173462
1761817901951823400,11.5178232421875,-0.18992353975772858,-0.04688489809632301,0.6098989248275757
1761817901961750500,11.52775048828125,-0.24065127968788147,-0.027754051610827446,0.5300044417381287
1761817901971678500,11.537678466796875,-0.2921118140220642,0.0019420591415837407,0.4854569137096405
1761817901981606400,11.5476064453125,-0.3394721746444702,0.1909468024969101,0.45178142189979553
1761817901991534600,11.55753466796875,-0.4219566583633423,0.5144547820091248,0.38190755248069763
1761817902001461500,11.56746142578125,-0.526678740978241,0.752659797668457,0.26768478751182556
1761817902011389400,11.577389404296875,-0.5666677355766296,0.9394959807395935,0.1438741534948349
1761817902021317400,11.5873173828125,-0.5367132425308228,0.9424132108688354,0.059211160987615585
1761817902031245600,11.59724560546875,-0.4182835817337036,0.7773009538650513,0.020840337499976158
1761817902041172500,11.60717236328125,-0.24304713308811188,0.47069206833839417,0.046827223151922226
1761817902051100400,11.617100341796874,-0.061632346361875534,0.10116409510374069,0.1746504306793213
1761817902061028600,11.627028564453125,0.06343615055084229,-0.24086448550224304,0.3571981191635132
1761817902070955500,11.63695556640625,0.10500969737768173,-0.4386574625968933,0.5043966174125671
1761817902080883500,11.646883544921875,0.08755971491336823,-0.4488108158111572,0.532119870185852
1761817902090811400,11.656811279296875,0.038261134177446365,-0.3086419999599457,0.4347597062587738
1761817902100739600,11.666739501953124,-0.02260560728609562,-0.11658906191587448,0.2760562598705292
1761817902110666500,11.67666650390625,-0.07209086418151855,0.032263267785310745,0.11943444609642029
1761817902120594400,11.686594482421874,-0.09126675873994827,0.1442251056432724,-0.0027779829688370228
1761817902130522400,11.6965224609375,-0.07897786796092987,0.2362988293170929,-0.08563292026519775
1761817902140450600,11.706450439453125,-0.049453094601631165,0.32316720485687256,-0.1668628305196762
1761817902150377500,11.71637744140625,0.009976143948733807,0.40140315890312195,-0.2690938711166382
1761817902160305400,11.726305419921875,0.10053770989179611,0.4351826608181,-0.41572338342666626
1761817902170233600,11.736233642578124,0.2207021862268448,0.3449352979660034,-0.6577016115188599
1761817902180161500,11.74616162109375,0.35097241401672363,0.05901717767119408,-1.0418294668197632
1761817902190088400,11.75608837890625,0.48241594433784485,-0.2641696631908417,-1.5460032224655151
1761817902200016400,11.766016357421876,0.6043858528137207,-0.5378997921943665,-1.914713978767395
1761817902209944600,11.775944580078125,0.59285569190979,-0.6523702144622803,-0.8733658194541931
1761817902219872500,11.78587255859375,0.468335896730423,-0.2617289423942566,0.6424843668937683
1761817902229799400,11.79579931640625,0.18491002917289734,0.23953576385974884,0.9274042248725891
1761817902239727600,11.8057275390625,0.06580467522144318,0.3429745137691498,0.9041687250137329
1761817902249655600,11.815655517578126,0.07539844512939453,0.36091092228889465,0.8600651621818542
1761817902259582500,11.82558251953125,0.013670670799911022,0.3442113697528839,0.8558318614959717
1761817902269510400,11.835510498046874,-0.1486407369375229,0.2707432806491852,0.8081884384155273
1761817902279438600,11.8454384765625,-0.27012693881988525,0.2970273792743683,0.6833077073097229
1761817902289366500,11.855366455078125,-0.3037908971309662,0.44184473156929016,0.5626547932624817
1761817902299293400,11.86529345703125,-0.26121944189071655,0.6375051140785217,0.5162422060966492
1761817902309221600,11.8752216796875,-0.20968382060527802,0.8586340546607971,0.537702739238739
1761817902319149600,11.885149658203124,-0.13343146443367004,0.915178120136261,0.6261424422264099
1761817902329077500,11.895077392578125,-0.060764722526073456,0.7575775980949402,0.7463186383247375
1761817902339004400,11.90500439453125,-0.04537739232182503,0.48254355788230896,0.8717156648635864
1761817902348932600,11.9149326171875,-0.06809229403734207,0.1482641100883484,0.955888032913208
1761817902358860500,11.924860595703125,-0.09399032592773438,-0.11867248266935349,0.9412031769752502
1761817902368788500,11.93478857421875,-0.06017909571528435,-0.3005645275115967,0.8537628054618835
1761817902378715400,11.94471533203125,0.012569728307425976,-0.4754009544849396,0.7315024733543396
1761817902388643600,11.9546435546875,0.08254402130842209,-0.6707749366760254,0.5746268033981323
1761817902398571500,11.964571533203125,0.11454245448112488,-0.7784209251403809,0.39333492517471313
1761817902408499500,11.97449951171875,0.09373784065246582,-0.7792486548423767,0.18064184486865997
1761817902418426600,11.984426513671876,0.042519111186265945,-0.7008771896362305,-0.06261388212442398
1761817902428354600,11.9943544921875,-0.011086591519415379,-0.46981602907180786,-0.3145206868648529
1761817902438282500,12.004282470703124,-0.07097481936216354,-0.14378224313259125,-0.4999817907810211
1761817902448210400,12.01421044921875,-0.13415779173374176,0.14695985615253448,-0.549721360206604
1761817902458137600,12.0241376953125,-0.17463570833206177,0.31482741236686707,-0.4937305748462677
1761817902468065500,12.0340654296875,-0.1516323834657669,0.32065603137016296,-0.43037235736846924
1761817902477993500,12.043993408203125,-0.10203161835670471,0.17882974445819855,-0.43316882848739624
1761817902487921400,12.05392138671875,-0.05368459224700928,-0.10609200596809387,-0.5230547785758972
1761817902497848600,12.0638486328125,-0.02719612792134285,-0.42436984181404114,-0.7646584510803223
1761817902507776500,12.073776611328125,-0.02990083396434784,-0.6113458871841431,-1.1661065816879272
1761817902517704400,12.083704345703126,-0.07674676924943924,-0.6926912665367126,-1.8325929641723633
1761817902527632400,12.09363232421875,-0.06455428153276443,-0.34329256415367126,-2.862703561782837
1761817902537559600,12.1035595703125,-0.02130274288356304,1.0141581296920776,-1.7991629838943481
1761817902547487500,12.113487548828125,0.0641261413693428,1.5583313703536987,0.26361533999443054
1761817902557415400,12.12341552734375,-0.047163985669612885,1.5424972772598267,0.5578469038009644
1761817902567342600,12.133342529296876,-0.11333981156349182,0.9255830645561218,0.38855743408203125
1761817902577270500,12.1432705078125,-0.0928913950920105,0.16570191085338593,0.23069365322589874
1761817902587198500,12.153198486328124,-0.10777314007282257,-0.4752197265625,0.10882288217544556
1761817902597126400,12.16312646484375,-0.12276893109083176,-0.8009780049324036,-0.004219479858875275
1761817902607053600,12.173053466796874,-0.09628964960575104,-0.7698438167572021,-0.06681175529956818
1761817902616981500,12.1829814453125,-0.06967790424823761,-0.48544350266456604,0.03430628776550293
1761817902626909400,12.192909423828125,-0.11424829810857773,-0.10460402816534042,0.28142499923706055
1761817902636837400,12.20283740234375,-0.19457201659679413,0.21277876198291779,0.5697284936904907
1761817902646764500,12.2127646484375,-0.21709516644477844,0.3853257894515991,0.8332732915878296
1761817902656692500,12.2226923828125,-0.21121478080749512,0.3368050754070282,1.0847808122634888
1761817902666620400,12.232620361328125,-0.20785173773765564,0.15086959302425385,1.37003755569458
1761817902676548600,12.242548583984375,-0.1827683001756668,-0.04833473265171051,1.5863593816757202
1761817902686475500,12.2524755859375,-0.16102172434329987,-0.21996961534023285,1.6543692350387573
1761817902696403500,12.262403564453125,-0.13705751299858093,-0.28652331233024597,1.5502244234085083
1761817902706331400,12.272331298828124,-0.12417794018983841,-0.24073772132396698,1.3304576873779297
1761817902716259600,12.282259521484375,-0.11264899373054504,-0.12693500518798828,1.050114631652832
1761817902726186500,12.2921865234375,-0.08486476540565491,-0.008775614202022552,0.7605195641517639
1761817902736114400,12.302114501953126,-0.026336057111620903,0.0538015216588974,0.4719482958316803
1761817902746042400,12.31204248046875,0.06637683510780334,0.06091216206550598,0.15936747193336487
1761817902755970600,12.321970458984374,0.12401920557022095,0.0982791855931282,-0.18482400476932526
1761817902765897500,12.3318974609375,0.14642810821533203,0.15468120574951172,-0.5735805630683899
1761817902775825400,12.341825439453125,0.13327738642692566,0.0516040176153183,-0.9862613677978516
1761817902785753600,12.351753662109376,0.11514311283826828,-0.15605568885803223,-1.397476077079773
1761817902795681500,12.361681640625,0.10099031776189804,-0.42562130093574524,-1.7853182554244995
1761817902805608400,12.3716083984375,0.09401656687259674,-0.7875899076461792,-2.1807732582092285
1761817902815536400,12.381536376953125,0.10799780488014221,-1.0934690237045288,-2.602780818939209
